"rt","response_timestamp","stimulus","response","trial_type","trial_index","time_elapsed","internal_node_id","run_id","condition","recorded_at","source_code_version","ip","user_agent","device","browser","browser_version","platform","platform_version","referer","accept_language","PROLIFIC_PID","STUDY_ID","SESSION_ID","prolific_id","realtime","view_history","question_order","consent","success","question_id","eventType","responses","item_order","radio_event_ids","radio_event_times","key_event_times","mouse_event_times","straightlining","zigzagging","honeypot","which_type","canvas_config","goals_layout","control_level","trial_number","tutorial_trial_number","trial_start_time","phase1_start_time","phase2_start_time","phase3_start_time","goal_1_value","goal_1_distance","goal_2_value","goal_2_distance","goal_selected","outcome","outcome_total","participant_final_score","participant_initial_score","participant_final_score_prop","goal_choice_rt","allocated_time","allocated_time_remaining","goal_direction","counts","mouse_movements","key_presses","correct","slider_start"
"11770","1751451620003","<p style='font-size:40px;line-height:1.25'><strong>Welcome to the experiment!</strong></p><p style='font-size:1.1em;line-height:1.25'>Thank you for your interest in our experiment! Before you begin, it is important that we obtain your informed consent to participate in the study.</p><p style='font-size:1.1em;line-height:1.25'>On the next screen will be an <strong>information sheet</strong> for you to read. To participate in the study we need you to read this information sheet and the following consent form carefully. If you agree with all the statements, please click the <strong>I agree</strong> button.</p><p style='font-size:1.1em;line-height:1.25'>Press <strong>Next</strong> to read the information sheet.</p>","0","custom-html-button-response","0","11776","0.0-0.0","124","1","2025-07-02 10:20:04","80fe4187154257d5fb01684ea91b68b9","149.126.91.110","Mozilla/5.0 (Windows NT 10.0; Win64; x64) AppleWebKit/537.36 (KHTML, like Gecko) Chrome/133.0.0.0 Safari/537.36","WebKit","Chrome","133.0.0.0","Windows","10.0","https://app.prolific.com/","en,en-US;q=0.9","67a4f6bc5dee527c67382c62","683db6dfa200031b80f2a654","68650770c36fbfc635b12cd3","67a4f6bc5dee527c67382c62","2025-07-02T10:20:20.005Z","","","","","","","","","","","","","","","","","","","","","","","","","","","","","","","","","","","","","","","","","","","",""
"9173","","","","instructions","1","20951","0.0-1.0","124","1","2025-07-02 10:20:04","80fe4187154257d5fb01684ea91b68b9","149.126.91.110","Mozilla/5.0 (Windows NT 10.0; Win64; x64) AppleWebKit/537.36 (KHTML, like Gecko) Chrome/133.0.0.0 Safari/537.36","WebKit","Chrome","133.0.0.0","Windows","10.0","https://app.prolific.com/","en,en-US;q=0.9","67a4f6bc5dee527c67382c62","683db6dfa200031b80f2a654","68650770c36fbfc635b12cd3","67a4f6bc5dee527c67382c62","","[{""page_index"":0,""viewing_time"":7012},{""page_index"":1,""viewing_time"":2160}]","","","","","","","","","","","","","","","","","","","","","","","","","","","","","","","","","","","","","","","","","","",""
"3825","","","{""Q0"":"""",""Q1"":"""",""Q2"":"""",""Q3"":"""",""Q4"":"""",""Q5"":"""",""Q6"":""I agree""}","survey-multi-choice","2","24779","0.0-2.0","124","1","2025-07-02 10:20:04","80fe4187154257d5fb01684ea91b68b9","149.126.91.110","Mozilla/5.0 (Windows NT 10.0; Win64; x64) AppleWebKit/537.36 (KHTML, like Gecko) Chrome/133.0.0.0 Safari/537.36","WebKit","Chrome","133.0.0.0","Windows","10.0","https://app.prolific.com/","en,en-US;q=0.9","67a4f6bc5dee527c67382c62","683db6dfa200031b80f2a654","68650770c36fbfc635b12cd3","67a4f6bc5dee527c67382c62","","","[0,1,2,3,4,5,6]","true","","","","","","","","","","","","","","","","","","","","","","","","","","","","","","","","","","","","","","","","",""
"16137","","","","fullscreen","3","41928","0.0-4.0","124","1","2025-07-02 10:20:04","80fe4187154257d5fb01684ea91b68b9","149.126.91.110","Mozilla/5.0 (Windows NT 10.0; Win64; x64) AppleWebKit/537.36 (KHTML, like Gecko) Chrome/133.0.0.0 Safari/537.36","WebKit","Chrome","133.0.0.0","Windows","10.0","https://app.prolific.com/","en,en-US;q=0.9","67a4f6bc5dee527c67382c62","683db6dfa200031b80f2a654","68650770c36fbfc635b12cd3","67a4f6bc5dee527c67382c62","","","","","true","","","","","","","","","","","","","","","","","","","","","","","","","","","","","","","","","","","","","","","",""
"11444","1751451661603"," <p style='font-size:1.1em;line-height:1.25'>Thank you for completing the consent form and closing all other tabs.</p><p style='font-size:1.1em;line-height:1.25'>We will now invite you to fill in some demographic information and questionnaires, before starting the game.<br>This will take about 5 minutes.<br></p><p style='font-size:1.1em;line-height:1.25'>Press the <strong>Next</strong> button to continue.</p>","0","custom-html-button-response","4","53375","0.0-5.0","124","1","2025-07-02 10:20:04","80fe4187154257d5fb01684ea91b68b9","149.126.91.110","Mozilla/5.0 (Windows NT 10.0; Win64; x64) AppleWebKit/537.36 (KHTML, like Gecko) Chrome/133.0.0.0 Safari/537.36","WebKit","Chrome","133.0.0.0","Windows","10.0","https://app.prolific.com/","en,en-US;q=0.9","67a4f6bc5dee527c67382c62","683db6dfa200031b80f2a654","68650770c36fbfc635b12cd3","67a4f6bc5dee527c67382c62","2025-07-02T10:21:01.604Z","","","","","","","","","","","","","","","","","","","","","","","","","","","","","","","","","","","","","","","","","","","",""
"4641","","","{""age"":""37""}","survey-text","5","58023","0.0-6.0-0.0","124","1","2025-07-02 10:20:04","80fe4187154257d5fb01684ea91b68b9","149.126.91.110","Mozilla/5.0 (Windows NT 10.0; Win64; x64) AppleWebKit/537.36 (KHTML, like Gecko) Chrome/133.0.0.0 Safari/537.36","WebKit","Chrome","133.0.0.0","Windows","10.0","https://app.prolific.com/","en,en-US;q=0.9","67a4f6bc5dee527c67382c62","683db6dfa200031b80f2a654","68650770c36fbfc635b12cd3","67a4f6bc5dee527c67382c62","","","","","","0","demographics","","","","","","","","","","","","","","","","","","","","","","","","","","","","","","","","","","","","","",""
"2478","","","{""gender_identity"":""male/man""}","survey-multi-choice","6","60503","0.0-6.0-1.0","124","1","2025-07-02 10:20:04","80fe4187154257d5fb01684ea91b68b9","149.126.91.110","Mozilla/5.0 (Windows NT 10.0; Win64; x64) AppleWebKit/537.36 (KHTML, like Gecko) Chrome/133.0.0.0 Safari/537.36","WebKit","Chrome","133.0.0.0","Windows","10.0","https://app.prolific.com/","en,en-US;q=0.9","67a4f6bc5dee527c67382c62","683db6dfa200031b80f2a654","68650770c36fbfc635b12cd3","67a4f6bc5dee527c67382c62","","","[0]","","","1","demographics","","","","","","","","","","","","","","","","","","","","","","","","","","","","","","","","","","","","","",""
"4431","","","{""assigned_sex"":""male""}","survey-multi-choice","7","64935","0.0-6.0-2.0","124","1","2025-07-02 10:20:04","80fe4187154257d5fb01684ea91b68b9","149.126.91.110","Mozilla/5.0 (Windows NT 10.0; Win64; x64) AppleWebKit/537.36 (KHTML, like Gecko) Chrome/133.0.0.0 Safari/537.36","WebKit","Chrome","133.0.0.0","Windows","10.0","https://app.prolific.com/","en,en-US;q=0.9","67a4f6bc5dee527c67382c62","683db6dfa200031b80f2a654","68650770c36fbfc635b12cd3","67a4f6bc5dee527c67382c62","","","[0]","","","2","demographics","","","","","","","","","","","","","","","","","","","","","","","","","","","","","","","","","","","","","",""
"4278","","","{""menstrual_cycle"":""No""}","survey-multi-choice","8","69215","0.0-6.0-3.0","124","1","2025-07-02 10:20:04","80fe4187154257d5fb01684ea91b68b9","149.126.91.110","Mozilla/5.0 (Windows NT 10.0; Win64; x64) AppleWebKit/537.36 (KHTML, like Gecko) Chrome/133.0.0.0 Safari/537.36","WebKit","Chrome","133.0.0.0","Windows","10.0","https://app.prolific.com/","en,en-US;q=0.9","67a4f6bc5dee527c67382c62","683db6dfa200031b80f2a654","68650770c36fbfc635b12cd3","67a4f6bc5dee527c67382c62","","","[0]","","","4","demographics","","","","","","","","","","","","","","","","","","","","","","","","","","","","","","","","","","","","","",""
"7087","","","{""education"":""Master's Degree (e.g., MSc)""}","survey-multi-choice","9","76303","0.0-6.0-4.0","124","1","2025-07-02 10:20:04","80fe4187154257d5fb01684ea91b68b9","149.126.91.110","Mozilla/5.0 (Windows NT 10.0; Win64; x64) AppleWebKit/537.36 (KHTML, like Gecko) Chrome/133.0.0.0 Safari/537.36","WebKit","Chrome","133.0.0.0","Windows","10.0","https://app.prolific.com/","en,en-US;q=0.9","67a4f6bc5dee527c67382c62","683db6dfa200031b80f2a654","68650770c36fbfc635b12cd3","67a4f6bc5dee527c67382c62","","","[0]","","","5","demographics","","","","","","","","","","","","","","","","","","","","","","","","","","","","","","","","","","","","","",""
"5190","","","{""education"":""Bachelor's Degree (e.g., BA)""}","survey-multi-choice","10","81495","0.0-6.0-5.0","124","1","2025-07-02 10:20:04","80fe4187154257d5fb01684ea91b68b9","149.126.91.110","Mozilla/5.0 (Windows NT 10.0; Win64; x64) AppleWebKit/537.36 (KHTML, like Gecko) Chrome/133.0.0.0 Safari/537.36","WebKit","Chrome","133.0.0.0","Windows","10.0","https://app.prolific.com/","en,en-US;q=0.9","67a4f6bc5dee527c67382c62","683db6dfa200031b80f2a654","68650770c36fbfc635b12cd3","67a4f6bc5dee527c67382c62","2025-07-02T10:21:29.724Z","","[0]","","","6","demographics","","","","","","","","","","","","","","","","","","","","","","","","","","","","","","","","","","","","","",""
"207517","","","{""mental_health_condition"":""anxiety, stress, depression"",""mental_health_treatment"":""Cognitive Behavioral Therapy"",""psychiatric_medication"":""Citalopram, 20mg per day.""}","survey-text","11","289015","0.0-7.0-0.0","124","1","2025-07-02 10:20:04","80fe4187154257d5fb01684ea91b68b9","149.126.91.110","Mozilla/5.0 (Windows NT 10.0; Win64; x64) AppleWebKit/537.36 (KHTML, like Gecko) Chrome/133.0.0.0 Safari/537.36","WebKit","Chrome","133.0.0.0","Windows","10.0","https://app.prolific.com/","en,en-US;q=0.9","67a4f6bc5dee527c67382c62","683db6dfa200031b80f2a654","68650770c36fbfc635b12cd3","67a4f6bc5dee527c67382c62","2025-07-02T10:24:57.244Z","","","","","1","mental_health","","","","","","","","","","","","","","","","","","","","","","","","","","","","","","","","","","","","","",""
"19956","","","{""depression_history"":[""Yes""]}","survey-multi-select","12","308977","0.0-7.0-1.0","124","1","2025-07-02 10:20:04","80fe4187154257d5fb01684ea91b68b9","149.126.91.110","Mozilla/5.0 (Windows NT 10.0; Win64; x64) AppleWebKit/537.36 (KHTML, like Gecko) Chrome/133.0.0.0 Safari/537.36","WebKit","Chrome","133.0.0.0","Windows","10.0","https://app.prolific.com/","en,en-US;q=0.9","67a4f6bc5dee527c67382c62","683db6dfa200031b80f2a654","68650770c36fbfc635b12cd3","67a4f6bc5dee527c67382c62","","","[0]","","","","mental_health","","","","","","","","","","","","","","","","","","","","","","","","","","","","","","","","","","","","","",""
"14228","","","{""depression_episodes"":""3-5"",""depression_recent"":""Within the past year""}","survey-multi-choice","13","323207","0.0-7.0-2.0-0.0","124","1","2025-07-02 10:20:04","80fe4187154257d5fb01684ea91b68b9","149.126.91.110","Mozilla/5.0 (Windows NT 10.0; Win64; x64) AppleWebKit/537.36 (KHTML, like Gecko) Chrome/133.0.0.0 Safari/537.36","WebKit","Chrome","133.0.0.0","Windows","10.0","https://app.prolific.com/","en,en-US;q=0.9","67a4f6bc5dee527c67382c62","683db6dfa200031b80f2a654","68650770c36fbfc635b12cd3","67a4f6bc5dee527c67382c62","2025-07-02T10:25:31.436Z","","[0,1]","","","3","mental_health","","","","","","","","","","","","","","","","","","","","","","","","","","","","","","","","","","","","","",""
"67494.79999999702","","","","survey-template","14","390706","0.0-7.0-3.0","124","1","2025-07-02 10:20:04","80fe4187154257d5fb01684ea91b68b9","149.126.91.110","Mozilla/5.0 (Windows NT 10.0; Win64; x64) AppleWebKit/537.36 (KHTML, like Gecko) Chrome/133.0.0.0 Safari/537.36","WebKit","Chrome","133.0.0.0","Windows","10.0","https://app.prolific.com/","en,en-US;q=0.9","67a4f6bc5dee527c67382c62","683db6dfa200031b80f2a654","68650770c36fbfc635b12cd3","67a4f6bc5dee527c67382c62","2025-07-02T10:26:38.935Z","","","","","","ius","{""Q01"":""3"",""Q02"":""4"",""Q03"":""3"",""Q04"":""4"",""Q05"":""3"",""Q06"":""2"",""Q07"":""4"",""Q08"":""0"",""Q09"":""3"",""Q10"":""3"",""Q11"":""4"",""Q12"":""3"",""Q13"":""2""}","[0,1,2,3,4,5,6,7,8,9,10,11,12]","[""Q01"",""Q01"",""Q02"",""Q02"",""Q03"",""Q04"",""Q05"",""Q06"",""Q07"",""Q08"",""Q09"",""Q10"",""Q11"",""Q12"",""Q13""]","[9612.099999997765,9627,13563.699999999255,13595.099999997765,18236,24956.099999997765,28755.599999997765,33940.099999997765,39187.89999999851,40292,46812.599999997765,52156.099999997765,56060.099999997765,59939.89999999851,63315.79999999702]","[]","[9612.099999997765,9627,13563.699999999255,13595.099999997765,17388.099999997765,18236,24956.099999997765,28755.599999997765,33940.099999997765,38252.099999997765,39187.89999999851,40292,46812.599999997765,52156.099999997765,56060.099999997765,59939.89999999851,63315.79999999702,67492.09999999776]","0.46153846153846156","0.75","0","","","","","","","","","","","","","","","","","","","","","","","","","","","","",""
"4467","1751452003403","<p style='font-size:1.1em;line-height:1.25'>In the following, we will ask you a few questions relating to your experiences over the past month.<br></p><p style='font-size:1.1em;line-height:1.25'>Press the <strong>Next</strong> button to continue.</p>","0","custom-html-button-response","15","395175","0.0-7.0-4.0","124","1","2025-07-02 10:20:04","80fe4187154257d5fb01684ea91b68b9","149.126.91.110","Mozilla/5.0 (Windows NT 10.0; Win64; x64) AppleWebKit/537.36 (KHTML, like Gecko) Chrome/133.0.0.0 Safari/537.36","WebKit","Chrome","133.0.0.0","Windows","10.0","https://app.prolific.com/","en,en-US;q=0.9","67a4f6bc5dee527c67382c62","683db6dfa200031b80f2a654","68650770c36fbfc635b12cd3","67a4f6bc5dee527c67382c62","2025-07-02T10:26:43.404Z","","","","","","","","","","","","","","","","","","","","","","","","","","","","","","","","","","","","","","","","","","","",""
"57327.5","","","","survey-template","16","452506","0.0-7.0-5.0","124","1","2025-07-02 10:20:04","80fe4187154257d5fb01684ea91b68b9","149.126.91.110","Mozilla/5.0 (Windows NT 10.0; Win64; x64) AppleWebKit/537.36 (KHTML, like Gecko) Chrome/133.0.0.0 Safari/537.36","WebKit","Chrome","133.0.0.0","Windows","10.0","https://app.prolific.com/","en,en-US;q=0.9","67a4f6bc5dee527c67382c62","683db6dfa200031b80f2a654","68650770c36fbfc635b12cd3","67a4f6bc5dee527c67382c62","2025-07-02T10:27:40.735Z","","","","","","pss","{""Q01"":""3"",""Q02"":""2"",""Q03"":""2"",""Q04"":""1"",""Q05"":""1"",""Q06"":""2"",""Q07"":""1"",""Q08"":""2"",""Q09"":""1"",""Q10"":""2""}","[0,1,2,3,4,5,6,7,8,9]","[""Q01"",""Q02"",""Q03"",""Q04"",""Q04"",""Q05"",""Q06"",""Q07"",""Q08"",""Q09"",""Q10""]","[10380.300000000745,18052.60000000149,21558.10000000149,27284.300000000745,28004.60000000149,31924.199999999255,35732.5,39892.5,44740.60000000149,51700.60000000149,56396.60000000149]","[]","[0,10380.300000000745,18052.60000000149,21558.10000000149,27284.300000000745,28004.60000000149,31924.199999999255,35732.5,39892.5,44740.60000000149,51700.60000000149,56396.60000000149,57324.699999999255]","0.5","0.7777777777777778","0","","","","","","","","","","","","","","","","","","","","","","","","","","","","",""
"5754","1751452066490","<p style='font-size:1.1em;line-height:1.25'>Thank you for your answers! Now we will ask you a few more questions relating to your feelings in the last 24 hours.<br></p><p style='font-size:1.1em;line-height:1.25'>Press the <strong>Next</strong> button to continue.</p>","0","custom-html-button-response","17","458262","0.0-7.0-6.0","124","1","2025-07-02 10:20:04","80fe4187154257d5fb01684ea91b68b9","149.126.91.110","Mozilla/5.0 (Windows NT 10.0; Win64; x64) AppleWebKit/537.36 (KHTML, like Gecko) Chrome/133.0.0.0 Safari/537.36","WebKit","Chrome","133.0.0.0","Windows","10.0","https://app.prolific.com/","en,en-US;q=0.9","67a4f6bc5dee527c67382c62","683db6dfa200031b80f2a654","68650770c36fbfc635b12cd3","67a4f6bc5dee527c67382c62","2025-07-02T10:27:46.491Z","","","","","","","","","","","","","","","","","","","","","","","","","","","","","","","","","","","","","","","","","","","",""
"72690","","","","survey-template","18","530957","0.0-7.0-7.0","124","1","2025-07-02 10:20:04","80fe4187154257d5fb01684ea91b68b9","149.126.91.110","Mozilla/5.0 (Windows NT 10.0; Win64; x64) AppleWebKit/537.36 (KHTML, like Gecko) Chrome/133.0.0.0 Safari/537.36","WebKit","Chrome","133.0.0.0","Windows","10.0","https://app.prolific.com/","en,en-US;q=0.9","67a4f6bc5dee527c67382c62","683db6dfa200031b80f2a654","68650770c36fbfc635b12cd3","67a4f6bc5dee527c67382c62","2025-07-02T10:28:59.187Z","","","","","","drsp","{""Q01"":""1"",""Q02"":""1"",""Q03"":""0"",""Q04"":""2"",""Q05"":""0"",""Q06"":""2"",""Q07"":""0"",""Q08"":""0"",""Q09"":""2"",""Q10"":""1"",""Q11"":""0"",""Q12"":""3"",""Q13"":""3"",""Q14"":""2"",""Q15"":""4"",""Q16"":""3"",""Q17"":""2"",""Q18"":""0"",""Q19"":""1"",""Q20"":""0"",""Q21"":""0""}","[0,1,2,3,4,5,6,7,8,9,10,11,12,13,14,15,16,17,18,19,20]","[""Q01"",""Q02"",""Q03"",""Q04"",""Q05"",""Q06"",""Q07"",""Q08"",""Q09"",""Q10"",""Q10"",""Q11"",""Q12"",""Q13"",""Q14"",""Q15"",""Q16"",""Q17"",""Q18"",""Q19"",""Q19"",""Q20"",""Q21""]","[6300.900000002235,7917.300000000745,11781,15245.10000000149,17717.199999999255,21308.900000002235,24189.300000000745,25693.10000000149,27644.900000002235,29741.10000000149,30461.400000002235,32885.199999999255,35453.300000000745,37284.900000002235,41228.900000002235,44516.900000002235,47405,49453,54260.800000000745,61684.5,63093,67061,71532.90000000224]","[]","[0,6300.900000002235,7917.300000000745,11781,13413,15245.10000000149,16413.300000000745,17717.199999999255,21308.900000002235,24189.300000000745,25693.10000000149,27644.900000002235,29741.10000000149,30461.400000002235,32885.199999999255,35453.300000000745,37284.900000002235,41228.900000002235,44516.900000002235,47405,49453,54260.800000000745,61684.5,63093,67061,71532.90000000224,72685.10000000149]","0.38095238095238093","0.4","0","","","","","","","","","","","","","","","","","","","","","","","","","","","","",""
"14263.400000002235","","","","survey-template","19","545224","0.0-7.0-8.0","124","1","2025-07-02 10:20:04","80fe4187154257d5fb01684ea91b68b9","149.126.91.110","Mozilla/5.0 (Windows NT 10.0; Win64; x64) AppleWebKit/537.36 (KHTML, like Gecko) Chrome/133.0.0.0 Safari/537.36","WebKit","Chrome","133.0.0.0","Windows","10.0","https://app.prolific.com/","en,en-US;q=0.9","67a4f6bc5dee527c67382c62","683db6dfa200031b80f2a654","68650770c36fbfc635b12cd3","67a4f6bc5dee527c67382c62","2025-07-02T10:29:13.453Z","","","","","","stress","{""Q01"":""1"",""Q02"":""2"",""Q03"":""1""}","[0,1,2]","[""Q01"",""Q02"",""Q03""]","[5742.300000000745,9246.20000000298,13173.900000002235]","[]","[5742.300000000745,9246.20000000298,13173.900000002235,14261.800000000745]","0.6666666666666666","0","0","","","","","","","","","","","","","","","","","","","","","","","","","","","","",""
"108949","","","","instructions","20","654174","0.0-8.0-0.0","124","1","2025-07-02 10:20:04","80fe4187154257d5fb01684ea91b68b9","149.126.91.110","Mozilla/5.0 (Windows NT 10.0; Win64; x64) AppleWebKit/537.36 (KHTML, like Gecko) Chrome/133.0.0.0 Safari/537.36","WebKit","Chrome","133.0.0.0","Windows","10.0","https://app.prolific.com/","en,en-US;q=0.9","67a4f6bc5dee527c67382c62","683db6dfa200031b80f2a654","68650770c36fbfc635b12cd3","67a4f6bc5dee527c67382c62","","[{""page_index"":0,""viewing_time"":26860},{""page_index"":1,""viewing_time"":38512},{""page_index"":2,""viewing_time"":9184},{""page_index"":3,""viewing_time"":34392}]","","","","","","","","","","","","","","","","","","","","","","","","","","","","","","","","","","","","","","","","","","",""
"","","","","ctl-task-cpt","21","705397","0.0-8.0-1.0","124","1","2025-07-02 10:20:04","80fe4187154257d5fb01684ea91b68b9","149.126.91.110","Mozilla/5.0 (Windows NT 10.0; Win64; x64) AppleWebKit/537.36 (KHTML, like Gecko) Chrome/133.0.0.0 Safari/537.36","WebKit","Chrome","133.0.0.0","Windows","10.0","https://app.prolific.com/","en,en-US;q=0.9","67a4f6bc5dee527c67382c62","683db6dfa200031b80f2a654","68650770c36fbfc635b12cd3","67a4f6bc5dee527c67382c62","","","","","","","","","","","","","","","","","win-only","2","g1:SE,g2:NW","1","0","1","664387.6","2658.8","6668.3","48215.8","2","4","4","6","2","-4","-8","0","0","0","4009.5","4000","-2600","[""left"",""up""]","{""num_key_presses"":10,""num_perfect"":6,""num_errors"":4,""num_randdir"":0,""num_randdir_good_moves"":0,""num_whilered"":0,""num_whileblue"":0,""num_blue"":4,""num_good_moves"":5}","[299.22232142857143,297.12857142857143,3,299.22232142857143,297.12857142857143,103.3,299.22232142857143,297.12857142857143,208.1,299.22232142857143,297.12857142857143,313.5,299.22232142857143,298.12857142857143,415.6,330.22232142857143,353.12857142857143,523.1,340.22232142857143,369.12857142857143,623.2,340.22232142857143,370.12857142857143,730.1,340.22232142857143,370.12857142857143,837.5,340.22232142857143,370.12857142857143,942.5,340.22232142857143,370.12857142857143,1043.4,340.22232142857143,370.12857142857143,1146.7,340.22232142857143,370.12857142857143,1246.7,340.22232142857143,370.12857142857143,1350.2,340.22232142857143,370.12857142857143,1453.8,340.22232142857143,370.12857142857143,1556.8,340.22232142857143,370.12857142857143,1657,340.22232142857143,370.12857142857143,1759.9,340.22232142857143,370.12857142857143,1862,340.22232142857143,370.12857142857143,1967,340.22232142857143,370.12857142857143,2067.2,340.22232142857143,370.12857142857143,2168.4,340.22232142857143,370.12857142857143,2271.8,340.22232142857143,370.12857142857143,2375.6,340.22232142857143,370.12857142857143,2483.8,340.22232142857143,370.12857142857143,2587.5,340.22232142857143,370.12857142857143,2690.7,340.22232142857143,370.12857142857143,2803.8,340.22232142857143,370.12857142857143,2910.1,340.22232142857143,370.12857142857143,3012.9,340.22232142857143,370.12857142857143,3114,340.22232142857143,370.12857142857143,3214.6,340.22232142857143,370.12857142857143,3319,340.22232142857143,370.12857142857143,3423,340.22232142857143,370.12857142857143,3523.6,340.22232142857143,370.12857142857143,3628.5,340.22232142857143,370.12857142857143,3735.9,340.22232142857143,370.12857142857143,3836.1,340.22232142857143,370.12857142857143,3938.7]","[1051.7,1051.7,1000,0.1,51.7,""smooth"",""right"",""right"",""bad_move"",1779.5,725.7,2954.5,1054,-2228.9,""error"",""-"",""-"",""no_move"",4442.5,2661.9,2273.3,2785.9,-616.7,""error"",""-"",""-"",""no_move"",6164.9,1720.9,2738.4,5445,-2018.5,""error"",""-"",""-"",""no_move"",10138.1,3972.6,2185,7167.9,785.2,""smooth"",""left"",""left"",""good_move"",11050.3,908.6,2281.8,10141.7,-1373.2,""error"",""-"",""-"",""no_move"",21499.5,10447.2,2224.5,18703.6,571.4,""smooth"",""left"",""left"",""good_move"",25972.7,4472.1,3079.8,21500.6,1392.3,""smooth"",""left"",""left"",""good_move"",29000.5,3027.2,2240.1,25973.4,787,""smooth"",""up"",""up"",""good_move"",38979.3,9977.4,2780.2,35812.9,386.2,""smooth"",""up"",""up"",""good_move""]","",""
"1624","","","","instructions","22","707022","0.0-8.0-2.0","124","1","2025-07-02 10:20:04","80fe4187154257d5fb01684ea91b68b9","149.126.91.110","Mozilla/5.0 (Windows NT 10.0; Win64; x64) AppleWebKit/537.36 (KHTML, like Gecko) Chrome/133.0.0.0 Safari/537.36","WebKit","Chrome","133.0.0.0","Windows","10.0","https://app.prolific.com/","en,en-US;q=0.9","67a4f6bc5dee527c67382c62","683db6dfa200031b80f2a654","68650770c36fbfc635b12cd3","67a4f6bc5dee527c67382c62","","[{""page_index"":0,""viewing_time"":1623}]","","","","","","","","","","","","","","","","","","","","","","","","","","","","","","","","","","","","","","","","","","",""
"","","","","ctl-task-cpt","23","730641","0.0-8.0-3.0","124","1","2025-07-02 10:20:04","80fe4187154257d5fb01684ea91b68b9","149.126.91.110","Mozilla/5.0 (Windows NT 10.0; Win64; x64) AppleWebKit/537.36 (KHTML, like Gecko) Chrome/133.0.0.0 Safari/537.36","WebKit","Chrome","133.0.0.0","Windows","10.0","https://app.prolific.com/","en,en-US;q=0.9","67a4f6bc5dee527c67382c62","683db6dfa200031b80f2a654","68650770c36fbfc635b12cd3","67a4f6bc5dee527c67382c62","","","","","","","","","","","","","","","","","win-only","2","g1:SE,g2:NW","0.35","0","3","717231.2","2215.1","6216.8","20607.9","2","4","8","6","1","2","2","2","0","0.015151515151515152","4001.7","4000","2630","[""down"",""right""]","{""num_key_presses"":4,""num_perfect"":2,""num_errors"":0,""num_randdir"":2,""num_randdir_good_moves"":2,""num_whilered"":0,""num_whileblue"":0,""num_blue"":1,""num_good_moves"":4}","[289.22232142857143,292.12857142857143,1.1,289.22232142857143,292.12857142857143,102,289.22232142857143,292.12857142857143,206.1,296.22232142857143,312.12857142857143,306.7,302.22232142857143,321.12857142857143,407.7,302.22232142857143,321.12857142857143,509.9,302.22232142857143,321.12857142857143,611.7,302.22232142857143,321.12857142857143,715.6,302.22232142857143,321.12857142857143,816.6,302.22232142857143,321.12857142857143,919.6,302.22232142857143,321.12857142857143,1020.8,302.22232142857143,321.12857142857143,1126.1,302.22232142857143,321.12857142857143,1226.2,302.22232142857143,321.12857142857143,1327.1,302.22232142857143,321.12857142857143,1430.5,302.22232142857143,321.12857142857143,1530.7,302.22232142857143,321.12857142857143,1641,302.22232142857143,321.12857142857143,1743.4,302.22232142857143,321.12857142857143,1846.7,302.22232142857143,321.12857142857143,1949.3,302.22232142857143,321.12857142857143,2049.9,302.22232142857143,321.12857142857143,2153.1,302.22232142857143,321.12857142857143,2257.3,302.22232142857143,321.12857142857143,2357.6,302.22232142857143,321.12857142857143,2460.7,302.22232142857143,321.12857142857143,2561.4,302.22232142857143,321.12857142857143,2669.7,302.22232142857143,321.12857142857143,2772.6,302.22232142857143,321.12857142857143,2879,302.22232142857143,321.12857142857143,2980,302.22232142857143,321.12857142857143,3081.2,302.22232142857143,321.12857142857143,3184.3,302.22232142857143,321.12857142857143,3288.2,302.22232142857143,321.12857142857143,3388.7,302.22232142857143,321.12857142857143,3491.2,302.22232142857143,321.12857142857143,3595.8,302.22232142857143,321.12857142857143,3696.2,302.22232142857143,321.12857142857143,3796.5,302.22232142857143,321.12857142857143,3905.9]","[1125,1125,1000,0,125,""oops"",""right"",""down"",""good_move"",4702.2,3575.8,3000.6,1126.4,575.2,""oops"",""right"",""down"",""good_move"",7572.5,2869.7,2424.6,4702.8,445.1,""smooth"",""right"",""right"",""good_move"",14276.7,6703.7,3044.3,10810,422.4,""smooth"",""right"",""right"",""good_move""]","",""
"54542","","","","instructions","24","785183","0.0-8.0-4.0","124","1","2025-07-02 10:20:04","80fe4187154257d5fb01684ea91b68b9","149.126.91.110","Mozilla/5.0 (Windows NT 10.0; Win64; x64) AppleWebKit/537.36 (KHTML, like Gecko) Chrome/133.0.0.0 Safari/537.36","WebKit","Chrome","133.0.0.0","Windows","10.0","https://app.prolific.com/","en,en-US;q=0.9","67a4f6bc5dee527c67382c62","683db6dfa200031b80f2a654","68650770c36fbfc635b12cd3","67a4f6bc5dee527c67382c62","","[{""page_index"":0,""viewing_time"":12212},{""page_index"":1,""viewing_time"":42329}]","","","","","","","","","","","","","","","","","","","","","","","","","","","","","","","","","","","","","","","","","","",""
"10277","","","{""green_ball"":[""Ball always moves in the direction I press""]}","survey-multi-select","25","795463","0.0-8.0-5.0-0.0","124","1","2025-07-02 10:20:04","80fe4187154257d5fb01684ea91b68b9","149.126.91.110","Mozilla/5.0 (Windows NT 10.0; Win64; x64) AppleWebKit/537.36 (KHTML, like Gecko) Chrome/133.0.0.0 Safari/537.36","WebKit","Chrome","133.0.0.0","Windows","10.0","https://app.prolific.com/","en,en-US;q=0.9","67a4f6bc5dee527c67382c62","683db6dfa200031b80f2a654","68650770c36fbfc635b12cd3","67a4f6bc5dee527c67382c62","","","[0]","","","","quiz","","","","","","","","","","","","","","","","","","","","","","","","","","","","","","","","","","","","","false",""
"6453","","<p align='center'><b>INCORRECT.</b> Usually the green ball moves in the indicated direction, but sometimes it shakes and moves randomly. </p>","0","html-button-response","26","801918","0.0-8.0-5.0-1.0","124","1","2025-07-02 10:20:04","80fe4187154257d5fb01684ea91b68b9","149.126.91.110","Mozilla/5.0 (Windows NT 10.0; Win64; x64) AppleWebKit/537.36 (KHTML, like Gecko) Chrome/133.0.0.0 Safari/537.36","WebKit","Chrome","133.0.0.0","Windows","10.0","https://app.prolific.com/","en,en-US;q=0.9","67a4f6bc5dee527c67382c62","683db6dfa200031b80f2a654","68650770c36fbfc635b12cd3","67a4f6bc5dee527c67382c62","","","","","","","","","","","","","","","","","","","","","","","","","","","","","","","","","","","","","","","","","","","","",""
"12908","","","{""green_ball"":[""Ball sometimes shakes and moves in a random direction""]}","survey-multi-select","27","814830","0.0-8.0-5.1-0.1","124","1","2025-07-02 10:20:04","80fe4187154257d5fb01684ea91b68b9","149.126.91.110","Mozilla/5.0 (Windows NT 10.0; Win64; x64) AppleWebKit/537.36 (KHTML, like Gecko) Chrome/133.0.0.0 Safari/537.36","WebKit","Chrome","133.0.0.0","Windows","10.0","https://app.prolific.com/","en,en-US;q=0.9","67a4f6bc5dee527c67382c62","683db6dfa200031b80f2a654","68650770c36fbfc635b12cd3","67a4f6bc5dee527c67382c62","","","[0]","","","","quiz","","","","","","","","","","","","","","","","","","","","","","","","","","","","","","","","","","","","","true",""
"3143","","<p align='center'><b>CORRECT!</b> Indeed, the green ball may sometimes shake and move in a random direction.</p>","0","html-button-response","28","817975","0.0-8.0-5.1-1.1","124","1","2025-07-02 10:20:04","80fe4187154257d5fb01684ea91b68b9","149.126.91.110","Mozilla/5.0 (Windows NT 10.0; Win64; x64) AppleWebKit/537.36 (KHTML, like Gecko) Chrome/133.0.0.0 Safari/537.36","WebKit","Chrome","133.0.0.0","Windows","10.0","https://app.prolific.com/","en,en-US;q=0.9","67a4f6bc5dee527c67382c62","683db6dfa200031b80f2a654","68650770c36fbfc635b12cd3","67a4f6bc5dee527c67382c62","","","","","","","","","","","","","","","","","","","","","","","","","","","","","","","","","","","","","","","","","","","","",""
"6166","","","{""yellow_ball"":[""Ball doesn‘t move and I get -1 penalty point""]}","survey-multi-select","29","824143","0.0-8.0-6.0-0.0","124","1","2025-07-02 10:20:04","80fe4187154257d5fb01684ea91b68b9","149.126.91.110","Mozilla/5.0 (Windows NT 10.0; Win64; x64) AppleWebKit/537.36 (KHTML, like Gecko) Chrome/133.0.0.0 Safari/537.36","WebKit","Chrome","133.0.0.0","Windows","10.0","https://app.prolific.com/","en,en-US;q=0.9","67a4f6bc5dee527c67382c62","683db6dfa200031b80f2a654","68650770c36fbfc635b12cd3","67a4f6bc5dee527c67382c62","","","[0]","","","","quiz","","","","","","","","","","","","","","","","","","","","","","","","","","","","","","","","","","","","","true",""
"1326","","<p align='center'><b>CORRECT!</b> Indeed, the yellow ball never moves and you receive a penalty.</p>","0","html-button-response","30","825470","0.0-8.0-6.0-1.0","124","1","2025-07-02 10:20:04","80fe4187154257d5fb01684ea91b68b9","149.126.91.110","Mozilla/5.0 (Windows NT 10.0; Win64; x64) AppleWebKit/537.36 (KHTML, like Gecko) Chrome/133.0.0.0 Safari/537.36","WebKit","Chrome","133.0.0.0","Windows","10.0","https://app.prolific.com/","en,en-US;q=0.9","67a4f6bc5dee527c67382c62","683db6dfa200031b80f2a654","68650770c36fbfc635b12cd3","67a4f6bc5dee527c67382c62","","","","","","","","","","","","","","","","","","","","","","","","","","","","","","","","","","","","","","","","","","","","",""
"4166","","","{""blue_ball"":[""Ball doesn‘t move and I get -1 penalty point""]}","survey-multi-select","31","829639","0.0-8.0-7.0-0.0","124","1","2025-07-02 10:20:04","80fe4187154257d5fb01684ea91b68b9","149.126.91.110","Mozilla/5.0 (Windows NT 10.0; Win64; x64) AppleWebKit/537.36 (KHTML, like Gecko) Chrome/133.0.0.0 Safari/537.36","WebKit","Chrome","133.0.0.0","Windows","10.0","https://app.prolific.com/","en,en-US;q=0.9","67a4f6bc5dee527c67382c62","683db6dfa200031b80f2a654","68650770c36fbfc635b12cd3","67a4f6bc5dee527c67382c62","","","[0]","","","","quiz","","","","","","","","","","","","","","","","","","","","","","","","","","","","","","","","","","","","","false",""
"3413","","<p align='center'><b>INCORRECT.</b> The blue ball always shakes and moves randomly.</p>","0","html-button-response","32","833054","0.0-8.0-7.0-1.0","124","1","2025-07-02 10:20:04","80fe4187154257d5fb01684ea91b68b9","149.126.91.110","Mozilla/5.0 (Windows NT 10.0; Win64; x64) AppleWebKit/537.36 (KHTML, like Gecko) Chrome/133.0.0.0 Safari/537.36","WebKit","Chrome","133.0.0.0","Windows","10.0","https://app.prolific.com/","en,en-US;q=0.9","67a4f6bc5dee527c67382c62","683db6dfa200031b80f2a654","68650770c36fbfc635b12cd3","67a4f6bc5dee527c67382c62","","","","","","","","","","","","","","","","","","","","","","","","","","","","","","","","","","","","","","","","","","","","",""
"3958","","","{""blue_ball"":[""Ball always shakes and moves in a random direction""]}","survey-multi-select","33","837015","0.0-8.0-7.1-0.1","124","1","2025-07-02 10:20:04","80fe4187154257d5fb01684ea91b68b9","149.126.91.110","Mozilla/5.0 (Windows NT 10.0; Win64; x64) AppleWebKit/537.36 (KHTML, like Gecko) Chrome/133.0.0.0 Safari/537.36","WebKit","Chrome","133.0.0.0","Windows","10.0","https://app.prolific.com/","en,en-US;q=0.9","67a4f6bc5dee527c67382c62","683db6dfa200031b80f2a654","68650770c36fbfc635b12cd3","67a4f6bc5dee527c67382c62","","","[0]","","","","quiz","","","","","","","","","","","","","","","","","","","","","","","","","","","","","","","","","","","","","true",""
"1175","","<p align='center'><b>CORRECT!</b> Indeed, the blue ball always shakes and moves in a random direction. Also there is a penalty of -1 point.</p>","0","html-button-response","34","838191","0.0-8.0-7.1-1.1","124","1","2025-07-02 10:20:04","80fe4187154257d5fb01684ea91b68b9","149.126.91.110","Mozilla/5.0 (Windows NT 10.0; Win64; x64) AppleWebKit/537.36 (KHTML, like Gecko) Chrome/133.0.0.0 Safari/537.36","WebKit","Chrome","133.0.0.0","Windows","10.0","https://app.prolific.com/","en,en-US;q=0.9","67a4f6bc5dee527c67382c62","683db6dfa200031b80f2a654","68650770c36fbfc635b12cd3","67a4f6bc5dee527c67382c62","","","","","","","","","","","","","","","","","","","","","","","","","","","","","","","","","","","","","","","","","","","","",""
"4974","","","{""bonus"":[""When I reach 50% of points""]}","survey-multi-select","35","843167","0.0-8.0-8.0-0.0","124","1","2025-07-02 10:20:04","80fe4187154257d5fb01684ea91b68b9","149.126.91.110","Mozilla/5.0 (Windows NT 10.0; Win64; x64) AppleWebKit/537.36 (KHTML, like Gecko) Chrome/133.0.0.0 Safari/537.36","WebKit","Chrome","133.0.0.0","Windows","10.0","https://app.prolific.com/","en,en-US;q=0.9","67a4f6bc5dee527c67382c62","683db6dfa200031b80f2a654","68650770c36fbfc635b12cd3","67a4f6bc5dee527c67382c62","","","[0]","","","","quiz","","","","","","","","","","","","","","","","","","","","","","","","","","","","","","","","","","","","","true",""
"3262","","<p align='center'><b>CORRECT!</b> Indeed, you receive 2 pounds extra when you reach 50% of points.</p>","0","html-button-response","36","846431","0.0-8.0-8.0-1.0","124","1","2025-07-02 10:20:04","80fe4187154257d5fb01684ea91b68b9","149.126.91.110","Mozilla/5.0 (Windows NT 10.0; Win64; x64) AppleWebKit/537.36 (KHTML, like Gecko) Chrome/133.0.0.0 Safari/537.36","WebKit","Chrome","133.0.0.0","Windows","10.0","https://app.prolific.com/","en,en-US;q=0.9","67a4f6bc5dee527c67382c62","683db6dfa200031b80f2a654","68650770c36fbfc635b12cd3","67a4f6bc5dee527c67382c62","","","","","","","","","","","","","","","","","","","","","","","","","","","","","","","","","","","","","","","","","","","","",""
"7328","","","","instructions","37","853759","0.0-8.0-9.0","124","1","2025-07-02 10:20:04","80fe4187154257d5fb01684ea91b68b9","149.126.91.110","Mozilla/5.0 (Windows NT 10.0; Win64; x64) AppleWebKit/537.36 (KHTML, like Gecko) Chrome/133.0.0.0 Safari/537.36","WebKit","Chrome","133.0.0.0","Windows","10.0","https://app.prolific.com/","en,en-US;q=0.9","67a4f6bc5dee527c67382c62","683db6dfa200031b80f2a654","68650770c36fbfc635b12cd3","67a4f6bc5dee527c67382c62","","[{""page_index"":0,""viewing_time"":7327}]","","","","","","","","","","","","","","","","","","","","","","","","","","","","","","","","","","","","","","","","","","",""
"26010","","<p>Before you start with this game please answer the following three questions yourself. </p>
  <p>Through this game, we measure several aspects of your cognitive performance, such as reaction times, multi-tasking capabilities </p>
  <p>and the ability to assess the situation you are in.</p>
  <p></p>
  <p><b>How good do you usually are in such tasks?</b></p>","88","html-slider-response","38","879774","0.0-9.0-0.0","124","1","2025-07-02 10:20:04","80fe4187154257d5fb01684ea91b68b9","149.126.91.110","Mozilla/5.0 (Windows NT 10.0; Win64; x64) AppleWebKit/537.36 (KHTML, like Gecko) Chrome/133.0.0.0 Safari/537.36","WebKit","Chrome","133.0.0.0","Windows","10.0","https://app.prolific.com/","en,en-US;q=0.9","67a4f6bc5dee527c67382c62","683db6dfa200031b80f2a654","68650770c36fbfc635b12cd3","67a4f6bc5dee527c67382c62","2025-07-02T10:34:48.003Z","","","","","","PreSkillQ","","","","","","","","","","","","","","","","","","","","","","","","","","","","","","","","","","","","","","50"
"5223","","<div style=""width:500px;"">
  <p>How well do you think you will perform in this task compared to other participants?</p>
  </div>","96","html-slider-response","39","884999","0.0-9.0-1.0","124","1","2025-07-02 10:20:04","80fe4187154257d5fb01684ea91b68b9","149.126.91.110","Mozilla/5.0 (Windows NT 10.0; Win64; x64) AppleWebKit/537.36 (KHTML, like Gecko) Chrome/133.0.0.0 Safari/537.36","WebKit","Chrome","133.0.0.0","Windows","10.0","https://app.prolific.com/","en,en-US;q=0.9","67a4f6bc5dee527c67382c62","683db6dfa200031b80f2a654","68650770c36fbfc635b12cd3","67a4f6bc5dee527c67382c62","2025-07-02T10:34:53.228Z","","","","","","PrePerfQ","","","","","","","","","","","","","","","","","","","","","","","","","","","","","","","","","","","","","","50"
"7214","","<div style=""width:500px;"">
  <p>What best describes how you currently feel?</p>
  </div>","94","html-slider-response","40","892214","0.0-9.0-2.0","124","1","2025-07-02 10:20:04","80fe4187154257d5fb01684ea91b68b9","149.126.91.110","Mozilla/5.0 (Windows NT 10.0; Win64; x64) AppleWebKit/537.36 (KHTML, like Gecko) Chrome/133.0.0.0 Safari/537.36","WebKit","Chrome","133.0.0.0","Windows","10.0","https://app.prolific.com/","en,en-US;q=0.9","67a4f6bc5dee527c67382c62","683db6dfa200031b80f2a654","68650770c36fbfc635b12cd3","67a4f6bc5dee527c67382c62","2025-07-02T10:35:00.443Z","","","","","","PreMotivationQ","","","","","","","","","","","","","","","","","","","","","","","","","","","","","","","","","","","","","","50"
"","","","","ctl-task-cpt","41","933571","0.0-10.0-0.0","124","1","2025-07-02 10:20:04","80fe4187154257d5fb01684ea91b68b9","149.126.91.110","Mozilla/5.0 (Windows NT 10.0; Win64; x64) AppleWebKit/537.36 (KHTML, like Gecko) Chrome/133.0.0.0 Safari/537.36","WebKit","Chrome","133.0.0.0","Windows","10.0","https://app.prolific.com/","en,en-US;q=0.9","67a4f6bc5dee527c67382c62","683db6dfa200031b80f2a654","68650770c36fbfc635b12cd3","67a4f6bc5dee527c67382c62","2025-07-02T10:35:41.800Z","","","","","","","","","","","","","","","","win-only","1","g1:NE,g2:SW","1","1","0","902425.4","1197","6201.2","38343.9","1","4","8","6","2","8","7","7","0","0.05303030303030303","5004.2","3000","210","[""down"",""left""]","{""num_key_presses"":7,""num_perfect"":6,""num_errors"":1,""num_randdir"":0,""num_randdir_good_moves"":0,""num_whilered"":0,""num_whileblue"":0,""num_blue"":4,""num_good_moves"":6}","[297.22232142857143,294.12857142857143,0.5,297.22232142857143,294.12857142857143,100.9,301.22232142857143,315.12857142857143,204.8,315.22232142857143,338.12857142857143,307.8,315.22232142857143,338.12857142857143,415.1,319.22232142857143,330.12857142857143,515.4,320.22232142857143,329.12857142857143,623.8,320.22232142857143,329.12857142857143,724.4,320.22232142857143,329.12857142857143,829.9,320.22232142857143,329.12857142857143,935,320.22232142857143,329.12857142857143,1041.6,320.22232142857143,329.12857142857143,1143.5,320.22232142857143,329.12857142857143,1243.5,320.22232142857143,329.12857142857143,1343.9,320.22232142857143,329.12857142857143,1447.8,320.22232142857143,329.12857142857143,1549,320.22232142857143,329.12857142857143,1652.3,320.22232142857143,329.12857142857143,1756.1,320.22232142857143,329.12857142857143,1858.3,467.22232142857143,299.12857142857143,1960.1,470.22232142857143,281.12857142857143,2064.8,414.22232142857143,281.12857142857143,2169,389.22232142857143,279.12857142857143,2270.1,359.22232142857143,255.12857142857143,2370.5,350.22232142857143,250.12857142857143,2472,348.22232142857143,252.12857142857143,2575.8,343.22232142857143,308.12857142857143,2681.4,346.22232142857143,311.12857142857143,2785.2,347.22232142857143,314.12857142857143,2888.5,347.22232142857143,314.12857142857143,2991,347.22232142857143,314.12857142857143,3099.8,347.22232142857143,314.12857142857143,3200.9,347.22232142857143,314.12857142857143,3303.5,347.22232142857143,314.12857142857143,3406.3,347.22232142857143,314.12857142857143,3507.4,347.22232142857143,314.12857142857143,3614.6,347.22232142857143,314.12857142857143,3715.3,347.22232142857143,314.12857142857143,3823,347.22232142857143,314.12857142857143,3924.5,347.22232142857143,314.12857142857143,4026.5,347.22232142857143,314.12857142857143,4130.4,347.22232142857143,314.12857142857143,4231.6,347.22232142857143,314.12857142857143,4335.1,347.22232142857143,314.12857142857143,4442.9,347.22232142857143,314.12857142857143,4545.1,347.22232142857143,314.12857142857143,4648.4,347.22232142857143,314.12857142857143,4749.7,347.22232142857143,314.12857142857143,4854.3,347.22232142857143,314.12857142857143,4955.4]","[776,776.1,1000,0,-223.9,""error"",""-"",""-"",""no_move"",10742.6,9965.6,2040.5,8303.3,398.8,""smooth"",""down"",""down"",""good_move"",14512.5,3768.7,3037.9,10743.8,730.8,""smooth"",""left"",""left"",""good_move"",17640.9,3127.2,2689.1,14513.7,438.1,""smooth"",""left"",""left"",""good_move"",26438.2,8796.6,1922,24089.1,427.1,""smooth"",""down"",""down"",""good_move"",29588.4,3149.8,2329.8,26438.6,820,""smooth"",""down"",""down"",""good_move"",32025.9,2436.4,1994.1,29589.5,442.3,""smooth"",""left"",""left"",""good_move""]","",""
"6386","","<div style=""width:500px;"">
  <p>What determined the result of this run?</p>
  </div>","100","html-slider-response","42","939958","0.0-10.0-1.0","124","1","2025-07-02 10:20:04","80fe4187154257d5fb01684ea91b68b9","149.126.91.110","Mozilla/5.0 (Windows NT 10.0; Win64; x64) AppleWebKit/537.36 (KHTML, like Gecko) Chrome/133.0.0.0 Safari/537.36","WebKit","Chrome","133.0.0.0","Windows","10.0","https://app.prolific.com/","en,en-US;q=0.9","67a4f6bc5dee527c67382c62","683db6dfa200031b80f2a654","68650770c36fbfc635b12cd3","67a4f6bc5dee527c67382c62","2025-07-02T10:35:48.187Z","","","","","","AttribQ","","","","","","","","","","","","","","","","","","","","","","","","","","","","","","","","","","","","","","50"
"3815","","<div style=""width:500px;"">
  <p>How much control did you have over the ball?</p>
  </div>","100","html-slider-response","43","943775","0.0-10.0-2.0","124","1","2025-07-02 10:20:04","80fe4187154257d5fb01684ea91b68b9","149.126.91.110","Mozilla/5.0 (Windows NT 10.0; Win64; x64) AppleWebKit/537.36 (KHTML, like Gecko) Chrome/133.0.0.0 Safari/537.36","WebKit","Chrome","133.0.0.0","Windows","10.0","https://app.prolific.com/","en,en-US;q=0.9","67a4f6bc5dee527c67382c62","683db6dfa200031b80f2a654","68650770c36fbfc635b12cd3","67a4f6bc5dee527c67382c62","2025-07-02T10:35:52.004Z","","","","","","ControlQ","","","","","","","","","","","","","","","","","","","","","","","","","","","","","","","","","","","","","","50"
"7374","","<div style=""width:500px;"">
  <p>How would you describe your current emotional state?</p>
  </div>","6","html-slider-response","44","951150","0.0-10.0-3.0","124","1","2025-07-02 10:20:04","80fe4187154257d5fb01684ea91b68b9","149.126.91.110","Mozilla/5.0 (Windows NT 10.0; Win64; x64) AppleWebKit/537.36 (KHTML, like Gecko) Chrome/133.0.0.0 Safari/537.36","WebKit","Chrome","133.0.0.0","Windows","10.0","https://app.prolific.com/","en,en-US;q=0.9","67a4f6bc5dee527c67382c62","683db6dfa200031b80f2a654","68650770c36fbfc635b12cd3","67a4f6bc5dee527c67382c62","2025-07-02T10:35:59.379Z","","","","","","StressQ","","","","","","","","","","","","","","","","","","","","","","","","","","","","","","","","","","","","","","50"
"5070","","<div style=""width:500px;"">
  <p>What best describes how you currently feel?</p>
  </div>","98","html-slider-response","45","956222","0.0-10.0-4.0","124","1","2025-07-02 10:20:04","80fe4187154257d5fb01684ea91b68b9","149.126.91.110","Mozilla/5.0 (Windows NT 10.0; Win64; x64) AppleWebKit/537.36 (KHTML, like Gecko) Chrome/133.0.0.0 Safari/537.36","WebKit","Chrome","133.0.0.0","Windows","10.0","https://app.prolific.com/","en,en-US;q=0.9","67a4f6bc5dee527c67382c62","683db6dfa200031b80f2a654","68650770c36fbfc635b12cd3","67a4f6bc5dee527c67382c62","2025-07-02T10:36:04.451Z","","","","","","MotivationQ","","","","","","","","","","","","","","","","","","","","","","","","","","","","","","","","","","","","","","50"
"","","","","ctl-task-cpt","46","1003288","0.0-10.0-0.1","124","1","2025-07-02 10:20:04","80fe4187154257d5fb01684ea91b68b9","149.126.91.110","Mozilla/5.0 (Windows NT 10.0; Win64; x64) AppleWebKit/537.36 (KHTML, like Gecko) Chrome/133.0.0.0 Safari/537.36","WebKit","Chrome","133.0.0.0","Windows","10.0","https://app.prolific.com/","en,en-US;q=0.9","67a4f6bc5dee527c67382c62","683db6dfa200031b80f2a654","68650770c36fbfc635b12cd3","67a4f6bc5dee527c67382c62","2025-07-02T10:36:51.517Z","","","","","","","","","","","","","","","","win-only","1","g1:NE,g2:SW","0.9","2","0","966431.3","1439.3","6443.1","44057.4","1","4","4","6","2","4","4","11","7","0.08333333333333333","1033.2","3000","285","[""down"",""left""]","{""num_key_presses"":8,""num_perfect"":7,""num_errors"":0,""num_randdir"":1,""num_randdir_good_moves"":0,""num_whilered"":0,""num_whileblue"":0,""num_blue"":4,""num_good_moves"":7}","[297.22232142857143,301.12857142857143,0.8,297.22232142857143,301.12857142857143,105,297.22232142857143,301.12857142857143,207,297.22232142857143,301.12857142857143,312.9,297.22232142857143,301.12857142857143,417.2,295.22232142857143,302.12857142857143,519.3,85.22232142857143,516.1285714285714,624,65.22232142857143,557.1285714285714,729.2,50.222321428571426,559.1285714285714,832.8,47.222321428571426,559.1285714285714,932.9,47.222321428571426,559.1285714285714,1044.2,47.222321428571426,559.1285714285714,1149,57.222321428571426,557.1285714285714,1254.6,114.22232142857143,552.1285714285714,1360.4,272.22232142857143,568.1285714285714,1464.2,534.2223214285714,609.1285714285714,1566.2,539.2223214285714,610.1285714285714,1671.2,539.2223214285714,610.1285714285714,1778.8,539.2223214285714,610.1285714285714,1888.2,539.2223214285714,610.1285714285714,1996.2,539.2223214285714,610.1285714285714,2098.2,539.2223214285714,610.1285714285714,2202.6,539.2223214285714,610.1285714285714,2303.4,539.2223214285714,610.1285714285714,2406.7,539.2223214285714,610.1285714285714,2511.6,539.2223214285714,610.1285714285714,2611.7,539.2223214285714,610.1285714285714,2713.4,539.2223214285714,610.1285714285714,2822.5,539.2223214285714,610.1285714285714,2922.5,539.2223214285714,610.1285714285714,3024.9,539.2223214285714,610.1285714285714,3127.8,539.2223214285714,610.1285714285714,3230.1,539.2223214285714,610.1285714285714,3332.4,539.2223214285714,610.1285714285714,3436.7,539.2223214285714,610.1285714285714,3538.2,539.2223214285714,610.1285714285714,3638.7,539.2223214285714,610.1285714285714,3744.8,539.2223214285714,610.1285714285714,3846.9,539.2223214285714,610.1285714285714,3947.8,539.2223214285714,610.1285714285714,4061.7,539.2223214285714,610.1285714285714,4162.2,539.2223214285714,610.1285714285714,4264.1,539.2223214285714,610.1285714285714,4374.9,539.2223214285714,610.1285714285714,4478.3,539.2223214285714,610.1285714285714,4590.8,539.2223214285714,610.1285714285714,4692.6,539.2223214285714,610.1285714285714,4798.1,539.2223214285714,610.1285714285714,4903.2]","[4771.1,4771.1,2417.9,2009.1,344.1,""smooth"",""down"",""down"",""good_move"",8708.6,3936.8,3573.3,4771.8,363.5,""smooth"",""down"",""down"",""good_move"",12116.8,3407.6,2964.8,8709.2,442.8,""smooth"",""down"",""down"",""good_move"",15206,3088.9,2663.7,12117.1,425.2,""smooth"",""left"",""left"",""good_move"",24778.4,9571.7,2680.9,21664,433.5,""oops"",""left"",""right"",""bad_move"",31047,6267.9,2260.4,28369.5,417.1,""smooth"",""left"",""left"",""good_move"",34535.5,3487,3093.6,31048.5,393.4,""smooth"",""left"",""left"",""good_move"",37509.1,2972.7,2602.7,34536.5,369.9,""smooth"",""left"",""left"",""good_move""]","",""
"5029","","<div style=""width:500px;"">
  <p>What determined the result of this run?</p>
  </div>","82","html-slider-response","47","1008318","0.0-10.0-1.1","124","1","2025-07-02 10:20:04","80fe4187154257d5fb01684ea91b68b9","149.126.91.110","Mozilla/5.0 (Windows NT 10.0; Win64; x64) AppleWebKit/537.36 (KHTML, like Gecko) Chrome/133.0.0.0 Safari/537.36","WebKit","Chrome","133.0.0.0","Windows","10.0","https://app.prolific.com/","en,en-US;q=0.9","67a4f6bc5dee527c67382c62","683db6dfa200031b80f2a654","68650770c36fbfc635b12cd3","67a4f6bc5dee527c67382c62","2025-07-02T10:36:56.547Z","","","","","","AttribQ","","","","","","","","","","","","","","","","","","","","","","","","","","","","","","","","","","","","","","50"
"3182","","<div style=""width:500px;"">
  <p>How much control did you have over the ball?</p>
  </div>","77","html-slider-response","48","1011502","0.0-10.0-2.1","124","1","2025-07-02 10:20:04","80fe4187154257d5fb01684ea91b68b9","149.126.91.110","Mozilla/5.0 (Windows NT 10.0; Win64; x64) AppleWebKit/537.36 (KHTML, like Gecko) Chrome/133.0.0.0 Safari/537.36","WebKit","Chrome","133.0.0.0","Windows","10.0","https://app.prolific.com/","en,en-US;q=0.9","67a4f6bc5dee527c67382c62","683db6dfa200031b80f2a654","68650770c36fbfc635b12cd3","67a4f6bc5dee527c67382c62","2025-07-02T10:36:59.731Z","","","","","","ControlQ","","","","","","","","","","","","","","","","","","","","","","","","","","","","","","","","","","","","","","50"
"4504","","<div style=""width:500px;"">
  <p>How would you describe your current emotional state?</p>
  </div>","18","html-slider-response","49","1016007","0.0-10.0-3.1","124","1","2025-07-02 10:20:04","80fe4187154257d5fb01684ea91b68b9","149.126.91.110","Mozilla/5.0 (Windows NT 10.0; Win64; x64) AppleWebKit/537.36 (KHTML, like Gecko) Chrome/133.0.0.0 Safari/537.36","WebKit","Chrome","133.0.0.0","Windows","10.0","https://app.prolific.com/","en,en-US;q=0.9","67a4f6bc5dee527c67382c62","683db6dfa200031b80f2a654","68650770c36fbfc635b12cd3","67a4f6bc5dee527c67382c62","2025-07-02T10:37:04.236Z","","","","","","StressQ","","","","","","","","","","","","","","","","","","","","","","","","","","","","","","","","","","","","","","50"
"3470","","<div style=""width:500px;"">
  <p>What best describes how you currently feel?</p>
  </div>","74","html-slider-response","50","1019479","0.0-10.0-4.1","124","1","2025-07-02 10:20:04","80fe4187154257d5fb01684ea91b68b9","149.126.91.110","Mozilla/5.0 (Windows NT 10.0; Win64; x64) AppleWebKit/537.36 (KHTML, like Gecko) Chrome/133.0.0.0 Safari/537.36","WebKit","Chrome","133.0.0.0","Windows","10.0","https://app.prolific.com/","en,en-US;q=0.9","67a4f6bc5dee527c67382c62","683db6dfa200031b80f2a654","68650770c36fbfc635b12cd3","67a4f6bc5dee527c67382c62","2025-07-02T10:37:07.708Z","","","","","","MotivationQ","","","","","","","","","","","","","","","","","","","","","","","","","","","","","","","","","","","","","","50"
"","","","","ctl-task-cpt","51","1077159","0.0-10.0-0.2","124","1","2025-07-02 10:20:04","80fe4187154257d5fb01684ea91b68b9","149.126.91.110","Mozilla/5.0 (Windows NT 10.0; Win64; x64) AppleWebKit/537.36 (KHTML, like Gecko) Chrome/133.0.0.0 Safari/537.36","WebKit","Chrome","133.0.0.0","Windows","10.0","https://app.prolific.com/","en,en-US;q=0.9","67a4f6bc5dee527c67382c62","683db6dfa200031b80f2a654","68650770c36fbfc635b12cd3","67a4f6bc5dee527c67382c62","2025-07-02T10:38:05.388Z","","","","","","","","","","","","","","","","win-only","3","g1:SW,g2:NE","0.8","3","0","1029687.9","1480.2","6484.6","54673.6","1","4","4","6","2","-4","-5","6","11","0.045454545454545456","1462.1","3000","-2615","[""up"",""right""]","{""num_key_presses"":9,""num_perfect"":6,""num_errors"":1,""num_randdir"":2,""num_randdir_good_moves"":1,""num_whilered"":0,""num_whileblue"":1,""num_blue"":7,""num_good_moves"":7}","[295.22232142857143,291.12857142857143,2.4,295.22232142857143,291.12857142857143,104.4,295.22232142857143,291.12857142857143,205.3,295.22232142857143,291.12857142857143,310.5,295.22232142857143,291.12857142857143,411.1,295.22232142857143,291.12857142857143,513.4,295.22232142857143,291.12857142857143,618.9,283.22232142857143,311.12857142857143,719.1,279.22232142857143,314.12857142857143,820.9,279.22232142857143,314.12857142857143,928,389.22232142857143,198.12857142857143,1028.2,505.22232142857143,51.128571428571426,1128.2,482.22232142857143,68.12857142857143,1229,500.22232142857143,66.12857142857143,1333.9,529.2223214285714,59.128571428571426,1437,529.2223214285714,59.128571428571426,1544.2,529.2223214285714,60.128571428571426,1650.5,507.22232142857143,100.12857142857143,1754.8,457.22232142857143,214.12857142857143,1856.1,441.22232142857143,301.12857142857143,1959.2,441.22232142857143,310.12857142857143,2059.2,441.22232142857143,310.12857142857143,2160.6,441.22232142857143,310.12857142857143,2268.5,441.22232142857143,310.12857142857143,2369.1,441.22232142857143,310.12857142857143,2472.2,441.22232142857143,310.12857142857143,2573.2,441.22232142857143,310.12857142857143,2676.7,441.22232142857143,310.12857142857143,2779.5,441.22232142857143,310.12857142857143,2884.1,441.22232142857143,310.12857142857143,2986,441.22232142857143,310.12857142857143,3091.1,441.22232142857143,310.12857142857143,3202.1,441.22232142857143,310.12857142857143,3302.7,441.22232142857143,310.12857142857143,3409.4,441.22232142857143,310.12857142857143,3513,441.22232142857143,310.12857142857143,3615.7,441.22232142857143,310.12857142857143,3719.8,441.22232142857143,310.12857142857143,3821.4,441.22232142857143,310.12857142857143,3924,441.22232142857143,310.12857142857143,4028.3,441.22232142857143,310.12857142857143,4136,441.22232142857143,310.12857142857143,4239.1,441.22232142857143,310.12857142857143,4345.2,441.22232142857143,310.12857142857143,4449.4,441.22232142857143,310.12857142857143,4552.5,441.22232142857143,310.12857142857143,4656.4,441.22232142857143,310.12857142857143,4758.1,441.22232142857143,310.12857142857143,4858.2,441.22232142857143,310.12857142857143,4964.4]","[1469.5,1469.5,1000,0,469.5,""smooth"",""up"",""up"",""good_move"",4163.2,2693,2309.1,1470.3,383.9,""oops"",""right"",""up"",""good_move"",14884.3,10720,2517.5,11994.4,372.4,""oops"",""right"",""left"",""bad_move"",18329.2,3444.4,2800,14884.8,644.4,""smooth"",""up"",""up"",""good_move"",21713.9,3384.1,2968.2,18329.8,415.9,""smooth"",""right"",""right"",""good_move"",24873.2,3158.9,2724.9,21714.3,434,""smooth"",""right"",""right"",""good_move"",27836.3,2960.9,2622.2,24875.4,338.7,""while_blue"",""right"",""down"",""bad_move"",30079.1,2241,1750.3,27838.1,490.7,""smooth"",""up"",""up"",""good_move"",43062,12982.2,2274.1,40414.4,373.6,""smooth"",""right"",""right"",""good_move""]","",""
"5885","","<div style=""width:500px;"">
  <p>What determined the result of this run?</p>
  </div>","0","html-slider-response","52","1083046","0.0-10.0-1.2","124","1","2025-07-02 10:20:04","80fe4187154257d5fb01684ea91b68b9","149.126.91.110","Mozilla/5.0 (Windows NT 10.0; Win64; x64) AppleWebKit/537.36 (KHTML, like Gecko) Chrome/133.0.0.0 Safari/537.36","WebKit","Chrome","133.0.0.0","Windows","10.0","https://app.prolific.com/","en,en-US;q=0.9","67a4f6bc5dee527c67382c62","683db6dfa200031b80f2a654","68650770c36fbfc635b12cd3","67a4f6bc5dee527c67382c62","2025-07-02T10:38:11.275Z","","","","","","AttribQ","","","","","","","","","","","","","","","","","","","","","","","","","","","","","","","","","","","","","","50"
"3375","","<div style=""width:500px;"">
  <p>How much control did you have over the ball?</p>
  </div>","23","html-slider-response","53","1086422","0.0-10.0-2.2","124","1","2025-07-02 10:20:04","80fe4187154257d5fb01684ea91b68b9","149.126.91.110","Mozilla/5.0 (Windows NT 10.0; Win64; x64) AppleWebKit/537.36 (KHTML, like Gecko) Chrome/133.0.0.0 Safari/537.36","WebKit","Chrome","133.0.0.0","Windows","10.0","https://app.prolific.com/","en,en-US;q=0.9","67a4f6bc5dee527c67382c62","683db6dfa200031b80f2a654","68650770c36fbfc635b12cd3","67a4f6bc5dee527c67382c62","2025-07-02T10:38:14.652Z","","","","","","ControlQ","","","","","","","","","","","","","","","","","","","","","","","","","","","","","","","","","","","","","","50"
"3165","","<div style=""width:500px;"">
  <p>How would you describe your current emotional state?</p>
  </div>","83","html-slider-response","54","1089589","0.0-10.0-3.2","124","1","2025-07-02 10:20:04","80fe4187154257d5fb01684ea91b68b9","149.126.91.110","Mozilla/5.0 (Windows NT 10.0; Win64; x64) AppleWebKit/537.36 (KHTML, like Gecko) Chrome/133.0.0.0 Safari/537.36","WebKit","Chrome","133.0.0.0","Windows","10.0","https://app.prolific.com/","en,en-US;q=0.9","67a4f6bc5dee527c67382c62","683db6dfa200031b80f2a654","68650770c36fbfc635b12cd3","67a4f6bc5dee527c67382c62","2025-07-02T10:38:17.819Z","","","","","","StressQ","","","","","","","","","","","","","","","","","","","","","","","","","","","","","","","","","","","","","","50"
"3215","","<div style=""width:500px;"">
  <p>What best describes how you currently feel?</p>
  </div>","18","html-slider-response","55","1092806","0.0-10.0-4.2","124","1","2025-07-02 10:20:04","80fe4187154257d5fb01684ea91b68b9","149.126.91.110","Mozilla/5.0 (Windows NT 10.0; Win64; x64) AppleWebKit/537.36 (KHTML, like Gecko) Chrome/133.0.0.0 Safari/537.36","WebKit","Chrome","133.0.0.0","Windows","10.0","https://app.prolific.com/","en,en-US;q=0.9","67a4f6bc5dee527c67382c62","683db6dfa200031b80f2a654","68650770c36fbfc635b12cd3","67a4f6bc5dee527c67382c62","2025-07-02T10:38:21.035Z","","","","","","MotivationQ","","","","","","","","","","","","","","","","","","","","","","","","","","","","","","","","","","","","","","50"
"","","","","ctl-task-cpt","56","1126609","0.0-10.0-0.3","124","1","2025-07-02 10:20:04","80fe4187154257d5fb01684ea91b68b9","149.126.91.110","Mozilla/5.0 (Windows NT 10.0; Win64; x64) AppleWebKit/537.36 (KHTML, like Gecko) Chrome/133.0.0.0 Safari/537.36","WebKit","Chrome","133.0.0.0","Windows","10.0","https://app.prolific.com/","en,en-US;q=0.9","67a4f6bc5dee527c67382c62","683db6dfa200031b80f2a654","68650770c36fbfc635b12cd3","67a4f6bc5dee527c67382c62","2025-07-02T10:38:54.838Z","","","","","","","","","","","","","","","","win-only","1","g1:NE,g2:SW","0.7","4","0","1103015.2","1111","6114.4","30782.8","1","4","8","6","2","-8","-8","0","6","0","1208.8","3000","-2835","[""down"",""left""]","{""num_key_presses"":6,""num_perfect"":4,""num_errors"":0,""num_randdir"":2,""num_randdir_good_moves"":0,""num_whilered"":0,""num_whileblue"":0,""num_blue"":1,""num_good_moves"":4}","[292.22232142857143,294.12857142857143,0.5,292.22232142857143,294.12857142857143,104.1,292.22232142857143,294.12857142857143,205.5,292.22232142857143,294.12857142857143,311.8,292.22232142857143,294.12857142857143,412.1,292.22232142857143,294.12857142857143,519.1,292.22232142857143,294.12857142857143,622.7,252.22232142857143,341.12857142857143,724.4,120.22232142857143,486.12857142857143,827.2,80.22232142857143,500.12857142857143,928.8,55.222321428571426,512.1285714285714,1034.1,48.222321428571426,531.1285714285714,1134.7,46.222321428571426,539.1285714285714,1240,46.222321428571426,540.1285714285714,1344.8,77.22232142857143,548.1285714285714,1451.4,133.22232142857143,549.1285714285714,1562.7,135.22232142857143,548.1285714285714,1664.4,135.22232142857143,548.1285714285714,1766.9,135.22232142857143,548.1285714285714,1872.1,135.22232142857143,548.1285714285714,1978.7,135.22232142857143,548.1285714285714,2080.6,135.22232142857143,548.1285714285714,2185.6,135.22232142857143,548.1285714285714,2291.9,135.22232142857143,548.1285714285714,2392.9,135.22232142857143,548.1285714285714,2496.2,135.22232142857143,548.1285714285714,2603.8,135.22232142857143,548.1285714285714,2705.5,135.22232142857143,548.1285714285714,2810.3,135.22232142857143,548.1285714285714,2911.3,135.22232142857143,548.1285714285714,3013.2,135.22232142857143,548.1285714285714,3118.4,135.22232142857143,548.1285714285714,3220.1,135.22232142857143,548.1285714285714,3324.4,135.22232142857143,548.1285714285714,3428.5,135.22232142857143,548.1285714285714,3532.8,135.22232142857143,548.1285714285714,3633.8,135.22232142857143,548.1285714285714,3740.6,135.22232142857143,548.1285714285714,3842.2,135.22232142857143,548.1285714285714,3948.2,135.22232142857143,548.1285714285714,4049.8,135.22232142857143,548.1285714285714,4154.2,135.22232142857143,548.1285714285714,4256.7,135.22232142857143,548.1285714285714,4358.6,135.22232142857143,548.1285714285714,4465,135.22232142857143,548.1285714285714,4571.4,135.22232142857143,548.1285714285714,4677.1,135.22232142857143,548.1285714285714,4779.4,135.22232142857143,548.1285714285714,4880.8,135.22232142857143,548.1285714285714,4982.4]","[1662.3,1662.3,1000,0,662.3,""smooth"",""down"",""down"",""good_move"",4969.4,3306.5,2827.3,1662.9,479.2,""oops"",""down"",""up"",""bad_move"",8933,3962.7,3546.9,4970.3,415.8,""smooth"",""down"",""down"",""good_move"",12063,3129.4,2733.1,8933.6,396.3,""oops"",""left"",""up"",""bad_move"",18698,6634.7,2232,16043.5,422.6,""smooth"",""left"",""left"",""good_move"",21629.5,2930.6,2500.6,18698.9,430,""smooth"",""left"",""left"",""good_move""]","",""
"3844","","<div style=""width:500px;"">
  <p>What determined the result of this run?</p>
  </div>","0","html-slider-response","57","1130454","0.0-10.0-1.3","124","1","2025-07-02 10:20:04","80fe4187154257d5fb01684ea91b68b9","149.126.91.110","Mozilla/5.0 (Windows NT 10.0; Win64; x64) AppleWebKit/537.36 (KHTML, like Gecko) Chrome/133.0.0.0 Safari/537.36","WebKit","Chrome","133.0.0.0","Windows","10.0","https://app.prolific.com/","en,en-US;q=0.9","67a4f6bc5dee527c67382c62","683db6dfa200031b80f2a654","68650770c36fbfc635b12cd3","67a4f6bc5dee527c67382c62","2025-07-02T10:38:58.683Z","","","","","","AttribQ","","","","","","","","","","","","","","","","","","","","","","","","","","","","","","","","","","","","","","50"
"2886","","<div style=""width:500px;"">
  <p>How much control did you have over the ball?</p>
  </div>","0","html-slider-response","58","1133342","0.0-10.0-2.3","124","1","2025-07-02 10:20:04","80fe4187154257d5fb01684ea91b68b9","149.126.91.110","Mozilla/5.0 (Windows NT 10.0; Win64; x64) AppleWebKit/537.36 (KHTML, like Gecko) Chrome/133.0.0.0 Safari/537.36","WebKit","Chrome","133.0.0.0","Windows","10.0","https://app.prolific.com/","en,en-US;q=0.9","67a4f6bc5dee527c67382c62","683db6dfa200031b80f2a654","68650770c36fbfc635b12cd3","67a4f6bc5dee527c67382c62","2025-07-02T10:39:01.571Z","","","","","","ControlQ","","","","","","","","","","","","","","","","","","","","","","","","","","","","","","","","","","","","","","50"
"3470","","<div style=""width:500px;"">
  <p>How would you describe your current emotional state?</p>
  </div>","83","html-slider-response","59","1136814","0.0-10.0-3.3","124","1","2025-07-02 10:20:04","80fe4187154257d5fb01684ea91b68b9","149.126.91.110","Mozilla/5.0 (Windows NT 10.0; Win64; x64) AppleWebKit/537.36 (KHTML, like Gecko) Chrome/133.0.0.0 Safari/537.36","WebKit","Chrome","133.0.0.0","Windows","10.0","https://app.prolific.com/","en,en-US;q=0.9","67a4f6bc5dee527c67382c62","683db6dfa200031b80f2a654","68650770c36fbfc635b12cd3","67a4f6bc5dee527c67382c62","2025-07-02T10:39:05.044Z","","","","","","StressQ","","","","","","","","","","","","","","","","","","","","","","","","","","","","","","","","","","","","","","50"
"3654","","<div style=""width:500px;"">
  <p>What best describes how you currently feel?</p>
  </div>","27","html-slider-response","60","1140470","0.0-10.0-4.3","124","1","2025-07-02 10:20:04","80fe4187154257d5fb01684ea91b68b9","149.126.91.110","Mozilla/5.0 (Windows NT 10.0; Win64; x64) AppleWebKit/537.36 (KHTML, like Gecko) Chrome/133.0.0.0 Safari/537.36","WebKit","Chrome","133.0.0.0","Windows","10.0","https://app.prolific.com/","en,en-US;q=0.9","67a4f6bc5dee527c67382c62","683db6dfa200031b80f2a654","68650770c36fbfc635b12cd3","67a4f6bc5dee527c67382c62","2025-07-02T10:39:08.699Z","","","","","","MotivationQ","","","","","","","","","","","","","","","","","","","","","","","","","","","","","","","","","","","","","","50"
"","","","","ctl-task-cpt","61","1182593","0.0-10.0-0.4","124","1","2025-07-02 10:20:04","80fe4187154257d5fb01684ea91b68b9","149.126.91.110","Mozilla/5.0 (Windows NT 10.0; Win64; x64) AppleWebKit/537.36 (KHTML, like Gecko) Chrome/133.0.0.0 Safari/537.36","WebKit","Chrome","133.0.0.0","Windows","10.0","https://app.prolific.com/","en,en-US;q=0.9","67a4f6bc5dee527c67382c62","683db6dfa200031b80f2a654","68650770c36fbfc635b12cd3","67a4f6bc5dee527c67382c62","2025-07-02T10:39:50.823Z","","","","","","","","","","","","","","","","win-only","3","g1:SW,g2:NE","0.6","5","0","1150679.2","1126.8","6131.4","39097.3","1","4","8","6","2","-8","-9","0","0","0","1128.5","3000","-1770","[""up"",""right""]","{""num_key_presses"":9,""num_perfect"":5,""num_errors"":1,""num_randdir"":3,""num_randdir_good_moves"":0,""num_whilered"":0,""num_whileblue"":0,""num_blue"":2,""num_good_moves"":5}","[300.22232142857143,293.12857142857143,0.5,300.22232142857143,293.12857142857143,103.9,300.22232142857143,293.12857142857143,210.7,300.22232142857143,294.12857142857143,311.5,300.22232142857143,294.12857142857143,414.1,300.22232142857143,294.12857142857143,514.5,300.22232142857143,287.12857142857143,617,396.22232142857143,210.12857142857143,721.5,522.2223214285714,87.12857142857143,824.9,538.2223214285714,70.12857142857143,926.5,538.2223214285714,66.12857142857143,1026.7,538.2223214285714,49.128571428571426,1145.1,538.2223214285714,49.128571428571426,1247.5,535.2223214285714,77.12857142857143,1351.7,538.2223214285714,184.12857142857143,1457.6,537.2223214285714,238.12857142857143,1559.6,557.2223214285714,254.12857142857143,1669,568.2223214285714,255.12857142857143,1777.4,568.2223214285714,255.12857142857143,1885.4,568.2223214285714,255.12857142857143,1986.9,568.2223214285714,255.12857142857143,2089.5,568.2223214285714,255.12857142857143,2190.6,568.2223214285714,255.12857142857143,2295.3,568.2223214285714,255.12857142857143,2400.4,568.2223214285714,255.12857142857143,2504.1,568.2223214285714,255.12857142857143,2610.5,568.2223214285714,255.12857142857143,2719.6,568.2223214285714,255.12857142857143,2822.5,568.2223214285714,255.12857142857143,2923.7,568.2223214285714,255.12857142857143,3025.8,568.2223214285714,255.12857142857143,3130.2,568.2223214285714,255.12857142857143,3233.8,568.2223214285714,255.12857142857143,3337,568.2223214285714,255.12857142857143,3437.5,568.2223214285714,255.12857142857143,3539,568.2223214285714,255.12857142857143,3643.5,568.2223214285714,255.12857142857143,3749.4,568.2223214285714,255.12857142857143,3853.4,568.2223214285714,255.12857142857143,3954.2,568.2223214285714,255.12857142857143,4055.3,568.2223214285714,255.12857142857143,4162.7,568.2223214285714,255.12857142857143,4270,568.2223214285714,255.12857142857143,4376.9,568.2223214285714,255.12857142857143,4477.9,568.2223214285714,255.12857142857143,4579.1,568.2223214285714,255.12857142857143,4685.7,568.2223214285714,255.12857142857143,4790.1,568.2223214285714,255.12857142857143,4890.8,568.2223214285714,255.12857142857143,4995.4]","[505.1,505.1,1000,0,-494.9,""error"",""-"",""-"",""no_move"",4209.6,3704.1,2130.3,1506,573.3,""oops"",""up"",""left"",""bad_move"",7308.7,3098.7,2275.7,4210,823,""smooth"",""up"",""up"",""good_move"",9536.3,2227.2,1643.4,7309.1,583.8,""smooth"",""up"",""up"",""good_move"",12345.2,2808.3,2356.7,9536.9,451.6,""oops"",""right"",""down"",""bad_move"",19105,6759,3097,15526.7,481.3,""smooth"",""right"",""right"",""good_move"",21842.7,2736.2,2255.1,19106.5,481.1,""smooth"",""right"",""right"",""good_move"",28106.3,6263.3,2659.2,25021.2,425.9,""oops"",""right"",""down"",""bad_move"",31378.9,3271.9,2759.1,28107,512.8,""smooth"",""right"",""right"",""good_move""]","",""
"3066","","<div style=""width:500px;"">
  <p>What determined the result of this run?</p>
  </div>","0","html-slider-response","62","1185662","0.0-10.0-1.4","124","1","2025-07-02 10:20:04","80fe4187154257d5fb01684ea91b68b9","149.126.91.110","Mozilla/5.0 (Windows NT 10.0; Win64; x64) AppleWebKit/537.36 (KHTML, like Gecko) Chrome/133.0.0.0 Safari/537.36","WebKit","Chrome","133.0.0.0","Windows","10.0","https://app.prolific.com/","en,en-US;q=0.9","67a4f6bc5dee527c67382c62","683db6dfa200031b80f2a654","68650770c36fbfc635b12cd3","67a4f6bc5dee527c67382c62","2025-07-02T10:39:53.891Z","","","","","","AttribQ","","","","","","","","","","","","","","","","","","","","","","","","","","","","","","","","","","","","","","50"
"3029","","<div style=""width:500px;"">
  <p>How much control did you have over the ball?</p>
  </div>","0","html-slider-response","63","1188694","0.0-10.0-2.4","124","1","2025-07-02 10:20:04","80fe4187154257d5fb01684ea91b68b9","149.126.91.110","Mozilla/5.0 (Windows NT 10.0; Win64; x64) AppleWebKit/537.36 (KHTML, like Gecko) Chrome/133.0.0.0 Safari/537.36","WebKit","Chrome","133.0.0.0","Windows","10.0","https://app.prolific.com/","en,en-US;q=0.9","67a4f6bc5dee527c67382c62","683db6dfa200031b80f2a654","68650770c36fbfc635b12cd3","67a4f6bc5dee527c67382c62","2025-07-02T10:39:56.923Z","","","","","","ControlQ","","","","","","","","","","","","","","","","","","","","","","","","","","","","","","","","","","","","","","50"
"3119","","<div style=""width:500px;"">
  <p>How would you describe your current emotional state?</p>
  </div>","85","html-slider-response","64","1191814","0.0-10.0-3.4","124","1","2025-07-02 10:20:04","80fe4187154257d5fb01684ea91b68b9","149.126.91.110","Mozilla/5.0 (Windows NT 10.0; Win64; x64) AppleWebKit/537.36 (KHTML, like Gecko) Chrome/133.0.0.0 Safari/537.36","WebKit","Chrome","133.0.0.0","Windows","10.0","https://app.prolific.com/","en,en-US;q=0.9","67a4f6bc5dee527c67382c62","683db6dfa200031b80f2a654","68650770c36fbfc635b12cd3","67a4f6bc5dee527c67382c62","2025-07-02T10:40:00.043Z","","","","","","StressQ","","","","","","","","","","","","","","","","","","","","","","","","","","","","","","","","","","","","","","50"
"2774","","<div style=""width:500px;"">
  <p>What best describes how you currently feel?</p>
  </div>","3","html-slider-response","65","1194590","0.0-10.0-4.4","124","1","2025-07-02 10:20:04","80fe4187154257d5fb01684ea91b68b9","149.126.91.110","Mozilla/5.0 (Windows NT 10.0; Win64; x64) AppleWebKit/537.36 (KHTML, like Gecko) Chrome/133.0.0.0 Safari/537.36","WebKit","Chrome","133.0.0.0","Windows","10.0","https://app.prolific.com/","en,en-US;q=0.9","67a4f6bc5dee527c67382c62","683db6dfa200031b80f2a654","68650770c36fbfc635b12cd3","67a4f6bc5dee527c67382c62","2025-07-02T10:40:02.819Z","","","","","","MotivationQ","","","","","","","","","","","","","","","","","","","","","","","","","","","","","","","","","","","","","","50"
"","","","","ctl-task-cpt","66","1228417","0.0-10.0-0.5","124","1","2025-07-02 10:20:04","80fe4187154257d5fb01684ea91b68b9","149.126.91.110","Mozilla/5.0 (Windows NT 10.0; Win64; x64) AppleWebKit/537.36 (KHTML, like Gecko) Chrome/133.0.0.0 Safari/537.36","WebKit","Chrome","133.0.0.0","Windows","10.0","https://app.prolific.com/","en,en-US;q=0.9","67a4f6bc5dee527c67382c62","683db6dfa200031b80f2a654","68650770c36fbfc635b12cd3","67a4f6bc5dee527c67382c62","2025-07-02T10:40:36.646Z","","","","","","","","","","","","","","","","win-only","1","g1:NE,g2:SW","0.5","6","0","1204799.3","1056.7","6062.2","30815.3","1","4","4","6","2","4","4","4","0","0.030303030303030304","1295.1","3000","495","[""down"",""left""]","{""num_key_presses"":8,""num_perfect"":4,""num_errors"":0,""num_randdir"":4,""num_randdir_good_moves"":3,""num_whilered"":0,""num_whileblue"":0,""num_blue"":1,""num_good_moves"":7}","[294.22232142857143,291.12857142857143,0.8,295.22232142857143,291.12857142857143,111,295.22232142857143,291.12857142857143,219.1,295.22232142857143,291.12857142857143,328.1,295.22232142857143,291.12857142857143,434.3,295.22232142857143,291.12857142857143,538,294.22232142857143,291.12857142857143,647.4,157.22232142857143,482.12857142857143,752.4,14.222321428571426,587.1285714285714,858.5,13.222321428571426,587.1285714285714,964.8,9.222321428571426,590.1285714285714,1070.6,14.222321428571426,584.1285714285714,1170.8,43.222321428571426,569.1285714285714,1271.4,44.222321428571426,568.1285714285714,1377.6,44.222321428571426,568.1285714285714,1483.5,51.222321428571426,573.1285714285714,1584.5,151.22232142857143,581.1285714285714,1685,203.22232142857143,581.1285714285714,1785.8,223.22232142857143,578.1285714285714,1892.5,223.22232142857143,578.1285714285714,1999.4,223.22232142857143,578.1285714285714,2100.7,223.22232142857143,578.1285714285714,2204.5,223.22232142857143,578.1285714285714,2305.2,223.22232142857143,578.1285714285714,2409.3,223.22232142857143,578.1285714285714,2518.4,223.22232142857143,578.1285714285714,2620.5,223.22232142857143,578.1285714285714,2723.9,223.22232142857143,578.1285714285714,2831.7,223.22232142857143,578.1285714285714,2934.7,223.22232142857143,578.1285714285714,3035.8,223.22232142857143,578.1285714285714,3140.9,223.22232142857143,578.1285714285714,3243.5,223.22232142857143,578.1285714285714,3349.7,223.22232142857143,578.1285714285714,3451.4,223.22232142857143,578.1285714285714,3555,223.22232142857143,578.1285714285714,3661.2,223.22232142857143,578.1285714285714,3765.3,223.22232142857143,578.1285714285714,3866.7,223.22232142857143,578.1285714285714,3973.7,223.22232142857143,578.1285714285714,4080.6,223.22232142857143,578.1285714285714,4183.5,223.22232142857143,578.1285714285714,4285.2,223.22232142857143,578.1285714285714,4388,223.22232142857143,578.1285714285714,4491.9,223.22232142857143,578.1285714285714,4594.7,223.22232142857143,578.1285714285714,4695.8,223.22232142857143,578.1285714285714,4797.2,223.22232142857143,578.1285714285714,4902.4]","[5149.3,5149.3,2592.3,2012.7,544.4,""oops"",""down"",""down"",""good_move"",7839.3,2689,1983.5,5150.3,705.5,""oops"",""down"",""up"",""bad_move"",10592.8,2752.4,2127.4,7840.4,625,""smooth"",""left"",""left"",""good_move"",13942.5,3348.6,2901.1,10593.9,447.5,""smooth"",""left"",""left"",""good_move"",16666,2721.6,2215.6,13944.4,506,""smooth"",""left"",""left"",""good_move"",18858.3,2190.4,1753.3,16667.9,437.1,""oops"",""down"",""down"",""good_move"",21805.3,2946.3,2530.1,18859,416.2,""smooth"",""down"",""down"",""good_move"",24596.8,2791,2324.8,21805.8,466.2,""oops"",""down"",""down"",""good_move""]","",""
"3596","","<div style=""width:500px;"">
  <p>What determined the result of this run?</p>
  </div>","98","html-slider-response","67","1232014","0.0-10.0-1.5","124","1","2025-07-02 10:20:04","80fe4187154257d5fb01684ea91b68b9","149.126.91.110","Mozilla/5.0 (Windows NT 10.0; Win64; x64) AppleWebKit/537.36 (KHTML, like Gecko) Chrome/133.0.0.0 Safari/537.36","WebKit","Chrome","133.0.0.0","Windows","10.0","https://app.prolific.com/","en,en-US;q=0.9","67a4f6bc5dee527c67382c62","683db6dfa200031b80f2a654","68650770c36fbfc635b12cd3","67a4f6bc5dee527c67382c62","2025-07-02T10:40:40.243Z","","","","","","AttribQ","","","","","","","","","","","","","","","","","","","","","","","","","","","","","","","","","","","","","","50"
"3015","","<div style=""width:500px;"">
  <p>How much control did you have over the ball?</p>
  </div>","91","html-slider-response","68","1235030","0.0-10.0-2.5","124","1","2025-07-02 10:20:04","80fe4187154257d5fb01684ea91b68b9","149.126.91.110","Mozilla/5.0 (Windows NT 10.0; Win64; x64) AppleWebKit/537.36 (KHTML, like Gecko) Chrome/133.0.0.0 Safari/537.36","WebKit","Chrome","133.0.0.0","Windows","10.0","https://app.prolific.com/","en,en-US;q=0.9","67a4f6bc5dee527c67382c62","683db6dfa200031b80f2a654","68650770c36fbfc635b12cd3","67a4f6bc5dee527c67382c62","2025-07-02T10:40:43.259Z","","","","","","ControlQ","","","","","","","","","","","","","","","","","","","","","","","","","","","","","","","","","","","","","","50"
"2919","","<div style=""width:500px;"">
  <p>How would you describe your current emotional state?</p>
  </div>","15","html-slider-response","69","1237951","0.0-10.0-3.5","124","1","2025-07-02 10:20:04","80fe4187154257d5fb01684ea91b68b9","149.126.91.110","Mozilla/5.0 (Windows NT 10.0; Win64; x64) AppleWebKit/537.36 (KHTML, like Gecko) Chrome/133.0.0.0 Safari/537.36","WebKit","Chrome","133.0.0.0","Windows","10.0","https://app.prolific.com/","en,en-US;q=0.9","67a4f6bc5dee527c67382c62","683db6dfa200031b80f2a654","68650770c36fbfc635b12cd3","67a4f6bc5dee527c67382c62","2025-07-02T10:40:46.180Z","","","","","","StressQ","","","","","","","","","","","","","","","","","","","","","","","","","","","","","","","","","","","","","","50"
"3070","","<div style=""width:500px;"">
  <p>What best describes how you currently feel?</p>
  </div>","84","html-slider-response","70","1241022","0.0-10.0-4.5","124","1","2025-07-02 10:20:04","80fe4187154257d5fb01684ea91b68b9","149.126.91.110","Mozilla/5.0 (Windows NT 10.0; Win64; x64) AppleWebKit/537.36 (KHTML, like Gecko) Chrome/133.0.0.0 Safari/537.36","WebKit","Chrome","133.0.0.0","Windows","10.0","https://app.prolific.com/","en,en-US;q=0.9","67a4f6bc5dee527c67382c62","683db6dfa200031b80f2a654","68650770c36fbfc635b12cd3","67a4f6bc5dee527c67382c62","2025-07-02T10:40:49.251Z","","","","","","MotivationQ","","","","","","","","","","","","","","","","","","","","","","","","","","","","","","","","","","","","","","50"
"","","","","ctl-task-cpt","71","1305966","0.0-10.0-0.6","124","1","2025-07-02 10:20:04","80fe4187154257d5fb01684ea91b68b9","149.126.91.110","Mozilla/5.0 (Windows NT 10.0; Win64; x64) AppleWebKit/537.36 (KHTML, like Gecko) Chrome/133.0.0.0 Safari/537.36","WebKit","Chrome","133.0.0.0","Windows","10.0","https://app.prolific.com/","en,en-US;q=0.9","67a4f6bc5dee527c67382c62","683db6dfa200031b80f2a654","68650770c36fbfc635b12cd3","67a4f6bc5dee527c67382c62","2025-07-02T10:41:54.195Z","","","","","","","","","","","","","","","","win-only","0","g1:NW,g2:SE","0.4","7","0","1251231.1","1191","6197.4","61927.8","1","4","8","6","2","-8","-12","0","4","0","976.5","3000","-1970","[""down"",""right""]","{""num_key_presses"":14,""num_perfect"":3,""num_errors"":4,""num_randdir"":6,""num_randdir_good_moves"":2,""num_whilered"":1,""num_whileblue"":1,""num_blue"":6,""num_good_moves"":6}","[293.22232142857143,298.12857142857143,0.2,293.22232142857143,298.12857142857143,103.2,293.22232142857143,298.12857142857143,206.6,293.22232142857143,298.12857142857143,311.9,293.22232142857143,298.12857142857143,433.7,293.22232142857143,300.12857142857143,545.2,457.22232142857143,473.12857142857143,649.3,547.2223214285714,550.1285714285714,749.7,550.2223214285714,553.1285714285714,850,553.2223214285714,555.1285714285714,950.8,553.2223214285714,555.1285714285714,1054.5,552.2223214285714,555.1285714285714,1162.8,552.2223214285714,554.1285714285714,1269.2,554.2223214285714,549.1285714285714,1377,554.2223214285714,549.1285714285714,1480.6,554.2223214285714,549.1285714285714,1585.3,554.2223214285714,549.1285714285714,1690,554.2223214285714,549.1285714285714,1799.9,554.2223214285714,549.1285714285714,1904.8,554.2223214285714,549.1285714285714,2011.1,554.2223214285714,549.1285714285714,2111.1,554.2223214285714,549.1285714285714,2216,554.2223214285714,549.1285714285714,2317.1,554.2223214285714,549.1285714285714,2422.8,554.2223214285714,549.1285714285714,2530.3,554.2223214285714,549.1285714285714,2638,554.2223214285714,549.1285714285714,2741.4,554.2223214285714,549.1285714285714,2847.2,554.2223214285714,549.1285714285714,2949.2,554.2223214285714,549.1285714285714,3051.9,554.2223214285714,549.1285714285714,3156.6,554.2223214285714,549.1285714285714,3261.9,554.2223214285714,549.1285714285714,3365.5,554.2223214285714,549.1285714285714,3473.5,554.2223214285714,549.1285714285714,3579.9,554.2223214285714,549.1285714285714,3685.3,554.2223214285714,549.1285714285714,3792.7,554.2223214285714,549.1285714285714,3900.4,554.2223214285714,549.1285714285714,4008.8,554.2223214285714,549.1285714285714,4109.4,554.2223214285714,549.1285714285714,4216.9,554.2223214285714,549.1285714285714,4325.8,554.2223214285714,549.1285714285714,4427,554.2223214285714,549.1285714285714,4533,554.2223214285714,549.1285714285714,4638.4,554.2223214285714,549.1285714285714,4748,554.2223214285714,549.1285714285714,4856.2,554.2223214285714,549.1285714285714,4962]","[5347.5,5347.5,2883.5,2010,454,""oops"",""down"",""down"",""good_move"",8288.4,2939.1,2159,5349.3,780.1,""oops"",""right"",""up"",""bad_move"",11239.5,2949.4,2463.9,8290.1,485.5,""oops"",""down"",""down"",""good_move"",18338.7,7098.6,3155,14743.5,440.2,""oops"",""down"",""left"",""bad_move"",21462.6,3122.5,2552.2,18340.2,570.3,""oops"",""down"",""up"",""bad_move"",24685,3221.2,2790.4,21463.8,430.8,""oops"",""right"",""up"",""bad_move"",28110.6,3425,2229.8,27183.9,-1303.1,""error"",""-"",""-"",""no_move"",32502.4,4391,2402.5,29117.1,982.8,""smooth"",""right"",""right"",""good_move"",35834.3,3331,2792.3,32503.3,538.7,""smooth"",""right"",""right"",""good_move"",38332.6,2497.3,1779.6,35835.3,717.7,""while_blue"",""right"",""down"",""good_move"",41118.1,2785,1987.7,38333.2,797.3,""smooth"",""right"",""right"",""good_move"",42704.8,1586,2537.4,41118.8,-951.4,""error"",""-"",""-"",""no_move"",43702.9,997.4,2537.4,41118.8,46.7,""while_red"",""-"",""-"",""no_move"",44466.8,1761.3,2245.8,43714.6,-1493.6,""error"",""-"",""-"",""no_move""]","",""
"4911","","<div style=""width:500px;"">
  <p>What determined the result of this run?</p>
  </div>","0","html-slider-response","72","1310878","0.0-10.0-1.6","124","1","2025-07-02 10:20:04","80fe4187154257d5fb01684ea91b68b9","149.126.91.110","Mozilla/5.0 (Windows NT 10.0; Win64; x64) AppleWebKit/537.36 (KHTML, like Gecko) Chrome/133.0.0.0 Safari/537.36","WebKit","Chrome","133.0.0.0","Windows","10.0","https://app.prolific.com/","en,en-US;q=0.9","67a4f6bc5dee527c67382c62","683db6dfa200031b80f2a654","68650770c36fbfc635b12cd3","67a4f6bc5dee527c67382c62","2025-07-02T10:41:59.107Z","","","","","","AttribQ","","","","","","","","","","","","","","","","","","","","","","","","","","","","","","","","","","","","","","50"
"2110","","<div style=""width:500px;"">
  <p>How much control did you have over the ball?</p>
  </div>","0","html-slider-response","73","1312990","0.0-10.0-2.6","124","1","2025-07-02 10:20:04","80fe4187154257d5fb01684ea91b68b9","149.126.91.110","Mozilla/5.0 (Windows NT 10.0; Win64; x64) AppleWebKit/537.36 (KHTML, like Gecko) Chrome/133.0.0.0 Safari/537.36","WebKit","Chrome","133.0.0.0","Windows","10.0","https://app.prolific.com/","en,en-US;q=0.9","67a4f6bc5dee527c67382c62","683db6dfa200031b80f2a654","68650770c36fbfc635b12cd3","67a4f6bc5dee527c67382c62","2025-07-02T10:42:01.219Z","","","","","","ControlQ","","","","","","","","","","","","","","","","","","","","","","","","","","","","","","","","","","","","","","50"
"2383","","<div style=""width:500px;"">
  <p>How would you describe your current emotional state?</p>
  </div>","100","html-slider-response","74","1315374","0.0-10.0-3.6","124","1","2025-07-02 10:20:04","80fe4187154257d5fb01684ea91b68b9","149.126.91.110","Mozilla/5.0 (Windows NT 10.0; Win64; x64) AppleWebKit/537.36 (KHTML, like Gecko) Chrome/133.0.0.0 Safari/537.36","WebKit","Chrome","133.0.0.0","Windows","10.0","https://app.prolific.com/","en,en-US;q=0.9","67a4f6bc5dee527c67382c62","683db6dfa200031b80f2a654","68650770c36fbfc635b12cd3","67a4f6bc5dee527c67382c62","2025-07-02T10:42:03.603Z","","","","","","StressQ","","","","","","","","","","","","","","","","","","","","","","","","","","","","","","","","","","","","","","50"
"5158","","<div style=""width:500px;"">
  <p>What best describes how you currently feel?</p>
  </div>","0","html-slider-response","75","1320534","0.0-10.0-4.6","124","1","2025-07-02 10:20:04","80fe4187154257d5fb01684ea91b68b9","149.126.91.110","Mozilla/5.0 (Windows NT 10.0; Win64; x64) AppleWebKit/537.36 (KHTML, like Gecko) Chrome/133.0.0.0 Safari/537.36","WebKit","Chrome","133.0.0.0","Windows","10.0","https://app.prolific.com/","en,en-US;q=0.9","67a4f6bc5dee527c67382c62","683db6dfa200031b80f2a654","68650770c36fbfc635b12cd3","67a4f6bc5dee527c67382c62","2025-07-02T10:42:08.764Z","","","","","","MotivationQ","","","","","","","","","","","","","","","","","","","","","","","","","","","","","","","","","","","","","","50"
"","","","","ctl-task-cpt","76","1368210","0.0-10.0-0.7","124","1","2025-07-02 10:20:04","80fe4187154257d5fb01684ea91b68b9","149.126.91.110","Mozilla/5.0 (Windows NT 10.0; Win64; x64) AppleWebKit/537.36 (KHTML, like Gecko) Chrome/133.0.0.0 Safari/537.36","WebKit","Chrome","133.0.0.0","Windows","10.0","https://app.prolific.com/","en,en-US;q=0.9","67a4f6bc5dee527c67382c62","683db6dfa200031b80f2a654","68650770c36fbfc635b12cd3","67a4f6bc5dee527c67382c62","2025-07-02T10:42:56.439Z","","","","","","","","","","","","","","","","win-only","2","g1:SE,g2:NW","0.3","8","0","1330746.2","1204.6","6211.4","44649.9","1","4","4","6","2","-4","-4","0","0","0","1616.3","3000","-1700","[""left"",""up""]","{""num_key_presses"":11,""num_perfect"":4,""num_errors"":0,""num_randdir"":7,""num_randdir_good_moves"":1,""num_whilered"":0,""num_whileblue"":0,""num_blue"":1,""num_good_moves"":4}","[290.22232142857143,296.12857142857143,0.6,290.22232142857143,296.12857142857143,109.1,290.22232142857143,296.12857142857143,211.6,290.22232142857143,296.12857142857143,318.7,290.22232142857143,296.12857142857143,428.7,290.22232142857143,296.12857142857143,535.1,290.22232142857143,296.12857142857143,637,290.22232142857143,296.12857142857143,742,310.22232142857143,396.12857142857143,850.2,426.22232142857143,521.1285714285714,950.5,415.22232142857143,479.12857142857143,1051.8,144.22232142857143,115.12857142857143,1157.1,122.22232142857143,87.12857142857143,1266.3,121.22232142857143,87.12857142857143,1372.7,49.222321428571426,62.128571428571426,1484.9,46.222321428571426,59.128571428571426,1595.3,46.222321428571426,58.128571428571426,1698.8,60.222321428571426,91.12857142857143,1799.9,167.22232142857143,262.12857142857143,1910,186.22232142857143,282.12857142857143,2012.4,186.22232142857143,282.12857142857143,2118.4,186.22232142857143,282.12857142857143,2220,186.22232142857143,282.12857142857143,2324.3,186.22232142857143,282.12857142857143,2425.7,186.22232142857143,282.12857142857143,2534.8,186.22232142857143,282.12857142857143,2640.2,186.22232142857143,282.12857142857143,2742.3,186.22232142857143,282.12857142857143,2848.4,186.22232142857143,282.12857142857143,2952.8,186.22232142857143,282.12857142857143,3060.9,186.22232142857143,282.12857142857143,3162,186.22232142857143,282.12857142857143,3266,186.22232142857143,282.12857142857143,3372,186.22232142857143,282.12857142857143,3484.5,186.22232142857143,282.12857142857143,3586.2,186.22232142857143,282.12857142857143,3695.6,186.22232142857143,282.12857142857143,3807.6,186.22232142857143,282.12857142857143,3911.3,186.22232142857143,282.12857142857143,4019.1,186.22232142857143,282.12857142857143,4129.1,186.22232142857143,282.12857142857143,4238.6,186.22232142857143,282.12857142857143,4346.6,186.22232142857143,282.12857142857143,4452.9,186.22232142857143,282.12857142857143,4563.7,186.22232142857143,282.12857142857143,4664.7,186.22232142857143,282.12857142857143,4771.2,186.22232142857143,282.12857142857143,4881.4,186.22232142857143,282.12857142857143,4994.4]","[2119.7,2119.7,1000,0,1119.7,""oops"",""up"",""down"",""bad_move"",9729.3,7608.6,3260.4,5813.9,655,""smooth"",""left"",""left"",""good_move"",12593.5,2863.1,2347.7,9730.4,515.4,""smooth"",""left"",""left"",""good_move"",15912,3317.3,2847.7,12594.8,469.5,""oops"",""left"",""right"",""bad_move"",18761.5,2848.2,2404.7,15913.4,443.4,""smooth"",""left"",""left"",""good_move"",21840.1,3077.8,2628,18762.3,449.8,""oops"",""left"",""left"",""good_move"",24309,2467.4,1776.4,21841.6,691,""oops"",""up"",""down"",""bad_move"",27590.5,3281.1,2889.5,24309.4,391.6,""oops"",""up"",""right"",""bad_move"",30633.7,3042.2,2588.7,27591.5,453.6,""oops"",""down"",""right"",""bad_move"",33428.6,2794,2413.9,30634.6,380.1,""oops"",""left"",""right"",""bad_move"",36548.2,3119,2693.2,33429.2,425.8,""smooth"",""right"",""right"",""bad_move""]","",""
"2979","","<div style=""width:500px;"">
  <p>What determined the result of this run?</p>
  </div>","0","html-slider-response","77","1371190","0.0-10.0-1.7","124","1","2025-07-02 10:20:04","80fe4187154257d5fb01684ea91b68b9","149.126.91.110","Mozilla/5.0 (Windows NT 10.0; Win64; x64) AppleWebKit/537.36 (KHTML, like Gecko) Chrome/133.0.0.0 Safari/537.36","WebKit","Chrome","133.0.0.0","Windows","10.0","https://app.prolific.com/","en,en-US;q=0.9","67a4f6bc5dee527c67382c62","683db6dfa200031b80f2a654","68650770c36fbfc635b12cd3","67a4f6bc5dee527c67382c62","2025-07-02T10:42:59.419Z","","","","","","AttribQ","","","","","","","","","","","","","","","","","","","","","","","","","","","","","","","","","","","","","","50"
"8414","","<div style=""width:500px;"">
  <p>How much control did you have over the ball?</p>
  </div>","0","html-slider-response","78","1379606","0.0-10.0-2.7","124","1","2025-07-02 10:20:04","80fe4187154257d5fb01684ea91b68b9","149.126.91.110","Mozilla/5.0 (Windows NT 10.0; Win64; x64) AppleWebKit/537.36 (KHTML, like Gecko) Chrome/133.0.0.0 Safari/537.36","WebKit","Chrome","133.0.0.0","Windows","10.0","https://app.prolific.com/","en,en-US;q=0.9","67a4f6bc5dee527c67382c62","683db6dfa200031b80f2a654","68650770c36fbfc635b12cd3","67a4f6bc5dee527c67382c62","2025-07-02T10:43:07.835Z","","","","","","ControlQ","","","","","","","","","","","","","","","","","","","","","","","","","","","","","","","","","","","","","","50"
"2214","","<div style=""width:500px;"">
  <p>How would you describe your current emotional state?</p>
  </div>","100","html-slider-response","79","1381822","0.0-10.0-3.7","124","1","2025-07-02 10:20:04","80fe4187154257d5fb01684ea91b68b9","149.126.91.110","Mozilla/5.0 (Windows NT 10.0; Win64; x64) AppleWebKit/537.36 (KHTML, like Gecko) Chrome/133.0.0.0 Safari/537.36","WebKit","Chrome","133.0.0.0","Windows","10.0","https://app.prolific.com/","en,en-US;q=0.9","67a4f6bc5dee527c67382c62","683db6dfa200031b80f2a654","68650770c36fbfc635b12cd3","67a4f6bc5dee527c67382c62","2025-07-02T10:43:10.051Z","","","","","","StressQ","","","","","","","","","","","","","","","","","","","","","","","","","","","","","","","","","","","","","","50"
"2342","","<div style=""width:500px;"">
  <p>What best describes how you currently feel?</p>
  </div>","0","html-slider-response","80","1384166","0.0-10.0-4.7","124","1","2025-07-02 10:20:04","80fe4187154257d5fb01684ea91b68b9","149.126.91.110","Mozilla/5.0 (Windows NT 10.0; Win64; x64) AppleWebKit/537.36 (KHTML, like Gecko) Chrome/133.0.0.0 Safari/537.36","WebKit","Chrome","133.0.0.0","Windows","10.0","https://app.prolific.com/","en,en-US;q=0.9","67a4f6bc5dee527c67382c62","683db6dfa200031b80f2a654","68650770c36fbfc635b12cd3","67a4f6bc5dee527c67382c62","2025-07-02T10:43:12.395Z","","","","","","MotivationQ","","","","","","","","","","","","","","","","","","","","","","","","","","","","","","","","","","","","","","50"
"","","","","ctl-task-cpt","81","1432620","0.0-10.0-0.8","124","1","2025-07-02 10:20:04","80fe4187154257d5fb01684ea91b68b9","149.126.91.110","Mozilla/5.0 (Windows NT 10.0; Win64; x64) AppleWebKit/537.36 (KHTML, like Gecko) Chrome/133.0.0.0 Safari/537.36","WebKit","Chrome","133.0.0.0","Windows","10.0","https://app.prolific.com/","en,en-US;q=0.9","67a4f6bc5dee527c67382c62","683db6dfa200031b80f2a654","68650770c36fbfc635b12cd3","67a4f6bc5dee527c67382c62","2025-07-02T10:44:00.849Z","","","","","","","","","","","","","","","","win-only","1","g1:NE,g2:SW","0.4","9","0","1394374.9","1001.8","6006.2","45426.8","1","4","8","6","1","-1","-2","0","0","0","1037.5","3000","-1250","[""up"",""right""]","{""num_key_presses"":12,""num_perfect"":5,""num_errors"":1,""num_randdir"":6,""num_randdir_good_moves"":3,""num_whilered"":0,""num_whileblue"":0,""num_blue"":1,""num_good_moves"":7}","[299.22232142857143,295.12857142857143,0.4,299.22232142857143,295.12857142857143,105.4,299.22232142857143,295.12857142857143,214.4,299.22232142857143,295.12857142857143,318.3,299.22232142857143,295.12857142857143,418.3,299.22232142857143,295.12857142857143,522,331.22232142857143,259.12857142857143,624.9,547.2223214285714,102.12857142857143,726.7,548.2223214285714,92.12857142857143,828.1,539.2223214285714,92.12857142857143,935.1,538.2223214285714,85.12857142857143,1043.9,538.2223214285714,84.12857142857143,1146.7,541.2223214285714,104.12857142857143,1254.8,556.2223214285714,157.12857142857143,1363.6,577.2223214285714,172.12857142857143,1465.3,653.2223214285714,160.12857142857143,1572.7,658.2223214285714,155.12857142857143,1675.9,658.2223214285714,155.12857142857143,1776.2,658.2223214285714,155.12857142857143,1878.8,658.2223214285714,155.12857142857143,1982.3,658.2223214285714,155.12857142857143,2086.1,658.2223214285714,155.12857142857143,2189,658.2223214285714,155.12857142857143,2294.6,658.2223214285714,155.12857142857143,2404,658.2223214285714,155.12857142857143,2506.3,658.2223214285714,155.12857142857143,2613.3,658.2223214285714,155.12857142857143,2715.2,658.2223214285714,155.12857142857143,2816.4,658.2223214285714,155.12857142857143,2916.8,658.2223214285714,155.12857142857143,3019,708.2223214285714,169.12857142857143,3123.4,880.2223214285714,163.12857142857143,3233.2,892.2223214285714,160.12857142857143,3338.1,892.2223214285714,160.12857142857143,3441,892.2223214285714,160.12857142857143,3547.4,892.2223214285714,160.12857142857143,3651.9,892.2223214285714,160.12857142857143,3759.5,892.2223214285714,160.12857142857143,3866.6,892.2223214285714,160.12857142857143,3979,892.2223214285714,160.12857142857143,4080.1,892.2223214285714,160.12857142857143,4188.8,892.2223214285714,160.12857142857143,4299.2,892.2223214285714,160.12857142857143,4403.7,892.2223214285714,160.12857142857143,4505.9,892.2223214285714,160.12857142857143,4611.1,892.2223214285714,160.12857142857143,4714.8,892.2223214285714,160.12857142857143,4820.4,892.2223214285714,160.12857142857143,4926.4]","[1555.4,1555.4,1000,0,555.4,""oops"",""up"",""down"",""bad_move"",4610.2,3054.4,2435.5,1555.8,618.9,""smooth"",""down"",""down"",""bad_move"",5164.8,554.1,2035.4,4610.7,-1481.3,""error"",""-"",""-"",""no_move"",8773.3,3607,2029.5,6171.2,572.6,""oops"",""up"",""left"",""bad_move"",11410.2,2635.8,1867,8774.4,768.8,""oops"",""up"",""up"",""good_move"",14846.5,3435.1,2934.6,11411.4,500.5,""oops"",""up"",""up"",""good_move"",18012.5,3165.4,2695.5,14847.1,469.9,""smooth"",""up"",""up"",""good_move"",21153.8,3139.8,2603.7,18014,536.1,""oops"",""right"",""left"",""bad_move"",23973.4,2819.2,2147,21154.2,672.2,""smooth"",""up"",""up"",""good_move"",26556,2581.9,1984.9,23974.1,597,""smooth"",""right"",""right"",""good_move"",29264.6,2707.9,2295.1,26556.7,412.8,""oops"",""right"",""right"",""good_move"",36231,6965.9,2927.6,32830.8,472.6,""smooth"",""right"",""right"",""good_move""]","",""
"3944","","<div style=""width:500px;"">
  <p>What determined the result of this run?</p>
  </div>","0","html-slider-response","82","1436566","0.0-10.0-1.8","124","1","2025-07-02 10:20:04","80fe4187154257d5fb01684ea91b68b9","149.126.91.110","Mozilla/5.0 (Windows NT 10.0; Win64; x64) AppleWebKit/537.36 (KHTML, like Gecko) Chrome/133.0.0.0 Safari/537.36","WebKit","Chrome","133.0.0.0","Windows","10.0","https://app.prolific.com/","en,en-US;q=0.9","67a4f6bc5dee527c67382c62","683db6dfa200031b80f2a654","68650770c36fbfc635b12cd3","67a4f6bc5dee527c67382c62","2025-07-02T10:44:04.795Z","","","","","","AttribQ","","","","","","","","","","","","","","","","","","","","","","","","","","","","","","","","","","","","","","50"
"2063","","<div style=""width:500px;"">
  <p>How much control did you have over the ball?</p>
  </div>","2","html-slider-response","83","1438630","0.0-10.0-2.8","124","1","2025-07-02 10:20:04","80fe4187154257d5fb01684ea91b68b9","149.126.91.110","Mozilla/5.0 (Windows NT 10.0; Win64; x64) AppleWebKit/537.36 (KHTML, like Gecko) Chrome/133.0.0.0 Safari/537.36","WebKit","Chrome","133.0.0.0","Windows","10.0","https://app.prolific.com/","en,en-US;q=0.9","67a4f6bc5dee527c67382c62","683db6dfa200031b80f2a654","68650770c36fbfc635b12cd3","67a4f6bc5dee527c67382c62","2025-07-02T10:44:06.859Z","","","","","","ControlQ","","","","","","","","","","","","","","","","","","","","","","","","","","","","","","","","","","","","","","50"
"3158","","<div style=""width:500px;"">
  <p>How would you describe your current emotional state?</p>
  </div>","100","html-slider-response","84","1441790","0.0-10.0-3.8","124","1","2025-07-02 10:20:04","80fe4187154257d5fb01684ea91b68b9","149.126.91.110","Mozilla/5.0 (Windows NT 10.0; Win64; x64) AppleWebKit/537.36 (KHTML, like Gecko) Chrome/133.0.0.0 Safari/537.36","WebKit","Chrome","133.0.0.0","Windows","10.0","https://app.prolific.com/","en,en-US;q=0.9","67a4f6bc5dee527c67382c62","683db6dfa200031b80f2a654","68650770c36fbfc635b12cd3","67a4f6bc5dee527c67382c62","2025-07-02T10:44:10.019Z","","","","","","StressQ","","","","","","","","","","","","","","","","","","","","","","","","","","","","","","","","","","","","","","50"
"3838","","<div style=""width:500px;"">
  <p>What best describes how you currently feel?</p>
  </div>","15","html-slider-response","85","1445630","0.0-10.0-4.8","124","1","2025-07-02 10:20:04","80fe4187154257d5fb01684ea91b68b9","149.126.91.110","Mozilla/5.0 (Windows NT 10.0; Win64; x64) AppleWebKit/537.36 (KHTML, like Gecko) Chrome/133.0.0.0 Safari/537.36","WebKit","Chrome","133.0.0.0","Windows","10.0","https://app.prolific.com/","en,en-US;q=0.9","67a4f6bc5dee527c67382c62","683db6dfa200031b80f2a654","68650770c36fbfc635b12cd3","67a4f6bc5dee527c67382c62","2025-07-02T10:44:13.859Z","","","","","","MotivationQ","","","","","","","","","","","","","","","","","","","","","","","","","","","","","","","","","","","","","","50"
