"rt","response_timestamp","stimulus","response","trial_type","trial_index","time_elapsed","internal_node_id","run_id","condition","recorded_at","source_code_version","ip","user_agent","device","browser","browser_version","platform","platform_version","referer","accept_language","PROLIFIC_PID","STUDY_ID","SESSION_ID","prolific_id","realtime","view_history","question_order","consent","success","question_id","eventType","responses","item_order","radio_event_ids","radio_event_times","key_event_times","mouse_event_times","straightlining","zigzagging","honeypot","which_type","canvas_config","goals_layout","control_level","trial_number","tutorial_trial_number","trial_start_time","phase1_start_time","phase2_start_time","phase3_start_time","goal_1_value","goal_1_distance","goal_2_value","goal_2_distance","goal_selected","outcome","outcome_total","participant_final_score","participant_initial_score","participant_final_score_prop","goal_choice_rt","allocated_time","allocated_time_remaining","goal_direction","counts","mouse_movements","key_presses","correct","slider_start"
"2357","1751451564594","<p style='font-size:40px;line-height:1.25'><strong>Welcome to the experiment!</strong></p><p style='font-size:1.1em;line-height:1.25'>Thank you for your interest in our experiment! Before you begin, it is important that we obtain your informed consent to participate in the study.</p><p style='font-size:1.1em;line-height:1.25'>On the next screen will be an <strong>information sheet</strong> for you to read. To participate in the study we need you to read this information sheet and the following consent form carefully. If you agree with all the statements, please click the <strong>I agree</strong> button.</p><p style='font-size:1.1em;line-height:1.25'>Press <strong>Next</strong> to read the information sheet.</p>","0","custom-html-button-response","0","2363","0.0-0.0","89","1","2025-07-02 10:19:15","80fe4187154257d5fb01684ea91b68b9","168.235.145.235","Mozilla/5.0 (Windows NT 10.0; Win64; x64) AppleWebKit/537.36 (KHTML, like Gecko) Chrome/137.0.0.0 Safari/537.36","WebKit","Chrome","137.0.0.0","Windows","10.0","https://app.prolific.com/","en-US,en;q=0.9","67acd4bb175b263fb4a92c4d","683db6dfa200031b80f2a654","6865076961fa751d54dceac4","67acd4bb175b263fb4a92c4d","2025-07-02T10:19:24.596Z","","","","","","","","","","","","","","","","","","","","","","","","","","","","","","","","","","","","","","","","","","","",""
"8727","","","","instructions","1","11093","0.0-1.0","89","1","2025-07-02 10:19:15","80fe4187154257d5fb01684ea91b68b9","168.235.145.235","Mozilla/5.0 (Windows NT 10.0; Win64; x64) AppleWebKit/537.36 (KHTML, like Gecko) Chrome/137.0.0.0 Safari/537.36","WebKit","Chrome","137.0.0.0","Windows","10.0","https://app.prolific.com/","en-US,en;q=0.9","67acd4bb175b263fb4a92c4d","683db6dfa200031b80f2a654","6865076961fa751d54dceac4","67acd4bb175b263fb4a92c4d","","[{""page_index"":0,""viewing_time"":6352},{""page_index"":1,""viewing_time"":2375}]","","","","","","","","","","","","","","","","","","","","","","","","","","","","","","","","","","","","","","","","","","",""
"3763","","","{""Q0"":"""",""Q1"":"""",""Q2"":"""",""Q3"":"""",""Q4"":"""",""Q5"":"""",""Q6"":""I agree""}","survey-multi-choice","2","14860","0.0-2.0","89","1","2025-07-02 10:19:15","80fe4187154257d5fb01684ea91b68b9","168.235.145.235","Mozilla/5.0 (Windows NT 10.0; Win64; x64) AppleWebKit/537.36 (KHTML, like Gecko) Chrome/137.0.0.0 Safari/537.36","WebKit","Chrome","137.0.0.0","Windows","10.0","https://app.prolific.com/","en-US,en;q=0.9","67acd4bb175b263fb4a92c4d","683db6dfa200031b80f2a654","6865076961fa751d54dceac4","67acd4bb175b263fb4a92c4d","","","[0,1,2,3,4,5,6]","true","","","","","","","","","","","","","","","","","","","","","","","","","","","","","","","","","","","","","","","","",""
"5747","","","","fullscreen","3","21627","0.0-4.0","89","1","2025-07-02 10:19:15","80fe4187154257d5fb01684ea91b68b9","168.235.145.235","Mozilla/5.0 (Windows NT 10.0; Win64; x64) AppleWebKit/537.36 (KHTML, like Gecko) Chrome/137.0.0.0 Safari/537.36","WebKit","Chrome","137.0.0.0","Windows","10.0","https://app.prolific.com/","en-US,en;q=0.9","67acd4bb175b263fb4a92c4d","683db6dfa200031b80f2a654","6865076961fa751d54dceac4","67acd4bb175b263fb4a92c4d","","","","","true","","","","","","","","","","","","","","","","","","","","","","","","","","","","","","","","","","","","","","","",""
"5462","1751451589323"," <p style='font-size:1.1em;line-height:1.25'>Thank you for completing the consent form and closing all other tabs.</p><p style='font-size:1.1em;line-height:1.25'>We will now invite you to fill in some demographic information and questionnaires, before starting the game.<br>This will take about 5 minutes.<br></p><p style='font-size:1.1em;line-height:1.25'>Press the <strong>Next</strong> button to continue.</p>","0","custom-html-button-response","4","27091","0.0-5.0","89","1","2025-07-02 10:19:15","80fe4187154257d5fb01684ea91b68b9","168.235.145.235","Mozilla/5.0 (Windows NT 10.0; Win64; x64) AppleWebKit/537.36 (KHTML, like Gecko) Chrome/137.0.0.0 Safari/537.36","WebKit","Chrome","137.0.0.0","Windows","10.0","https://app.prolific.com/","en-US,en;q=0.9","67acd4bb175b263fb4a92c4d","683db6dfa200031b80f2a654","6865076961fa751d54dceac4","67acd4bb175b263fb4a92c4d","2025-07-02T10:19:49.324Z","","","","","","","","","","","","","","","","","","","","","","","","","","","","","","","","","","","","","","","","","","","",""
"2960","","","{""age"":""34""}","survey-text","5","30057","0.0-6.0-0.0","89","1","2025-07-02 10:19:15","80fe4187154257d5fb01684ea91b68b9","168.235.145.235","Mozilla/5.0 (Windows NT 10.0; Win64; x64) AppleWebKit/537.36 (KHTML, like Gecko) Chrome/137.0.0.0 Safari/537.36","WebKit","Chrome","137.0.0.0","Windows","10.0","https://app.prolific.com/","en-US,en;q=0.9","67acd4bb175b263fb4a92c4d","683db6dfa200031b80f2a654","6865076961fa751d54dceac4","67acd4bb175b263fb4a92c4d","","","","","","0","demographics","","","","","","","","","","","","","","","","","","","","","","","","","","","","","","","","","","","","","",""
"2824","","","{""gender_identity"":""male/man""}","survey-multi-choice","6","32885","0.0-6.0-1.0","89","1","2025-07-02 10:19:15","80fe4187154257d5fb01684ea91b68b9","168.235.145.235","Mozilla/5.0 (Windows NT 10.0; Win64; x64) AppleWebKit/537.36 (KHTML, like Gecko) Chrome/137.0.0.0 Safari/537.36","WebKit","Chrome","137.0.0.0","Windows","10.0","https://app.prolific.com/","en-US,en;q=0.9","67acd4bb175b263fb4a92c4d","683db6dfa200031b80f2a654","6865076961fa751d54dceac4","67acd4bb175b263fb4a92c4d","","","[0]","","","1","demographics","","","","","","","","","","","","","","","","","","","","","","","","","","","","","","","","","","","","","",""
"4001","","","{""assigned_sex"":""male""}","survey-multi-choice","7","36889","0.0-6.0-2.0","89","1","2025-07-02 10:19:15","80fe4187154257d5fb01684ea91b68b9","168.235.145.235","Mozilla/5.0 (Windows NT 10.0; Win64; x64) AppleWebKit/537.36 (KHTML, like Gecko) Chrome/137.0.0.0 Safari/537.36","WebKit","Chrome","137.0.0.0","Windows","10.0","https://app.prolific.com/","en-US,en;q=0.9","67acd4bb175b263fb4a92c4d","683db6dfa200031b80f2a654","6865076961fa751d54dceac4","67acd4bb175b263fb4a92c4d","","","[0]","","","2","demographics","","","","","","","","","","","","","","","","","","","","","","","","","","","","","","","","","","","","","",""
"2778","","","{""menstrual_cycle"":""No""}","survey-multi-choice","8","39670","0.0-6.0-3.0","89","1","2025-07-02 10:19:15","80fe4187154257d5fb01684ea91b68b9","168.235.145.235","Mozilla/5.0 (Windows NT 10.0; Win64; x64) AppleWebKit/537.36 (KHTML, like Gecko) Chrome/137.0.0.0 Safari/537.36","WebKit","Chrome","137.0.0.0","Windows","10.0","https://app.prolific.com/","en-US,en;q=0.9","67acd4bb175b263fb4a92c4d","683db6dfa200031b80f2a654","6865076961fa751d54dceac4","67acd4bb175b263fb4a92c4d","","","[0]","","","4","demographics","","","","","","","","","","","","","","","","","","","","","","","","","","","","","","","","","","","","","",""
"4232","","","{""education"":""Bachelor's Degree (e.g., BA)""}","survey-multi-choice","9","43905","0.0-6.0-4.0","89","1","2025-07-02 10:19:15","80fe4187154257d5fb01684ea91b68b9","168.235.145.235","Mozilla/5.0 (Windows NT 10.0; Win64; x64) AppleWebKit/537.36 (KHTML, like Gecko) Chrome/137.0.0.0 Safari/537.36","WebKit","Chrome","137.0.0.0","Windows","10.0","https://app.prolific.com/","en-US,en;q=0.9","67acd4bb175b263fb4a92c4d","683db6dfa200031b80f2a654","6865076961fa751d54dceac4","67acd4bb175b263fb4a92c4d","","","[0]","","","5","demographics","","","","","","","","","","","","","","","","","","","","","","","","","","","","","","","","","","","","","",""
"6053","","","{""education"":""Bachelor's Degree (e.g., BA)""}","survey-multi-choice","10","49962","0.0-6.0-5.0","89","1","2025-07-02 10:19:15","80fe4187154257d5fb01684ea91b68b9","168.235.145.235","Mozilla/5.0 (Windows NT 10.0; Win64; x64) AppleWebKit/537.36 (KHTML, like Gecko) Chrome/137.0.0.0 Safari/537.36","WebKit","Chrome","137.0.0.0","Windows","10.0","https://app.prolific.com/","en-US,en;q=0.9","67acd4bb175b263fb4a92c4d","683db6dfa200031b80f2a654","6865076961fa751d54dceac4","67acd4bb175b263fb4a92c4d","2025-07-02T10:20:12.196Z","","[0]","","","6","demographics","","","","","","","","","","","","","","","","","","","","","","","","","","","","","","","","","","","","","",""
"18376","","","{""mental_health_condition"":""anxety"",""mental_health_treatment"":""no"",""psychiatric_medication"":""none""}","survey-text","11","68347","0.0-7.0-0.0","89","1","2025-07-02 10:19:15","80fe4187154257d5fb01684ea91b68b9","168.235.145.235","Mozilla/5.0 (Windows NT 10.0; Win64; x64) AppleWebKit/537.36 (KHTML, like Gecko) Chrome/137.0.0.0 Safari/537.36","WebKit","Chrome","137.0.0.0","Windows","10.0","https://app.prolific.com/","en-US,en;q=0.9","67acd4bb175b263fb4a92c4d","683db6dfa200031b80f2a654","6865076961fa751d54dceac4","67acd4bb175b263fb4a92c4d","2025-07-02T10:20:30.580Z","","","","","1","mental_health","","","","","","","","","","","","","","","","","","","","","","","","","","","","","","","","","","","","","",""
"4438","","","{""depression_history"":[""Yes""]}","survey-multi-select","12","72798","0.0-7.0-1.0","89","1","2025-07-02 10:19:15","80fe4187154257d5fb01684ea91b68b9","168.235.145.235","Mozilla/5.0 (Windows NT 10.0; Win64; x64) AppleWebKit/537.36 (KHTML, like Gecko) Chrome/137.0.0.0 Safari/537.36","WebKit","Chrome","137.0.0.0","Windows","10.0","https://app.prolific.com/","en-US,en;q=0.9","67acd4bb175b263fb4a92c4d","683db6dfa200031b80f2a654","6865076961fa751d54dceac4","67acd4bb175b263fb4a92c4d","","","[0]","","","","mental_health","","","","","","","","","","","","","","","","","","","","","","","","","","","","","","","","","","","","","",""
"12131","","","{""depression_episodes"":""more than 5"",""depression_recent"":""Within the past year""}","survey-multi-choice","13","84932","0.0-7.0-2.0-0.0","89","1","2025-07-02 10:19:15","80fe4187154257d5fb01684ea91b68b9","168.235.145.235","Mozilla/5.0 (Windows NT 10.0; Win64; x64) AppleWebKit/537.36 (KHTML, like Gecko) Chrome/137.0.0.0 Safari/537.36","WebKit","Chrome","137.0.0.0","Windows","10.0","https://app.prolific.com/","en-US,en;q=0.9","67acd4bb175b263fb4a92c4d","683db6dfa200031b80f2a654","6865076961fa751d54dceac4","67acd4bb175b263fb4a92c4d","2025-07-02T10:20:47.165Z","","[0,1]","","","3","mental_health","","","","","","","","","","","","","","","","","","","","","","","","","","","","","","","","","","","","","",""
"50416.09999990463","","","","survey-template","14","135365","0.0-7.0-3.0","89","1","2025-07-02 10:19:15","80fe4187154257d5fb01684ea91b68b9","168.235.145.235","Mozilla/5.0 (Windows NT 10.0; Win64; x64) AppleWebKit/537.36 (KHTML, like Gecko) Chrome/137.0.0.0 Safari/537.36","WebKit","Chrome","137.0.0.0","Windows","10.0","https://app.prolific.com/","en-US,en;q=0.9","67acd4bb175b263fb4a92c4d","683db6dfa200031b80f2a654","6865076961fa751d54dceac4","67acd4bb175b263fb4a92c4d","2025-07-02T10:21:37.598Z","","","","","","ius","{""Q01"":""1"",""Q02"":""1"",""Q03"":""1"",""Q04"":""2"",""Q05"":""0"",""Q06"":""0"",""Q07"":""0"",""Q08"":""0"",""Q09"":""1"",""Q10"":""1"",""Q11"":""1"",""Q12"":""2"",""Q13"":""1""}","[0,1,2,3,4,5,6,7,8,9,10,11,12]","[""Q01"",""Q02"",""Q03"",""Q04"",""Q05"",""Q06"",""Q07"",""Q06"",""Q07"",""Q08"",""Q09"",""Q10"",""Q11"",""Q12"",""Q13""]","[11680.099999904633,13891.900000095367,16219.900000095367,19697.099999904633,22936,27083,29010.699999809265,30295.299999713898,30918.5,34539.09999990463,38289.40000009537,39987,43048,45838.2999997139,49151.09999990463]","[]","[11680.099999904633,13891.900000095367,16219.900000095367,19697.099999904633,22936,27083,29010.699999809265,30295.299999713898,30918.5,34539.09999990463,38289.40000009537,39987,43048,45838.2999997139,49151.09999990463,50410.09999990463]","0.5384615384615384","0.3333333333333333","0","","","","","","","","","","","","","","","","","","","","","","","","","","","","",""
"2896","1751451700497","<p style='font-size:1.1em;line-height:1.25'>In the following, we will ask you a few questions relating to your experiences over the past month.<br></p><p style='font-size:1.1em;line-height:1.25'>Press the <strong>Next</strong> button to continue.</p>","0","custom-html-button-response","15","138265","0.0-7.0-4.0","89","1","2025-07-02 10:19:15","80fe4187154257d5fb01684ea91b68b9","168.235.145.235","Mozilla/5.0 (Windows NT 10.0; Win64; x64) AppleWebKit/537.36 (KHTML, like Gecko) Chrome/137.0.0.0 Safari/537.36","WebKit","Chrome","137.0.0.0","Windows","10.0","https://app.prolific.com/","en-US,en;q=0.9","67acd4bb175b263fb4a92c4d","683db6dfa200031b80f2a654","6865076961fa751d54dceac4","67acd4bb175b263fb4a92c4d","2025-07-02T10:21:40.498Z","","","","","","","","","","","","","","","","","","","","","","","","","","","","","","","","","","","","","","","","","","","",""
"45273","","","","survey-template","16","183542","0.0-7.0-5.0","89","1","2025-07-02 10:19:15","80fe4187154257d5fb01684ea91b68b9","168.235.145.235","Mozilla/5.0 (Windows NT 10.0; Win64; x64) AppleWebKit/537.36 (KHTML, like Gecko) Chrome/137.0.0.0 Safari/537.36","WebKit","Chrome","137.0.0.0","Windows","10.0","https://app.prolific.com/","en-US,en;q=0.9","67acd4bb175b263fb4a92c4d","683db6dfa200031b80f2a654","6865076961fa751d54dceac4","67acd4bb175b263fb4a92c4d","2025-07-02T10:22:25.775Z","","","","","","pss","{""Q01"":""2"",""Q02"":""2"",""Q03"":""2"",""Q04"":""1"",""Q05"":""1"",""Q06"":""1"",""Q07"":""1"",""Q08"":""1"",""Q09"":""2"",""Q10"":""1""}","[0,1,2,3,4,5,6,7,8,9]","[""Q01"",""Q02"",""Q03"",""Q04"",""Q05"",""Q06"",""Q07"",""Q08"",""Q09"",""Q10""]","[5642.400000095367,8119.900000095367,10242,14378.5,17088.5,25419.5,29725,32272.799999713898,37883.59999990463,44128.40000009537]","[]","[0.09999990463256836,5642.400000095367,8119.900000095367,10242,14378.5,17088.5,25419.5,29725,32272.799999713898,35565.699999809265,37883.59999990463,44128.40000009537,45270.7999997139]","0.4","0.3333333333333333","0","","","","","","","","","","","","","","","","","","","","","","","","","","","","",""
"4007","1751451749783","<p style='font-size:1.1em;line-height:1.25'>Thank you for your answers! Now we will ask you a few more questions relating to your feelings in the last 24 hours.<br></p><p style='font-size:1.1em;line-height:1.25'>Press the <strong>Next</strong> button to continue.</p>","0","custom-html-button-response","17","187551","0.0-7.0-6.0","89","1","2025-07-02 10:19:15","80fe4187154257d5fb01684ea91b68b9","168.235.145.235","Mozilla/5.0 (Windows NT 10.0; Win64; x64) AppleWebKit/537.36 (KHTML, like Gecko) Chrome/137.0.0.0 Safari/537.36","WebKit","Chrome","137.0.0.0","Windows","10.0","https://app.prolific.com/","en-US,en;q=0.9","67acd4bb175b263fb4a92c4d","683db6dfa200031b80f2a654","6865076961fa751d54dceac4","67acd4bb175b263fb4a92c4d","2025-07-02T10:22:29.785Z","","","","","","","","","","","","","","","","","","","","","","","","","","","","","","","","","","","","","","","","","","","",""
"72252.19999980927","","","","survey-template","18","259815","0.0-7.0-7.0","89","1","2025-07-02 10:19:15","80fe4187154257d5fb01684ea91b68b9","168.235.145.235","Mozilla/5.0 (Windows NT 10.0; Win64; x64) AppleWebKit/537.36 (KHTML, like Gecko) Chrome/137.0.0.0 Safari/537.36","WebKit","Chrome","137.0.0.0","Windows","10.0","https://app.prolific.com/","en-US,en;q=0.9","67acd4bb175b263fb4a92c4d","683db6dfa200031b80f2a654","6865076961fa751d54dceac4","67acd4bb175b263fb4a92c4d","2025-07-02T10:23:42.049Z","","","","","","drsp","{""Q01"":""1"",""Q02"":""1"",""Q03"":""1"",""Q04"":""1"",""Q05"":""1"",""Q06"":""1"",""Q07"":""1"",""Q08"":""1"",""Q09"":""1"",""Q10"":""2"",""Q11"":""2"",""Q12"":""1"",""Q13"":""1"",""Q14"":""1"",""Q15"":""2"",""Q16"":""2"",""Q17"":""1"",""Q18"":""0"",""Q19"":""1"",""Q20"":""1"",""Q21"":""1""}","[0,1,2,3,4,5,6,7,8,9,10,11,12,13,14,15,16,17,18,19,20]","[""Q01"",""Q02"",""Q03"",""Q04"",""Q05"",""Q06"",""Q07"",""Q08"",""Q09"",""Q10"",""Q11"",""Q12"",""Q13"",""Q14"",""Q15"",""Q16"",""Q17"",""Q17"",""Q18"",""Q19"",""Q20"",""Q21""]","[9479.599999904633,10532.099999904633,15120.89999961853,16060.39999961853,17217.299999713898,18847.5,24208.599999904633,25799.199999809265,27382.199999809265,34372.09999990463,37981.5,39316.699999809265,43930.09999990463,45435.59999990463,48020.09999990463,49905,51369.89999961853,51442.2999997139,57708,61881.699999809265,67041.7999997139,71101.2999997139]","[]","[0.09999990463256836,9479.599999904633,10532.099999904633,11366.89999961853,12148.199999809265,13887.89999961853,15120.89999961853,16060.39999961853,17217.299999713898,18847.5,19862.89999961853,21422.099999904633,22274,23145.299999713898,24208.599999904633,25799.199999809265,27382.199999809265,34372.09999990463,36670.199999809265,37981.5,39316.699999809265,41016.699999809265,43930.09999990463,45435.59999990463,48020.09999990463,49905,51369.89999961853,51442.2999997139,57708,61881.699999809265,67041.7999997139,69294.7999997139,71101.2999997139,72241.2999997139]","0.7619047619047619","0.3","0","","","","","","","","","","","","","","","","","","","","","","","","","","","","",""
"14023","","","","survey-template","19","273844","0.0-7.0-8.0","89","1","2025-07-02 10:19:15","80fe4187154257d5fb01684ea91b68b9","168.235.145.235","Mozilla/5.0 (Windows NT 10.0; Win64; x64) AppleWebKit/537.36 (KHTML, like Gecko) Chrome/137.0.0.0 Safari/537.36","WebKit","Chrome","137.0.0.0","Windows","10.0","https://app.prolific.com/","en-US,en;q=0.9","67acd4bb175b263fb4a92c4d","683db6dfa200031b80f2a654","6865076961fa751d54dceac4","67acd4bb175b263fb4a92c4d","2025-07-02T10:23:56.078Z","","","","","","stress","{""Q01"":""1"",""Q02"":""2"",""Q03"":""1""}","[0,1,2]","[""Q01"",""Q02"",""Q03""]","[5022.300000190735,8739,12520.5]","[]","[5022.300000190735,8739,12520.5,14020.200000286102]","0.6666666666666666","0","0","","","","","","","","","","","","","","","","","","","","","","","","","","","","",""
"137579","","","","instructions","20","411425","0.0-8.0-0.0","89","1","2025-07-02 10:19:15","80fe4187154257d5fb01684ea91b68b9","168.235.145.235","Mozilla/5.0 (Windows NT 10.0; Win64; x64) AppleWebKit/537.36 (KHTML, like Gecko) Chrome/137.0.0.0 Safari/537.36","WebKit","Chrome","137.0.0.0","Windows","10.0","https://app.prolific.com/","en-US,en;q=0.9","67acd4bb175b263fb4a92c4d","683db6dfa200031b80f2a654","6865076961fa751d54dceac4","67acd4bb175b263fb4a92c4d","","[{""page_index"":0,""viewing_time"":92388},{""page_index"":1,""viewing_time"":19540},{""page_index"":2,""viewing_time"":9816},{""page_index"":3,""viewing_time"":15834}]","","","","","","","","","","","","","","","","","","","","","","","","","","","","","","","","","","","","","","","","","","",""
"","","","","ctl-task-cpt","21","439812","0.0-8.0-1.0","89","1","2025-07-02 10:19:15","80fe4187154257d5fb01684ea91b68b9","168.235.145.235","Mozilla/5.0 (Windows NT 10.0; Win64; x64) AppleWebKit/537.36 (KHTML, like Gecko) Chrome/137.0.0.0 Safari/537.36","WebKit","Chrome","137.0.0.0","Windows","10.0","https://app.prolific.com/","en-US,en;q=0.9","67acd4bb175b263fb4a92c4d","683db6dfa200031b80f2a654","6865076961fa751d54dceac4","67acd4bb175b263fb4a92c4d","","","","","","","","","","","","","","","","","win-only","1","g1:NE,g2:SW","1","0","1","419609.7","2352.6","6370.6","25354.1","2","4","4","6","1","2","0","0","0","0","1671.7","4000","2575","[""up"",""right""]","{""num_key_presses"":8,""num_perfect"":4,""num_errors"":2,""num_randdir"":0,""num_randdir_good_moves"":0,""num_whilered"":2,""num_whileblue"":0,""num_blue"":1,""num_good_moves"":4}","[523.7142857142857,523.6908482142857,1.5,523.7142857142857,523.6908482142857,111.9,523.7142857142857,523.6908482142857,221.7,523.7142857142857,523.6908482142857,333.8,523.7142857142857,523.6908482142857,435.4,523.7142857142857,523.6908482142857,545.7,537.2142857142857,358.6908482142857,651.2,619.7142857142857,163.69084821428572,778.3,685.7142857142857,154.69084821428572,881.3,733.7142857142857,46.69084821428571,987.1,762.2142857142857,22.690848214285708,1104,834.2142857142857,39.19084821428571,1205.6,861.2142857142857,52.69084821428571,1330.6,904.7142857142857,54.19084821428571,1432.8,921.2142857142857,61.69084821428571,1541.4,942.2142857142857,76.69084821428571,1668.3,942.2142857142857,76.69084821428571,1797.8,942.2142857142857,76.69084821428571,1910.7,942.2142857142857,76.69084821428571,2011.3,942.2142857142857,76.69084821428571,2125.7,942.2142857142857,76.69084821428571,2229,942.2142857142857,76.69084821428571,2341.4,942.2142857142857,76.69084821428571,2456.8,942.2142857142857,76.69084821428571,2559.5,942.2142857142857,76.69084821428571,2664.5,942.2142857142857,76.69084821428571,2776.3,942.2142857142857,76.69084821428571,2878.3,942.2142857142857,76.69084821428571,2981.4,942.2142857142857,76.69084821428571,3093.5,942.2142857142857,76.69084821428571,3212.5,942.2142857142857,76.69084821428571,3319.8,942.2142857142857,76.69084821428571,3426.7,942.2142857142857,76.69084821428571,3534.5,942.2142857142857,76.69084821428571,3636.8,942.2142857142857,76.69084821428571,3743.2,942.2142857142857,76.69084821428571,3847.6,942.2142857142857,76.69084821428571,3950.6]","[494.7,494.7,1000,0.1,-505.3,""error"",""-"",""-"",""no_move"",842.7,346.1,1000,0.1,-157.3,""while_red"",""-"",""-"",""no_move"",7916.5,7419.9,1896.2,5527.9,492.4,""smooth"",""up"",""up"",""good_move"",8341.7,423.3,2429,7918.6,-2005.8,""error"",""-"",""-"",""no_move"",8503.2,160.6,2429,7918.6,-1844.3,""while_red"",""-"",""-"",""no_move"",12220.6,3877.9,2155.3,9343,722.4,""smooth"",""up"",""up"",""good_move"",14905.1,2683.4,2079.8,12221.7,603.6,""smooth"",""right"",""right"",""good_move"",18825.6,3918.7,3366.2,14906.9,552.5,""smooth"",""right"",""right"",""good_move""]","",""
"117221","","","","instructions","22","557037","0.0-8.0-2.0","89","1","2025-07-02 10:19:15","80fe4187154257d5fb01684ea91b68b9","168.235.145.235","Mozilla/5.0 (Windows NT 10.0; Win64; x64) AppleWebKit/537.36 (KHTML, like Gecko) Chrome/137.0.0.0 Safari/537.36","WebKit","Chrome","137.0.0.0","Windows","10.0","https://app.prolific.com/","en-US,en;q=0.9","67acd4bb175b263fb4a92c4d","683db6dfa200031b80f2a654","6865076961fa751d54dceac4","67acd4bb175b263fb4a92c4d","","[{""page_index"":0,""viewing_time"":117219}]","","","","","","","","","","","","","","","","","","","","","","","","","","","","","","","","","","","","","","","","","","",""
"","","","","ctl-task-cpt","23","613324","0.0-8.0-3.0","89","1","2025-07-02 10:19:15","80fe4187154257d5fb01684ea91b68b9","168.235.145.235","Mozilla/5.0 (Windows NT 10.0; Win64; x64) AppleWebKit/537.36 (KHTML, like Gecko) Chrome/137.0.0.0 Safari/537.36","WebKit","Chrome","137.0.0.0","Windows","10.0","https://app.prolific.com/","en-US,en;q=0.9","67acd4bb175b263fb4a92c4d","683db6dfa200031b80f2a654","6865076961fa751d54dceac4","67acd4bb175b263fb4a92c4d","","","","","","","","","","","","","","","","","win-only","1","g1:NE,g2:SW","0.35","0","3","565214.7","2154.8","6158.9","53265.3","2","4","8","6","2","8","7","7","0","0.05303030303030303","4003.9","4000","260","[""down"",""left""]","{""num_key_presses"":12,""num_perfect"":5,""num_errors"":1,""num_randdir"":6,""num_randdir_good_moves"":4,""num_whilered"":0,""num_whileblue"":1,""num_blue"":4,""num_good_moves"":9}","[507.2142857142857,516.1908482142857,1,507.2142857142857,516.1908482142857,103.4,507.2142857142857,516.1908482142857,207.5,507.2142857142857,516.1908482142857,311.5,507.2142857142857,516.1908482142857,414.4,507.2142857142857,516.1908482142857,529.4,507.2142857142857,516.1908482142857,632.4,7.714285714285708,459.1908482142857,733.1,-178.28571428571428,504.1908482142857,841.2,-178.28571428571428,504.1908482142857,960.2,-178.28571428571428,504.1908482142857,1068.8,-178.28571428571428,504.1908482142857,1169.7,-178.28571428571428,504.1908482142857,1289.6,-178.28571428571428,504.1908482142857,1395.3,-178.28571428571428,504.1908482142857,1496.1,-178.28571428571428,504.1908482142857,1598.2,-178.28571428571428,504.1908482142857,1703.3,-178.28571428571428,504.1908482142857,1804.6,-178.28571428571428,504.1908482142857,1908.2,-178.28571428571428,504.1908482142857,2009.7,-178.28571428571428,504.1908482142857,2109.8,-178.28571428571428,504.1908482142857,2214.2,-178.28571428571428,504.1908482142857,2324.9,-178.28571428571428,504.1908482142857,2429.2,-139.28571428571428,481.6908482142857,2544.1,175.71428571428572,403.6908482142857,2659.7,520.7142857142857,319.6908482142857,2770.9,646.7142857142857,223.69084821428572,2871.2,753.2142857142857,88.69084821428571,2973.3,807.2142857142857,61.69084821428571,3073.8,910.7142857142857,36.19084821428571,3188.2,907.7142857142857,52.69084821428571,3295.2,870.2142857142857,91.69084821428571,3414.5,862.7142857142857,91.69084821428571,3514.5,862.7142857142857,91.69084821428571,3635.2,862.7142857142857,91.69084821428571,3744.6,862.7142857142857,91.69084821428571,3845.5,862.7142857142857,91.69084821428571,3949]","[2742.7,2742.7,1000,0,1742.7,""smooth"",""left"",""left"",""good_move"",9814.7,7070.6,2696.2,6639,479.5,""smooth"",""left"",""left"",""good_move"",13149.6,3333.5,2663.1,9816.2,670.4,""oops"",""left"",""up"",""bad_move"",16450.2,3298.7,2875.2,13151.5,423.5,""smooth"",""left"",""left"",""good_move"",19227.1,2775.9,2399.5,16451.3,376.3,""while_blue"",""down"",""right"",""bad_move"",21762.4,2532.3,1800.3,19230.2,731.9,""smooth"",""left"",""left"",""good_move"",24862.7,3099.3,2722.1,21763.5,377.1,""oops"",""down"",""right"",""bad_move"",27709.1,2844.2,2430.1,24865.1,414,""oops"",""left"",""left"",""good_move"",30284.5,2574.6,2178.7,27710,395.9,""oops"",""down"",""down"",""good_move"",41042.1,10756,3092.2,37566.7,383.3,""oops"",""down"",""down"",""good_move"",44212.7,3169.2,2368.9,41043.5,800.3,""oops"",""down"",""down"",""good_move"",46955.4,2742,2308.2,44213.6,433.7,""smooth"",""down"",""down"",""good_move""]","",""
"15783","","","","instructions","24","629111","0.0-8.0-4.0","89","1","2025-07-02 10:19:15","80fe4187154257d5fb01684ea91b68b9","168.235.145.235","Mozilla/5.0 (Windows NT 10.0; Win64; x64) AppleWebKit/537.36 (KHTML, like Gecko) Chrome/137.0.0.0 Safari/537.36","WebKit","Chrome","137.0.0.0","Windows","10.0","https://app.prolific.com/","en-US,en;q=0.9","67acd4bb175b263fb4a92c4d","683db6dfa200031b80f2a654","6865076961fa751d54dceac4","67acd4bb175b263fb4a92c4d","","[{""page_index"":0,""viewing_time"":10988},{""page_index"":1,""viewing_time"":4793}]","","","","","","","","","","","","","","","","","","","","","","","","","","","","","","","","","","","","","","","","","","",""
"9601","","","{""green_ball"":[""Ball always moves in the direction I press""]}","survey-multi-select","25","638727","0.0-8.0-5.0-0.0","89","1","2025-07-02 10:19:15","80fe4187154257d5fb01684ea91b68b9","168.235.145.235","Mozilla/5.0 (Windows NT 10.0; Win64; x64) AppleWebKit/537.36 (KHTML, like Gecko) Chrome/137.0.0.0 Safari/537.36","WebKit","Chrome","137.0.0.0","Windows","10.0","https://app.prolific.com/","en-US,en;q=0.9","67acd4bb175b263fb4a92c4d","683db6dfa200031b80f2a654","6865076961fa751d54dceac4","67acd4bb175b263fb4a92c4d","","","[0]","","","","quiz","","","","","","","","","","","","","","","","","","","","","","","","","","","","","","","","","","","","","false",""
"7279","","<p align='center'><b>INCORRECT.</b> Usually the green ball moves in the indicated direction, but sometimes it shakes and moves randomly. </p>","0","html-button-response","26","646015","0.0-8.0-5.0-1.0","89","1","2025-07-02 10:19:15","80fe4187154257d5fb01684ea91b68b9","168.235.145.235","Mozilla/5.0 (Windows NT 10.0; Win64; x64) AppleWebKit/537.36 (KHTML, like Gecko) Chrome/137.0.0.0 Safari/537.36","WebKit","Chrome","137.0.0.0","Windows","10.0","https://app.prolific.com/","en-US,en;q=0.9","67acd4bb175b263fb4a92c4d","683db6dfa200031b80f2a654","6865076961fa751d54dceac4","67acd4bb175b263fb4a92c4d","","","","","","","","","","","","","","","","","","","","","","","","","","","","","","","","","","","","","","","","","","","","",""
"12104","","","{""green_ball"":[""Ball sometimes shakes and moves in a random direction""]}","survey-multi-select","27","658130","0.0-8.0-5.1-0.1","89","1","2025-07-02 10:19:15","80fe4187154257d5fb01684ea91b68b9","168.235.145.235","Mozilla/5.0 (Windows NT 10.0; Win64; x64) AppleWebKit/537.36 (KHTML, like Gecko) Chrome/137.0.0.0 Safari/537.36","WebKit","Chrome","137.0.0.0","Windows","10.0","https://app.prolific.com/","en-US,en;q=0.9","67acd4bb175b263fb4a92c4d","683db6dfa200031b80f2a654","6865076961fa751d54dceac4","67acd4bb175b263fb4a92c4d","","","[0]","","","","quiz","","","","","","","","","","","","","","","","","","","","","","","","","","","","","","","","","","","","","true",""
"15474","","<p align='center'><b>CORRECT!</b> Indeed, the green ball may sometimes shake and move in a random direction.</p>","0","html-button-response","28","673611","0.0-8.0-5.1-1.1","89","1","2025-07-02 10:19:15","80fe4187154257d5fb01684ea91b68b9","168.235.145.235","Mozilla/5.0 (Windows NT 10.0; Win64; x64) AppleWebKit/537.36 (KHTML, like Gecko) Chrome/137.0.0.0 Safari/537.36","WebKit","Chrome","137.0.0.0","Windows","10.0","https://app.prolific.com/","en-US,en;q=0.9","67acd4bb175b263fb4a92c4d","683db6dfa200031b80f2a654","6865076961fa751d54dceac4","67acd4bb175b263fb4a92c4d","","","","","","","","","","","","","","","","","","","","","","","","","","","","","","","","","","","","","","","","","","","","",""
"19414","","","{""yellow_ball"":[""Ball doesn‘t move and I get -1 penalty point""]}","survey-multi-select","29","693039","0.0-8.0-6.0-0.0","89","1","2025-07-02 10:19:15","80fe4187154257d5fb01684ea91b68b9","168.235.145.235","Mozilla/5.0 (Windows NT 10.0; Win64; x64) AppleWebKit/537.36 (KHTML, like Gecko) Chrome/137.0.0.0 Safari/537.36","WebKit","Chrome","137.0.0.0","Windows","10.0","https://app.prolific.com/","en-US,en;q=0.9","67acd4bb175b263fb4a92c4d","683db6dfa200031b80f2a654","6865076961fa751d54dceac4","67acd4bb175b263fb4a92c4d","","","[0]","","","","quiz","","","","","","","","","","","","","","","","","","","","","","","","","","","","","","","","","","","","","true",""
"1450","","<p align='center'><b>CORRECT!</b> Indeed, the yellow ball never moves and you receive a penalty.</p>","0","html-button-response","30","694502","0.0-8.0-6.0-1.0","89","1","2025-07-02 10:19:15","80fe4187154257d5fb01684ea91b68b9","168.235.145.235","Mozilla/5.0 (Windows NT 10.0; Win64; x64) AppleWebKit/537.36 (KHTML, like Gecko) Chrome/137.0.0.0 Safari/537.36","WebKit","Chrome","137.0.0.0","Windows","10.0","https://app.prolific.com/","en-US,en;q=0.9","67acd4bb175b263fb4a92c4d","683db6dfa200031b80f2a654","6865076961fa751d54dceac4","67acd4bb175b263fb4a92c4d","","","","","","","","","","","","","","","","","","","","","","","","","","","","","","","","","","","","","","","","","","","","",""
"9178","","","{""blue_ball"":[""Ball doesn‘t move and I get -1 penalty point""]}","survey-multi-select","31","703692","0.0-8.0-7.0-0.0","89","1","2025-07-02 10:19:15","80fe4187154257d5fb01684ea91b68b9","168.235.145.235","Mozilla/5.0 (Windows NT 10.0; Win64; x64) AppleWebKit/537.36 (KHTML, like Gecko) Chrome/137.0.0.0 Safari/537.36","WebKit","Chrome","137.0.0.0","Windows","10.0","https://app.prolific.com/","en-US,en;q=0.9","67acd4bb175b263fb4a92c4d","683db6dfa200031b80f2a654","6865076961fa751d54dceac4","67acd4bb175b263fb4a92c4d","","","[0]","","","","quiz","","","","","","","","","","","","","","","","","","","","","","","","","","","","","","","","","","","","","false",""
"2049","","<p align='center'><b>INCORRECT.</b> The blue ball always shakes and moves randomly.</p>","0","html-button-response","32","705746","0.0-8.0-7.0-1.0","89","1","2025-07-02 10:19:15","80fe4187154257d5fb01684ea91b68b9","168.235.145.235","Mozilla/5.0 (Windows NT 10.0; Win64; x64) AppleWebKit/537.36 (KHTML, like Gecko) Chrome/137.0.0.0 Safari/537.36","WebKit","Chrome","137.0.0.0","Windows","10.0","https://app.prolific.com/","en-US,en;q=0.9","67acd4bb175b263fb4a92c4d","683db6dfa200031b80f2a654","6865076961fa751d54dceac4","67acd4bb175b263fb4a92c4d","","","","","","","","","","","","","","","","","","","","","","","","","","","","","","","","","","","","","","","","","","","","",""
"4730","","","{""blue_ball"":[""Ball always shakes and moves in a random direction""]}","survey-multi-select","33","710483","0.0-8.0-7.1-0.1","89","1","2025-07-02 10:19:15","80fe4187154257d5fb01684ea91b68b9","168.235.145.235","Mozilla/5.0 (Windows NT 10.0; Win64; x64) AppleWebKit/537.36 (KHTML, like Gecko) Chrome/137.0.0.0 Safari/537.36","WebKit","Chrome","137.0.0.0","Windows","10.0","https://app.prolific.com/","en-US,en;q=0.9","67acd4bb175b263fb4a92c4d","683db6dfa200031b80f2a654","6865076961fa751d54dceac4","67acd4bb175b263fb4a92c4d","","","[0]","","","","quiz","","","","","","","","","","","","","","","","","","","","","","","","","","","","","","","","","","","","","true",""
"1724","","<p align='center'><b>CORRECT!</b> Indeed, the blue ball always shakes and moves in a random direction. Also there is a penalty of -1 point.</p>","0","html-button-response","34","712210","0.0-8.0-7.1-1.1","89","1","2025-07-02 10:19:15","80fe4187154257d5fb01684ea91b68b9","168.235.145.235","Mozilla/5.0 (Windows NT 10.0; Win64; x64) AppleWebKit/537.36 (KHTML, like Gecko) Chrome/137.0.0.0 Safari/537.36","WebKit","Chrome","137.0.0.0","Windows","10.0","https://app.prolific.com/","en-US,en;q=0.9","67acd4bb175b263fb4a92c4d","683db6dfa200031b80f2a654","6865076961fa751d54dceac4","67acd4bb175b263fb4a92c4d","","","","","","","","","","","","","","","","","","","","","","","","","","","","","","","","","","","","","","","","","","","","",""
"9768","","","{""bonus"":[""When I reach all possible points""]}","survey-multi-select","35","721985","0.0-8.0-8.0-0.0","89","1","2025-07-02 10:19:15","80fe4187154257d5fb01684ea91b68b9","168.235.145.235","Mozilla/5.0 (Windows NT 10.0; Win64; x64) AppleWebKit/537.36 (KHTML, like Gecko) Chrome/137.0.0.0 Safari/537.36","WebKit","Chrome","137.0.0.0","Windows","10.0","https://app.prolific.com/","en-US,en;q=0.9","67acd4bb175b263fb4a92c4d","683db6dfa200031b80f2a654","6865076961fa751d54dceac4","67acd4bb175b263fb4a92c4d","","","[0]","","","","quiz","","","","","","","","","","","","","","","","","","","","","","","","","","","","","","","","","","","","","false",""
"3114","","<p align='center'><b>INCORRECT.</b> You receive 2 pounds extra when you reach 50% of points </p>","0","html-button-response","36","725106","0.0-8.0-8.0-1.0","89","1","2025-07-02 10:19:15","80fe4187154257d5fb01684ea91b68b9","168.235.145.235","Mozilla/5.0 (Windows NT 10.0; Win64; x64) AppleWebKit/537.36 (KHTML, like Gecko) Chrome/137.0.0.0 Safari/537.36","WebKit","Chrome","137.0.0.0","Windows","10.0","https://app.prolific.com/","en-US,en;q=0.9","67acd4bb175b263fb4a92c4d","683db6dfa200031b80f2a654","6865076961fa751d54dceac4","67acd4bb175b263fb4a92c4d","","","","","","","","","","","","","","","","","","","","","","","","","","","","","","","","","","","","","","","","","","","","",""
"2427","","","{""bonus"":[""When I reach 50% of points""]}","survey-multi-select","37","727544","0.0-8.0-8.1-0.1","89","1","2025-07-02 10:19:15","80fe4187154257d5fb01684ea91b68b9","168.235.145.235","Mozilla/5.0 (Windows NT 10.0; Win64; x64) AppleWebKit/537.36 (KHTML, like Gecko) Chrome/137.0.0.0 Safari/537.36","WebKit","Chrome","137.0.0.0","Windows","10.0","https://app.prolific.com/","en-US,en;q=0.9","67acd4bb175b263fb4a92c4d","683db6dfa200031b80f2a654","6865076961fa751d54dceac4","67acd4bb175b263fb4a92c4d","","","[0]","","","","quiz","","","","","","","","","","","","","","","","","","","","","","","","","","","","","","","","","","","","","true",""
"2114","","<p align='center'><b>CORRECT!</b> Indeed, you receive 2 pounds extra when you reach 50% of points.</p>","0","html-button-response","38","729665","0.0-8.0-8.1-1.1","89","1","2025-07-02 10:19:15","80fe4187154257d5fb01684ea91b68b9","168.235.145.235","Mozilla/5.0 (Windows NT 10.0; Win64; x64) AppleWebKit/537.36 (KHTML, like Gecko) Chrome/137.0.0.0 Safari/537.36","WebKit","Chrome","137.0.0.0","Windows","10.0","https://app.prolific.com/","en-US,en;q=0.9","67acd4bb175b263fb4a92c4d","683db6dfa200031b80f2a654","6865076961fa751d54dceac4","67acd4bb175b263fb4a92c4d","","","","","","","","","","","","","","","","","","","","","","","","","","","","","","","","","","","","","","","","","","","","",""
"3010","","","","instructions","39","732679","0.0-8.0-9.0","89","1","2025-07-02 10:19:15","80fe4187154257d5fb01684ea91b68b9","168.235.145.235","Mozilla/5.0 (Windows NT 10.0; Win64; x64) AppleWebKit/537.36 (KHTML, like Gecko) Chrome/137.0.0.0 Safari/537.36","WebKit","Chrome","137.0.0.0","Windows","10.0","https://app.prolific.com/","en-US,en;q=0.9","67acd4bb175b263fb4a92c4d","683db6dfa200031b80f2a654","6865076961fa751d54dceac4","67acd4bb175b263fb4a92c4d","","[{""page_index"":0,""viewing_time"":3009}]","","","","","","","","","","","","","","","","","","","","","","","","","","","","","","","","","","","","","","","","","","",""
"11880","","<p>Before you start with this game please answer the following three questions yourself. </p>
  <p>Through this game, we measure several aspects of your cognitive performance, such as reaction times, multi-tasking capabilities </p>
  <p>and the ability to assess the situation you are in.</p>
  <p></p>
  <p><b>How good do you usually are in such tasks?</b></p>","66","html-slider-response","40","744567","0.0-9.0-0.0","89","1","2025-07-02 10:19:15","80fe4187154257d5fb01684ea91b68b9","168.235.145.235","Mozilla/5.0 (Windows NT 10.0; Win64; x64) AppleWebKit/537.36 (KHTML, like Gecko) Chrome/137.0.0.0 Safari/537.36","WebKit","Chrome","137.0.0.0","Windows","10.0","https://app.prolific.com/","en-US,en;q=0.9","67acd4bb175b263fb4a92c4d","683db6dfa200031b80f2a654","6865076961fa751d54dceac4","67acd4bb175b263fb4a92c4d","2025-07-02T10:31:46.800Z","","","","","","PreSkillQ","","","","","","","","","","","","","","","","","","","","","","","","","","","","","","","","","","","","","","50"
"4175","","<div style=""width:500px;"">
  <p>How well do you think you will perform in this task compared to other participants?</p>
  </div>","67","html-slider-response","41","748748","0.0-9.0-1.0","89","1","2025-07-02 10:19:15","80fe4187154257d5fb01684ea91b68b9","168.235.145.235","Mozilla/5.0 (Windows NT 10.0; Win64; x64) AppleWebKit/537.36 (KHTML, like Gecko) Chrome/137.0.0.0 Safari/537.36","WebKit","Chrome","137.0.0.0","Windows","10.0","https://app.prolific.com/","en-US,en;q=0.9","67acd4bb175b263fb4a92c4d","683db6dfa200031b80f2a654","6865076961fa751d54dceac4","67acd4bb175b263fb4a92c4d","2025-07-02T10:31:50.982Z","","","","","","PrePerfQ","","","","","","","","","","","","","","","","","","","","","","","","","","","","","","","","","","","","","","50"
"5864","","<div style=""width:500px;"">
  <p>What best describes how you currently feel?</p>
  </div>","80","html-slider-response","42","754616","0.0-9.0-2.0","89","1","2025-07-02 10:19:15","80fe4187154257d5fb01684ea91b68b9","168.235.145.235","Mozilla/5.0 (Windows NT 10.0; Win64; x64) AppleWebKit/537.36 (KHTML, like Gecko) Chrome/137.0.0.0 Safari/537.36","WebKit","Chrome","137.0.0.0","Windows","10.0","https://app.prolific.com/","en-US,en;q=0.9","67acd4bb175b263fb4a92c4d","683db6dfa200031b80f2a654","6865076961fa751d54dceac4","67acd4bb175b263fb4a92c4d","2025-07-02T10:31:56.850Z","","","","","","PreMotivationQ","","","","","","","","","","","","","","","","","","","","","","","","","","","","","","","","","","","","","","50"
"","","","","ctl-task-cpt","43","778007","0.0-10.0-0.0","89","1","2025-07-02 10:19:15","80fe4187154257d5fb01684ea91b68b9","168.235.145.235","Mozilla/5.0 (Windows NT 10.0; Win64; x64) AppleWebKit/537.36 (KHTML, like Gecko) Chrome/137.0.0.0 Safari/537.36","WebKit","Chrome","137.0.0.0","Windows","10.0","https://app.prolific.com/","en-US,en;q=0.9","67acd4bb175b263fb4a92c4d","683db6dfa200031b80f2a654","6865076961fa751d54dceac4","67acd4bb175b263fb4a92c4d","2025-07-02T10:32:20.240Z","","","","","","","","","","","","","","","","win-only","0","g1:NW,g2:SE","1","1","0","762793.4","2100.1","7113.6","20358.6","1","4","8","6","1","1","1","1","0","0.007575757575757576","2592.4","3000","2005","[""left"",""up""]","{""num_key_presses"":4,""num_perfect"":4,""num_errors"":0,""num_randdir"":0,""num_randdir_good_moves"":0,""num_whilered"":0,""num_whileblue"":0,""num_blue"":1,""num_good_moves"":4}","[514.7142857142857,513.1908482142857,1,514.7142857142857,513.1908482142857,122.7,514.7142857142857,513.1908482142857,224.9,514.7142857142857,513.1908482142857,328.9,514.7142857142857,513.1908482142857,444,514.7142857142857,513.1908482142857,563.3,514.7142857142857,513.1908482142857,679,514.7142857142857,513.1908482142857,782.2,514.7142857142857,513.1908482142857,889.1,514.7142857142857,513.1908482142857,997.8,514.7142857142857,513.1908482142857,1103.2,514.7142857142857,513.1908482142857,1218.1,514.7142857142857,513.1908482142857,1349.9,514.7142857142857,513.1908482142857,1490.5,514.7142857142857,513.1908482142857,1609.2,514.7142857142857,513.1908482142857,1717.1,514.7142857142857,513.1908482142857,1822.2,514.7142857142857,513.1908482142857,1922.4,433.7142857142857,439.6908482142857,2024.8,100.71428571428571,166.69084821428572,2136.9,88.71428571428571,156.19084821428572,2240.8,87.21428571428571,151.69084821428572,2352.5,91.71428571428571,145.69084821428572,2456,91.71428571428571,145.69084821428572,2588.6,91.71428571428571,145.69084821428572,2732.6,91.71428571428571,145.69084821428572,2838.7,91.71428571428571,145.69084821428572,2960,91.71428571428571,145.69084821428572,3063,91.71428571428571,145.69084821428572,3172.4,91.71428571428571,145.69084821428572,3274.2,91.71428571428571,145.69084821428572,3381.7,91.71428571428571,145.69084821428572,3484.9,91.71428571428571,145.69084821428572,3601.9,91.71428571428571,145.69084821428572,3716.5,91.71428571428571,145.69084821428572,3828.4,91.71428571428571,145.69084821428572,3932.3,91.71428571428571,145.69084821428572,4049.3,91.71428571428571,145.69084821428572,4150.7,91.71428571428571,145.69084821428572,4253.8,91.71428571428571,145.69084821428572,4356.7,91.71428571428571,145.69084821428572,4458.2,91.71428571428571,145.69084821428572,4558.7,91.71428571428571,145.69084821428572,4678,91.71428571428571,145.69084821428572,4784.8,91.71428571428571,145.69084821428572,4891.3,91.71428571428571,145.69084821428572,4995.7]","[1679.9,1679.8,1000,0.1,679.9,""smooth"",""up"",""up"",""good_move"",4472.6,2790.3,2231.4,1682.3,558.9,""smooth"",""up"",""up"",""good_move"",7042,2568.3,2210.7,4473.8,357.6,""smooth"",""left"",""left"",""good_move"",13056.3,6012.6,2696.6,9910.8,448.9,""smooth"",""left"",""left"",""good_move""]","",""
"4020","","<div style=""width:500px;"">
  <p>What determined the result of this run?</p>
  </div>","89","html-slider-response","44","782032","0.0-10.0-1.0","89","1","2025-07-02 10:19:15","80fe4187154257d5fb01684ea91b68b9","168.235.145.235","Mozilla/5.0 (Windows NT 10.0; Win64; x64) AppleWebKit/537.36 (KHTML, like Gecko) Chrome/137.0.0.0 Safari/537.36","WebKit","Chrome","137.0.0.0","Windows","10.0","https://app.prolific.com/","en-US,en;q=0.9","67acd4bb175b263fb4a92c4d","683db6dfa200031b80f2a654","6865076961fa751d54dceac4","67acd4bb175b263fb4a92c4d","2025-07-02T10:32:24.266Z","","","","","","AttribQ","","","","","","","","","","","","","","","","","","","","","","","","","","","","","","","","","","","","","","50"
"3480","","<div style=""width:500px;"">
  <p>How much control did you have over the ball?</p>
  </div>","87","html-slider-response","45","785518","0.0-10.0-2.0","89","1","2025-07-02 10:19:15","80fe4187154257d5fb01684ea91b68b9","168.235.145.235","Mozilla/5.0 (Windows NT 10.0; Win64; x64) AppleWebKit/537.36 (KHTML, like Gecko) Chrome/137.0.0.0 Safari/537.36","WebKit","Chrome","137.0.0.0","Windows","10.0","https://app.prolific.com/","en-US,en;q=0.9","67acd4bb175b263fb4a92c4d","683db6dfa200031b80f2a654","6865076961fa751d54dceac4","67acd4bb175b263fb4a92c4d","2025-07-02T10:32:27.752Z","","","","","","ControlQ","","","","","","","","","","","","","","","","","","","","","","","","","","","","","","","","","","","","","","50"
"6299","","<div style=""width:500px;"">
  <p>How would you describe your current emotional state?</p>
  </div>","6","html-slider-response","46","791825","0.0-10.0-3.0","89","1","2025-07-02 10:19:15","80fe4187154257d5fb01684ea91b68b9","168.235.145.235","Mozilla/5.0 (Windows NT 10.0; Win64; x64) AppleWebKit/537.36 (KHTML, like Gecko) Chrome/137.0.0.0 Safari/537.36","WebKit","Chrome","137.0.0.0","Windows","10.0","https://app.prolific.com/","en-US,en;q=0.9","67acd4bb175b263fb4a92c4d","683db6dfa200031b80f2a654","6865076961fa751d54dceac4","67acd4bb175b263fb4a92c4d","2025-07-02T10:32:34.059Z","","","","","","StressQ","","","","","","","","","","","","","","","","","","","","","","","","","","","","","","","","","","","","","","50"
"5153","","<div style=""width:500px;"">
  <p>What best describes how you currently feel?</p>
  </div>","87","html-slider-response","47","796983","0.0-10.0-4.0","89","1","2025-07-02 10:19:15","80fe4187154257d5fb01684ea91b68b9","168.235.145.235","Mozilla/5.0 (Windows NT 10.0; Win64; x64) AppleWebKit/537.36 (KHTML, like Gecko) Chrome/137.0.0.0 Safari/537.36","WebKit","Chrome","137.0.0.0","Windows","10.0","https://app.prolific.com/","en-US,en;q=0.9","67acd4bb175b263fb4a92c4d","683db6dfa200031b80f2a654","6865076961fa751d54dceac4","67acd4bb175b263fb4a92c4d","2025-07-02T10:32:39.217Z","","","","","","MotivationQ","","","","","","","","","","","","","","","","","","","","","","","","","","","","","","","","","","","","","","50"
"","","","","ctl-task-cpt","48","830673","0.0-10.0-0.1","89","1","2025-07-02 10:19:15","80fe4187154257d5fb01684ea91b68b9","168.235.145.235","Mozilla/5.0 (Windows NT 10.0; Win64; x64) AppleWebKit/537.36 (KHTML, like Gecko) Chrome/137.0.0.0 Safari/537.36","WebKit","Chrome","137.0.0.0","Windows","10.0","https://app.prolific.com/","en-US,en;q=0.9","67acd4bb175b263fb4a92c4d","683db6dfa200031b80f2a654","6865076961fa751d54dceac4","67acd4bb175b263fb4a92c4d","2025-07-02T10:33:12.906Z","","","","","","","","","","","","","","","","win-only","3","g1:SW,g2:NE","0.9","2","0","805163.7","1700.4","6704","30652.9","1","4","4","6","2","4","4","5","1","0.03787878787878788","2430.6","3000","1995","[""up"",""right""]","{""num_key_presses"":6,""num_perfect"":6,""num_errors"":0,""num_randdir"":0,""num_randdir_good_moves"":0,""num_whilered"":0,""num_whileblue"":0,""num_blue"":2,""num_good_moves"":6}","[513.2142857142857,517.6908482142857,1,513.2142857142857,517.6908482142857,101.9,513.2142857142857,517.6908482142857,215.6,513.2142857142857,517.6908482142857,341.2,513.2142857142857,517.6908482142857,453.5,513.2142857142857,517.6908482142857,577.5,513.2142857142857,517.6908482142857,679.2,292.7142857142857,684.1908482142857,790.9,175.71428571428572,849.1908482142857,917.5,141.21428571428572,946.6908482142857,1017.9,135.21428571428572,976.6908482142857,1121.2,130.71428571428572,979.6908482142857,1235.7,130.71428571428572,979.6908482142857,1338.5,130.71428571428572,979.6908482142857,1452.5,130.71428571428572,979.6908482142857,1567,177.21428571428572,922.6908482142857,1690,775.7142857142857,264.1908482142857,1816.1,858.2142857142857,211.69084821428572,1924.3,898.7142857142857,180.19084821428572,2035.3,880.7142857142857,133.69084821428572,2145.4,880.7142857142857,111.19084821428571,2256.6,880.7142857142857,111.19084821428571,2357.6,880.7142857142857,111.19084821428571,2463.9,880.7142857142857,111.19084821428571,2601.6,880.7142857142857,111.19084821428571,2723.1,880.7142857142857,111.19084821428571,2829.2,880.7142857142857,111.19084821428571,2933.3,880.7142857142857,111.19084821428571,3033.4,538.7142857142857,114.19084821428571,3145.4,-163.28571428571428,205.69084821428572,3253,-163.28571428571428,205.69084821428572,3367.8,-163.28571428571428,205.69084821428572,3472.5,-163.28571428571428,205.69084821428572,3588.9,-163.28571428571428,205.69084821428572,3692.7,-163.28571428571428,205.69084821428572,3813.2,-163.28571428571428,205.69084821428572,3918.4,-163.28571428571428,205.69084821428572,4025.7,-163.28571428571428,205.69084821428572,4145,-163.28571428571428,205.69084821428572,4262.9,-163.28571428571428,205.69084821428572,4382.5,-163.28571428571428,205.69084821428572,4492.3,-163.28571428571428,205.69084821428572,4607,-163.28571428571428,205.69084821428572,4711.8,-163.28571428571428,205.69084821428572,4815.6,-163.28571428571428,205.69084821428572,4927.6]","[1587,1587,1000,0,587,""smooth"",""right"",""right"",""good_move"",4862.8,3273.8,2875.6,1589.1,398.2,""smooth"",""right"",""right"",""good_move"",7472.1,2607.6,2179.4,4864.6,428.2,""smooth"",""right"",""right"",""good_move"",16829.1,9355.9,2446.1,13956.9,426.1,""smooth"",""up"",""up"",""good_move"",20407.9,3576.6,3152.1,16831.3,424.5,""smooth"",""up"",""up"",""good_move"",23741.7,3332.3,2877.6,20409.5,454.6,""smooth"",""up"",""up"",""good_move""]","",""
"4617","","<div style=""width:500px;"">
  <p>What determined the result of this run?</p>
  </div>","87","html-slider-response","49","835295","0.0-10.0-1.1","89","1","2025-07-02 10:19:15","80fe4187154257d5fb01684ea91b68b9","168.235.145.235","Mozilla/5.0 (Windows NT 10.0; Win64; x64) AppleWebKit/537.36 (KHTML, like Gecko) Chrome/137.0.0.0 Safari/537.36","WebKit","Chrome","137.0.0.0","Windows","10.0","https://app.prolific.com/","en-US,en;q=0.9","67acd4bb175b263fb4a92c4d","683db6dfa200031b80f2a654","6865076961fa751d54dceac4","67acd4bb175b263fb4a92c4d","2025-07-02T10:33:17.529Z","","","","","","AttribQ","","","","","","","","","","","","","","","","","","","","","","","","","","","","","","","","","","","","","","50"
"2514","","<div style=""width:500px;"">
  <p>How much control did you have over the ball?</p>
  </div>","91","html-slider-response","50","837817","0.0-10.0-2.1","89","1","2025-07-02 10:19:15","80fe4187154257d5fb01684ea91b68b9","168.235.145.235","Mozilla/5.0 (Windows NT 10.0; Win64; x64) AppleWebKit/537.36 (KHTML, like Gecko) Chrome/137.0.0.0 Safari/537.36","WebKit","Chrome","137.0.0.0","Windows","10.0","https://app.prolific.com/","en-US,en;q=0.9","67acd4bb175b263fb4a92c4d","683db6dfa200031b80f2a654","6865076961fa751d54dceac4","67acd4bb175b263fb4a92c4d","2025-07-02T10:33:20.050Z","","","","","","ControlQ","","","","","","","","","","","","","","","","","","","","","","","","","","","","","","","","","","","","","","50"
"2575","","<div style=""width:500px;"">
  <p>How would you describe your current emotional state?</p>
  </div>","91","html-slider-response","51","840399","0.0-10.0-3.1","89","1","2025-07-02 10:19:15","80fe4187154257d5fb01684ea91b68b9","168.235.145.235","Mozilla/5.0 (Windows NT 10.0; Win64; x64) AppleWebKit/537.36 (KHTML, like Gecko) Chrome/137.0.0.0 Safari/537.36","WebKit","Chrome","137.0.0.0","Windows","10.0","https://app.prolific.com/","en-US,en;q=0.9","67acd4bb175b263fb4a92c4d","683db6dfa200031b80f2a654","6865076961fa751d54dceac4","67acd4bb175b263fb4a92c4d","2025-07-02T10:33:22.633Z","","","","","","StressQ","","","","","","","","","","","","","","","","","","","","","","","","","","","","","","","","","","","","","","50"
"3307","","<div style=""width:500px;"">
  <p>What best describes how you currently feel?</p>
  </div>","92","html-slider-response","52","843712","0.0-10.0-4.1","89","1","2025-07-02 10:19:15","80fe4187154257d5fb01684ea91b68b9","168.235.145.235","Mozilla/5.0 (Windows NT 10.0; Win64; x64) AppleWebKit/537.36 (KHTML, like Gecko) Chrome/137.0.0.0 Safari/537.36","WebKit","Chrome","137.0.0.0","Windows","10.0","https://app.prolific.com/","en-US,en;q=0.9","67acd4bb175b263fb4a92c4d","683db6dfa200031b80f2a654","6865076961fa751d54dceac4","67acd4bb175b263fb4a92c4d","2025-07-02T10:33:25.946Z","","","","","","MotivationQ","","","","","","","","","","","","","","","","","","","","","","","","","","","","","","","","","","","","","","50"
"","","","","ctl-task-cpt","53","886440","0.0-10.0-0.2","89","1","2025-07-02 10:19:15","80fe4187154257d5fb01684ea91b68b9","168.235.145.235","Mozilla/5.0 (Windows NT 10.0; Win64; x64) AppleWebKit/537.36 (KHTML, like Gecko) Chrome/137.0.0.0 Safari/537.36","WebKit","Chrome","137.0.0.0","Windows","10.0","https://app.prolific.com/","en-US,en;q=0.9","67acd4bb175b263fb4a92c4d","683db6dfa200031b80f2a654","6865076961fa751d54dceac4","67acd4bb175b263fb4a92c4d","2025-07-02T10:34:08.673Z","","","","","","","","","","","","","","","","win-only","2","g1:SE,g2:NW","0.8","3","0","851891","1625.9","6635","39692.9","1","4","4","6","2","4","3","8","5","0.06060606060606061","1472.3","3000","2080","[""left"",""up""]","{""num_key_presses"":7,""num_perfect"":6,""num_errors"":1,""num_randdir"":0,""num_randdir_good_moves"":0,""num_whilered"":0,""num_whileblue"":0,""num_blue"":3,""num_good_moves"":6}","[519.2142857142857,516.1908482142857,0.7,519.2142857142857,516.1908482142857,102.7,519.2142857142857,516.1908482142857,221.8,519.2142857142857,516.1908482142857,326.9,519.2142857142857,516.1908482142857,429.6,519.2142857142857,516.1908482142857,536.6,307.7142857142857,502.6908482142857,652.5,-238.28571428571428,363.1908482142857,771.4,-164.78571428571428,211.69084821428572,883.3,-31.285714285714292,132.19084821428572,997.5,13.714285714285708,130.69084821428572,1104.7,160.71428571428572,72.19084821428571,1232,165.21428571428572,69.19084821428571,1336,165.21428571428572,69.19084821428571,1453.3,165.21428571428572,69.19084821428571,1561.1,165.21428571428572,69.19084821428571,1686.5,165.21428571428572,69.19084821428571,1795.6,165.21428571428572,69.19084821428571,1899.7,165.21428571428572,69.19084821428571,2000,165.21428571428572,69.19084821428571,2104.5,165.21428571428572,69.19084821428571,2228.7,-679.2857142857143,141.19084821428572,2339.1,-679.2857142857143,166.69084821428572,2440.3,-679.2857142857143,166.69084821428572,2543.1,-679.2857142857143,166.69084821428572,2665.1,-679.2857142857143,166.69084821428572,2805.1,-679.2857142857143,166.69084821428572,2911.3,-679.2857142857143,166.69084821428572,3035.3,-679.2857142857143,166.69084821428572,3138.5,-679.2857142857143,166.69084821428572,3280.4,-679.2857142857143,166.69084821428572,3382,-679.2857142857143,166.69084821428572,3494.6,-679.2857142857143,166.69084821428572,3606.7,-679.2857142857143,166.69084821428572,3712,-679.2857142857143,166.69084821428572,3818.3,-679.2857142857143,166.69084821428572,3918.3,-679.2857142857143,166.69084821428572,4019.3,-679.2857142857143,166.69084821428572,4125.1,-679.2857142857143,166.69084821428572,4236.3,-679.2857142857143,166.69084821428572,4336.7,-679.2857142857143,166.69084821428572,4438.3,-679.2857142857143,166.69084821428572,4543.5,-679.2857142857143,166.69084821428572,4644.4,-679.2857142857143,166.69084821428572,4749.5,-679.2857142857143,166.69084821428572,4871.6,-679.2857142857143,166.69084821428572,4995.2]","[868.3,868.3,1000,0,-131.7,""error"",""-"",""-"",""no_move"",3860.7,2991.4,1480.5,1878.8,501.4,""smooth"",""left"",""left"",""good_move"",7193,3330.5,2353.9,3862.5,976.7,""smooth"",""left"",""left"",""good_move"",10913.1,3718.8,3244.6,7194.3,474.2,""smooth"",""left"",""left"",""good_move"",22247.7,11333.2,2588,19294.9,364.8,""smooth"",""up"",""up"",""good_move"",25537.2,3288,2152,22249.2,1136.1,""smooth"",""up"",""up"",""good_move"",32825.1,7286.5,2705.3,29705.3,414.5,""smooth"",""up"",""up"",""good_move""]","",""
"5804","","<div style=""width:500px;"">
  <p>What determined the result of this run?</p>
  </div>","93","html-slider-response","54","892251","0.0-10.0-1.2","89","1","2025-07-02 10:19:15","80fe4187154257d5fb01684ea91b68b9","168.235.145.235","Mozilla/5.0 (Windows NT 10.0; Win64; x64) AppleWebKit/537.36 (KHTML, like Gecko) Chrome/137.0.0.0 Safari/537.36","WebKit","Chrome","137.0.0.0","Windows","10.0","https://app.prolific.com/","en-US,en;q=0.9","67acd4bb175b263fb4a92c4d","683db6dfa200031b80f2a654","6865076961fa751d54dceac4","67acd4bb175b263fb4a92c4d","2025-07-02T10:34:14.484Z","","","","","","AttribQ","","","","","","","","","","","","","","","","","","","","","","","","","","","","","","","","","","","","","","50"
"5138","","<div style=""width:500px;"">
  <p>How much control did you have over the ball?</p>
  </div>","90","html-slider-response","55","897396","0.0-10.0-2.2","89","1","2025-07-02 10:19:15","80fe4187154257d5fb01684ea91b68b9","168.235.145.235","Mozilla/5.0 (Windows NT 10.0; Win64; x64) AppleWebKit/537.36 (KHTML, like Gecko) Chrome/137.0.0.0 Safari/537.36","WebKit","Chrome","137.0.0.0","Windows","10.0","https://app.prolific.com/","en-US,en;q=0.9","67acd4bb175b263fb4a92c4d","683db6dfa200031b80f2a654","6865076961fa751d54dceac4","67acd4bb175b263fb4a92c4d","2025-07-02T10:34:19.630Z","","","","","","ControlQ","","","","","","","","","","","","","","","","","","","","","","","","","","","","","","","","","","","","","","50"
"3744","","<div style=""width:500px;"">
  <p>How would you describe your current emotional state?</p>
  </div>","86","html-slider-response","56","901147","0.0-10.0-3.2","89","1","2025-07-02 10:19:15","80fe4187154257d5fb01684ea91b68b9","168.235.145.235","Mozilla/5.0 (Windows NT 10.0; Win64; x64) AppleWebKit/537.36 (KHTML, like Gecko) Chrome/137.0.0.0 Safari/537.36","WebKit","Chrome","137.0.0.0","Windows","10.0","https://app.prolific.com/","en-US,en;q=0.9","67acd4bb175b263fb4a92c4d","683db6dfa200031b80f2a654","6865076961fa751d54dceac4","67acd4bb175b263fb4a92c4d","2025-07-02T10:34:23.381Z","","","","","","StressQ","","","","","","","","","","","","","","","","","","","","","","","","","","","","","","","","","","","","","","50"
"7700","","<div style=""width:500px;"">
  <p>What best describes how you currently feel?</p>
  </div>","77","html-slider-response","57","908855","0.0-10.0-4.2","89","1","2025-07-02 10:19:15","80fe4187154257d5fb01684ea91b68b9","168.235.145.235","Mozilla/5.0 (Windows NT 10.0; Win64; x64) AppleWebKit/537.36 (KHTML, like Gecko) Chrome/137.0.0.0 Safari/537.36","WebKit","Chrome","137.0.0.0","Windows","10.0","https://app.prolific.com/","en-US,en;q=0.9","67acd4bb175b263fb4a92c4d","683db6dfa200031b80f2a654","6865076961fa751d54dceac4","67acd4bb175b263fb4a92c4d","2025-07-02T10:34:31.089Z","","","","","","MotivationQ","","","","","","","","","","","","","","","","","","","","","","","","","","","","","","","","","","","","","","50"
"","","","","ctl-task-cpt","58","936614","0.0-10.0-0.3","89","1","2025-07-02 10:19:15","80fe4187154257d5fb01684ea91b68b9","168.235.145.235","Mozilla/5.0 (Windows NT 10.0; Win64; x64) AppleWebKit/537.36 (KHTML, like Gecko) Chrome/137.0.0.0 Safari/537.36","WebKit","Chrome","137.0.0.0","Windows","10.0","https://app.prolific.com/","en-US,en;q=0.9","67acd4bb175b263fb4a92c4d","683db6dfa200031b80f2a654","6865076961fa751d54dceac4","67acd4bb175b263fb4a92c4d","2025-07-02T10:34:58.848Z","","","","","","","","","","","","","","","","win-only","0","g1:NW,g2:SE","0.7","4","0","917031.3","1541.6","6595.1","24725.4","1","4","8","6","1","1","1","9","8","0.06818181818181818","1996.1","3000","2140","[""left"",""up""]","{""num_key_presses"":6,""num_perfect"":5,""num_errors"":0,""num_randdir"":1,""num_randdir_good_moves"":0,""num_whilered"":0,""num_whileblue"":0,""num_blue"":0,""num_good_moves"":5}","[519.2142857142857,526.6908482142857,1,519.2142857142857,526.6908482142857,110.6,519.2142857142857,526.6908482142857,231.7,519.2142857142857,526.6908482142857,352.5,519.2142857142857,526.6908482142857,454,519.2142857142857,526.6908482142857,574.1,519.2142857142857,526.6908482142857,708.8,468.2142857142857,357.1908482142857,829.6,378.2142857142857,150.19084821428572,945.2,294.2142857142857,33.19084821428571,1052.9,153.21428571428572,91.69084821428571,1165.6,112.71428571428571,99.19084821428571,1274.8,93.21428571428571,103.69084821428571,1388.6,93.21428571428571,103.69084821428571,1500.1,93.21428571428571,103.69084821428571,1606.2,93.21428571428571,103.69084821428571,1732.7,93.21428571428571,103.69084821428571,1851.6,93.21428571428571,103.69084821428571,1961.7,93.21428571428571,103.69084821428571,2074.7,93.21428571428571,103.69084821428571,2198.4,93.21428571428571,103.69084821428571,2362.1,93.21428571428571,103.69084821428571,2464.3,93.21428571428571,103.69084821428571,2571.8,93.21428571428571,103.69084821428571,2708.8,93.21428571428571,103.69084821428571,2809.1,93.21428571428571,103.69084821428571,2920.5,93.21428571428571,103.69084821428571,3026.8,93.21428571428571,103.69084821428571,3134.1,93.21428571428571,103.69084821428571,3242.2,93.21428571428571,103.69084821428571,3352.3,93.21428571428571,103.69084821428571,3459.9,93.21428571428571,103.69084821428571,3570,93.21428571428571,103.69084821428571,3672.8,93.21428571428571,103.69084821428571,3775.1,93.21428571428571,103.69084821428571,3898.5,93.21428571428571,103.69084821428571,4011.9,93.21428571428571,103.69084821428571,4124.7,93.21428571428571,103.69084821428571,4300.4,93.21428571428571,103.69084821428571,4408.4,93.21428571428571,103.69084821428571,4512.4,93.21428571428571,103.69084821428571,4615.2,93.21428571428571,103.69084821428571,4722,93.21428571428571,103.69084821428571,4847.7,93.21428571428571,103.69084821428571,4947.8]","[1615.5,1615.5,1000,0.1,615.4,""smooth"",""up"",""up"",""good_move"",5269.4,3651.9,2141.9,1617.6,1509.9,""smooth"",""up"",""up"",""good_move"",8393,3122.7,2364.4,5270.4,758.3,""oops"",""left"",""down"",""bad_move"",10961.3,2565.7,2171.3,8395.7,394.3,""smooth"",""left"",""left"",""good_move"",14327.4,3364.8,2691.3,10962.7,673.5,""smooth"",""up"",""up"",""good_move"",17792.2,3463,2670.4,14329.2,792.6,""smooth"",""left"",""left"",""good_move""]","",""
"4402","","<div style=""width:500px;"">
  <p>What determined the result of this run?</p>
  </div>","74","html-slider-response","59","941022","0.0-10.0-1.3","89","1","2025-07-02 10:19:15","80fe4187154257d5fb01684ea91b68b9","168.235.145.235","Mozilla/5.0 (Windows NT 10.0; Win64; x64) AppleWebKit/537.36 (KHTML, like Gecko) Chrome/137.0.0.0 Safari/537.36","WebKit","Chrome","137.0.0.0","Windows","10.0","https://app.prolific.com/","en-US,en;q=0.9","67acd4bb175b263fb4a92c4d","683db6dfa200031b80f2a654","6865076961fa751d54dceac4","67acd4bb175b263fb4a92c4d","2025-07-02T10:35:03.256Z","","","","","","AttribQ","","","","","","","","","","","","","","","","","","","","","","","","","","","","","","","","","","","","","","50"
"5709","","<div style=""width:500px;"">
  <p>How much control did you have over the ball?</p>
  </div>","80","html-slider-response","60","946740","0.0-10.0-2.3","89","1","2025-07-02 10:19:15","80fe4187154257d5fb01684ea91b68b9","168.235.145.235","Mozilla/5.0 (Windows NT 10.0; Win64; x64) AppleWebKit/537.36 (KHTML, like Gecko) Chrome/137.0.0.0 Safari/537.36","WebKit","Chrome","137.0.0.0","Windows","10.0","https://app.prolific.com/","en-US,en;q=0.9","67acd4bb175b263fb4a92c4d","683db6dfa200031b80f2a654","6865076961fa751d54dceac4","67acd4bb175b263fb4a92c4d","2025-07-02T10:35:08.974Z","","","","","","ControlQ","","","","","","","","","","","","","","","","","","","","","","","","","","","","","","","","","","","","","","50"
"5582","","<div style=""width:500px;"">
  <p>How would you describe your current emotional state?</p>
  </div>","19","html-slider-response","61","952328","0.0-10.0-3.3","89","1","2025-07-02 10:19:15","80fe4187154257d5fb01684ea91b68b9","168.235.145.235","Mozilla/5.0 (Windows NT 10.0; Win64; x64) AppleWebKit/537.36 (KHTML, like Gecko) Chrome/137.0.0.0 Safari/537.36","WebKit","Chrome","137.0.0.0","Windows","10.0","https://app.prolific.com/","en-US,en;q=0.9","67acd4bb175b263fb4a92c4d","683db6dfa200031b80f2a654","6865076961fa751d54dceac4","67acd4bb175b263fb4a92c4d","2025-07-02T10:35:14.562Z","","","","","","StressQ","","","","","","","","","","","","","","","","","","","","","","","","","","","","","","","","","","","","","","50"
"3940","","<div style=""width:500px;"">
  <p>What best describes how you currently feel?</p>
  </div>","53","html-slider-response","62","956274","0.0-10.0-4.3","89","1","2025-07-02 10:19:15","80fe4187154257d5fb01684ea91b68b9","168.235.145.235","Mozilla/5.0 (Windows NT 10.0; Win64; x64) AppleWebKit/537.36 (KHTML, like Gecko) Chrome/137.0.0.0 Safari/537.36","WebKit","Chrome","137.0.0.0","Windows","10.0","https://app.prolific.com/","en-US,en;q=0.9","67acd4bb175b263fb4a92c4d","683db6dfa200031b80f2a654","6865076961fa751d54dceac4","67acd4bb175b263fb4a92c4d","2025-07-02T10:35:18.508Z","","","","","","MotivationQ","","","","","","","","","","","","","","","","","","","","","","","","","","","","","","","","","","","","","","50"
"","","","","ctl-task-cpt","63","1004260","0.0-10.0-0.4","89","1","2025-07-02 10:19:15","80fe4187154257d5fb01684ea91b68b9","168.235.145.235","Mozilla/5.0 (Windows NT 10.0; Win64; x64) AppleWebKit/537.36 (KHTML, like Gecko) Chrome/137.0.0.0 Safari/537.36","WebKit","Chrome","137.0.0.0","Windows","10.0","https://app.prolific.com/","en-US,en;q=0.9","67acd4bb175b263fb4a92c4d","683db6dfa200031b80f2a654","6865076961fa751d54dceac4","67acd4bb175b263fb4a92c4d","2025-07-02T10:36:06.493Z","","","","","","","","","","","","","","","","win-only","2","g1:SE,g2:NW","0.6","5","0","964458","1528.5","6544.3","44938.6","1","4","8","6","2","8","8","17","9","0.12878787878787878","3166.8","3000","1905","[""left"",""up""]","{""num_key_presses"":10,""num_perfect"":6,""num_errors"":0,""num_randdir"":4,""num_randdir_good_moves"":2,""num_whilered"":0,""num_whileblue"":0,""num_blue"":1,""num_good_moves"":8}","[514.7142857142857,535.6908482142857,0.8,514.7142857142857,535.6908482142857,115.2,514.7142857142857,535.6908482142857,215.3,514.7142857142857,535.6908482142857,321.6,514.7142857142857,535.6908482142857,440.4,610.7142857142857,405.1908482142857,556.7,724.7142857142857,292.6908482142857,666,891.2142857142857,120.19084821428571,787.4,898.7142857142857,120.19084821428571,890.5,909.2142857142857,117.19084821428571,995.1,909.2142857142857,117.19084821428571,1112.6,909.2142857142857,117.19084821428571,1219.6,909.2142857142857,117.19084821428571,1325.1,909.2142857142857,117.19084821428571,1440.1,909.2142857142857,117.19084821428571,1547.4,909.2142857142857,117.19084821428571,1658.4,909.2142857142857,117.19084821428571,1775.4,909.2142857142857,117.19084821428571,1891,909.2142857142857,117.19084821428571,2001.7,909.2142857142857,117.19084821428571,2132.6,909.2142857142857,117.19084821428571,2249.7,909.2142857142857,117.19084821428571,2355.7,909.2142857142857,117.19084821428571,2456.1,909.2142857142857,117.19084821428571,2568.8,421.7142857142857,129.19084821428572,2671,216.21428571428572,126.19084821428571,2796.5,177.21428571428572,114.19084821428571,2920.4,148.71428571428572,84.19084821428571,3028.7,147.21428571428572,84.19084821428571,3135,147.21428571428572,84.19084821428571,3239.6,147.21428571428572,84.19084821428571,3339.6,147.21428571428572,84.19084821428571,3456.1,147.21428571428572,84.19084821428571,3569.2,147.21428571428572,84.19084821428571,3690.7,363.2142857142857,130.69084821428572,3812.3,528.2142857142857,307.6908482142857,3917,568.7142857142857,372.1908482142857,4024.5,568.7142857142857,372.1908482142857,4133.8,568.7142857142857,372.1908482142857,4251.4,568.7142857142857,372.1908482142857,4361.4,568.7142857142857,372.1908482142857,4461.6,568.7142857142857,372.1908482142857,4568.2,568.7142857142857,372.1908482142857,4684.9,568.7142857142857,372.1908482142857,4786.9,568.7142857142857,372.1908482142857,4891.5,568.7142857142857,372.1908482142857,4998.2]","[4113.9,4113.9,1625.1,2012.5,476.3,""smooth"",""up"",""up"",""good_move"",7777.8,3661.9,2401.9,4115.9,1260,""oops"",""left"",""up"",""good_move"",11607.6,3828.7,2238.4,7778.9,1590.3,""smooth"",""left"",""left"",""good_move"",16736.8,5127.4,2391.1,11609.5,2736.2,""oops"",""left"",""right"",""bad_move"",20027.6,3288.2,2602.9,16739.5,685.2,""smooth"",""up"",""up"",""good_move"",24031.5,4002.4,2623.9,20029.1,1378.6,""smooth"",""left"",""left"",""good_move"",27641.7,3608.8,2863.3,24032.9,745.6,""smooth"",""left"",""left"",""good_move"",31507,3863.5,2367.1,27643.5,1496.4,""oops"",""left"",""right"",""bad_move"",34482.6,2974.3,2336.5,31508.4,637.7,""smooth"",""left"",""left"",""good_move"",38150.1,3666.3,2536.6,34483.9,1129.7,""oops"",""left"",""left"",""good_move""]","",""
"4502","","<div style=""width:500px;"">
  <p>What determined the result of this run?</p>
  </div>","85","html-slider-response","64","1008767","0.0-10.0-1.4","89","1","2025-07-02 10:19:15","80fe4187154257d5fb01684ea91b68b9","168.235.145.235","Mozilla/5.0 (Windows NT 10.0; Win64; x64) AppleWebKit/537.36 (KHTML, like Gecko) Chrome/137.0.0.0 Safari/537.36","WebKit","Chrome","137.0.0.0","Windows","10.0","https://app.prolific.com/","en-US,en;q=0.9","67acd4bb175b263fb4a92c4d","683db6dfa200031b80f2a654","6865076961fa751d54dceac4","67acd4bb175b263fb4a92c4d","2025-07-02T10:36:11.000Z","","","","","","AttribQ","","","","","","","","","","","","","","","","","","","","","","","","","","","","","","","","","","","","","","50"
"4476","","<div style=""width:500px;"">
  <p>How much control did you have over the ball?</p>
  </div>","87","html-slider-response","65","1013249","0.0-10.0-2.4","89","1","2025-07-02 10:19:15","80fe4187154257d5fb01684ea91b68b9","168.235.145.235","Mozilla/5.0 (Windows NT 10.0; Win64; x64) AppleWebKit/537.36 (KHTML, like Gecko) Chrome/137.0.0.0 Safari/537.36","WebKit","Chrome","137.0.0.0","Windows","10.0","https://app.prolific.com/","en-US,en;q=0.9","67acd4bb175b263fb4a92c4d","683db6dfa200031b80f2a654","6865076961fa751d54dceac4","67acd4bb175b263fb4a92c4d","2025-07-02T10:36:15.483Z","","","","","","ControlQ","","","","","","","","","","","","","","","","","","","","","","","","","","","","","","","","","","","","","","50"
"4366","","<div style=""width:500px;"">
  <p>How would you describe your current emotional state?</p>
  </div>","14","html-slider-response","66","1017622","0.0-10.0-3.4","89","1","2025-07-02 10:19:15","80fe4187154257d5fb01684ea91b68b9","168.235.145.235","Mozilla/5.0 (Windows NT 10.0; Win64; x64) AppleWebKit/537.36 (KHTML, like Gecko) Chrome/137.0.0.0 Safari/537.36","WebKit","Chrome","137.0.0.0","Windows","10.0","https://app.prolific.com/","en-US,en;q=0.9","67acd4bb175b263fb4a92c4d","683db6dfa200031b80f2a654","6865076961fa751d54dceac4","67acd4bb175b263fb4a92c4d","2025-07-02T10:36:19.856Z","","","","","","StressQ","","","","","","","","","","","","","","","","","","","","","","","","","","","","","","","","","","","","","","50"
"3644","","<div style=""width:500px;"">
  <p>What best describes how you currently feel?</p>
  </div>","83","html-slider-response","67","1021274","0.0-10.0-4.4","89","1","2025-07-02 10:19:15","80fe4187154257d5fb01684ea91b68b9","168.235.145.235","Mozilla/5.0 (Windows NT 10.0; Win64; x64) AppleWebKit/537.36 (KHTML, like Gecko) Chrome/137.0.0.0 Safari/537.36","WebKit","Chrome","137.0.0.0","Windows","10.0","https://app.prolific.com/","en-US,en;q=0.9","67acd4bb175b263fb4a92c4d","683db6dfa200031b80f2a654","6865076961fa751d54dceac4","67acd4bb175b263fb4a92c4d","2025-07-02T10:36:23.508Z","","","","","","MotivationQ","","","","","","","","","","","","","","","","","","","","","","","","","","","","","","","","","","","","","","50"
"","","","","ctl-task-cpt","68","1080484","0.0-10.0-0.5","89","1","2025-07-02 10:19:15","80fe4187154257d5fb01684ea91b68b9","168.235.145.235","Mozilla/5.0 (Windows NT 10.0; Win64; x64) AppleWebKit/537.36 (KHTML, like Gecko) Chrome/137.0.0.0 Safari/537.36","WebKit","Chrome","137.0.0.0","Windows","10.0","https://app.prolific.com/","en-US,en;q=0.9","67acd4bb175b263fb4a92c4d","683db6dfa200031b80f2a654","6865076961fa751d54dceac4","67acd4bb175b263fb4a92c4d","2025-07-02T10:37:22.717Z","","","","","","","","","","","","","","","","win-only","1","g1:NE,g2:SW","0.5","6","0","1029458.1","1671.2","6686","56174","1","4","4","6","2","4","4","21","17","0.1590909090909091","1847.9","3000","1665","[""down"",""left""]","{""num_key_presses"":12,""num_perfect"":6,""num_errors"":0,""num_randdir"":6,""num_randdir_good_moves"":3,""num_whilered"":0,""num_whileblue"":0,""num_blue"":2,""num_good_moves"":9}","[520.7142857142857,519.1908482142857,0.9,520.7142857142857,519.1908482142857,105.1,520.7142857142857,519.1908482142857,231.7,520.7142857142857,519.1908482142857,345.3,520.7142857142857,519.1908482142857,473.4,609.2142857142857,363.1908482142857,590.9,828.2142857142857,162.19084821428572,709.1,895.7142857142857,133.69084821428572,827.8,913.7142857142857,132.19084821428572,934.8,267.2142857142857,678.1908482142857,1039.2,105.21428571428571,916.6908482142857,1149.5,18.214285714285708,1071.1908482142858,1278.6,18.214285714285708,1071.1908482142858,1400.6,84.21428571428571,1015.6908482142857,1502.1,84.21428571428571,1015.6908482142857,1618.3,84.21428571428571,1015.6908482142857,1722.8,84.21428571428571,1015.6908482142857,1829.9,84.21428571428571,1015.6908482142857,1933.7,84.21428571428571,1015.6908482142857,2052.7,84.21428571428571,1015.6908482142857,2152.8,84.21428571428571,1015.6908482142857,2279.5,84.21428571428571,1015.6908482142857,2392.4,84.21428571428571,1015.6908482142857,2515,84.21428571428571,1015.6908482142857,2638.1,84.21428571428571,1015.6908482142857,2759.1,84.21428571428571,1015.6908482142857,2864.1,84.21428571428571,1015.6908482142857,2982.3,84.21428571428571,1015.6908482142857,3101,84.21428571428571,1015.6908482142857,3218.8,84.21428571428571,1015.6908482142857,3324.2,84.21428571428571,1015.6908482142857,3439.2,84.21428571428571,1015.6908482142857,3552.8,84.21428571428571,1015.6908482142857,3658.6,84.21428571428571,1015.6908482142857,3764.8,84.21428571428571,1015.6908482142857,3877.2,84.21428571428571,1015.6908482142857,3991.3,84.21428571428571,1015.6908482142857,4103.4,84.21428571428571,1015.6908482142857,4204.5,84.21428571428571,1015.6908482142857,4326.9,84.21428571428571,1015.6908482142857,4436,84.21428571428571,1015.6908482142857,4551.9,84.21428571428571,1015.6908482142857,4674.9,84.21428571428571,1015.6908482142857,4784.3,84.21428571428571,1015.6908482142857,4899.5]","[1648.7,1648.7,1000,0,648.7,""oops"",""down"",""up"",""bad_move"",9854.2,8203.3,2720.2,6649.1,485,""smooth"",""down"",""down"",""good_move"",12617.5,2761.4,2135.9,9856.3,625.4,""smooth"",""down"",""down"",""good_move"",19540,6921.4,3085.4,15988.7,466,""oops"",""down"",""up"",""bad_move"",23573.7,4031.7,2750.2,19542,1281.5,""smooth"",""down"",""down"",""good_move"",26979.2,3404.1,2854.3,23575.1,549.9,""smooth"",""down"",""down"",""good_move"",29657.7,2677.4,2201.8,26980.4,475.6,""oops"",""left"",""down"",""good_move"",32924.9,3265.7,2859.4,29659.2,406.3,""smooth"",""left"",""left"",""good_move"",36687.4,3760.7,2326.8,32926.8,1433.9,""oops"",""left"",""up"",""bad_move"",40947.4,4258.9,2953.2,36688.5,1305.7,""oops"",""left"",""left"",""good_move"",45320.6,4372.3,3085.8,40948.4,1286.6,""smooth"",""left"",""left"",""good_move"",49078.8,3757.3,3174.7,45321.6,582.5,""oops"",""down"",""down"",""good_move""]","",""
"3475","","<div style=""width:500px;"">
  <p>What determined the result of this run?</p>
  </div>","84","html-slider-response","69","1083964","0.0-10.0-1.5","89","1","2025-07-02 10:19:15","80fe4187154257d5fb01684ea91b68b9","168.235.145.235","Mozilla/5.0 (Windows NT 10.0; Win64; x64) AppleWebKit/537.36 (KHTML, like Gecko) Chrome/137.0.0.0 Safari/537.36","WebKit","Chrome","137.0.0.0","Windows","10.0","https://app.prolific.com/","en-US,en;q=0.9","67acd4bb175b263fb4a92c4d","683db6dfa200031b80f2a654","6865076961fa751d54dceac4","67acd4bb175b263fb4a92c4d","2025-07-02T10:37:26.197Z","","","","","","AttribQ","","","","","","","","","","","","","","","","","","","","","","","","","","","","","","","","","","","","","","50"
"2871","","<div style=""width:500px;"">
  <p>How much control did you have over the ball?</p>
  </div>","88","html-slider-response","70","1086841","0.0-10.0-2.5","89","1","2025-07-02 10:19:15","80fe4187154257d5fb01684ea91b68b9","168.235.145.235","Mozilla/5.0 (Windows NT 10.0; Win64; x64) AppleWebKit/537.36 (KHTML, like Gecko) Chrome/137.0.0.0 Safari/537.36","WebKit","Chrome","137.0.0.0","Windows","10.0","https://app.prolific.com/","en-US,en;q=0.9","67acd4bb175b263fb4a92c4d","683db6dfa200031b80f2a654","6865076961fa751d54dceac4","67acd4bb175b263fb4a92c4d","2025-07-02T10:37:29.075Z","","","","","","ControlQ","","","","","","","","","","","","","","","","","","","","","","","","","","","","","","","","","","","","","","50"
"2949","","<div style=""width:500px;"">
  <p>How would you describe your current emotional state?</p>
  </div>","12","html-slider-response","71","1089795","0.0-10.0-3.5","89","1","2025-07-02 10:19:15","80fe4187154257d5fb01684ea91b68b9","168.235.145.235","Mozilla/5.0 (Windows NT 10.0; Win64; x64) AppleWebKit/537.36 (KHTML, like Gecko) Chrome/137.0.0.0 Safari/537.36","WebKit","Chrome","137.0.0.0","Windows","10.0","https://app.prolific.com/","en-US,en;q=0.9","67acd4bb175b263fb4a92c4d","683db6dfa200031b80f2a654","6865076961fa751d54dceac4","67acd4bb175b263fb4a92c4d","2025-07-02T10:37:32.029Z","","","","","","StressQ","","","","","","","","","","","","","","","","","","","","","","","","","","","","","","","","","","","","","","50"
"3759","","<div style=""width:500px;"">
  <p>What best describes how you currently feel?</p>
  </div>","82","html-slider-response","72","1093561","0.0-10.0-4.5","89","1","2025-07-02 10:19:15","80fe4187154257d5fb01684ea91b68b9","168.235.145.235","Mozilla/5.0 (Windows NT 10.0; Win64; x64) AppleWebKit/537.36 (KHTML, like Gecko) Chrome/137.0.0.0 Safari/537.36","WebKit","Chrome","137.0.0.0","Windows","10.0","https://app.prolific.com/","en-US,en;q=0.9","67acd4bb175b263fb4a92c4d","683db6dfa200031b80f2a654","6865076961fa751d54dceac4","67acd4bb175b263fb4a92c4d","2025-07-02T10:37:35.794Z","","","","","","MotivationQ","","","","","","","","","","","","","","","","","","","","","","","","","","","","","","","","","","","","","","50"
"","","","","ctl-task-cpt","73","1118327","0.0-10.0-0.6","89","1","2025-07-02 10:19:15","80fe4187154257d5fb01684ea91b68b9","168.235.145.235","Mozilla/5.0 (Windows NT 10.0; Win64; x64) AppleWebKit/537.36 (KHTML, like Gecko) Chrome/137.0.0.0 Safari/537.36","WebKit","Chrome","137.0.0.0","Windows","10.0","https://app.prolific.com/","en-US,en;q=0.9","67acd4bb175b263fb4a92c4d","683db6dfa200031b80f2a654","6865076961fa751d54dceac4","67acd4bb175b263fb4a92c4d","2025-07-02T10:38:00.560Z","","","","","","","","","","","","","","","","win-only","0","g1:NW,g2:SE","0.4","7","0","1101740.9","1346.6","6349.4","21712.6","1","4","4","6","2","-4","-4","17","21","0.12878787878787878","1702.4","3000","-680","[""down"",""right""]","{""num_key_presses"":0,""num_perfect"":0,""num_errors"":0,""num_randdir"":0,""num_randdir_good_moves"":0,""num_whilered"":0,""num_whileblue"":0,""num_blue"":0,""num_good_moves"":0}","[532.7142857142857,528.1908482142857,0.7,532.7142857142857,528.1908482142857,116.7,532.7142857142857,528.1908482142857,237.4,532.7142857142857,528.1908482142857,359.5,532.7142857142857,528.1908482142857,478.3,532.7142857142857,528.1908482142857,599.1,532.7142857142857,528.1908482142857,704.6,532.7142857142857,528.1908482142857,816.3,697.7142857142857,642.1908482142857,925.4,847.7142857142857,817.6908482142857,1035.1,850.7142857142857,822.1908482142857,1143,921.2142857142857,856.6908482142857,1260,978.2142857142857,951.1908482142857,1377.5,982.7142857142857,961.6908482142857,1503.6,982.7142857142857,961.6908482142857,1603.7,982.7142857142857,961.6908482142857,1709.4,982.7142857142857,961.6908482142857,1820.6,982.7142857142857,961.6908482142857,1937.2,982.7142857142857,961.6908482142857,2042.5,982.7142857142857,961.6908482142857,2155.5,982.7142857142857,961.6908482142857,2264.2,982.7142857142857,961.6908482142857,2375.3,982.7142857142857,961.6908482142857,2481,982.7142857142857,961.6908482142857,2584.4,982.7142857142857,961.6908482142857,2701.8,982.7142857142857,961.6908482142857,2816,982.7142857142857,961.6908482142857,2929.4,982.7142857142857,961.6908482142857,3037.1,982.7142857142857,961.6908482142857,3138.7,982.7142857142857,961.6908482142857,3258.5,982.7142857142857,961.6908482142857,3376.9,982.7142857142857,961.6908482142857,3511.5,982.7142857142857,961.6908482142857,3624.3,982.7142857142857,961.6908482142857,3740.5,982.7142857142857,961.6908482142857,3849.8,982.7142857142857,961.6908482142857,3963.5,982.7142857142857,961.6908482142857,4081.5,982.7142857142857,961.6908482142857,4188.1,982.7142857142857,961.6908482142857,4298.5,982.7142857142857,961.6908482142857,4400.1,982.7142857142857,961.6908482142857,4516.6,982.7142857142857,961.6908482142857,4624,982.7142857142857,961.6908482142857,4739.6,982.7142857142857,961.6908482142857,4841.8,982.7142857142857,961.6908482142857,4956.1]","[]","",""
"69080","","<div style=""width:500px;"">
  <p>What determined the result of this run?</p>
  </div>","87","html-slider-response","74","1187413","0.0-10.0-1.6","89","1","2025-07-02 10:19:15","80fe4187154257d5fb01684ea91b68b9","168.235.145.235","Mozilla/5.0 (Windows NT 10.0; Win64; x64) AppleWebKit/537.36 (KHTML, like Gecko) Chrome/137.0.0.0 Safari/537.36","WebKit","Chrome","137.0.0.0","Windows","10.0","https://app.prolific.com/","en-US,en;q=0.9","67acd4bb175b263fb4a92c4d","683db6dfa200031b80f2a654","6865076961fa751d54dceac4","67acd4bb175b263fb4a92c4d","2025-07-02T10:39:09.646Z","","","","","","AttribQ","","","","","","","","","","","","","","","","","","","","","","","","","","","","","","","","","","","","","","50"
"3585","","<div style=""width:500px;"">
  <p>How much control did you have over the ball?</p>
  </div>","84","html-slider-response","75","1191000","0.0-10.0-2.6","89","1","2025-07-02 10:19:15","80fe4187154257d5fb01684ea91b68b9","168.235.145.235","Mozilla/5.0 (Windows NT 10.0; Win64; x64) AppleWebKit/537.36 (KHTML, like Gecko) Chrome/137.0.0.0 Safari/537.36","WebKit","Chrome","137.0.0.0","Windows","10.0","https://app.prolific.com/","en-US,en;q=0.9","67acd4bb175b263fb4a92c4d","683db6dfa200031b80f2a654","6865076961fa751d54dceac4","67acd4bb175b263fb4a92c4d","2025-07-02T10:39:13.234Z","","","","","","ControlQ","","","","","","","","","","","","","","","","","","","","","","","","","","","","","","","","","","","","","","50"
"3004","","<div style=""width:500px;"">
  <p>How would you describe your current emotional state?</p>
  </div>","27","html-slider-response","76","1194006","0.0-10.0-3.6","89","1","2025-07-02 10:19:15","80fe4187154257d5fb01684ea91b68b9","168.235.145.235","Mozilla/5.0 (Windows NT 10.0; Win64; x64) AppleWebKit/537.36 (KHTML, like Gecko) Chrome/137.0.0.0 Safari/537.36","WebKit","Chrome","137.0.0.0","Windows","10.0","https://app.prolific.com/","en-US,en;q=0.9","67acd4bb175b263fb4a92c4d","683db6dfa200031b80f2a654","6865076961fa751d54dceac4","67acd4bb175b263fb4a92c4d","2025-07-02T10:39:16.239Z","","","","","","StressQ","","","","","","","","","","","","","","","","","","","","","","","","","","","","","","","","","","","","","","50"
"3562","","<div style=""width:500px;"">
  <p>What best describes how you currently feel?</p>
  </div>","77","html-slider-response","77","1197571","0.0-10.0-4.6","89","1","2025-07-02 10:19:15","80fe4187154257d5fb01684ea91b68b9","168.235.145.235","Mozilla/5.0 (Windows NT 10.0; Win64; x64) AppleWebKit/537.36 (KHTML, like Gecko) Chrome/137.0.0.0 Safari/537.36","WebKit","Chrome","137.0.0.0","Windows","10.0","https://app.prolific.com/","en-US,en;q=0.9","67acd4bb175b263fb4a92c4d","683db6dfa200031b80f2a654","6865076961fa751d54dceac4","67acd4bb175b263fb4a92c4d","2025-07-02T10:39:19.804Z","","","","","","MotivationQ","","","","","","","","","","","","","","","","","","","","","","","","","","","","","","","","","","","","","","50"
"","","","","ctl-task-cpt","78","1244707","0.0-10.0-0.7","89","1","2025-07-02 10:19:15","80fe4187154257d5fb01684ea91b68b9","168.235.145.235","Mozilla/5.0 (Windows NT 10.0; Win64; x64) AppleWebKit/537.36 (KHTML, like Gecko) Chrome/137.0.0.0 Safari/537.36","WebKit","Chrome","137.0.0.0","Windows","10.0","https://app.prolific.com/","en-US,en;q=0.9","67acd4bb175b263fb4a92c4d","683db6dfa200031b80f2a654","6865076961fa751d54dceac4","67acd4bb175b263fb4a92c4d","2025-07-02T10:40:06.940Z","","","","","","","","","","","","","","","","win-only","3","g1:SW,g2:NE","0.3","8","0","1205742.5","1174.2","6179.6","44116.5","1","4","8","6","2","-8","-8","9","17","0.06818181818181818","1502.8","3000","-1710","[""up"",""right""]","{""num_key_presses"":11,""num_perfect"":4,""num_errors"":0,""num_randdir"":7,""num_randdir_good_moves"":1,""num_whilered"":0,""num_whileblue"":0,""num_blue"":2,""num_good_moves"":5}","[519.2142857142857,526.6908482142857,0.2,519.2142857142857,526.6908482142857,103.3,519.2142857142857,526.6908482142857,208.4,517.7142857142857,528.1908482142857,321.7,394.7142857142857,685.6908482142857,427.4,237.21428571428572,834.1908482142857,530.4,246.21428571428572,813.1908482142857,631.3,663.2142857142857,355.6908482142857,731.5,798.2142857142857,300.1908482142857,836.3,922.7142857142857,225.19084821428572,936.4,925.7142857142857,193.69084821428572,1036.5,925.7142857142857,174.19084821428572,1138.5,925.7142857142857,172.69084821428572,1239,928.7142857142857,166.69084821428572,1355.5,928.7142857142857,165.19084821428572,1457.6,928.7142857142857,165.19084821428572,1557.9,928.7142857142857,165.19084821428572,1679.9,928.7142857142857,166.69084821428572,1781.6,927.2142857142857,168.19084821428572,1886.6,927.2142857142857,168.19084821428572,1992.1,927.2142857142857,168.19084821428572,2106.7,927.2142857142857,168.19084821428572,2207.4,927.2142857142857,168.19084821428572,2311.3,927.2142857142857,168.19084821428572,2412,927.2142857142857,168.19084821428572,2518.9,927.2142857142857,168.19084821428572,2626.4,927.2142857142857,168.19084821428572,2740.7,927.2142857142857,168.19084821428572,2861.9,927.2142857142857,168.19084821428572,2973.1,927.2142857142857,168.19084821428572,3074,927.2142857142857,168.19084821428572,3185.7,927.2142857142857,168.19084821428572,3286.8,927.2142857142857,168.19084821428572,3388.8,927.2142857142857,168.19084821428572,3506.9,927.2142857142857,168.19084821428572,3612,927.2142857142857,168.19084821428572,3712.4,927.2142857142857,168.19084821428572,3812.9,927.2142857142857,168.19084821428572,3929.7,927.2142857142857,168.19084821428572,4036.2,927.2142857142857,168.19084821428572,4144.3,927.2142857142857,168.19084821428572,4259.3,927.2142857142857,168.19084821428572,4360.3,927.2142857142857,168.19084821428572,4465.2,927.2142857142857,168.19084821428572,4566.1,927.2142857142857,168.19084821428572,4666.2,927.2142857142857,168.19084821428572,4769.3,927.2142857142857,168.19084821428572,4878.1,927.2142857142857,168.19084821428572,4978.9]","[1476.8,1476.8,1000,0,476.8,""oops"",""up"",""left"",""bad_move"",4317.4,2840.1,2411.8,1477.3,428.3,""smooth"",""up"",""up"",""good_move"",13918.2,9600.1,2596.6,10881.3,440.3,""oops"",""up"",""down"",""bad_move"",16358.5,2439.9,1931.4,13918.6,508.5,""smooth"",""up"",""up"",""good_move"",19501.6,3142.8,2727.7,16358.8,415.1,""oops"",""right"",""left"",""bad_move"",21884.4,2382.3,1943.9,19502.1,438.4,""oops"",""up"",""down"",""bad_move"",24157.3,2272.3,1729.6,21885.1,542.7,""smooth"",""up"",""up"",""good_move"",27261.9,3104.3,2462.6,24157.6,641.7,""oops"",""right"",""down"",""bad_move"",29762.5,2499.8,2061,27262.8,438.7,""oops"",""up"",""up"",""good_move"",32092.8,2330.1,2004.4,29762.8,325.7,""oops"",""right"",""down"",""bad_move"",34907,2813.7,2367.3,32093.3,446.4,""smooth"",""right"",""right"",""good_move""]","",""
"5569","","<div style=""width:500px;"">
  <p>What determined the result of this run?</p>
  </div>","11","html-slider-response","79","1250278","0.0-10.0-1.7","89","1","2025-07-02 10:19:15","80fe4187154257d5fb01684ea91b68b9","168.235.145.235","Mozilla/5.0 (Windows NT 10.0; Win64; x64) AppleWebKit/537.36 (KHTML, like Gecko) Chrome/137.0.0.0 Safari/537.36","WebKit","Chrome","137.0.0.0","Windows","10.0","https://app.prolific.com/","en-US,en;q=0.9","67acd4bb175b263fb4a92c4d","683db6dfa200031b80f2a654","6865076961fa751d54dceac4","67acd4bb175b263fb4a92c4d","2025-07-02T10:40:12.512Z","","","","","","AttribQ","","","","","","","","","","","","","","","","","","","","","","","","","","","","","","","","","","","","","","50"
"2772","","<div style=""width:500px;"">
  <p>How much control did you have over the ball?</p>
  </div>","11","html-slider-response","80","1253053","0.0-10.0-2.7","89","1","2025-07-02 10:19:15","80fe4187154257d5fb01684ea91b68b9","168.235.145.235","Mozilla/5.0 (Windows NT 10.0; Win64; x64) AppleWebKit/537.36 (KHTML, like Gecko) Chrome/137.0.0.0 Safari/537.36","WebKit","Chrome","137.0.0.0","Windows","10.0","https://app.prolific.com/","en-US,en;q=0.9","67acd4bb175b263fb4a92c4d","683db6dfa200031b80f2a654","6865076961fa751d54dceac4","67acd4bb175b263fb4a92c4d","2025-07-02T10:40:15.287Z","","","","","","ControlQ","","","","","","","","","","","","","","","","","","","","","","","","","","","","","","","","","","","","","","50"
"3185","","<div style=""width:500px;"">
  <p>How would you describe your current emotional state?</p>
  </div>","80","html-slider-response","81","1256242","0.0-10.0-3.7","89","1","2025-07-02 10:19:15","80fe4187154257d5fb01684ea91b68b9","168.235.145.235","Mozilla/5.0 (Windows NT 10.0; Win64; x64) AppleWebKit/537.36 (KHTML, like Gecko) Chrome/137.0.0.0 Safari/537.36","WebKit","Chrome","137.0.0.0","Windows","10.0","https://app.prolific.com/","en-US,en;q=0.9","67acd4bb175b263fb4a92c4d","683db6dfa200031b80f2a654","6865076961fa751d54dceac4","67acd4bb175b263fb4a92c4d","2025-07-02T10:40:18.476Z","","","","","","StressQ","","","","","","","","","","","","","","","","","","","","","","","","","","","","","","","","","","","","","","50"
"2632","","<div style=""width:500px;"">
  <p>What best describes how you currently feel?</p>
  </div>","36","html-slider-response","82","1258877","0.0-10.0-4.7","89","1","2025-07-02 10:19:15","80fe4187154257d5fb01684ea91b68b9","168.235.145.235","Mozilla/5.0 (Windows NT 10.0; Win64; x64) AppleWebKit/537.36 (KHTML, like Gecko) Chrome/137.0.0.0 Safari/537.36","WebKit","Chrome","137.0.0.0","Windows","10.0","https://app.prolific.com/","en-US,en;q=0.9","67acd4bb175b263fb4a92c4d","683db6dfa200031b80f2a654","6865076961fa751d54dceac4","67acd4bb175b263fb4a92c4d","2025-07-02T10:40:21.110Z","","","","","","MotivationQ","","","","","","","","","","","","","","","","","","","","","","","","","","","","","","","","","","","","","","50"
"","","","","ctl-task-cpt","83","1334901","0.0-10.0-0.8","89","1","2025-07-02 10:19:15","80fe4187154257d5fb01684ea91b68b9","168.235.145.235","Mozilla/5.0 (Windows NT 10.0; Win64; x64) AppleWebKit/537.36 (KHTML, like Gecko) Chrome/137.0.0.0 Safari/537.36","WebKit","Chrome","137.0.0.0","Windows","10.0","https://app.prolific.com/","en-US,en;q=0.9","67acd4bb175b263fb4a92c4d","683db6dfa200031b80f2a654","6865076961fa751d54dceac4","67acd4bb175b263fb4a92c4d","2025-07-02T10:41:37.134Z","","","","","","","","","","","","","","","","win-only","0","g1:NW,g2:SE","0.4","9","0","1267049.5","1596.2","6614.7","72998.4","1","4","4","6","2","-4","-5","4","9","0.030303030303030304","1213.6","3000","-1540","[""down"",""right""]","{""num_key_presses"":15,""num_perfect"":7,""num_errors"":1,""num_randdir"":7,""num_randdir_good_moves"":2,""num_whilered"":0,""num_whileblue"":0,""num_blue"":6,""num_good_moves"":8}","[513.2142857142857,526.6908482142857,0.6,513.2142857142857,526.6908482142857,101.2,513.2142857142857,526.6908482142857,208,513.2142857142857,526.6908482142857,329,513.2142857142857,526.6908482142857,437.4,513.2142857142857,526.6908482142857,538.3,685.7142857142857,772.6908482142857,644.3,747.2142857142857,864.1908482142857,744.5,820.7142857142857,901.6908482142857,846.4,924.2142857142857,907.6908482142857,967,946.7142857142857,909.1908482142857,1096.8,946.7142857142857,909.1908482142857,1217.8,946.7142857142857,909.1908482142857,1339.7,946.7142857142857,909.1908482142857,1449.5,946.7142857142857,909.1908482142857,1555.3,946.7142857142857,909.1908482142857,1655.6,946.7142857142857,909.1908482142857,1769.2,946.7142857142857,909.1908482142857,1873.1,946.7142857142857,909.1908482142857,1974.6,946.7142857142857,909.1908482142857,2089.4,946.7142857142857,909.1908482142857,2195.8,946.7142857142857,909.1908482142857,2296.1,946.7142857142857,909.1908482142857,2403.8,946.7142857142857,909.1908482142857,2504.4,946.7142857142857,909.1908482142857,2606.9,946.7142857142857,909.1908482142857,2723.6,946.7142857142857,909.1908482142857,2825.9,946.7142857142857,909.1908482142857,2930,946.7142857142857,909.1908482142857,3042.7,946.7142857142857,909.1908482142857,3154.4,946.7142857142857,909.1908482142857,3254.9,946.7142857142857,909.1908482142857,3355.5,946.7142857142857,909.1908482142857,3460.6,946.7142857142857,909.1908482142857,3564.8,946.7142857142857,909.1908482142857,3673.9,946.7142857142857,909.1908482142857,3775.5,946.7142857142857,909.1908482142857,3888.5,946.7142857142857,909.1908482142857,3992.1,946.7142857142857,909.1908482142857,4095.2,946.7142857142857,909.1908482142857,4196.2,946.7142857142857,909.1908482142857,4323.3,946.7142857142857,909.1908482142857,4428.1,946.7142857142857,909.1908482142857,4529.9,946.7142857142857,909.1908482142857,4649,946.7142857142857,909.1908482142857,4749.8,946.7142857142857,909.1908482142857,4873.5,946.7142857142857,909.1908482142857,4987.1]","[1702.9,1702.9,1000,0,702.9,""oops"",""down"",""down"",""good_move"",4018.3,2314.8,1884.7,1703.5,430.1,""smooth"",""right"",""right"",""good_move"",7001.2,2982.5,2591,4018.7,391.5,""oops"",""right"",""left"",""bad_move"",17026.7,10025,2513.6,14125.7,387.4,""smooth"",""down"",""down"",""good_move"",20335.6,3308.5,2894.6,17027.1,413.9,""smooth"",""right"",""right"",""good_move"",31513.1,11176.8,3017.2,28061.1,434.8,""smooth"",""right"",""right"",""good_move"",37206.6,5692.7,1571.2,35191.5,443.9,""oops"",""down"",""up"",""bad_move"",40303.6,3096.6,2435.7,37207.1,660.9,""oops"",""right"",""up"",""bad_move"",43214.6,2910.5,2570.9,40304.1,339.6,""oops"",""down"",""right"",""good_move"",45883.7,2668.7,2338.6,43215,330.1,""oops"",""down"",""up"",""bad_move"",52064.4,6180.3,1869.2,49790.2,405,""smooth"",""up"",""up"",""bad_move"",55143.1,3078.5,2775.2,52064.6,303.3,""smooth"",""down"",""down"",""good_move"",58390.9,3247.2,2869.4,55143.8,377.8,""smooth"",""down"",""down"",""good_move"",60973.9,2582.8,2233.7,58391.1,349.1,""oops"",""down"",""up"",""bad_move"",62828.7,1854.2,3000.2,60974.5,-1146,""error"",""-"",""-"",""no_move""]","",""
"3886","","<div style=""width:500px;"">
  <p>What determined the result of this run?</p>
  </div>","6","html-slider-response","84","1338788","0.0-10.0-1.8","89","1","2025-07-02 10:19:15","80fe4187154257d5fb01684ea91b68b9","168.235.145.235","Mozilla/5.0 (Windows NT 10.0; Win64; x64) AppleWebKit/537.36 (KHTML, like Gecko) Chrome/137.0.0.0 Safari/537.36","WebKit","Chrome","137.0.0.0","Windows","10.0","https://app.prolific.com/","en-US,en;q=0.9","67acd4bb175b263fb4a92c4d","683db6dfa200031b80f2a654","6865076961fa751d54dceac4","67acd4bb175b263fb4a92c4d","2025-07-02T10:41:41.021Z","","","","","","AttribQ","","","","","","","","","","","","","","","","","","","","","","","","","","","","","","","","","","","","","","50"
"3659","","<div style=""width:500px;"">
  <p>How much control did you have over the ball?</p>
  </div>","5","html-slider-response","85","1342448","0.0-10.0-2.8","89","1","2025-07-02 10:19:15","80fe4187154257d5fb01684ea91b68b9","168.235.145.235","Mozilla/5.0 (Windows NT 10.0; Win64; x64) AppleWebKit/537.36 (KHTML, like Gecko) Chrome/137.0.0.0 Safari/537.36","WebKit","Chrome","137.0.0.0","Windows","10.0","https://app.prolific.com/","en-US,en;q=0.9","67acd4bb175b263fb4a92c4d","683db6dfa200031b80f2a654","6865076961fa751d54dceac4","67acd4bb175b263fb4a92c4d","2025-07-02T10:41:44.681Z","","","","","","ControlQ","","","","","","","","","","","","","","","","","","","","","","","","","","","","","","","","","","","","","","50"
"3879","","<div style=""width:500px;"">
  <p>How would you describe your current emotional state?</p>
  </div>","80","html-slider-response","86","1346331","0.0-10.0-3.8","89","1","2025-07-02 10:19:15","80fe4187154257d5fb01684ea91b68b9","168.235.145.235","Mozilla/5.0 (Windows NT 10.0; Win64; x64) AppleWebKit/537.36 (KHTML, like Gecko) Chrome/137.0.0.0 Safari/537.36","WebKit","Chrome","137.0.0.0","Windows","10.0","https://app.prolific.com/","en-US,en;q=0.9","67acd4bb175b263fb4a92c4d","683db6dfa200031b80f2a654","6865076961fa751d54dceac4","67acd4bb175b263fb4a92c4d","2025-07-02T10:41:48.564Z","","","","","","StressQ","","","","","","","","","","","","","","","","","","","","","","","","","","","","","","","","","","","","","","50"
"5691","","<div style=""width:500px;"">
  <p>What best describes how you currently feel?</p>
  </div>","64","html-slider-response","87","1352024","0.0-10.0-4.8","89","1","2025-07-02 10:19:15","80fe4187154257d5fb01684ea91b68b9","168.235.145.235","Mozilla/5.0 (Windows NT 10.0; Win64; x64) AppleWebKit/537.36 (KHTML, like Gecko) Chrome/137.0.0.0 Safari/537.36","WebKit","Chrome","137.0.0.0","Windows","10.0","https://app.prolific.com/","en-US,en;q=0.9","67acd4bb175b263fb4a92c4d","683db6dfa200031b80f2a654","6865076961fa751d54dceac4","67acd4bb175b263fb4a92c4d","2025-07-02T10:41:54.257Z","","","","","","MotivationQ","","","","","","","","","","","","","","","","","","","","","","","","","","","","","","","","","","","","","","50"
