"rt","response_timestamp","stimulus","response","trial_type","trial_index","time_elapsed","internal_node_id","run_id","condition","recorded_at","source_code_version","ip","user_agent","device","browser","browser_version","platform","platform_version","referer","accept_language","PROLIFIC_PID","STUDY_ID","SESSION_ID","prolific_id","realtime","view_history","question_order","consent","success","question_id","eventType","responses","item_order","radio_event_ids","radio_event_times","key_event_times","mouse_event_times","straightlining","zigzagging","honeypot","which_type","canvas_config","goals_layout","control_level","trial_number","tutorial_trial_number","trial_start_time","phase1_start_time","phase2_start_time","phase3_start_time","goal_1_value","goal_1_distance","goal_2_value","goal_2_distance","goal_selected","outcome","outcome_total","participant_final_score","participant_initial_score","participant_final_score_prop","goal_choice_rt","allocated_time","allocated_time_remaining","goal_direction","counts","mouse_movements","key_presses","correct","slider_start","sub_question"
"5387","1751452525696","<p style='font-size:40px;line-height:1.25'><strong>Welcome to the experiment!</strong></p><p style='font-size:1.1em;line-height:1.25'>Thank you for your interest in our experiment! Before you begin, it is important that we obtain your informed consent to participate in the study.</p><p style='font-size:1.1em;line-height:1.25'>On the next screen will be an <strong>information sheet</strong> for you to read. To participate in the study we need you to read this information sheet and the following consent form carefully. If you agree with all the statements, please click the <strong>I agree</strong> button.</p><p style='font-size:1.1em;line-height:1.25'>Press <strong>Next</strong> to read the information sheet.</p>","0","custom-html-button-response","0","5394","0.0-0.0","205","1","2025-07-02 10:35:14","80fe4187154257d5fb01684ea91b68b9","41.150.224.28","Mozilla/5.0 (Windows NT 10.0; Win64; x64) AppleWebKit/537.36 (KHTML, like Gecko) Chrome/137.0.0.0 Safari/537.36","WebKit","Chrome","137.0.0.0","Windows","10.0","https://app.prolific.com/","en-GB,en-US;q=0.9,en;q=0.8","67adeb124ea5587ac8afa3ac","683db6dfa200031b80f2a654","686507790dde1e14f682f3fa","67adeb124ea5587ac8afa3ac","2025-07-02T10:35:25.698Z","","","","","","","","","","","","","","","","","","","","","","","","","","","","","","","","","","","","","","","","","","","","",""
"6472","","","","instructions","1","11868","0.0-1.0","205","1","2025-07-02 10:35:14","80fe4187154257d5fb01684ea91b68b9","41.150.224.28","Mozilla/5.0 (Windows NT 10.0; Win64; x64) AppleWebKit/537.36 (KHTML, like Gecko) Chrome/137.0.0.0 Safari/537.36","WebKit","Chrome","137.0.0.0","Windows","10.0","https://app.prolific.com/","en-GB,en-US;q=0.9,en;q=0.8","67adeb124ea5587ac8afa3ac","683db6dfa200031b80f2a654","686507790dde1e14f682f3fa","67adeb124ea5587ac8afa3ac","","[{""page_index"":0,""viewing_time"":4066},{""page_index"":1,""viewing_time"":2405}]","","","","","","","","","","","","","","","","","","","","","","","","","","","","","","","","","","","","","","","","","","","",""
"5088","","","{""Q0"":"""",""Q1"":"""",""Q2"":"""",""Q3"":"""",""Q4"":"""",""Q5"":"""",""Q6"":""I agree""}","survey-multi-choice","2","16958","0.0-2.0","205","1","2025-07-02 10:35:14","80fe4187154257d5fb01684ea91b68b9","41.150.224.28","Mozilla/5.0 (Windows NT 10.0; Win64; x64) AppleWebKit/537.36 (KHTML, like Gecko) Chrome/137.0.0.0 Safari/537.36","WebKit","Chrome","137.0.0.0","Windows","10.0","https://app.prolific.com/","en-GB,en-US;q=0.9,en;q=0.8","67adeb124ea5587ac8afa3ac","683db6dfa200031b80f2a654","686507790dde1e14f682f3fa","67adeb124ea5587ac8afa3ac","","","[0,1,2,3,4,5,6]","true","","","","","","","","","","","","","","","","","","","","","","","","","","","","","","","","","","","","","","","","","",""
"7877","","","","fullscreen","3","25849","0.0-4.0","205","1","2025-07-02 10:35:14","80fe4187154257d5fb01684ea91b68b9","41.150.224.28","Mozilla/5.0 (Windows NT 10.0; Win64; x64) AppleWebKit/537.36 (KHTML, like Gecko) Chrome/137.0.0.0 Safari/537.36","WebKit","Chrome","137.0.0.0","Windows","10.0","https://app.prolific.com/","en-GB,en-US;q=0.9,en;q=0.8","67adeb124ea5587ac8afa3ac","683db6dfa200031b80f2a654","686507790dde1e14f682f3fa","67adeb124ea5587ac8afa3ac","","","","","true","","","","","","","","","","","","","","","","","","","","","","","","","","","","","","","","","","","","","","","","",""
"3330","1751452549485"," <p style='font-size:1.1em;line-height:1.25'>Thank you for completing the consent form and closing all other tabs.</p><p style='font-size:1.1em;line-height:1.25'>We will now invite you to fill in some demographic information and questionnaires, before starting the game.<br>This will take about 5 minutes.<br></p><p style='font-size:1.1em;line-height:1.25'>Press the <strong>Next</strong> button to continue.</p>","0","custom-html-button-response","4","29181","0.0-5.0","205","1","2025-07-02 10:35:14","80fe4187154257d5fb01684ea91b68b9","41.150.224.28","Mozilla/5.0 (Windows NT 10.0; Win64; x64) AppleWebKit/537.36 (KHTML, like Gecko) Chrome/137.0.0.0 Safari/537.36","WebKit","Chrome","137.0.0.0","Windows","10.0","https://app.prolific.com/","en-GB,en-US;q=0.9,en;q=0.8","67adeb124ea5587ac8afa3ac","683db6dfa200031b80f2a654","686507790dde1e14f682f3fa","67adeb124ea5587ac8afa3ac","2025-07-02T10:35:49.486Z","","","","","","","","","","","","","","","","","","","","","","","","","","","","","","","","","","","","","","","","","","","","",""
"5578","","","{""age"":""21""}","survey-text","5","34764","0.0-6.0-0.0","205","1","2025-07-02 10:35:14","80fe4187154257d5fb01684ea91b68b9","41.150.224.28","Mozilla/5.0 (Windows NT 10.0; Win64; x64) AppleWebKit/537.36 (KHTML, like Gecko) Chrome/137.0.0.0 Safari/537.36","WebKit","Chrome","137.0.0.0","Windows","10.0","https://app.prolific.com/","en-GB,en-US;q=0.9,en;q=0.8","67adeb124ea5587ac8afa3ac","683db6dfa200031b80f2a654","686507790dde1e14f682f3fa","67adeb124ea5587ac8afa3ac","","","","","","0","demographics","","","","","","","","","","","","","","","","","","","","","","","","","","","","","","","","","","","","","","",""
"3073","","","{""gender_identity"":""female/woman""}","survey-multi-choice","6","37840","0.0-6.0-1.0","205","1","2025-07-02 10:35:14","80fe4187154257d5fb01684ea91b68b9","41.150.224.28","Mozilla/5.0 (Windows NT 10.0; Win64; x64) AppleWebKit/537.36 (KHTML, like Gecko) Chrome/137.0.0.0 Safari/537.36","WebKit","Chrome","137.0.0.0","Windows","10.0","https://app.prolific.com/","en-GB,en-US;q=0.9,en;q=0.8","67adeb124ea5587ac8afa3ac","683db6dfa200031b80f2a654","686507790dde1e14f682f3fa","67adeb124ea5587ac8afa3ac","","","[0]","","","1","demographics","","","","","","","","","","","","","","","","","","","","","","","","","","","","","","","","","","","","","","",""
"3153","","","{""assigned_sex"":""female""}","survey-multi-choice","7","40994","0.0-6.0-2.0","205","1","2025-07-02 10:35:14","80fe4187154257d5fb01684ea91b68b9","41.150.224.28","Mozilla/5.0 (Windows NT 10.0; Win64; x64) AppleWebKit/537.36 (KHTML, like Gecko) Chrome/137.0.0.0 Safari/537.36","WebKit","Chrome","137.0.0.0","Windows","10.0","https://app.prolific.com/","en-GB,en-US;q=0.9,en;q=0.8","67adeb124ea5587ac8afa3ac","683db6dfa200031b80f2a654","686507790dde1e14f682f3fa","67adeb124ea5587ac8afa3ac","","","[0]","","","2","demographics","","","","","","","","","","","","","","","","","","","","","","","","","","","","","","","","","","","","","","",""
"3433","","","{""menstrual_cycle"":""Yes""}","survey-multi-choice","8","44428","0.0-6.0-3.0","205","1","2025-07-02 10:35:14","80fe4187154257d5fb01684ea91b68b9","41.150.224.28","Mozilla/5.0 (Windows NT 10.0; Win64; x64) AppleWebKit/537.36 (KHTML, like Gecko) Chrome/137.0.0.0 Safari/537.36","WebKit","Chrome","137.0.0.0","Windows","10.0","https://app.prolific.com/","en-GB,en-US;q=0.9,en;q=0.8","67adeb124ea5587ac8afa3ac","683db6dfa200031b80f2a654","686507790dde1e14f682f3fa","67adeb124ea5587ac8afa3ac","","","[0]","","","4","demographics","","","","","","","","","","","","","","","","","","","","","","","","","","","","","","","","","","","","","","",""
"2879","","","{""education"":""Bachelor's Degree (e.g., BA)""}","survey-multi-choice","9","47309","0.0-6.0-4.0","205","1","2025-07-02 10:35:14","80fe4187154257d5fb01684ea91b68b9","41.150.224.28","Mozilla/5.0 (Windows NT 10.0; Win64; x64) AppleWebKit/537.36 (KHTML, like Gecko) Chrome/137.0.0.0 Safari/537.36","WebKit","Chrome","137.0.0.0","Windows","10.0","https://app.prolific.com/","en-GB,en-US;q=0.9,en;q=0.8","67adeb124ea5587ac8afa3ac","683db6dfa200031b80f2a654","686507790dde1e14f682f3fa","67adeb124ea5587ac8afa3ac","","","[0]","","","5","demographics","","","","","","","","","","","","","","","","","","","","","","","","","","","","","","","","","","","","","","",""
"9988","","","{""education"":""Doctoral Degree (e.g., PhD)""}","survey-multi-choice","10","57299","0.0-6.0-5.0","205","1","2025-07-02 10:35:14","80fe4187154257d5fb01684ea91b68b9","41.150.224.28","Mozilla/5.0 (Windows NT 10.0; Win64; x64) AppleWebKit/537.36 (KHTML, like Gecko) Chrome/137.0.0.0 Safari/537.36","WebKit","Chrome","137.0.0.0","Windows","10.0","https://app.prolific.com/","en-GB,en-US;q=0.9,en;q=0.8","67adeb124ea5587ac8afa3ac","683db6dfa200031b80f2a654","686507790dde1e14f682f3fa","67adeb124ea5587ac8afa3ac","2025-07-02T10:36:17.603Z","","[0]","","","6","demographics","","","","","","","","","","","","","","","","","","","","","","","","","","","","","","","","","","","","","","",""
"11149","","","{""mental_health_condition"":""no"",""mental_health_treatment"":""no"",""psychiatric_medication"":""""}","survey-text","11","68453","0.0-7.0-0.0","205","1","2025-07-02 10:35:14","80fe4187154257d5fb01684ea91b68b9","41.150.224.28","Mozilla/5.0 (Windows NT 10.0; Win64; x64) AppleWebKit/537.36 (KHTML, like Gecko) Chrome/137.0.0.0 Safari/537.36","WebKit","Chrome","137.0.0.0","Windows","10.0","https://app.prolific.com/","en-GB,en-US;q=0.9,en;q=0.8","67adeb124ea5587ac8afa3ac","683db6dfa200031b80f2a654","686507790dde1e14f682f3fa","67adeb124ea5587ac8afa3ac","2025-07-02T10:36:28.757Z","","","","","1","mental_health","","","","","","","","","","","","","","","","","","","","","","","","","","","","","","","","","","","","","","",""
"8284","","","{""depression_history"":[""Yes""]}","survey-multi-select","12","76741","0.0-7.0-1.0","205","1","2025-07-02 10:35:14","80fe4187154257d5fb01684ea91b68b9","41.150.224.28","Mozilla/5.0 (Windows NT 10.0; Win64; x64) AppleWebKit/537.36 (KHTML, like Gecko) Chrome/137.0.0.0 Safari/537.36","WebKit","Chrome","137.0.0.0","Windows","10.0","https://app.prolific.com/","en-GB,en-US;q=0.9,en;q=0.8","67adeb124ea5587ac8afa3ac","683db6dfa200031b80f2a654","686507790dde1e14f682f3fa","67adeb124ea5587ac8afa3ac","","","[0]","","","","mental_health","","","","","","","","","","","","","","","","","","","","","","","","","","","","","","","","","","","","","","",""
"10039","","","{""depression_episodes"":""more than 5"",""depression_recent"":""Within the past year""}","survey-multi-choice","13","86782","0.0-7.0-2.0-0.0","205","1","2025-07-02 10:35:14","80fe4187154257d5fb01684ea91b68b9","41.150.224.28","Mozilla/5.0 (Windows NT 10.0; Win64; x64) AppleWebKit/537.36 (KHTML, like Gecko) Chrome/137.0.0.0 Safari/537.36","WebKit","Chrome","137.0.0.0","Windows","10.0","https://app.prolific.com/","en-GB,en-US;q=0.9,en;q=0.8","67adeb124ea5587ac8afa3ac","683db6dfa200031b80f2a654","686507790dde1e14f682f3fa","67adeb124ea5587ac8afa3ac","2025-07-02T10:36:47.086Z","","[0,1]","","","3","mental_health","","","","","","","","","","","","","","","","","","","","","","","","","","","","","","","","","","","","","","",""
"69154.90000000037","","","","survey-template","14","155943","0.0-7.0-3.0","205","1","2025-07-02 10:35:14","80fe4187154257d5fb01684ea91b68b9","41.150.224.28","Mozilla/5.0 (Windows NT 10.0; Win64; x64) AppleWebKit/537.36 (KHTML, like Gecko) Chrome/137.0.0.0 Safari/537.36","WebKit","Chrome","137.0.0.0","Windows","10.0","https://app.prolific.com/","en-GB,en-US;q=0.9,en;q=0.8","67adeb124ea5587ac8afa3ac","683db6dfa200031b80f2a654","686507790dde1e14f682f3fa","67adeb124ea5587ac8afa3ac","2025-07-02T10:37:56.247Z","","","","","","ius","{""Q01"":""3"",""Q02"":""2"",""Q03"":""3"",""Q04"":""4"",""Q05"":""3"",""Q06"":""1"",""Q07"":""3"",""Q08"":""0"",""Q09"":""3"",""Q10"":""2"",""Q11"":""2"",""Q12"":""3"",""Q13"":""3""}","[0,1,2,3,4,5,6,7,8,9,10,11,12]","[""Q01"",""Q02"",""Q03"",""Q04"",""Q05"",""Q06"",""Q07"",""Q08"",""Q08"",""Q09"",""Q10"",""Q11"",""Q12"",""Q13""]","[30002.800000000745,32252.900000000373,35391.70000000112,41642.300000000745,44320.300000000745,47267,51224.20000000112,55522.59999999963,55794.40000000037,58433.59999999963,61506,64189.90000000037,66268.59999999963,68261.59999999963]","[]","[30002.800000000745,32252.900000000373,35391.70000000112,41642.300000000745,44320.300000000745,47267,51224.20000000112,55522.59999999963,55794.40000000037,58433.59999999963,61506,64189.90000000037,66268.59999999963,68261.59999999963,69152.20000000112]","0.5384615384615384","0.5","0","","","","","","","","","","","","","","","","","","","","","","","","","","","","","",""
"2015","1751452678263","<p style='font-size:1.1em;line-height:1.25'>In the following, we will ask you a few questions relating to your experiences over the past month.<br></p><p style='font-size:1.1em;line-height:1.25'>Press the <strong>Next</strong> button to continue.</p>","0","custom-html-button-response","15","157960","0.0-7.0-4.0","205","1","2025-07-02 10:35:14","80fe4187154257d5fb01684ea91b68b9","41.150.224.28","Mozilla/5.0 (Windows NT 10.0; Win64; x64) AppleWebKit/537.36 (KHTML, like Gecko) Chrome/137.0.0.0 Safari/537.36","WebKit","Chrome","137.0.0.0","Windows","10.0","https://app.prolific.com/","en-GB,en-US;q=0.9,en;q=0.8","67adeb124ea5587ac8afa3ac","683db6dfa200031b80f2a654","686507790dde1e14f682f3fa","67adeb124ea5587ac8afa3ac","2025-07-02T10:37:58.264Z","","","","","","","","","","","","","","","","","","","","","","","","","","","","","","","","","","","","","","","","","","","","",""
"36336.90000000037","","","","survey-template","16","194300","0.0-7.0-5.0","205","1","2025-07-02 10:35:14","80fe4187154257d5fb01684ea91b68b9","41.150.224.28","Mozilla/5.0 (Windows NT 10.0; Win64; x64) AppleWebKit/537.36 (KHTML, like Gecko) Chrome/137.0.0.0 Safari/537.36","WebKit","Chrome","137.0.0.0","Windows","10.0","https://app.prolific.com/","en-GB,en-US;q=0.9,en;q=0.8","67adeb124ea5587ac8afa3ac","683db6dfa200031b80f2a654","686507790dde1e14f682f3fa","67adeb124ea5587ac8afa3ac","2025-07-02T10:38:34.604Z","","","","","","pss","{""Q01"":""3"",""Q02"":""2"",""Q03"":""3"",""Q04"":""2"",""Q05"":""3"",""Q06"":""3"",""Q07"":""2"",""Q08"":""2"",""Q09"":""3"",""Q10"":""3""}","[0,1,2,3,4,5,6,7,8,9]","[""Q01"",""Q02"",""Q03"",""Q04"",""Q05"",""Q06"",""Q07"",""Q08"",""Q09"",""Q10""]","[3428.4000000003725,6906.5,9066,14286.099999999627,17539.900000000373,22978.299999998882,25983.799999998882,29748.5,33101.199999999255,35474.29999999888]","[]","[0,3428.4000000003725,6906.5,9066,14286.099999999627,17539.900000000373,22978.299999998882,25983.799999998882,29748.5,33101.199999999255,35474.29999999888,36333.90000000037]","0.5","0.6666666666666666","0","","","","","","","","","","","","","","","","","","","","","","","","","","","","","",""
"2950","1751452717556","<p style='font-size:1.1em;line-height:1.25'>Thank you for your answers! Now we will ask you a few more questions relating to your feelings in the last 24 hours.<br></p><p style='font-size:1.1em;line-height:1.25'>Press the <strong>Next</strong> button to continue.</p>","0","custom-html-button-response","17","197252","0.0-7.0-6.0","205","1","2025-07-02 10:35:14","80fe4187154257d5fb01684ea91b68b9","41.150.224.28","Mozilla/5.0 (Windows NT 10.0; Win64; x64) AppleWebKit/537.36 (KHTML, like Gecko) Chrome/137.0.0.0 Safari/537.36","WebKit","Chrome","137.0.0.0","Windows","10.0","https://app.prolific.com/","en-GB,en-US;q=0.9,en;q=0.8","67adeb124ea5587ac8afa3ac","683db6dfa200031b80f2a654","686507790dde1e14f682f3fa","67adeb124ea5587ac8afa3ac","2025-07-02T10:38:37.556Z","","","","","","","","","","","","","","","","","","","","","","","","","","","","","","","","","","","","","","","","","","","","",""
"58484.800000000745","","","","survey-template","18","255742","0.0-7.0-7.0","205","1","2025-07-02 10:35:14","80fe4187154257d5fb01684ea91b68b9","41.150.224.28","Mozilla/5.0 (Windows NT 10.0; Win64; x64) AppleWebKit/537.36 (KHTML, like Gecko) Chrome/137.0.0.0 Safari/537.36","WebKit","Chrome","137.0.0.0","Windows","10.0","https://app.prolific.com/","en-GB,en-US;q=0.9,en;q=0.8","67adeb124ea5587ac8afa3ac","683db6dfa200031b80f2a654","686507790dde1e14f682f3fa","67adeb124ea5587ac8afa3ac","2025-07-02T10:39:36.046Z","","","","","","drsp","{""Q01"":""4"",""Q02"":""3"",""Q03"":""2"",""Q04"":""4"",""Q05"":""5"",""Q06"":""5"",""Q07"":""4"",""Q08"":""4"",""Q09"":""3"",""Q10"":""1"",""Q11"":""3"",""Q12"":""1"",""Q13"":""1"",""Q14"":""3"",""Q15"":""1"",""Q16"":""2"",""Q17"":""3"",""Q18"":""4"",""Q19"":""3"",""Q20"":""2"",""Q21"":""4""}","[0,1,2,3,4,5,6,7,8,9,10,11,12,13,14,15,16,17,18,19,20]","[""Q02"",""Q01"",""Q03"",""Q04"",""Q05"",""Q06"",""Q07"",""Q08"",""Q09"",""Q10"",""Q11"",""Q12"",""Q13"",""Q14"",""Q15"",""Q16"",""Q17"",""Q18"",""Q19"",""Q20"",""Q21""]","[4119.200000001118,5574.9000000003725,7006.200000001118,8875,11126,15449.900000000373,16846.900000000373,18022.599999999627,19478.5,22260.800000000745,24760.200000001118,26525.200000001118,31145.5,36826.40000000037,39141.70000000112,40469.09999999963,41463.800000000745,45712,52174.800000000745,55517.09999999963,57582.300000000745]","[]","[0,2473.5,4119.200000001118,5574.9000000003725,7006.200000001118,8875,11126,15449.900000000373,16846.900000000373,18022.599999999627,19478.5,22260.800000000745,24760.200000001118,26525.200000001118,29191.800000000745,31145.5,36826.40000000037,39141.70000000112,40469.09999999963,41463.800000000745,45712,52174.800000000745,55517.09999999963,57582.300000000745,58479.300000000745]","0.2857142857142857","0.5","0","","","","","","","","","","","","","","","","","","","","","","","","","","","","","",""
"9440","","","","survey-template","19","265185","0.0-7.0-8.0","205","1","2025-07-02 10:35:14","80fe4187154257d5fb01684ea91b68b9","41.150.224.28","Mozilla/5.0 (Windows NT 10.0; Win64; x64) AppleWebKit/537.36 (KHTML, like Gecko) Chrome/137.0.0.0 Safari/537.36","WebKit","Chrome","137.0.0.0","Windows","10.0","https://app.prolific.com/","en-GB,en-US;q=0.9,en;q=0.8","67adeb124ea5587ac8afa3ac","683db6dfa200031b80f2a654","686507790dde1e14f682f3fa","67adeb124ea5587ac8afa3ac","2025-07-02T10:39:45.489Z","","","","","","stress","{""Q01"":""4"",""Q02"":""5"",""Q03"":""1""}","[0,1,2]","[""Q01"",""Q02"",""Q03""]","[2627.9000000003725,4946.4000000003725,8381.099999999627]","[]","[2627.9000000003725,4946.4000000003725,8381.099999999627,9438.900000000373]","0.3333333333333333","0.5","0","","","","","","","","","","","","","","","","","","","","","","","","","","","","","",""
"167892","","","","instructions","20","433078","0.0-8.0-0.0","205","1","2025-07-02 10:35:14","80fe4187154257d5fb01684ea91b68b9","41.150.224.28","Mozilla/5.0 (Windows NT 10.0; Win64; x64) AppleWebKit/537.36 (KHTML, like Gecko) Chrome/137.0.0.0 Safari/537.36","WebKit","Chrome","137.0.0.0","Windows","10.0","https://app.prolific.com/","en-GB,en-US;q=0.9,en;q=0.8","67adeb124ea5587ac8afa3ac","683db6dfa200031b80f2a654","686507790dde1e14f682f3fa","67adeb124ea5587ac8afa3ac","","[{""page_index"":0,""viewing_time"":78708},{""page_index"":1,""viewing_time"":33558},{""page_index"":2,""viewing_time"":25042},{""page_index"":3,""viewing_time"":30584}]","","","","","","","","","","","","","","","","","","","","","","","","","","","","","","","","","","","","","","","","","","","",""
"","","","","ctl-task-cpt","21","454501","0.0-8.0-1.0","205","1","2025-07-02 10:35:14","80fe4187154257d5fb01684ea91b68b9","41.150.224.28","Mozilla/5.0 (Windows NT 10.0; Win64; x64) AppleWebKit/537.36 (KHTML, like Gecko) Chrome/137.0.0.0 Safari/537.36","WebKit","Chrome","137.0.0.0","Windows","10.0","https://app.prolific.com/","en-GB,en-US;q=0.9,en;q=0.8","67adeb124ea5587ac8afa3ac","683db6dfa200031b80f2a654","686507790dde1e14f682f3fa","67adeb124ea5587ac8afa3ac","","","","","","","","","","","","","","","","","win-only","3","g1:SW,g2:NE","1","0","1","438190","3319","7321.8","18414.6","2","4","4","6","1","2","1","1","0","0.007575757575757576","2582.4","4000","1990","[""down"",""left""]","{""num_key_presses"":5,""num_perfect"":4,""num_errors"":1,""num_randdir"":0,""num_randdir_good_moves"":0,""num_whilered"":0,""num_whileblue"":0,""num_blue"":0,""num_good_moves"":4}","[299.22232142857143,305.12857142857143,2.7,299.22232142857143,305.12857142857143,113,299.22232142857143,305.12857142857143,216.7,299.22232142857143,305.12857142857143,316.9,299.22232142857143,305.12857142857143,422.1,299.22232142857143,305.12857142857143,522.2,299.22232142857143,305.12857142857143,625.8,299.22232142857143,305.12857142857143,727,299.22232142857143,305.12857142857143,828,299.22232142857143,305.12857142857143,929.4,299.22232142857143,305.12857142857143,1031.9,299.22232142857143,305.12857142857143,1133,268.22232142857143,334.12857142857143,1246.3,115.22232142857143,510.12857142857143,1349.2,101.22232142857143,525.1285714285714,1452.7,2.2223214285714263,627.1285714285714,1552.8,6.222321428571426,614.1285714285714,1658.2,15.222321428571426,607.1285714285714,1759.8,28.222321428571426,599.1285714285714,1862.1,29.222321428571426,599.1285714285714,1962.4,29.222321428571426,598.1285714285714,2063.2,30.222321428571426,598.1285714285714,2166.8,35.222321428571426,590.1285714285714,2268.9,35.222321428571426,590.1285714285714,2383,35.222321428571426,590.1285714285714,2485.3,35.222321428571426,590.1285714285714,2634.9,35.222321428571426,590.1285714285714,2737.3,35.222321428571426,590.1285714285714,2837.3,35.222321428571426,590.1285714285714,2940.2,35.222321428571426,590.1285714285714,3042.8,35.222321428571426,590.1285714285714,3142.9,35.222321428571426,590.1285714285714,3245.5,35.222321428571426,590.1285714285714,3347.2,35.222321428571426,590.1285714285714,3447.9,35.222321428571426,590.1285714285714,3548.3,35.222321428571426,590.1285714285714,3652.9,35.222321428571426,590.1285714285714,3763.1,35.222321428571426,590.1285714285714,3864,35.222321428571426,590.1285714285714,3968.2]","[2142.1,2142.2,1000,0,1142.2,""smooth"",""left"",""left"",""good_move"",2493.1,349.5,2879.3,2143.7,-2529.9,""error"",""-"",""-"",""no_move"",5931.8,3436.5,1918.8,3500.1,513,""smooth"",""down"",""down"",""good_move"",8521.3,2587.8,2097.2,5933.5,490.6,""smooth"",""left"",""left"",""good_move"",10961.6,2437.8,1890.2,8524.9,547.5,""smooth"",""down"",""down"",""good_move""]","","",""
"10869","","","","instructions","22","465372","0.0-8.0-2.0","205","1","2025-07-02 10:35:14","80fe4187154257d5fb01684ea91b68b9","41.150.224.28","Mozilla/5.0 (Windows NT 10.0; Win64; x64) AppleWebKit/537.36 (KHTML, like Gecko) Chrome/137.0.0.0 Safari/537.36","WebKit","Chrome","137.0.0.0","Windows","10.0","https://app.prolific.com/","en-GB,en-US;q=0.9,en;q=0.8","67adeb124ea5587ac8afa3ac","683db6dfa200031b80f2a654","686507790dde1e14f682f3fa","67adeb124ea5587ac8afa3ac","","[{""page_index"":0,""viewing_time"":10869}]","","","","","","","","","","","","","","","","","","","","","","","","","","","","","","","","","","","","","","","","","","","",""
"","","","","ctl-task-cpt","23","517934","0.0-8.0-3.0","205","1","2025-07-02 10:35:14","80fe4187154257d5fb01684ea91b68b9","41.150.224.28","Mozilla/5.0 (Windows NT 10.0; Win64; x64) AppleWebKit/537.36 (KHTML, like Gecko) Chrome/137.0.0.0 Safari/537.36","WebKit","Chrome","137.0.0.0","Windows","10.0","https://app.prolific.com/","en-GB,en-US;q=0.9,en;q=0.8","67adeb124ea5587ac8afa3ac","683db6dfa200031b80f2a654","686507790dde1e14f682f3fa","67adeb124ea5587ac8afa3ac","","","","","","","","","","","","","","","","","win-only","3","g1:SW,g2:NE","0.35","0","3","470481","1678.7","5683.8","49551.6","2","4","8","6","1","-2","-3","0","0","0","1302.4","4000","-2450","[""down"",""left""]","{""num_key_presses"":12,""num_perfect"":4,""num_errors"":1,""num_randdir"":7,""num_randdir_good_moves"":1,""num_whilered"":0,""num_whileblue"":0,""num_blue"":3,""num_good_moves"":5}","[297.22232142857143,301.12857142857143,1.2,297.22232142857143,301.12857142857143,101.9,297.22232142857143,301.12857142857143,209.2,297.22232142857143,301.12857142857143,314.8,297.22232142857143,301.12857142857143,416.9,297.22232142857143,301.12857142857143,517.3,168.22232142857143,439.12857142857143,620.4,95.22232142857143,518.1285714285714,722.9,94.22232142857143,518.1285714285714,831.1,94.22232142857143,518.1285714285714,932.5,87.22232142857143,523.1285714285714,1036.6,85.22232142857143,525.1285714285714,1137.8,85.22232142857143,525.1285714285714,1244.1,85.22232142857143,525.1285714285714,1344.1,85.22232142857143,525.1285714285714,1449.4,85.22232142857143,525.1285714285714,1553.4,85.22232142857143,525.1285714285714,1655.4,85.22232142857143,525.1285714285714,1759.9,85.22232142857143,525.1285714285714,1862.3,85.22232142857143,525.1285714285714,1966,85.22232142857143,525.1285714285714,2067.1,85.22232142857143,525.1285714285714,2167.1,85.22232142857143,525.1285714285714,2269.1,85.22232142857143,525.1285714285714,2372.2,85.22232142857143,525.1285714285714,2472.2,85.22232142857143,525.1285714285714,2579.4,85.22232142857143,525.1285714285714,2687.2,85.22232142857143,525.1285714285714,2788.3,85.22232142857143,525.1285714285714,2893,85.22232142857143,525.1285714285714,2996.6,85.22232142857143,525.1285714285714,3097.6,85.22232142857143,525.1285714285714,3198.1,85.22232142857143,525.1285714285714,3303.2,85.22232142857143,525.1285714285714,3408.7,85.22232142857143,525.1285714285714,3511.9,85.22232142857143,525.1285714285714,3621.4,85.22232142857143,525.1285714285714,3736.7,85.22232142857143,525.1285714285714,3837.7,85.22232142857143,525.1285714285714,3945.3]","[1559.7,1559.7,1000,0,559.7,""oops"",""down"",""up"",""bad_move"",7430.2,5869.1,2371.8,4713.9,344.5,""smooth"",""down"",""down"",""good_move"",10550.3,3119.3,2597.8,7431,521.5,""oops"",""left"",""up"",""bad_move"",13101.6,2550.3,2024.5,10551.4,525.7,""smooth"",""down"",""down"",""good_move"",15950,2846.4,2494.8,13103.6,351.6,""oops"",""down"",""right"",""bad_move"",16743,790.2,2128.7,15952.8,-1338.5,""error"",""-"",""-"",""no_move"",20725.8,3982.2,2581.9,17746.8,397.1,""oops"",""left"",""left"",""good_move"",23464.3,2737.1,2335.3,20727.2,401.8,""smooth"",""down"",""down"",""good_move"",33274.2,9808.8,2250,30703.6,320.7,""smooth"",""down"",""down"",""good_move"",35606.1,2331.1,1940.9,33275.1,390.1,""oops"",""left"",""up"",""bad_move"",38249.7,2642.5,2246.1,35607.2,396.4,""oops"",""left"",""up"",""bad_move"",40735.3,2482.6,2104.3,38252.7,378.3,""oops"",""down"",""up"",""bad_move""]","","",""
"17893","","","","instructions","24","535828","0.0-8.0-4.0","205","1","2025-07-02 10:35:14","80fe4187154257d5fb01684ea91b68b9","41.150.224.28","Mozilla/5.0 (Windows NT 10.0; Win64; x64) AppleWebKit/537.36 (KHTML, like Gecko) Chrome/137.0.0.0 Safari/537.36","WebKit","Chrome","137.0.0.0","Windows","10.0","https://app.prolific.com/","en-GB,en-US;q=0.9,en;q=0.8","67adeb124ea5587ac8afa3ac","683db6dfa200031b80f2a654","686507790dde1e14f682f3fa","67adeb124ea5587ac8afa3ac","","[{""page_index"":0,""viewing_time"":4412},{""page_index"":1,""viewing_time"":13480}]","","","","","","","","","","","","","","","","","","","","","","","","","","","","","","","","","","","","","","","","","","","",""
"26691","","","{""green_ball"":[""Ball sometimes shakes and moves in a random direction""]}","survey-multi-select","25","562522","0.0-8.0-5.0-0.0","205","1","2025-07-02 10:35:14","80fe4187154257d5fb01684ea91b68b9","41.150.224.28","Mozilla/5.0 (Windows NT 10.0; Win64; x64) AppleWebKit/537.36 (KHTML, like Gecko) Chrome/137.0.0.0 Safari/537.36","WebKit","Chrome","137.0.0.0","Windows","10.0","https://app.prolific.com/","en-GB,en-US;q=0.9,en;q=0.8","67adeb124ea5587ac8afa3ac","683db6dfa200031b80f2a654","686507790dde1e14f682f3fa","67adeb124ea5587ac8afa3ac","","","[0]","","","","quiz","","","","","","","","","","","","","","","","","","","","","","","","","","","","","","","","","","","","","true","",""
"2731","","<p align='center'><b>CORRECT!</b> Indeed, the green ball may sometimes shake and move in a random direction.</p>","0","html-button-response","26","565303","0.0-8.0-5.0-1.0","205","1","2025-07-02 10:35:14","80fe4187154257d5fb01684ea91b68b9","41.150.224.28","Mozilla/5.0 (Windows NT 10.0; Win64; x64) AppleWebKit/537.36 (KHTML, like Gecko) Chrome/137.0.0.0 Safari/537.36","WebKit","Chrome","137.0.0.0","Windows","10.0","https://app.prolific.com/","en-GB,en-US;q=0.9,en;q=0.8","67adeb124ea5587ac8afa3ac","683db6dfa200031b80f2a654","686507790dde1e14f682f3fa","67adeb124ea5587ac8afa3ac","","","","","","","","","","","","","","","","","","","","","","","","","","","","","","","","","","","","","","","","","","","","","",""
"8380","","","{""yellow_ball"":[""Ball doesn‘t move and I get -1 penalty point""]}","survey-multi-select","27","573686","0.0-8.0-6.0-0.0","205","1","2025-07-02 10:35:14","80fe4187154257d5fb01684ea91b68b9","41.150.224.28","Mozilla/5.0 (Windows NT 10.0; Win64; x64) AppleWebKit/537.36 (KHTML, like Gecko) Chrome/137.0.0.0 Safari/537.36","WebKit","Chrome","137.0.0.0","Windows","10.0","https://app.prolific.com/","en-GB,en-US;q=0.9,en;q=0.8","67adeb124ea5587ac8afa3ac","683db6dfa200031b80f2a654","686507790dde1e14f682f3fa","67adeb124ea5587ac8afa3ac","","","[0]","","","","quiz","","","","","","","","","","","","","","","","","","","","","","","","","","","","","","","","","","","","","true","",""
"1444","","<p align='center'><b>CORRECT!</b> Indeed, the yellow ball never moves and you receive a penalty.</p>","0","html-button-response","28","575132","0.0-8.0-6.0-1.0","205","1","2025-07-02 10:35:14","80fe4187154257d5fb01684ea91b68b9","41.150.224.28","Mozilla/5.0 (Windows NT 10.0; Win64; x64) AppleWebKit/537.36 (KHTML, like Gecko) Chrome/137.0.0.0 Safari/537.36","WebKit","Chrome","137.0.0.0","Windows","10.0","https://app.prolific.com/","en-GB,en-US;q=0.9,en;q=0.8","67adeb124ea5587ac8afa3ac","683db6dfa200031b80f2a654","686507790dde1e14f682f3fa","67adeb124ea5587ac8afa3ac","","","","","","","","","","","","","","","","","","","","","","","","","","","","","","","","","","","","","","","","","","","","","",""
"4608","","","{""blue_ball"":[""Ball doesn‘t move and I get -1 penalty point""]}","survey-multi-select","29","579743","0.0-8.0-7.0-0.0","205","1","2025-07-02 10:35:14","80fe4187154257d5fb01684ea91b68b9","41.150.224.28","Mozilla/5.0 (Windows NT 10.0; Win64; x64) AppleWebKit/537.36 (KHTML, like Gecko) Chrome/137.0.0.0 Safari/537.36","WebKit","Chrome","137.0.0.0","Windows","10.0","https://app.prolific.com/","en-GB,en-US;q=0.9,en;q=0.8","67adeb124ea5587ac8afa3ac","683db6dfa200031b80f2a654","686507790dde1e14f682f3fa","67adeb124ea5587ac8afa3ac","","","[0]","","","","quiz","","","","","","","","","","","","","","","","","","","","","","","","","","","","","","","","","","","","","false","",""
"3391","","<p align='center'><b>INCORRECT.</b> The blue ball always shakes and moves randomly.</p>","0","html-button-response","30","583136","0.0-8.0-7.0-1.0","205","1","2025-07-02 10:35:14","80fe4187154257d5fb01684ea91b68b9","41.150.224.28","Mozilla/5.0 (Windows NT 10.0; Win64; x64) AppleWebKit/537.36 (KHTML, like Gecko) Chrome/137.0.0.0 Safari/537.36","WebKit","Chrome","137.0.0.0","Windows","10.0","https://app.prolific.com/","en-GB,en-US;q=0.9,en;q=0.8","67adeb124ea5587ac8afa3ac","683db6dfa200031b80f2a654","686507790dde1e14f682f3fa","67adeb124ea5587ac8afa3ac","","","","","","","","","","","","","","","","","","","","","","","","","","","","","","","","","","","","","","","","","","","","","",""
"7295","","","{""blue_ball"":[""Ball always shakes and moves in a random direction""]}","survey-multi-select","31","590434","0.0-8.0-7.1-0.1","205","1","2025-07-02 10:35:14","80fe4187154257d5fb01684ea91b68b9","41.150.224.28","Mozilla/5.0 (Windows NT 10.0; Win64; x64) AppleWebKit/537.36 (KHTML, like Gecko) Chrome/137.0.0.0 Safari/537.36","WebKit","Chrome","137.0.0.0","Windows","10.0","https://app.prolific.com/","en-GB,en-US;q=0.9,en;q=0.8","67adeb124ea5587ac8afa3ac","683db6dfa200031b80f2a654","686507790dde1e14f682f3fa","67adeb124ea5587ac8afa3ac","","","[0]","","","","quiz","","","","","","","","","","","","","","","","","","","","","","","","","","","","","","","","","","","","","true","",""
"2002","","<p align='center'><b>CORRECT!</b> Indeed, the blue ball always shakes and moves in a random direction. Also there is a penalty of -1 point.</p>","0","html-button-response","32","592437","0.0-8.0-7.1-1.1","205","1","2025-07-02 10:35:14","80fe4187154257d5fb01684ea91b68b9","41.150.224.28","Mozilla/5.0 (Windows NT 10.0; Win64; x64) AppleWebKit/537.36 (KHTML, like Gecko) Chrome/137.0.0.0 Safari/537.36","WebKit","Chrome","137.0.0.0","Windows","10.0","https://app.prolific.com/","en-GB,en-US;q=0.9,en;q=0.8","67adeb124ea5587ac8afa3ac","683db6dfa200031b80f2a654","686507790dde1e14f682f3fa","67adeb124ea5587ac8afa3ac","","","","","","","","","","","","","","","","","","","","","","","","","","","","","","","","","","","","","","","","","","","","","",""
"9417","","","{""bonus"":[""When I don‘t get penalty points""]}","survey-multi-select","33","601857","0.0-8.0-8.0-0.0","205","1","2025-07-02 10:35:14","80fe4187154257d5fb01684ea91b68b9","41.150.224.28","Mozilla/5.0 (Windows NT 10.0; Win64; x64) AppleWebKit/537.36 (KHTML, like Gecko) Chrome/137.0.0.0 Safari/537.36","WebKit","Chrome","137.0.0.0","Windows","10.0","https://app.prolific.com/","en-GB,en-US;q=0.9,en;q=0.8","67adeb124ea5587ac8afa3ac","683db6dfa200031b80f2a654","686507790dde1e14f682f3fa","67adeb124ea5587ac8afa3ac","","","[0]","","","","quiz","","","","","","","","","","","","","","","","","","","","","","","","","","","","","","","","","","","","","false","",""
"2057","","<p align='center'><b>INCORRECT.</b> You receive 2 pounds extra when you reach 50% of points </p>","0","html-button-response","34","603916","0.0-8.0-8.0-1.0","205","1","2025-07-02 10:35:14","80fe4187154257d5fb01684ea91b68b9","41.150.224.28","Mozilla/5.0 (Windows NT 10.0; Win64; x64) AppleWebKit/537.36 (KHTML, like Gecko) Chrome/137.0.0.0 Safari/537.36","WebKit","Chrome","137.0.0.0","Windows","10.0","https://app.prolific.com/","en-GB,en-US;q=0.9,en;q=0.8","67adeb124ea5587ac8afa3ac","683db6dfa200031b80f2a654","686507790dde1e14f682f3fa","67adeb124ea5587ac8afa3ac","","","","","","","","","","","","","","","","","","","","","","","","","","","","","","","","","","","","","","","","","","","","","",""
"2274","","","{""bonus"":[""When I reach 50% of points""]}","survey-multi-select","35","606193","0.0-8.0-8.1-0.1","205","1","2025-07-02 10:35:14","80fe4187154257d5fb01684ea91b68b9","41.150.224.28","Mozilla/5.0 (Windows NT 10.0; Win64; x64) AppleWebKit/537.36 (KHTML, like Gecko) Chrome/137.0.0.0 Safari/537.36","WebKit","Chrome","137.0.0.0","Windows","10.0","https://app.prolific.com/","en-GB,en-US;q=0.9,en;q=0.8","67adeb124ea5587ac8afa3ac","683db6dfa200031b80f2a654","686507790dde1e14f682f3fa","67adeb124ea5587ac8afa3ac","","","[0]","","","","quiz","","","","","","","","","","","","","","","","","","","","","","","","","","","","","","","","","","","","","true","",""
"1504","","<p align='center'><b>CORRECT!</b> Indeed, you receive 2 pounds extra when you reach 50% of points.</p>","0","html-button-response","36","607699","0.0-8.0-8.1-1.1","205","1","2025-07-02 10:35:14","80fe4187154257d5fb01684ea91b68b9","41.150.224.28","Mozilla/5.0 (Windows NT 10.0; Win64; x64) AppleWebKit/537.36 (KHTML, like Gecko) Chrome/137.0.0.0 Safari/537.36","WebKit","Chrome","137.0.0.0","Windows","10.0","https://app.prolific.com/","en-GB,en-US;q=0.9,en;q=0.8","67adeb124ea5587ac8afa3ac","683db6dfa200031b80f2a654","686507790dde1e14f682f3fa","67adeb124ea5587ac8afa3ac","","","","","","","","","","","","","","","","","","","","","","","","","","","","","","","","","","","","","","","","","","","","","",""
"2061","","","","instructions","37","609761","0.0-8.0-9.0","205","1","2025-07-02 10:35:14","80fe4187154257d5fb01684ea91b68b9","41.150.224.28","Mozilla/5.0 (Windows NT 10.0; Win64; x64) AppleWebKit/537.36 (KHTML, like Gecko) Chrome/137.0.0.0 Safari/537.36","WebKit","Chrome","137.0.0.0","Windows","10.0","https://app.prolific.com/","en-GB,en-US;q=0.9,en;q=0.8","67adeb124ea5587ac8afa3ac","683db6dfa200031b80f2a654","686507790dde1e14f682f3fa","67adeb124ea5587ac8afa3ac","","[{""page_index"":0,""viewing_time"":2061}]","","","","","","","","","","","","","","","","","","","","","","","","","","","","","","","","","","","","","","","","","","","",""
"7708","","<p>Before you start with this game please answer the following three questions yourself. </p>
  <p>Through this game, we measure several aspects of your cognitive performance, such as reaction times, multi-tasking capabilities </p>
  <p>and the ability to assess the situation you are in.</p>
  <p></p>
  <p><b>How good do you usually are in such tasks?</b></p>","73","html-slider-response","38","617472","0.0-9.0-0.0","205","1","2025-07-02 10:35:14","80fe4187154257d5fb01684ea91b68b9","41.150.224.28","Mozilla/5.0 (Windows NT 10.0; Win64; x64) AppleWebKit/537.36 (KHTML, like Gecko) Chrome/137.0.0.0 Safari/537.36","WebKit","Chrome","137.0.0.0","Windows","10.0","https://app.prolific.com/","en-GB,en-US;q=0.9,en;q=0.8","67adeb124ea5587ac8afa3ac","683db6dfa200031b80f2a654","686507790dde1e14f682f3fa","67adeb124ea5587ac8afa3ac","2025-07-02T10:45:37.776Z","","","","","","PreSkillQ","","","","","","","","","","","","","","","","","","","","","","","","","","","","","","","","","","","","","","50",""
"4816","","<div style=""width:500px;"">
  <p>How well do you think you will perform in this task compared to other participants?</p>
  </div>","65","html-slider-response","39","622290","0.0-9.0-1.0","205","1","2025-07-02 10:35:14","80fe4187154257d5fb01684ea91b68b9","41.150.224.28","Mozilla/5.0 (Windows NT 10.0; Win64; x64) AppleWebKit/537.36 (KHTML, like Gecko) Chrome/137.0.0.0 Safari/537.36","WebKit","Chrome","137.0.0.0","Windows","10.0","https://app.prolific.com/","en-GB,en-US;q=0.9,en;q=0.8","67adeb124ea5587ac8afa3ac","683db6dfa200031b80f2a654","686507790dde1e14f682f3fa","67adeb124ea5587ac8afa3ac","2025-07-02T10:45:42.594Z","","","","","","PrePerfQ","","","","","","","","","","","","","","","","","","","","","","","","","","","","","","","","","","","","","","50",""
"5577","","<div style=""width:500px;"">
  <p>What best describes how you currently feel?</p>
  </div>","78","html-slider-response","40","627869","0.0-9.0-2.0","205","1","2025-07-02 10:35:14","80fe4187154257d5fb01684ea91b68b9","41.150.224.28","Mozilla/5.0 (Windows NT 10.0; Win64; x64) AppleWebKit/537.36 (KHTML, like Gecko) Chrome/137.0.0.0 Safari/537.36","WebKit","Chrome","137.0.0.0","Windows","10.0","https://app.prolific.com/","en-GB,en-US;q=0.9,en;q=0.8","67adeb124ea5587ac8afa3ac","683db6dfa200031b80f2a654","686507790dde1e14f682f3fa","67adeb124ea5587ac8afa3ac","2025-07-02T10:45:48.173Z","","","","","","PreMotivationQ","","","","","","","","","","","","","","","","","","","","","","","","","","","","","","","","","","","","","","50",""
"","","","","ctl-task-cpt","41","661664","0.0-10.0-0.0","205","1","2025-07-02 10:35:14","80fe4187154257d5fb01684ea91b68b9","41.150.224.28","Mozilla/5.0 (Windows NT 10.0; Win64; x64) AppleWebKit/537.36 (KHTML, like Gecko) Chrome/137.0.0.0 Safari/537.36","WebKit","Chrome","137.0.0.0","Windows","10.0","https://app.prolific.com/","en-GB,en-US;q=0.9,en;q=0.8","67adeb124ea5587ac8afa3ac","683db6dfa200031b80f2a654","686507790dde1e14f682f3fa","67adeb124ea5587ac8afa3ac","2025-07-02T10:46:21.968Z","","","","","","","","","","","","","","","","win-only","1","g1:NE,g2:SW","1","1","0","632981.6","3834.9","8842.1","30776.6","1","4","8","6","1","1","1","1","0","0.007575757575757576","1238.2","3000","1905","[""up"",""right""]","{""num_key_presses"":4,""num_perfect"":4,""num_errors"":0,""num_randdir"":0,""num_randdir_good_moves"":0,""num_whilered"":0,""num_whileblue"":0,""num_blue"":4,""num_good_moves"":4}","[295.22232142857143,296.12857142857143,1,295.22232142857143,296.12857142857143,102.6,295.22232142857143,296.12857142857143,202.7,295.22232142857143,296.12857142857143,305.6,295.22232142857143,297.12857142857143,406.4,266.22232142857143,327.12857142857143,517,320.22232142857143,283.12857142857143,624.1,481.22232142857143,100.12857142857143,728.4,481.22232142857143,100.12857142857143,829.6,488.22232142857143,94.12857142857143,932.5,532.2223214285714,67.12857142857143,1033.7,532.2223214285714,67.12857142857143,1135.5,532.2223214285714,67.12857142857143,1244.4,532.2223214285714,67.12857142857143,1346.9,532.2223214285714,67.12857142857143,1447.2,532.2223214285714,67.12857142857143,1552.2,532.2223214285714,67.12857142857143,1658.5,532.2223214285714,67.12857142857143,1765.5,532.2223214285714,67.12857142857143,1874.6,532.2223214285714,67.12857142857143,1978.6,533.2223214285714,66.12857142857143,2084.5,533.2223214285714,66.12857142857143,2187.3,533.2223214285714,66.12857142857143,2292.1,533.2223214285714,66.12857142857143,2397.1,533.2223214285714,66.12857142857143,2502.7,534.2223214285714,66.12857142857143,2605.4,534.2223214285714,66.12857142857143,2709.4,534.2223214285714,66.12857142857143,2813.6,536.2223214285714,66.12857142857143,2914.2,536.2223214285714,66.12857142857143,3024.1,536.2223214285714,66.12857142857143,3126.5,536.2223214285714,66.12857142857143,3227.4,536.2223214285714,66.12857142857143,3328.1,536.2223214285714,66.12857142857143,3440.6,536.2223214285714,66.12857142857143,3551.7,536.2223214285714,66.12857142857143,3652.1,536.2223214285714,66.12857142857143,3756.1,536.2223214285714,66.12857142857143,3861.2,536.2223214285714,66.12857142857143,3962.5,536.2223214285714,66.12857142857143,4063.9,536.2223214285714,66.12857142857143,4165.8,536.2223214285714,66.12857142857143,4273.3,536.2223214285714,66.12857142857143,4385.7,536.2223214285714,66.12857142857143,4493.1,536.2223214285714,66.12857142857143,4597.2,536.2223214285714,66.12857142857143,4698.9,536.2223214285714,66.12857142857143,4801.4,536.2223214285714,66.12857142857143,4902.1]","[8368.1,8368.1,2602,5448.9,317.2,""smooth"",""right"",""right"",""good_move"",10692.8,2322.4,1881,8370.4,441.4,""smooth"",""right"",""right"",""good_move"",13039.7,2345.5,2042.3,10694.3,303.1,""smooth"",""up"",""up"",""good_move"",21819.2,8775.7,1843.3,19546.7,429.2,""smooth"",""up"",""up"",""good_move""]","","",""
"5355","","<div style=""width:500px;"">
  <p>What determined the result of this run?</p>
  </div>","88","html-slider-response","42","667022","0.0-10.0-1.0","205","1","2025-07-02 10:35:14","80fe4187154257d5fb01684ea91b68b9","41.150.224.28","Mozilla/5.0 (Windows NT 10.0; Win64; x64) AppleWebKit/537.36 (KHTML, like Gecko) Chrome/137.0.0.0 Safari/537.36","WebKit","Chrome","137.0.0.0","Windows","10.0","https://app.prolific.com/","en-GB,en-US;q=0.9,en;q=0.8","67adeb124ea5587ac8afa3ac","683db6dfa200031b80f2a654","686507790dde1e14f682f3fa","67adeb124ea5587ac8afa3ac","2025-07-02T10:46:27.326Z","","","","","","AttribQ","","","","","","","","","","","","","","","","","","","","","","","","","","","","","","","","","","","","","","50",""
"2574","","<div style=""width:500px;"">
  <p>How much control did you have over the ball?</p>
  </div>","89","html-slider-response","43","669598","0.0-10.0-2.0","205","1","2025-07-02 10:35:14","80fe4187154257d5fb01684ea91b68b9","41.150.224.28","Mozilla/5.0 (Windows NT 10.0; Win64; x64) AppleWebKit/537.36 (KHTML, like Gecko) Chrome/137.0.0.0 Safari/537.36","WebKit","Chrome","137.0.0.0","Windows","10.0","https://app.prolific.com/","en-GB,en-US;q=0.9,en;q=0.8","67adeb124ea5587ac8afa3ac","683db6dfa200031b80f2a654","686507790dde1e14f682f3fa","67adeb124ea5587ac8afa3ac","2025-07-02T10:46:29.902Z","","","","","","ControlQ","","","","","","","","","","","","","","","","","","","","","","","","","","","","","","","","","","","","","","50",""
"3646","","<div style=""width:500px;"">
  <p>How would you describe your current emotional state?</p>
  </div>","15","html-slider-response","44","673247","0.0-10.0-3.0","205","1","2025-07-02 10:35:14","80fe4187154257d5fb01684ea91b68b9","41.150.224.28","Mozilla/5.0 (Windows NT 10.0; Win64; x64) AppleWebKit/537.36 (KHTML, like Gecko) Chrome/137.0.0.0 Safari/537.36","WebKit","Chrome","137.0.0.0","Windows","10.0","https://app.prolific.com/","en-GB,en-US;q=0.9,en;q=0.8","67adeb124ea5587ac8afa3ac","683db6dfa200031b80f2a654","686507790dde1e14f682f3fa","67adeb124ea5587ac8afa3ac","2025-07-02T10:46:33.551Z","","","","","","StressQ","","","","","","","","","","","","","","","","","","","","","","","","","","","","","","","","","","","","","","50",""
"4590","","<div style=""width:500px;"">
  <p>What best describes how you currently feel?</p>
  </div>","81","html-slider-response","45","677840","0.0-10.0-4.0","205","1","2025-07-02 10:35:14","80fe4187154257d5fb01684ea91b68b9","41.150.224.28","Mozilla/5.0 (Windows NT 10.0; Win64; x64) AppleWebKit/537.36 (KHTML, like Gecko) Chrome/137.0.0.0 Safari/537.36","WebKit","Chrome","137.0.0.0","Windows","10.0","https://app.prolific.com/","en-GB,en-US;q=0.9,en;q=0.8","67adeb124ea5587ac8afa3ac","683db6dfa200031b80f2a654","686507790dde1e14f682f3fa","67adeb124ea5587ac8afa3ac","2025-07-02T10:46:38.144Z","","","","","","MotivationQ","","","","","","","","","","","","","","","","","","","","","","","","","","","","","","","","","","","","","","50",""
"","","","","ctl-task-cpt","46","705207","0.0-10.0-0.1","205","1","2025-07-02 10:35:14","80fe4187154257d5fb01684ea91b68b9","41.150.224.28","Mozilla/5.0 (Windows NT 10.0; Win64; x64) AppleWebKit/537.36 (KHTML, like Gecko) Chrome/137.0.0.0 Safari/537.36","WebKit","Chrome","137.0.0.0","Windows","10.0","https://app.prolific.com/","en-GB,en-US;q=0.9,en;q=0.8","67adeb124ea5587ac8afa3ac","683db6dfa200031b80f2a654","686507790dde1e14f682f3fa","67adeb124ea5587ac8afa3ac","2025-07-02T10:47:05.511Z","","","","","","","","","","","","","","","","win-only","0","g1:NW,g2:SE","0.9","2","0","682951","1585.3","6591.8","24348.8","1","4","4","6","2","4","4","5","1","0.03787878787878788","2044.8","3000","1075","[""down"",""right""]","{""num_key_presses"":6,""num_perfect"":5,""num_errors"":0,""num_randdir"":1,""num_randdir_good_moves"":1,""num_whilered"":0,""num_whileblue"":0,""num_blue"":0,""num_good_moves"":6}","[303.22232142857143,297.12857142857143,1.7,303.22232142857143,297.12857142857143,116.6,303.22232142857143,297.12857142857143,220.6,303.22232142857143,297.12857142857143,320.6,303.22232142857143,297.12857142857143,424.6,303.22232142857143,297.12857142857143,528.6,305.22232142857143,298.12857142857143,631.5,373.22232142857143,378.12857142857143,740.9,373.22232142857143,378.12857142857143,843.1,207.22232142857143,272.12857142857143,945.8,170.22232142857143,210.12857142857143,1049.2,335.22232142857143,369.12857142857143,1151,376.22232142857143,409.12857142857143,1252.8,376.22232142857143,409.12857142857143,1355.3,389.22232142857143,421.12857142857143,1457,497.22232142857143,502.12857142857143,1570.4,502.22232142857143,507.12857142857143,1670.8,522.2223214285714,526.1285714285714,1772.2,524.2223214285714,529.1285714285714,1884.6,524.2223214285714,529.1285714285714,1985.3,524.2223214285714,529.1285714285714,2094.9,524.2223214285714,529.1285714285714,2204,524.2223214285714,529.1285714285714,2312.8,524.2223214285714,529.1285714285714,2424.9,524.2223214285714,529.1285714285714,2531.1,529.2223214285714,529.1285714285714,2631.4,535.2223214285714,527.1285714285714,2732.3,539.2223214285714,517.1285714285714,2838.8,542.2223214285714,512.1285714285714,2943.9,542.2223214285714,512.1285714285714,3046.5,542.2223214285714,512.1285714285714,3156.1,542.2223214285714,512.1285714285714,3261.6,542.2223214285714,512.1285714285714,3363.1,542.2223214285714,512.1285714285714,3467.1,542.2223214285714,512.1285714285714,3571.7,542.2223214285714,512.1285714285714,3681.2,542.2223214285714,512.1285714285714,3785.7,542.2223214285714,512.1285714285714,3886.3,542.2223214285714,512.1285714285714,3990.5,543.2223214285714,512.1285714285714,4098.4,543.2223214285714,510.12857142857143,4200.6,543.2223214285714,504.12857142857143,4302.1,543.2223214285714,504.12857142857143,4406.2,543.2223214285714,504.12857142857143,4513,543.2223214285714,504.12857142857143,4615.8,543.2223214285714,504.12857142857143,4717.8,543.2223214285714,504.12857142857143,4822.3,543.2223214285714,504.12857142857143,4924.2]","[1483.4,1483.4,1000,0,483.4,""smooth"",""right"",""right"",""good_move"",4263,2778.1,2403.1,1484.9,375,""smooth"",""down"",""down"",""good_move"",7283,3017.4,2620.5,4265.6,396.9,""smooth"",""right"",""right"",""good_move"",10979.2,3694.1,3130.9,7285.1,563.2,""smooth"",""down"",""down"",""good_move"",14082.6,3100.3,2699.5,10983.7,399.4,""oops"",""right"",""down"",""good_move"",17644.6,3559.7,3183.6,14084.9,376.1,""smooth"",""right"",""right"",""good_move""]","","",""
"2948","","<div style=""width:500px;"">
  <p>What determined the result of this run?</p>
  </div>","91","html-slider-response","47","708156","0.0-10.0-1.1","205","1","2025-07-02 10:35:14","80fe4187154257d5fb01684ea91b68b9","41.150.224.28","Mozilla/5.0 (Windows NT 10.0; Win64; x64) AppleWebKit/537.36 (KHTML, like Gecko) Chrome/137.0.0.0 Safari/537.36","WebKit","Chrome","137.0.0.0","Windows","10.0","https://app.prolific.com/","en-GB,en-US;q=0.9,en;q=0.8","67adeb124ea5587ac8afa3ac","683db6dfa200031b80f2a654","686507790dde1e14f682f3fa","67adeb124ea5587ac8afa3ac","2025-07-02T10:47:08.460Z","","","","","","AttribQ","","","","","","","","","","","","","","","","","","","","","","","","","","","","","","","","","","","","","","50",""
"3502","","<div style=""width:500px;"">
  <p>How much control did you have over the ball?</p>
  </div>","78","html-slider-response","48","711661","0.0-10.0-2.1","205","1","2025-07-02 10:35:14","80fe4187154257d5fb01684ea91b68b9","41.150.224.28","Mozilla/5.0 (Windows NT 10.0; Win64; x64) AppleWebKit/537.36 (KHTML, like Gecko) Chrome/137.0.0.0 Safari/537.36","WebKit","Chrome","137.0.0.0","Windows","10.0","https://app.prolific.com/","en-GB,en-US;q=0.9,en;q=0.8","67adeb124ea5587ac8afa3ac","683db6dfa200031b80f2a654","686507790dde1e14f682f3fa","67adeb124ea5587ac8afa3ac","2025-07-02T10:47:11.965Z","","","","","","ControlQ","","","","","","","","","","","","","","","","","","","","","","","","","","","","","","","","","","","","","","50",""
"2751","","<div style=""width:500px;"">
  <p>How would you describe your current emotional state?</p>
  </div>","11","html-slider-response","49","714416","0.0-10.0-3.1","205","1","2025-07-02 10:35:14","80fe4187154257d5fb01684ea91b68b9","41.150.224.28","Mozilla/5.0 (Windows NT 10.0; Win64; x64) AppleWebKit/537.36 (KHTML, like Gecko) Chrome/137.0.0.0 Safari/537.36","WebKit","Chrome","137.0.0.0","Windows","10.0","https://app.prolific.com/","en-GB,en-US;q=0.9,en;q=0.8","67adeb124ea5587ac8afa3ac","683db6dfa200031b80f2a654","686507790dde1e14f682f3fa","67adeb124ea5587ac8afa3ac","2025-07-02T10:47:14.720Z","","","","","","StressQ","","","","","","","","","","","","","","","","","","","","","","","","","","","","","","","","","","","","","","50",""
"4314","","<div style=""width:500px;"">
  <p>What best describes how you currently feel?</p>
  </div>","94","html-slider-response","50","718732","0.0-10.0-4.1","205","1","2025-07-02 10:35:14","80fe4187154257d5fb01684ea91b68b9","41.150.224.28","Mozilla/5.0 (Windows NT 10.0; Win64; x64) AppleWebKit/537.36 (KHTML, like Gecko) Chrome/137.0.0.0 Safari/537.36","WebKit","Chrome","137.0.0.0","Windows","10.0","https://app.prolific.com/","en-GB,en-US;q=0.9,en;q=0.8","67adeb124ea5587ac8afa3ac","683db6dfa200031b80f2a654","686507790dde1e14f682f3fa","67adeb124ea5587ac8afa3ac","2025-07-02T10:47:19.036Z","","","","","","MotivationQ","","","","","","","","","","","","","","","","","","","","","","","","","","","","","","","","","","","","","","50",""
"","","","","ctl-task-cpt","51","740921","0.0-10.0-0.2","205","1","2025-07-02 10:35:14","80fe4187154257d5fb01684ea91b68b9","41.150.224.28","Mozilla/5.0 (Windows NT 10.0; Win64; x64) AppleWebKit/537.36 (KHTML, like Gecko) Chrome/137.0.0.0 Safari/537.36","WebKit","Chrome","137.0.0.0","Windows","10.0","https://app.prolific.com/","en-GB,en-US;q=0.9,en;q=0.8","67adeb124ea5587ac8afa3ac","683db6dfa200031b80f2a654","686507790dde1e14f682f3fa","67adeb124ea5587ac8afa3ac","2025-07-02T10:47:41.225Z","","","","","","","","","","","","","","","","win-only","1","g1:NE,g2:SW","0.8","3","0","723843.4","1574.8","6582.3","19161.6","1","4","4","6","1","1","1","6","5","0.045454545454545456","3119.2","3000","1740","[""up"",""right""]","{""num_key_presses"":4,""num_perfect"":4,""num_errors"":0,""num_randdir"":0,""num_randdir_good_moves"":0,""num_whilered"":0,""num_whileblue"":0,""num_blue"":1,""num_good_moves"":4}","[296.22232142857143,304.12857142857143,0.7,296.22232142857143,304.12857142857143,101.6,296.22232142857143,304.12857142857143,207.6,296.22232142857143,304.12857142857143,311.9,296.22232142857143,304.12857142857143,412,296.22232142857143,304.12857142857143,513.2,293.22232142857143,305.12857142857143,617,294.22232142857143,309.12857142857143,717.5,323.22232142857143,290.12857142857143,822.1,323.22232142857143,290.12857142857143,930.9,203.22232142857143,416.12857142857143,1032.1,137.22232142857143,476.12857142857143,1145,132.22232142857143,482.12857142857143,1249.3,95.22232142857143,522.1285714285714,1349.6,69.22232142857143,547.1285714285714,1454.4,69.22232142857143,547.1285714285714,1556.3,69.22232142857143,547.1285714285714,1664.7,69.22232142857143,547.1285714285714,1766.6,69.22232142857143,547.1285714285714,1866.7,69.22232142857143,547.1285714285714,1979.6,112.22232142857143,461.12857142857143,2081.9,452.22232142857143,117.12857142857143,2192.9,452.22232142857143,117.12857142857143,2297.3,457.22232142857143,110.12857142857143,2405.2,609.2223214285714,21.128571428571426,2505.6,631.2223214285714,12.128571428571426,2610.9,631.2223214285714,12.128571428571426,2715.7,589.2223214285714,32.128571428571426,2816.6,565.2223214285714,42.128571428571426,2917.9,565.2223214285714,42.128571428571426,3018.7,565.2223214285714,42.128571428571426,3128.9,565.2223214285714,42.128571428571426,3232.3,565.2223214285714,42.128571428571426,3338.8,565.2223214285714,42.128571428571426,3442.8,565.2223214285714,42.128571428571426,3547.7,565.2223214285714,42.128571428571426,3651.9,565.2223214285714,42.128571428571426,3756.3,565.2223214285714,42.128571428571426,3857.5,565.2223214285714,42.128571428571426,3959.6,565.2223214285714,42.128571428571426,4061.1,565.2223214285714,42.128571428571426,4161.1,565.2223214285714,42.128571428571426,4262.4,565.2223214285714,42.128571428571426,4364,565.2223214285714,42.128571428571426,4478.6,565.2223214285714,42.128571428571426,4581.4,565.2223214285714,42.128571428571426,4693,565.2223214285714,42.128571428571426,4800.6,565.2223214285714,42.128571428571426,4909.7]","[1597.1,1597.1,1000,0,597.1,""smooth"",""right"",""right"",""good_move"",7429,5830.7,2101.1,4928.6,399.3,""smooth"",""up"",""up"",""good_move"",9581.2,2150.3,1749.2,7430.9,401.1,""smooth"",""right"",""right"",""good_move"",12466.3,2882.1,2549.5,9584.3,332.6,""smooth"",""up"",""up"",""good_move""]","","",""
"2426","","<div style=""width:500px;"">
  <p>What determined the result of this run?</p>
  </div>","87","html-slider-response","52","743349","0.0-10.0-1.2","205","1","2025-07-02 10:35:14","80fe4187154257d5fb01684ea91b68b9","41.150.224.28","Mozilla/5.0 (Windows NT 10.0; Win64; x64) AppleWebKit/537.36 (KHTML, like Gecko) Chrome/137.0.0.0 Safari/537.36","WebKit","Chrome","137.0.0.0","Windows","10.0","https://app.prolific.com/","en-GB,en-US;q=0.9,en;q=0.8","67adeb124ea5587ac8afa3ac","683db6dfa200031b80f2a654","686507790dde1e14f682f3fa","67adeb124ea5587ac8afa3ac","2025-07-02T10:47:43.653Z","","","","","","AttribQ","","","","","","","","","","","","","","","","","","","","","","","","","","","","","","","","","","","","","","50",""
"3768","","<div style=""width:500px;"">
  <p>How much control did you have over the ball?</p>
  </div>","60","html-slider-response","53","747119","0.0-10.0-2.2","205","1","2025-07-02 10:35:14","80fe4187154257d5fb01684ea91b68b9","41.150.224.28","Mozilla/5.0 (Windows NT 10.0; Win64; x64) AppleWebKit/537.36 (KHTML, like Gecko) Chrome/137.0.0.0 Safari/537.36","WebKit","Chrome","137.0.0.0","Windows","10.0","https://app.prolific.com/","en-GB,en-US;q=0.9,en;q=0.8","67adeb124ea5587ac8afa3ac","683db6dfa200031b80f2a654","686507790dde1e14f682f3fa","67adeb124ea5587ac8afa3ac","2025-07-02T10:47:47.424Z","","","","","","ControlQ","","","","","","","","","","","","","","","","","","","","","","","","","","","","","","","","","","","","","","50",""
"3019","","<div style=""width:500px;"">
  <p>How would you describe your current emotional state?</p>
  </div>","13","html-slider-response","54","750141","0.0-10.0-3.2","205","1","2025-07-02 10:35:14","80fe4187154257d5fb01684ea91b68b9","41.150.224.28","Mozilla/5.0 (Windows NT 10.0; Win64; x64) AppleWebKit/537.36 (KHTML, like Gecko) Chrome/137.0.0.0 Safari/537.36","WebKit","Chrome","137.0.0.0","Windows","10.0","https://app.prolific.com/","en-GB,en-US;q=0.9,en;q=0.8","67adeb124ea5587ac8afa3ac","683db6dfa200031b80f2a654","686507790dde1e14f682f3fa","67adeb124ea5587ac8afa3ac","2025-07-02T10:47:50.445Z","","","","","","StressQ","","","","","","","","","","","","","","","","","","","","","","","","","","","","","","","","","","","","","","50",""
"3152","","<div style=""width:500px;"">
  <p>What best describes how you currently feel?</p>
  </div>","72","html-slider-response","55","753296","0.0-10.0-4.2","205","1","2025-07-02 10:35:14","80fe4187154257d5fb01684ea91b68b9","41.150.224.28","Mozilla/5.0 (Windows NT 10.0; Win64; x64) AppleWebKit/537.36 (KHTML, like Gecko) Chrome/137.0.0.0 Safari/537.36","WebKit","Chrome","137.0.0.0","Windows","10.0","https://app.prolific.com/","en-GB,en-US;q=0.9,en;q=0.8","67adeb124ea5587ac8afa3ac","683db6dfa200031b80f2a654","686507790dde1e14f682f3fa","67adeb124ea5587ac8afa3ac","2025-07-02T10:47:53.600Z","","","","","","MotivationQ","","","","","","","","","","","","","","","","","","","","","","","","","","","","","","","","","","","","","","50",""
"","","","","ctl-task-cpt","56","807541","0.0-10.0-0.3","205","1","2025-07-02 10:35:14","80fe4187154257d5fb01684ea91b68b9","41.150.224.28","Mozilla/5.0 (Windows NT 10.0; Win64; x64) AppleWebKit/537.36 (KHTML, like Gecko) Chrome/137.0.0.0 Safari/537.36","WebKit","Chrome","137.0.0.0","Windows","10.0","https://app.prolific.com/","en-GB,en-US;q=0.9,en;q=0.8","67adeb124ea5587ac8afa3ac","683db6dfa200031b80f2a654","686507790dde1e14f682f3fa","67adeb124ea5587ac8afa3ac","2025-07-02T10:48:47.845Z","","","","","","","","","","","","","","","","win-only","1","g1:NE,g2:SW","0.7","4","0","758407","2506.1","7507.2","51219.9","1","4","8","6","2","-8","-8","0","6","0","2107.1","3000","-2145","[""down"",""left""]","{""num_key_presses"":11,""num_perfect"":8,""num_errors"":0,""num_randdir"":3,""num_randdir_good_moves"":0,""num_whilered"":0,""num_whileblue"":0,""num_blue"":3,""num_good_moves"":8}","[293.22232142857143,297.12857142857143,4.6,293.22232142857143,297.12857142857143,110,293.22232142857143,297.12857142857143,216.4,293.22232142857143,297.12857142857143,316.9,271.22232142857143,320.12857142857143,421.4,148.22232142857143,454.12857142857143,521.6,106.22232142857143,492.12857142857143,626.9,105.22232142857143,493.12857142857143,727.8,163.22232142857143,447.12857142857143,832.1,453.22232142857143,111.12857142857143,935.3,453.22232142857143,111.12857142857143,1036.4,453.22232142857143,111.12857142857143,1145.4,467.22232142857143,101.12857142857143,1248.9,469.22232142857143,99.12857142857143,1350.7,233.22232142857143,336.12857142857143,1452.7,124.22232142857143,497.12857142857143,1555.1,124.22232142857143,497.12857142857143,1657.5,122.22232142857143,498.12857142857143,1758.5,72.22232142857143,541.1285714285714,1869,72.22232142857143,541.1285714285714,1974,72.22232142857143,541.1285714285714,2082.2,72.22232142857143,541.1285714285714,2185.8,72.22232142857143,541.1285714285714,2287.7,72.22232142857143,541.1285714285714,2398.2,72.22232142857143,541.1285714285714,2500.9,72.22232142857143,541.1285714285714,2601.3,72.22232142857143,541.1285714285714,2707.9,72.22232142857143,541.1285714285714,2810.9,72.22232142857143,541.1285714285714,2916.5,72.22232142857143,541.1285714285714,3025.7,72.22232142857143,541.1285714285714,3135.8,72.22232142857143,542.1285714285714,3239,72.22232142857143,542.1285714285714,3340,72.22232142857143,542.1285714285714,3441.7,72.22232142857143,542.1285714285714,3550.7,67.22232142857143,549.1285714285714,3651.3,66.22232142857143,552.1285714285714,3760.5,66.22232142857143,552.1285714285714,3861.7,66.22232142857143,552.1285714285714,3964.3,66.22232142857143,552.1285714285714,4070.9,66.22232142857143,552.1285714285714,4176.8,66.22232142857143,552.1285714285714,4285.8,66.22232142857143,552.1285714285714,4386.8,66.22232142857143,552.1285714285714,4491.1,66.22232142857143,552.1285714285714,4591.8,66.22232142857143,552.1285714285714,4697.3,66.22232142857143,552.1285714285714,4801.1,66.22232142857143,552.1285714285714,4905.7]","[1532.6,1532.6,1000,0,532.6,""smooth"",""left"",""left"",""good_move"",4861.2,3324.7,2714.6,1536.5,610.1,""oops"",""down"",""up"",""bad_move"",7797.4,2933.3,2453.3,4864.1,480,""smooth"",""left"",""left"",""good_move"",10717.9,2918.9,2480.4,7799,438.5,""smooth"",""left"",""left"",""good_move"",13981,3260.5,2939,10720.5,321.5,""smooth"",""down"",""down"",""good_move"",16779.8,2796.3,2429.2,13983.5,367.1,""smooth"",""down"",""down"",""good_move"",19650.4,2868.9,2561.3,16781.5,307.6,""oops"",""down"",""right"",""bad_move"",22811.6,3158.9,2844.7,19652.8,314.2,""smooth"",""down"",""down"",""good_move"",25503.3,2688,2246.2,22815.3,441.8,""oops"",""down"",""right"",""bad_move"",30878.5,5374,1941.2,28605.7,331.6,""smooth"",""left"",""left"",""good_move"",41137,10257.9,2480.5,38322.3,334.2,""smooth"",""down"",""down"",""good_move""]","","",""
"4472","","<div style=""width:500px;"">
  <p>What determined the result of this run?</p>
  </div>","67","html-slider-response","57","812015","0.0-10.0-1.3","205","1","2025-07-02 10:35:14","80fe4187154257d5fb01684ea91b68b9","41.150.224.28","Mozilla/5.0 (Windows NT 10.0; Win64; x64) AppleWebKit/537.36 (KHTML, like Gecko) Chrome/137.0.0.0 Safari/537.36","WebKit","Chrome","137.0.0.0","Windows","10.0","https://app.prolific.com/","en-GB,en-US;q=0.9,en;q=0.8","67adeb124ea5587ac8afa3ac","683db6dfa200031b80f2a654","686507790dde1e14f682f3fa","67adeb124ea5587ac8afa3ac","2025-07-02T10:48:52.319Z","","","","","","AttribQ","","","","","","","","","","","","","","","","","","","","","","","","","","","","","","","","","","","","","","50",""
"3240","","<div style=""width:500px;"">
  <p>How much control did you have over the ball?</p>
  </div>","40","html-slider-response","58","815257","0.0-10.0-2.3","205","1","2025-07-02 10:35:14","80fe4187154257d5fb01684ea91b68b9","41.150.224.28","Mozilla/5.0 (Windows NT 10.0; Win64; x64) AppleWebKit/537.36 (KHTML, like Gecko) Chrome/137.0.0.0 Safari/537.36","WebKit","Chrome","137.0.0.0","Windows","10.0","https://app.prolific.com/","en-GB,en-US;q=0.9,en;q=0.8","67adeb124ea5587ac8afa3ac","683db6dfa200031b80f2a654","686507790dde1e14f682f3fa","67adeb124ea5587ac8afa3ac","2025-07-02T10:48:55.561Z","","","","","","ControlQ","","","","","","","","","","","","","","","","","","","","","","","","","","","","","","","","","","","","","","50",""
"3163","","<div style=""width:500px;"">
  <p>How would you describe your current emotional state?</p>
  </div>","39","html-slider-response","59","818421","0.0-10.0-3.3","205","1","2025-07-02 10:35:14","80fe4187154257d5fb01684ea91b68b9","41.150.224.28","Mozilla/5.0 (Windows NT 10.0; Win64; x64) AppleWebKit/537.36 (KHTML, like Gecko) Chrome/137.0.0.0 Safari/537.36","WebKit","Chrome","137.0.0.0","Windows","10.0","https://app.prolific.com/","en-GB,en-US;q=0.9,en;q=0.8","67adeb124ea5587ac8afa3ac","683db6dfa200031b80f2a654","686507790dde1e14f682f3fa","67adeb124ea5587ac8afa3ac","2025-07-02T10:48:58.726Z","","","","","","StressQ","","","","","","","","","","","","","","","","","","","","","","","","","","","","","","","","","","","","","","50",""
"2548","","<div style=""width:500px;"">
  <p>What best describes how you currently feel?</p>
  </div>","70","html-slider-response","60","820971","0.0-10.0-4.3","205","1","2025-07-02 10:35:14","80fe4187154257d5fb01684ea91b68b9","41.150.224.28","Mozilla/5.0 (Windows NT 10.0; Win64; x64) AppleWebKit/537.36 (KHTML, like Gecko) Chrome/137.0.0.0 Safari/537.36","WebKit","Chrome","137.0.0.0","Windows","10.0","https://app.prolific.com/","en-GB,en-US;q=0.9,en;q=0.8","67adeb124ea5587ac8afa3ac","683db6dfa200031b80f2a654","686507790dde1e14f682f3fa","67adeb124ea5587ac8afa3ac","2025-07-02T10:49:01.276Z","","","","","","MotivationQ","","","","","","","","","","","","","","","","","","","","","","","","","","","","","","","","","","","","","","50",""
"","","","","ctl-task-cpt","61","851006","0.0-10.0-0.4","205","1","2025-07-02 10:35:14","80fe4187154257d5fb01684ea91b68b9","41.150.224.28","Mozilla/5.0 (Windows NT 10.0; Win64; x64) AppleWebKit/537.36 (KHTML, like Gecko) Chrome/137.0.0.0 Safari/537.36","WebKit","Chrome","137.0.0.0","Windows","10.0","https://app.prolific.com/","en-GB,en-US;q=0.9,en;q=0.8","67adeb124ea5587ac8afa3ac","683db6dfa200031b80f2a654","686507790dde1e14f682f3fa","67adeb124ea5587ac8afa3ac","2025-07-02T10:49:31.310Z","","","","","","","","","","","","","","","","win-only","3","g1:SW,g2:NE","0.6","5","0","826083.3","1377.2","6385","27007.9","1","4","4","6","1","1","0","0","0","0","1623.5","3000","2125","[""down"",""left""]","{""num_key_presses"":6,""num_perfect"":5,""num_errors"":1,""num_randdir"":0,""num_randdir_good_moves"":0,""num_whilered"":0,""num_whileblue"":1,""num_blue"":2,""num_good_moves"":5}","[295.22232142857143,293.12857142857143,0.7,295.22232142857143,293.12857142857143,106.1,295.22232142857143,293.12857142857143,210.6,295.22232142857143,293.12857142857143,314.2,295.22232142857143,293.12857142857143,419.7,295.22232142857143,293.12857142857143,525.6,478.22232142857143,120.12857142857143,630.9,508.22232142857143,96.12857142857143,730.9,508.22232142857143,96.12857142857143,837.1,506.22232142857143,96.12857142857143,937.9,205.22232142857143,397.12857142857143,1045,138.22232142857143,471.12857142857143,1145.3,96.22232142857143,515.1285714285714,1252.9,43.222321428571426,550.1285714285714,1362.1,39.222321428571426,553.1285714285714,1461.9,39.222321428571426,553.1285714285714,1568.9,39.222321428571426,553.1285714285714,1678.7,39.222321428571426,553.1285714285714,1784.9,39.222321428571426,553.1285714285714,1889.1,39.222321428571426,553.1285714285714,2002.8,39.222321428571426,553.1285714285714,2105.5,39.222321428571426,553.1285714285714,2208.2,39.222321428571426,553.1285714285714,2316.4,39.222321428571426,553.1285714285714,2423.4,39.222321428571426,553.1285714285714,2531.3,43.222321428571426,553.1285714285714,2639.4,46.222321428571426,552.1285714285714,2739.9,46.222321428571426,552.1285714285714,2845.9,46.222321428571426,552.1285714285714,2946.5,46.222321428571426,552.1285714285714,3049.7,46.222321428571426,552.1285714285714,3152.3,46.222321428571426,552.1285714285714,3257.5,46.222321428571426,552.1285714285714,3381.9,46.222321428571426,552.1285714285714,3483.9,46.222321428571426,552.1285714285714,3585.7,46.222321428571426,552.1285714285714,3689.6,46.222321428571426,552.1285714285714,3790.1,46.222321428571426,552.1285714285714,3899.2,46.222321428571426,552.1285714285714,4006.6,46.222321428571426,552.1285714285714,4114.1,46.222321428571426,552.1285714285714,4220.3,46.222321428571426,552.1285714285714,4322.5,46.222321428571426,552.1285714285714,4428.4,46.222321428571426,552.1285714285714,4534.3,46.222321428571426,552.1285714285714,4635.5,46.222321428571426,552.1285714285714,4738.2,46.222321428571426,552.1285714285714,4842.6,46.222321428571426,552.1285714285714,4949.1]","[1459.3,1459.3,1000,0,459.3,""smooth"",""down"",""down"",""good_move"",4392.6,2932.2,2537.2,1460.4,395,""smooth"",""down"",""down"",""good_move"",7872.7,3479.1,3179.7,4393.6,299.4,""while_blue"",""left"",""up"",""bad_move"",10707.3,2831.4,2441,7875.9,390.4,""smooth"",""left"",""left"",""good_move"",17121.8,6413.5,2600,14166.4,355.4,""smooth"",""down"",""down"",""good_move"",20375.2,3252.6,2913,17122.6,339.6,""smooth"",""left"",""left"",""good_move""]","","",""
"3029","","<div style=""width:500px;"">
  <p>What determined the result of this run?</p>
  </div>","70","html-slider-response","62","854038","0.0-10.0-1.4","205","1","2025-07-02 10:35:14","80fe4187154257d5fb01684ea91b68b9","41.150.224.28","Mozilla/5.0 (Windows NT 10.0; Win64; x64) AppleWebKit/537.36 (KHTML, like Gecko) Chrome/137.0.0.0 Safari/537.36","WebKit","Chrome","137.0.0.0","Windows","10.0","https://app.prolific.com/","en-GB,en-US;q=0.9,en;q=0.8","67adeb124ea5587ac8afa3ac","683db6dfa200031b80f2a654","686507790dde1e14f682f3fa","67adeb124ea5587ac8afa3ac","2025-07-02T10:49:34.342Z","","","","","","AttribQ","","","","","","","","","","","","","","","","","","","","","","","","","","","","","","","","","","","","","","50",""
"2163","","<div style=""width:500px;"">
  <p>How much control did you have over the ball?</p>
  </div>","66","html-slider-response","63","856203","0.0-10.0-2.4","205","1","2025-07-02 10:35:14","80fe4187154257d5fb01684ea91b68b9","41.150.224.28","Mozilla/5.0 (Windows NT 10.0; Win64; x64) AppleWebKit/537.36 (KHTML, like Gecko) Chrome/137.0.0.0 Safari/537.36","WebKit","Chrome","137.0.0.0","Windows","10.0","https://app.prolific.com/","en-GB,en-US;q=0.9,en;q=0.8","67adeb124ea5587ac8afa3ac","683db6dfa200031b80f2a654","686507790dde1e14f682f3fa","67adeb124ea5587ac8afa3ac","2025-07-02T10:49:36.508Z","","","","","","ControlQ","","","","","","","","","","","","","","","","","","","","","","","","","","","","","","","","","","","","","","50",""
"2485","","<div style=""width:500px;"">
  <p>How would you describe your current emotional state?</p>
  </div>","47","html-slider-response","64","858692","0.0-10.0-3.4","205","1","2025-07-02 10:35:14","80fe4187154257d5fb01684ea91b68b9","41.150.224.28","Mozilla/5.0 (Windows NT 10.0; Win64; x64) AppleWebKit/537.36 (KHTML, like Gecko) Chrome/137.0.0.0 Safari/537.36","WebKit","Chrome","137.0.0.0","Windows","10.0","https://app.prolific.com/","en-GB,en-US;q=0.9,en;q=0.8","67adeb124ea5587ac8afa3ac","683db6dfa200031b80f2a654","686507790dde1e14f682f3fa","67adeb124ea5587ac8afa3ac","2025-07-02T10:49:38.996Z","","","","","","StressQ","","","","","","","","","","","","","","","","","","","","","","","","","","","","","","","","","","","","","","50",""
"2889","","<div style=""width:500px;"">
  <p>What best describes how you currently feel?</p>
  </div>","82","html-slider-response","65","861586","0.0-10.0-4.4","205","1","2025-07-02 10:35:14","80fe4187154257d5fb01684ea91b68b9","41.150.224.28","Mozilla/5.0 (Windows NT 10.0; Win64; x64) AppleWebKit/537.36 (KHTML, like Gecko) Chrome/137.0.0.0 Safari/537.36","WebKit","Chrome","137.0.0.0","Windows","10.0","https://app.prolific.com/","en-GB,en-US;q=0.9,en;q=0.8","67adeb124ea5587ac8afa3ac","683db6dfa200031b80f2a654","686507790dde1e14f682f3fa","67adeb124ea5587ac8afa3ac","2025-07-02T10:49:41.890Z","","","","","","MotivationQ","","","","","","","","","","","","","","","","","","","","","","","","","","","","","","","","","","","","","","50",""
"","","","","ctl-task-cpt","66","944374","0.0-10.0-0.5","205","1","2025-07-02 10:35:14","80fe4187154257d5fb01684ea91b68b9","41.150.224.28","Mozilla/5.0 (Windows NT 10.0; Win64; x64) AppleWebKit/537.36 (KHTML, like Gecko) Chrome/137.0.0.0 Safari/537.36","WebKit","Chrome","137.0.0.0","Windows","10.0","https://app.prolific.com/","en-GB,en-US;q=0.9,en;q=0.8","67adeb124ea5587ac8afa3ac","683db6dfa200031b80f2a654","686507790dde1e14f682f3fa","67adeb124ea5587ac8afa3ac","2025-07-02T10:51:04.678Z","","","","","","","","","","","","","","","","win-only","0","g1:NW,g2:SE","0.5","6","0","866697","1047.1","6050.3","79755.9","1","4","8","6","1","1","1","1","0","0.007575757575757576","2105.9","3000","670","[""left"",""up""]","{""num_key_presses"":16,""num_perfect"":8,""num_errors"":0,""num_randdir"":8,""num_randdir_good_moves"":3,""num_whilered"":0,""num_whileblue"":0,""num_blue"":6,""num_good_moves"":10}","[301.22232142857143,303.12857142857143,2.8,301.22232142857143,303.12857142857143,101.4,301.22232142857143,303.12857142857143,206.4,301.22232142857143,303.12857142857143,310.6,301.22232142857143,303.12857142857143,419.1,301.22232142857143,303.12857142857143,525.3,301.22232142857143,303.12857142857143,627.9,291.22232142857143,299.12857142857143,729.4,118.22232142857143,114.12857142857143,831,114.22232142857143,104.12857142857143,935.9,114.22232142857143,104.12857142857143,1039.9,110.22232142857143,103.12857142857143,1147.6,123.22232142857143,108.12857142857143,1250.2,357.22232142857143,303.12857142857143,1356.5,365.22232142857143,313.12857142857143,1461.9,363.22232142857143,313.12857142857143,1564.3,106.22232142857143,92.12857142857143,1668.2,79.22232142857143,48.128571428571426,1773.7,79.22232142857143,48.128571428571426,1889.5,79.22232142857143,48.128571428571426,1995.6,79.22232142857143,48.128571428571426,2110.2,79.22232142857143,48.128571428571426,2212.3,79.22232142857143,48.128571428571426,2316.4,79.22232142857143,48.128571428571426,2418.1,79.22232142857143,48.128571428571426,2518.7,79.22232142857143,48.128571428571426,2625.3,79.22232142857143,48.128571428571426,2739.3,79.22232142857143,48.128571428571426,2853.5,79.22232142857143,48.128571428571426,2965,79.22232142857143,48.128571428571426,3071.4,79.22232142857143,48.128571428571426,3177.8,79.22232142857143,48.128571428571426,3278.3,79.22232142857143,48.128571428571426,3382.4,79.22232142857143,48.128571428571426,3489.5,79.22232142857143,48.128571428571426,3595.4,80.22232142857143,48.128571428571426,3705.3,80.22232142857143,48.128571428571426,3810.6,80.22232142857143,47.128571428571426,3914.2,80.22232142857143,47.128571428571426,4015.1,80.22232142857143,47.128571428571426,4123.2,80.22232142857143,47.128571428571426,4224.9,81.22232142857143,47.128571428571426,4332.3,81.22232142857143,47.128571428571426,4442.9,81.22232142857143,47.128571428571426,4548.1,81.22232142857143,47.128571428571426,4653.4,81.22232142857143,47.128571428571426,4754,82.22232142857143,47.128571428571426,4860.2,82.22232142857143,47.128571428571426,4970.5]","[1810.5,1810.6,1000,0,810.6,""smooth"",""up"",""up"",""good_move"",8515.9,6703.3,2467.4,5640.9,407.6,""oops"",""left"",""right"",""bad_move"",11497.7,2979.3,2471.1,8518.4,508.2,""smooth"",""up"",""up"",""good_move"",14328.4,2829.5,2239.1,11498.9,590.4,""oops"",""left"",""right"",""bad_move"",20266.7,5936.6,2596.6,17321.3,348.8,""oops"",""left"",""left"",""good_move"",27671.8,7403.8,2423.8,24915,333,""smooth"",""left"",""left"",""good_move"",30859.2,3186.6,2334.1,27672.6,852.5,""oops"",""left"",""right"",""bad_move"",34377.1,3516.9,2935.9,30860.2,581,""smooth"",""left"",""left"",""good_move"",37335.4,2957,2266.1,34378.4,690.9,""smooth"",""down"",""down"",""bad_move"",43687.1,6350.2,2501.7,40844.4,341.3,""oops"",""left"",""up"",""good_move"",47336.7,3648.4,2482.2,43688.3,1166.3,""oops"",""left"",""right"",""bad_move"",50572.5,3234.7,2843.6,47337.8,391.1,""smooth"",""left"",""left"",""good_move"",58322.1,7747.9,2725.4,55217.1,379.6,""oops"",""left"",""down"",""bad_move"",61726.1,3402.8,2933.4,58323.4,469.4,""smooth"",""left"",""left"",""good_move"",65965.9,4238.7,3329.5,61727.3,909.1,""oops"",""left"",""up"",""good_move"",73297,7329.6,2155,70776.4,365.6,""smooth"",""left"",""left"",""good_move""]","","",""
"3235","","<div style=""width:500px;"">
  <p>What determined the result of this run?</p>
  </div>","79","html-slider-response","67","947614","0.0-10.0-1.5","205","1","2025-07-02 10:35:14","80fe4187154257d5fb01684ea91b68b9","41.150.224.28","Mozilla/5.0 (Windows NT 10.0; Win64; x64) AppleWebKit/537.36 (KHTML, like Gecko) Chrome/137.0.0.0 Safari/537.36","WebKit","Chrome","137.0.0.0","Windows","10.0","https://app.prolific.com/","en-GB,en-US;q=0.9,en;q=0.8","67adeb124ea5587ac8afa3ac","683db6dfa200031b80f2a654","686507790dde1e14f682f3fa","67adeb124ea5587ac8afa3ac","2025-07-02T10:51:07.918Z","","","","","","AttribQ","","","","","","","","","","","","","","","","","","","","","","","","","","","","","","","","","","","","","","50",""
"5185","","<div style=""width:500px;"">
  <p>How much control did you have over the ball?</p>
  </div>","45","html-slider-response","68","952803","0.0-10.0-2.5","205","1","2025-07-02 10:35:14","80fe4187154257d5fb01684ea91b68b9","41.150.224.28","Mozilla/5.0 (Windows NT 10.0; Win64; x64) AppleWebKit/537.36 (KHTML, like Gecko) Chrome/137.0.0.0 Safari/537.36","WebKit","Chrome","137.0.0.0","Windows","10.0","https://app.prolific.com/","en-GB,en-US;q=0.9,en;q=0.8","67adeb124ea5587ac8afa3ac","683db6dfa200031b80f2a654","686507790dde1e14f682f3fa","67adeb124ea5587ac8afa3ac","2025-07-02T10:51:13.107Z","","","","","","ControlQ","","","","","","","","","","","","","","","","","","","","","","","","","","","","","","","","","","","","","","50",""
"2944","","<div style=""width:500px;"">
  <p>How would you describe your current emotional state?</p>
  </div>","27","html-slider-response","69","955752","0.0-10.0-3.5","205","1","2025-07-02 10:35:14","80fe4187154257d5fb01684ea91b68b9","41.150.224.28","Mozilla/5.0 (Windows NT 10.0; Win64; x64) AppleWebKit/537.36 (KHTML, like Gecko) Chrome/137.0.0.0 Safari/537.36","WebKit","Chrome","137.0.0.0","Windows","10.0","https://app.prolific.com/","en-GB,en-US;q=0.9,en;q=0.8","67adeb124ea5587ac8afa3ac","683db6dfa200031b80f2a654","686507790dde1e14f682f3fa","67adeb124ea5587ac8afa3ac","2025-07-02T10:51:16.056Z","","","","","","StressQ","","","","","","","","","","","","","","","","","","","","","","","","","","","","","","","","","","","","","","50",""
"2353","","<div style=""width:500px;"">
  <p>What best describes how you currently feel?</p>
  </div>","90","html-slider-response","70","958108","0.0-10.0-4.5","205","1","2025-07-02 10:35:14","80fe4187154257d5fb01684ea91b68b9","41.150.224.28","Mozilla/5.0 (Windows NT 10.0; Win64; x64) AppleWebKit/537.36 (KHTML, like Gecko) Chrome/137.0.0.0 Safari/537.36","WebKit","Chrome","137.0.0.0","Windows","10.0","https://app.prolific.com/","en-GB,en-US;q=0.9,en;q=0.8","67adeb124ea5587ac8afa3ac","683db6dfa200031b80f2a654","686507790dde1e14f682f3fa","67adeb124ea5587ac8afa3ac","2025-07-02T10:51:18.412Z","","","","","","MotivationQ","","","","","","","","","","","","","","","","","","","","","","","","","","","","","","","","","","","","","","50",""
"","","","","ctl-task-cpt","71","982712","0.0-10.0-0.6","205","1","2025-07-02 10:35:14","80fe4187154257d5fb01684ea91b68b9","41.150.224.28","Mozilla/5.0 (Windows NT 10.0; Win64; x64) AppleWebKit/537.36 (KHTML, like Gecko) Chrome/137.0.0.0 Safari/537.36","WebKit","Chrome","137.0.0.0","Windows","10.0","https://app.prolific.com/","en-GB,en-US;q=0.9,en;q=0.8","67adeb124ea5587ac8afa3ac","683db6dfa200031b80f2a654","686507790dde1e14f682f3fa","67adeb124ea5587ac8afa3ac","2025-07-02T10:51:43.016Z","","","","","","","","","","","","","","","","win-only","1","g1:NE,g2:SW","0.4","7","0","963221.2","1850.3","6878.1","21574.9","1","4","8","6","1","1","1","2","1","0.015151515151515152","1841.7","3000","2580","[""up"",""right""]","{""num_key_presses"":4,""num_perfect"":2,""num_errors"":0,""num_randdir"":2,""num_randdir_good_moves"":2,""num_whilered"":0,""num_whileblue"":0,""num_blue"":0,""num_good_moves"":4}","[301.22232142857143,301.12857142857143,0.8,301.22232142857143,301.12857142857143,124.9,301.22232142857143,301.12857142857143,233.4,301.22232142857143,301.12857142857143,344,301.22232142857143,301.12857142857143,455.2,301.22232142857143,301.12857142857143,560.2,301.22232142857143,301.12857142857143,664.1,303.22232142857143,295.12857142857143,777.5,454.22232142857143,141.12857142857143,896,466.22232142857143,133.12857142857143,1005,406.22232142857143,195.12857142857143,1130.1,428.22232142857143,174.12857142857143,1247.8,505.22232142857143,122.12857142857143,1357.2,505.22232142857143,122.12857142857143,1466.6,516.2223214285714,107.12857142857143,1581.8,528.2223214285714,91.12857142857143,1690.1,528.2223214285714,91.12857142857143,1800.8,528.2223214285714,91.12857142857143,1919.9,528.2223214285714,91.12857142857143,2032.1,528.2223214285714,91.12857142857143,2143.8,528.2223214285714,91.12857142857143,2249.9,528.2223214285714,91.12857142857143,2361.4,528.2223214285714,91.12857142857143,2493.4,528.2223214285714,91.12857142857143,2617.5,528.2223214285714,91.12857142857143,2736,540.2223214285714,81.12857142857143,2859.5,558.2223214285714,81.12857142857143,2973.8,558.2223214285714,81.12857142857143,3096.9,558.2223214285714,81.12857142857143,3216,558.2223214285714,81.12857142857143,3332.3,559.2223214285714,76.12857142857143,3454.3,559.2223214285714,74.12857142857143,3569.2,559.2223214285714,73.12857142857143,3680.8,559.2223214285714,73.12857142857143,3794.1,559.2223214285714,73.12857142857143,3909.1,559.2223214285714,73.12857142857143,4025.1,559.2223214285714,73.12857142857143,4140.8,559.2223214285714,73.12857142857143,4256,559.2223214285714,73.12857142857143,4371,559.2223214285714,73.12857142857143,4487.3,559.2223214285714,73.12857142857143,4602.1,559.2223214285714,73.12857142857143,4717.6,559.2223214285714,73.12857142857143,4833.6,559.2223214285714,73.12857142857143,4951.6]","[1560,1560.1,1000,0,560.1,""oops"",""right"",""right"",""good_move"",4550.3,2989.2,2416.6,1561.1,572.6,""smooth"",""up"",""up"",""good_move"",11815.2,7264,2862.7,4551.3,4401.3,""smooth"",""right"",""right"",""good_move"",14477.9,2661.7,2197,11816.2,464.7,""oops"",""up"",""up"",""good_move""]","","",""
"6929","","<div style=""width:500px;"">
  <p>What determined the result of this run?</p>
  </div>","78","html-slider-response","72","989645","0.0-10.0-1.6","205","1","2025-07-02 10:35:14","80fe4187154257d5fb01684ea91b68b9","41.150.224.28","Mozilla/5.0 (Windows NT 10.0; Win64; x64) AppleWebKit/537.36 (KHTML, like Gecko) Chrome/137.0.0.0 Safari/537.36","WebKit","Chrome","137.0.0.0","Windows","10.0","https://app.prolific.com/","en-GB,en-US;q=0.9,en;q=0.8","67adeb124ea5587ac8afa3ac","683db6dfa200031b80f2a654","686507790dde1e14f682f3fa","67adeb124ea5587ac8afa3ac","2025-07-02T10:51:49.949Z","","","","","","AttribQ","","","","","","","","","","","","","","","","","","","","","","","","","","","","","","","","","","","","","","50",""
"2269","","<div style=""width:500px;"">
  <p>How much control did you have over the ball?</p>
  </div>","69","html-slider-response","73","991916","0.0-10.0-2.6","205","1","2025-07-02 10:35:14","80fe4187154257d5fb01684ea91b68b9","41.150.224.28","Mozilla/5.0 (Windows NT 10.0; Win64; x64) AppleWebKit/537.36 (KHTML, like Gecko) Chrome/137.0.0.0 Safari/537.36","WebKit","Chrome","137.0.0.0","Windows","10.0","https://app.prolific.com/","en-GB,en-US;q=0.9,en;q=0.8","67adeb124ea5587ac8afa3ac","683db6dfa200031b80f2a654","686507790dde1e14f682f3fa","67adeb124ea5587ac8afa3ac","2025-07-02T10:51:52.220Z","","","","","","ControlQ","","","","","","","","","","","","","","","","","","","","","","","","","","","","","","","","","","","","","","50",""
"2775","","<div style=""width:500px;"">
  <p>How would you describe your current emotional state?</p>
  </div>","15","html-slider-response","74","994696","0.0-10.0-3.6","205","1","2025-07-02 10:35:14","80fe4187154257d5fb01684ea91b68b9","41.150.224.28","Mozilla/5.0 (Windows NT 10.0; Win64; x64) AppleWebKit/537.36 (KHTML, like Gecko) Chrome/137.0.0.0 Safari/537.36","WebKit","Chrome","137.0.0.0","Windows","10.0","https://app.prolific.com/","en-GB,en-US;q=0.9,en;q=0.8","67adeb124ea5587ac8afa3ac","683db6dfa200031b80f2a654","686507790dde1e14f682f3fa","67adeb124ea5587ac8afa3ac","2025-07-02T10:51:55.001Z","","","","","","StressQ","","","","","","","","","","","","","","","","","","","","","","","","","","","","","","","","","","","","","","50",""
"2989","","<div style=""width:500px;"">
  <p>What best describes how you currently feel?</p>
  </div>","75","html-slider-response","75","997688","0.0-10.0-4.6","205","1","2025-07-02 10:35:14","80fe4187154257d5fb01684ea91b68b9","41.150.224.28","Mozilla/5.0 (Windows NT 10.0; Win64; x64) AppleWebKit/537.36 (KHTML, like Gecko) Chrome/137.0.0.0 Safari/537.36","WebKit","Chrome","137.0.0.0","Windows","10.0","https://app.prolific.com/","en-GB,en-US;q=0.9,en;q=0.8","67adeb124ea5587ac8afa3ac","683db6dfa200031b80f2a654","686507790dde1e14f682f3fa","67adeb124ea5587ac8afa3ac","2025-07-02T10:51:57.993Z","","","","","","MotivationQ","","","","","","","","","","","","","","","","","","","","","","","","","","","","","","","","","","","","","","50",""
"","","","","ctl-task-cpt","76","1090142","0.0-10.0-0.7","205","1","2025-07-02 10:35:14","80fe4187154257d5fb01684ea91b68b9","41.150.224.28","Mozilla/5.0 (Windows NT 10.0; Win64; x64) AppleWebKit/537.36 (KHTML, like Gecko) Chrome/137.0.0.0 Safari/537.36","WebKit","Chrome","137.0.0.0","Windows","10.0","https://app.prolific.com/","en-GB,en-US;q=0.9,en;q=0.8","67adeb124ea5587ac8afa3ac","683db6dfa200031b80f2a654","686507790dde1e14f682f3fa","67adeb124ea5587ac8afa3ac","2025-07-02T10:53:30.446Z","","","","","","","","","","","","","","","","win-only","3","g1:SW,g2:NE","0.3","8","0","1002799.5","3136.6","8154.9","89406.2","1","4","4","6","1","1","1","3","2","0.022727272727272728","1935.5","3000","1780","[""down"",""left""]","{""num_key_presses"":16,""num_perfect"":5,""num_errors"":0,""num_randdir"":11,""num_randdir_good_moves"":5,""num_whilered"":0,""num_whileblue"":0,""num_blue"":6,""num_good_moves"":10}","[295.22232142857143,298.12857142857143,0.8,295.22232142857143,298.12857142857143,108.7,295.22232142857143,298.12857142857143,221.4,295.22232142857143,298.12857142857143,324.1,295.22232142857143,298.12857142857143,438.6,295.22232142857143,298.12857142857143,548,296.22232142857143,298.12857142857143,658.3,245.22232142857143,360.12857142857143,761.3,160.22232142857143,407.12857142857143,875,160.22232142857143,407.12857142857143,983.3,160.22232142857143,407.12857142857143,1093.4,100.22232142857143,524.1285714285714,1195.6,46.222321428571426,618.1285714285714,1307.2,46.222321428571426,618.1285714285714,1415.1,46.222321428571426,618.1285714285714,1521.2,43.222321428571426,584.1285714285714,1622,46.222321428571426,560.1285714285714,1733.3,46.222321428571426,560.1285714285714,1850.7,46.222321428571426,560.1285714285714,1953.8,46.222321428571426,560.1285714285714,2068,46.222321428571426,560.1285714285714,2181.7,46.222321428571426,560.1285714285714,2291.1,46.222321428571426,560.1285714285714,2403.9,46.222321428571426,560.1285714285714,2513,46.222321428571426,560.1285714285714,2613.6,46.222321428571426,560.1285714285714,2715.6,46.222321428571426,560.1285714285714,2822.6,46.222321428571426,560.1285714285714,2922.6,46.222321428571426,560.1285714285714,3030.8,46.222321428571426,560.1285714285714,3138.4,46.222321428571426,560.1285714285714,3240.2,46.222321428571426,560.1285714285714,3346.5,46.222321428571426,560.1285714285714,3452.5,46.222321428571426,560.1285714285714,3562.6,46.222321428571426,560.1285714285714,3677.4,46.222321428571426,560.1285714285714,3784.6,46.222321428571426,560.1285714285714,3885.4,46.222321428571426,560.1285714285714,3995,46.222321428571426,560.1285714285714,4108.6,46.222321428571426,560.1285714285714,4222.8,46.222321428571426,560.1285714285714,4336.8,46.222321428571426,560.1285714285714,4452.4,46.222321428571426,560.1285714285714,4561.3,46.222321428571426,560.1285714285714,4673.6,46.222321428571426,560.1285714285714,4775.3,46.222321428571426,560.1285714285714,4887.1,46.222321428571426,560.1285714285714,4997.9]","[5431.9,5432,3100.2,2014.9,316.9,""oops"",""down"",""right"",""bad_move"",11217.8,5784.5,2362.6,8443.7,411.5,""oops"",""left"",""down"",""good_move"",16532.7,5312.5,2180.3,13957,395.4,""smooth"",""left"",""left"",""good_move"",21686.4,5152.5,3053,16533.9,2099.6,""oops"",""down"",""up"",""bad_move"",26722.4,5034.7,1722,21687.7,3312.7,""oops"",""down"",""right"",""bad_move"",29764.3,3040.7,2473.7,26723.6,567,""oops"",""left"",""left"",""good_move"",35042.6,5275,2769.4,29767.6,2505.6,""smooth"",""down"",""down"",""good_move"",44331.2,9286.6,2284,41658.6,388.6,""oops"",""left"",""up"",""bad_move"",49343.1,5011,2341.4,44332.1,2669.7,""smooth"",""left"",""left"",""good_move"",54489.6,5145.3,2452.5,49344.3,2692.8,""oops"",""down"",""left"",""good_move"",64113.1,9621.7,3483,60288.1,342,""oops"",""down"",""up"",""bad_move"",69336,5222.2,2295.8,64113.8,2926.4,""oops"",""down"",""down"",""good_move"",72090.8,2753.8,2160,69337,593.8,""oops"",""down"",""right"",""bad_move"",74478,2385.2,1856.2,72092.8,529,""smooth"",""down"",""down"",""good_move"",77251.5,2772.4,2182.7,74479.1,589.7,""smooth"",""down"",""down"",""good_move"",80666.3,3413.3,2921.1,77253,492.2,""oops"",""left"",""left"",""good_move""]","","",""
"3389","","<div style=""width:500px;"">
  <p>What determined the result of this run?</p>
  </div>","81","html-slider-response","77","1093537","0.0-10.0-1.7","205","1","2025-07-02 10:35:14","80fe4187154257d5fb01684ea91b68b9","41.150.224.28","Mozilla/5.0 (Windows NT 10.0; Win64; x64) AppleWebKit/537.36 (KHTML, like Gecko) Chrome/137.0.0.0 Safari/537.36","WebKit","Chrome","137.0.0.0","Windows","10.0","https://app.prolific.com/","en-GB,en-US;q=0.9,en;q=0.8","67adeb124ea5587ac8afa3ac","683db6dfa200031b80f2a654","686507790dde1e14f682f3fa","67adeb124ea5587ac8afa3ac","2025-07-02T10:53:33.843Z","","","","","","AttribQ","","","","","","","","","","","","","","","","","","","","","","","","","","","","","","","","","","","","","","50",""
"3747","","<div style=""width:500px;"">
  <p>How much control did you have over the ball?</p>
  </div>","54","html-slider-response","78","1097287","0.0-10.0-2.7","205","1","2025-07-02 10:35:14","80fe4187154257d5fb01684ea91b68b9","41.150.224.28","Mozilla/5.0 (Windows NT 10.0; Win64; x64) AppleWebKit/537.36 (KHTML, like Gecko) Chrome/137.0.0.0 Safari/537.36","WebKit","Chrome","137.0.0.0","Windows","10.0","https://app.prolific.com/","en-GB,en-US;q=0.9,en;q=0.8","67adeb124ea5587ac8afa3ac","683db6dfa200031b80f2a654","686507790dde1e14f682f3fa","67adeb124ea5587ac8afa3ac","2025-07-02T10:53:37.591Z","","","","","","ControlQ","","","","","","","","","","","","","","","","","","","","","","","","","","","","","","","","","","","","","","50",""
"2455","","<div style=""width:500px;"">
  <p>How would you describe your current emotional state?</p>
  </div>","29","html-slider-response","79","1099745","0.0-10.0-3.7","205","1","2025-07-02 10:35:14","80fe4187154257d5fb01684ea91b68b9","41.150.224.28","Mozilla/5.0 (Windows NT 10.0; Win64; x64) AppleWebKit/537.36 (KHTML, like Gecko) Chrome/137.0.0.0 Safari/537.36","WebKit","Chrome","137.0.0.0","Windows","10.0","https://app.prolific.com/","en-GB,en-US;q=0.9,en;q=0.8","67adeb124ea5587ac8afa3ac","683db6dfa200031b80f2a654","686507790dde1e14f682f3fa","67adeb124ea5587ac8afa3ac","2025-07-02T10:53:40.049Z","","","","","","StressQ","","","","","","","","","","","","","","","","","","","","","","","","","","","","","","","","","","","","","","50",""
"2448","","<div style=""width:500px;"">
  <p>What best describes how you currently feel?</p>
  </div>","65","html-slider-response","80","1102195","0.0-10.0-4.7","205","1","2025-07-02 10:35:14","80fe4187154257d5fb01684ea91b68b9","41.150.224.28","Mozilla/5.0 (Windows NT 10.0; Win64; x64) AppleWebKit/537.36 (KHTML, like Gecko) Chrome/137.0.0.0 Safari/537.36","WebKit","Chrome","137.0.0.0","Windows","10.0","https://app.prolific.com/","en-GB,en-US;q=0.9,en;q=0.8","67adeb124ea5587ac8afa3ac","683db6dfa200031b80f2a654","686507790dde1e14f682f3fa","67adeb124ea5587ac8afa3ac","2025-07-02T10:53:42.499Z","","","","","","MotivationQ","","","","","","","","","","","","","","","","","","","","","","","","","","","","","","","","","","","","","","50",""
"","","","","ctl-task-cpt","81","1159144","0.0-10.0-0.8","205","1","2025-07-02 10:35:14","80fe4187154257d5fb01684ea91b68b9","41.150.224.28","Mozilla/5.0 (Windows NT 10.0; Win64; x64) AppleWebKit/537.36 (KHTML, like Gecko) Chrome/137.0.0.0 Safari/537.36","WebKit","Chrome","137.0.0.0","Windows","10.0","https://app.prolific.com/","en-GB,en-US;q=0.9,en;q=0.8","67adeb124ea5587ac8afa3ac","683db6dfa200031b80f2a654","686507790dde1e14f682f3fa","67adeb124ea5587ac8afa3ac","2025-07-02T10:54:39.448Z","","","","","","","","","","","","","","","","win-only","2","g1:SE,g2:NW","0.4","9","0","1107306.4","1654.2","6659.1","53931.3","1","4","4","6","1","1","1","4","3","0.030303030303030304","2434.4","3000","1710","[""down"",""right""]","{""num_key_presses"":12,""num_perfect"":5,""num_errors"":0,""num_randdir"":7,""num_randdir_good_moves"":4,""num_whilered"":0,""num_whileblue"":0,""num_blue"":2,""num_good_moves"":8}","[299.22232142857143,293.12857142857143,0.6,299.22232142857143,293.12857142857143,107.6,299.22232142857143,293.12857142857143,215.6,299.22232142857143,293.12857142857143,324.7,299.22232142857143,293.12857142857143,433,299.22232142857143,293.12857142857143,540.6,299.22232142857143,293.12857142857143,660.7,299.22232142857143,293.12857142857143,762.1,302.22232142857143,300.12857142857143,878.5,337.22232142857143,349.12857142857143,995.1,317.22232142857143,347.12857142857143,1108.9,193.22232142857143,170.12857142857143,1223.1,193.22232142857143,170.12857142857143,1345.6,173.22232142857143,162.12857142857143,1460.4,183.22232142857143,165.12857142857143,1578.3,445.22232142857143,392.12857142857143,1693,445.22232142857143,392.12857142857143,1806.4,447.22232142857143,402.12857142857143,1913.6,568.2223214285714,587.1285714285714,2033.1,570.2223214285714,590.1285714285714,2147.9,570.2223214285714,590.1285714285714,2256.2,570.2223214285714,590.1285714285714,2362.5,570.2223214285714,590.1285714285714,2480,570.2223214285714,590.1285714285714,2589,570.2223214285714,590.1285714285714,2697.2,570.2223214285714,590.1285714285714,2806.5,570.2223214285714,590.1285714285714,2911.5,570.2223214285714,590.1285714285714,3015.5,570.2223214285714,590.1285714285714,3131.3,570.2223214285714,590.1285714285714,3245,570.2223214285714,590.1285714285714,3345.4,571.2223214285714,590.1285714285714,3465.8,571.2223214285714,590.1285714285714,3578.6,571.2223214285714,590.1285714285714,3690.2,571.2223214285714,590.1285714285714,3798.7,573.2223214285714,590.1285714285714,3910.1,574.2223214285714,590.1285714285714,4014.8,574.2223214285714,590.1285714285714,4125.2,574.2223214285714,590.1285714285714,4226.3,574.2223214285714,590.1285714285714,4336.2,574.2223214285714,590.1285714285714,4438.9,574.2223214285714,590.1285714285714,4543.3,574.2223214285714,590.1285714285714,4654.1,575.2223214285714,590.1285714285714,4763.1,575.2223214285714,590.1285714285714,4868.7,575.2223214285714,590.1285714285714,4982]","[1602.3,1602.3,1000,0,602.3,""oops"",""down"",""right"",""good_move"",5374.8,3771.5,2515.8,1603.3,1255.7,""smooth"",""down"",""down"",""good_move"",8363,2986.8,2493.8,5376.2,493,""smooth"",""right"",""right"",""good_move"",14284.1,5919.9,2511.9,11396.8,375.4,""oops"",""down"",""up"",""bad_move"",17961.7,3675.8,2400.6,14285.9,1275.2,""smooth"",""left"",""left"",""bad_move"",21566.4,3603.5,1938.3,17962.9,1665.3,""oops"",""down"",""right"",""good_move"",24517.4,2946.8,2491.5,21570.8,455.1,""smooth"",""down"",""down"",""good_move"",27458.8,2939.1,2554.6,24519.7,384.5,""oops"",""down"",""left"",""bad_move"",31686,4225,2746.6,27461,1478.4,""oops"",""down"",""down"",""good_move"",38571.1,6883.8,2954.6,35217.5,399,""oops"",""right"",""up"",""bad_move"",43728.2,5156.1,2227.7,38572.1,2928.4,""oops"",""down"",""down"",""good_move"",47006,3275.4,2924.1,43730.6,351.3,""smooth"",""right"",""right"",""good_move""]","","",""
"3214","","<div style=""width:500px;"">
  <p>What determined the result of this run?</p>
  </div>","70","html-slider-response","82","1162360","0.0-10.0-1.8","205","1","2025-07-02 10:35:14","80fe4187154257d5fb01684ea91b68b9","41.150.224.28","Mozilla/5.0 (Windows NT 10.0; Win64; x64) AppleWebKit/537.36 (KHTML, like Gecko) Chrome/137.0.0.0 Safari/537.36","WebKit","Chrome","137.0.0.0","Windows","10.0","https://app.prolific.com/","en-GB,en-US;q=0.9,en;q=0.8","67adeb124ea5587ac8afa3ac","683db6dfa200031b80f2a654","686507790dde1e14f682f3fa","67adeb124ea5587ac8afa3ac","2025-07-02T10:54:42.664Z","","","","","","AttribQ","","","","","","","","","","","","","","","","","","","","","","","","","","","","","","","","","","","","","","50",""
"3328","","<div style=""width:500px;"">
  <p>How much control did you have over the ball?</p>
  </div>","60","html-slider-response","83","1165690","0.0-10.0-2.8","205","1","2025-07-02 10:35:14","80fe4187154257d5fb01684ea91b68b9","41.150.224.28","Mozilla/5.0 (Windows NT 10.0; Win64; x64) AppleWebKit/537.36 (KHTML, like Gecko) Chrome/137.0.0.0 Safari/537.36","WebKit","Chrome","137.0.0.0","Windows","10.0","https://app.prolific.com/","en-GB,en-US;q=0.9,en;q=0.8","67adeb124ea5587ac8afa3ac","683db6dfa200031b80f2a654","686507790dde1e14f682f3fa","67adeb124ea5587ac8afa3ac","2025-07-02T10:54:45.994Z","","","","","","ControlQ","","","","","","","","","","","","","","","","","","","","","","","","","","","","","","","","","","","","","","50",""
"3616","","<div style=""width:500px;"">
  <p>How would you describe your current emotional state?</p>
  </div>","23","html-slider-response","84","1169309","0.0-10.0-3.8","205","1","2025-07-02 10:35:14","80fe4187154257d5fb01684ea91b68b9","41.150.224.28","Mozilla/5.0 (Windows NT 10.0; Win64; x64) AppleWebKit/537.36 (KHTML, like Gecko) Chrome/137.0.0.0 Safari/537.36","WebKit","Chrome","137.0.0.0","Windows","10.0","https://app.prolific.com/","en-GB,en-US;q=0.9,en;q=0.8","67adeb124ea5587ac8afa3ac","683db6dfa200031b80f2a654","686507790dde1e14f682f3fa","67adeb124ea5587ac8afa3ac","2025-07-02T10:54:49.613Z","","","","","","StressQ","","","","","","","","","","","","","","","","","","","","","","","","","","","","","","","","","","","","","","50",""
"7908","","<div style=""width:500px;"">
  <p>What best describes how you currently feel?</p>
  </div>","72","html-slider-response","85","1177219","0.0-10.0-4.8","205","1","2025-07-02 10:35:14","80fe4187154257d5fb01684ea91b68b9","41.150.224.28","Mozilla/5.0 (Windows NT 10.0; Win64; x64) AppleWebKit/537.36 (KHTML, like Gecko) Chrome/137.0.0.0 Safari/537.36","WebKit","Chrome","137.0.0.0","Windows","10.0","https://app.prolific.com/","en-GB,en-US;q=0.9,en;q=0.8","67adeb124ea5587ac8afa3ac","683db6dfa200031b80f2a654","686507790dde1e14f682f3fa","67adeb124ea5587ac8afa3ac","2025-07-02T10:54:57.523Z","","","","","","MotivationQ","","","","","","","","","","","","","","","","","","","","","","","","","","","","","","","","","","","","","","50",""
