"rt","response_timestamp","stimulus","response","trial_type","trial_index","time_elapsed","internal_node_id","run_id","condition","recorded_at","source_code_version","ip","user_agent","device","browser","browser_version","platform","platform_version","referer","accept_language","PROLIFIC_PID","STUDY_ID","SESSION_ID","prolific_id","realtime","view_history","question_order","consent","success","question_id","eventType","responses","item_order","radio_event_ids","radio_event_times","key_event_times","mouse_event_times","straightlining","zigzagging","honeypot","which_type","canvas_config","goals_layout","control_level","trial_number","tutorial_trial_number","trial_start_time","phase1_start_time","phase2_start_time","phase3_start_time","goal_1_value","goal_1_distance","goal_2_value","goal_2_distance","goal_selected","outcome","outcome_total","participant_final_score","participant_initial_score","participant_final_score_prop","goal_choice_rt","allocated_time","allocated_time_remaining","goal_direction","counts","mouse_movements","key_presses","correct","slider_start","sub_question"
"262410","1751452023367","<p style='font-size:40px;line-height:1.25'><strong>Welcome to the experiment!</strong></p><p style='font-size:1.1em;line-height:1.25'>Thank you for your interest in our experiment! Before you begin, it is important that we obtain your informed consent to participate in the study.</p><p style='font-size:1.1em;line-height:1.25'>On the next screen will be an <strong>information sheet</strong> for you to read. To participate in the study we need you to read this information sheet and the following consent form carefully. If you agree with all the statements, please click the <strong>I agree</strong> button.</p><p style='font-size:1.1em;line-height:1.25'>Press <strong>Next</strong> to read the information sheet.</p>","0","custom-html-button-response","0","262415","0.0-0.0","163","1","2025-07-02 10:22:26","80fe4187154257d5fb01684ea91b68b9","41.13.68.122","Mozilla/5.0 (Windows NT 10.0; Win64; x64) AppleWebKit/537.36 (KHTML, like Gecko) Chrome/137.0.0.0 Safari/537.36","WebKit","Chrome","137.0.0.0","Windows","10.0","https://app.prolific.com/","en-GB,en-US;q=0.9,en;q=0.8","67bfed4a6c0630c5f857b23e","683db6dfa200031b80f2a654","6865078c1d03954094d7646e","67bfed4a6c0630c5f857b23e","2025-07-02T10:27:03.370Z","","","","","","","","","","","","","","","","","","","","","","","","","","","","","","","","","","","","","","","","","","","","",""
"63248","","","","instructions","1","325666","0.0-1.0","163","1","2025-07-02 10:22:26","80fe4187154257d5fb01684ea91b68b9","41.13.68.122","Mozilla/5.0 (Windows NT 10.0; Win64; x64) AppleWebKit/537.36 (KHTML, like Gecko) Chrome/137.0.0.0 Safari/537.36","WebKit","Chrome","137.0.0.0","Windows","10.0","https://app.prolific.com/","en-GB,en-US;q=0.9,en;q=0.8","67bfed4a6c0630c5f857b23e","683db6dfa200031b80f2a654","6865078c1d03954094d7646e","67bfed4a6c0630c5f857b23e","","[{""page_index"":0,""viewing_time"":31252},{""page_index"":1,""viewing_time"":31992}]","","","","","","","","","","","","","","","","","","","","","","","","","","","","","","","","","","","","","","","","","","","",""
"43007","","","{""Q0"":"""",""Q1"":"""",""Q2"":"""",""Q3"":"""",""Q4"":"""",""Q5"":"""",""Q6"":""I agree""}","survey-multi-choice","2","368684","0.0-2.0","163","1","2025-07-02 10:22:26","80fe4187154257d5fb01684ea91b68b9","41.13.68.122","Mozilla/5.0 (Windows NT 10.0; Win64; x64) AppleWebKit/537.36 (KHTML, like Gecko) Chrome/137.0.0.0 Safari/537.36","WebKit","Chrome","137.0.0.0","Windows","10.0","https://app.prolific.com/","en-GB,en-US;q=0.9,en;q=0.8","67bfed4a6c0630c5f857b23e","683db6dfa200031b80f2a654","6865078c1d03954094d7646e","67bfed4a6c0630c5f857b23e","","","[0,1,2,3,4,5,6]","true","","","","","","","","","","","","","","","","","","","","","","","","","","","","","","","","","","","","","","","","","",""
"11742","","","","fullscreen","3","381485","0.0-4.0","163","1","2025-07-02 10:22:26","80fe4187154257d5fb01684ea91b68b9","41.13.68.122","Mozilla/5.0 (Windows NT 10.0; Win64; x64) AppleWebKit/537.36 (KHTML, like Gecko) Chrome/137.0.0.0 Safari/537.36","WebKit","Chrome","137.0.0.0","Windows","10.0","https://app.prolific.com/","en-GB,en-US;q=0.9,en;q=0.8","67bfed4a6c0630c5f857b23e","683db6dfa200031b80f2a654","6865078c1d03954094d7646e","67bfed4a6c0630c5f857b23e","","","","","true","","","","","","","","","","","","","","","","","","","","","","","","","","","","","","","","","","","","","","","","",""
"8245","1751452150688"," <p style='font-size:1.1em;line-height:1.25'>Thank you for completing the consent form and closing all other tabs.</p><p style='font-size:1.1em;line-height:1.25'>We will now invite you to fill in some demographic information and questionnaires, before starting the game.<br>This will take about 5 minutes.<br></p><p style='font-size:1.1em;line-height:1.25'>Press the <strong>Next</strong> button to continue.</p>","0","custom-html-button-response","4","389735","0.0-5.0","163","1","2025-07-02 10:22:26","80fe4187154257d5fb01684ea91b68b9","41.13.68.122","Mozilla/5.0 (Windows NT 10.0; Win64; x64) AppleWebKit/537.36 (KHTML, like Gecko) Chrome/137.0.0.0 Safari/537.36","WebKit","Chrome","137.0.0.0","Windows","10.0","https://app.prolific.com/","en-GB,en-US;q=0.9,en;q=0.8","67bfed4a6c0630c5f857b23e","683db6dfa200031b80f2a654","6865078c1d03954094d7646e","67bfed4a6c0630c5f857b23e","2025-07-02T10:29:10.690Z","","","","","","","","","","","","","","","","","","","","","","","","","","","","","","","","","","","","","","","","","","","","",""
"5769","","","{""age"":""33""}","survey-text","5","395521","0.0-6.0-0.0","163","1","2025-07-02 10:22:26","80fe4187154257d5fb01684ea91b68b9","41.13.68.122","Mozilla/5.0 (Windows NT 10.0; Win64; x64) AppleWebKit/537.36 (KHTML, like Gecko) Chrome/137.0.0.0 Safari/537.36","WebKit","Chrome","137.0.0.0","Windows","10.0","https://app.prolific.com/","en-GB,en-US;q=0.9,en;q=0.8","67bfed4a6c0630c5f857b23e","683db6dfa200031b80f2a654","6865078c1d03954094d7646e","67bfed4a6c0630c5f857b23e","","","","","","0","demographics","","","","","","","","","","","","","","","","","","","","","","","","","","","","","","","","","","","","","","",""
"2899","","","{""gender_identity"":""female/woman""}","survey-multi-choice","6","398425","0.0-6.0-1.0","163","1","2025-07-02 10:22:26","80fe4187154257d5fb01684ea91b68b9","41.13.68.122","Mozilla/5.0 (Windows NT 10.0; Win64; x64) AppleWebKit/537.36 (KHTML, like Gecko) Chrome/137.0.0.0 Safari/537.36","WebKit","Chrome","137.0.0.0","Windows","10.0","https://app.prolific.com/","en-GB,en-US;q=0.9,en;q=0.8","67bfed4a6c0630c5f857b23e","683db6dfa200031b80f2a654","6865078c1d03954094d7646e","67bfed4a6c0630c5f857b23e","","","[0]","","","1","demographics","","","","","","","","","","","","","","","","","","","","","","","","","","","","","","","","","","","","","","",""
"3091","","","{""assigned_sex"":""female""}","survey-multi-choice","7","401524","0.0-6.0-2.0","163","1","2025-07-02 10:22:26","80fe4187154257d5fb01684ea91b68b9","41.13.68.122","Mozilla/5.0 (Windows NT 10.0; Win64; x64) AppleWebKit/537.36 (KHTML, like Gecko) Chrome/137.0.0.0 Safari/537.36","WebKit","Chrome","137.0.0.0","Windows","10.0","https://app.prolific.com/","en-GB,en-US;q=0.9,en;q=0.8","67bfed4a6c0630c5f857b23e","683db6dfa200031b80f2a654","6865078c1d03954094d7646e","67bfed4a6c0630c5f857b23e","","","[0]","","","2","demographics","","","","","","","","","","","","","","","","","","","","","","","","","","","","","","","","","","","","","","",""
"5359","","","{""menstrual_cycle"":""Yes""}","survey-multi-choice","8","406887","0.0-6.0-3.0","163","1","2025-07-02 10:22:26","80fe4187154257d5fb01684ea91b68b9","41.13.68.122","Mozilla/5.0 (Windows NT 10.0; Win64; x64) AppleWebKit/537.36 (KHTML, like Gecko) Chrome/137.0.0.0 Safari/537.36","WebKit","Chrome","137.0.0.0","Windows","10.0","https://app.prolific.com/","en-GB,en-US;q=0.9,en;q=0.8","67bfed4a6c0630c5f857b23e","683db6dfa200031b80f2a654","6865078c1d03954094d7646e","67bfed4a6c0630c5f857b23e","","","[0]","","","4","demographics","","","","","","","","","","","","","","","","","","","","","","","","","","","","","","","","","","","","","","",""
"7345","","","{""education"":""Master's Degree (e.g., MSc)""}","survey-multi-choice","9","414238","0.0-6.0-4.0","163","1","2025-07-02 10:22:26","80fe4187154257d5fb01684ea91b68b9","41.13.68.122","Mozilla/5.0 (Windows NT 10.0; Win64; x64) AppleWebKit/537.36 (KHTML, like Gecko) Chrome/137.0.0.0 Safari/537.36","WebKit","Chrome","137.0.0.0","Windows","10.0","https://app.prolific.com/","en-GB,en-US;q=0.9,en;q=0.8","67bfed4a6c0630c5f857b23e","683db6dfa200031b80f2a654","6865078c1d03954094d7646e","67bfed4a6c0630c5f857b23e","","","[0]","","","5","demographics","","","","","","","","","","","","","","","","","","","","","","","","","","","","","","","","","","","","","","",""
"4977","","","{""education"":""Master's Degree (e.g., MSc)""}","survey-multi-choice","10","419221","0.0-6.0-5.0","163","1","2025-07-02 10:22:26","80fe4187154257d5fb01684ea91b68b9","41.13.68.122","Mozilla/5.0 (Windows NT 10.0; Win64; x64) AppleWebKit/537.36 (KHTML, like Gecko) Chrome/137.0.0.0 Safari/537.36","WebKit","Chrome","137.0.0.0","Windows","10.0","https://app.prolific.com/","en-GB,en-US;q=0.9,en;q=0.8","67bfed4a6c0630c5f857b23e","683db6dfa200031b80f2a654","6865078c1d03954094d7646e","67bfed4a6c0630c5f857b23e","2025-07-02T10:29:40.175Z","","[0]","","","6","demographics","","","","","","","","","","","","","","","","","","","","","","","","","","","","","","","","","","","","","","",""
"19807","","","{""mental_health_condition"":""No"",""mental_health_treatment"":""No"",""psychiatric_medication"":""n/a""}","survey-text","11","439062","0.0-7.0-0.0","163","1","2025-07-02 10:22:26","80fe4187154257d5fb01684ea91b68b9","41.13.68.122","Mozilla/5.0 (Windows NT 10.0; Win64; x64) AppleWebKit/537.36 (KHTML, like Gecko) Chrome/137.0.0.0 Safari/537.36","WebKit","Chrome","137.0.0.0","Windows","10.0","https://app.prolific.com/","en-GB,en-US;q=0.9,en;q=0.8","67bfed4a6c0630c5f857b23e","683db6dfa200031b80f2a654","6865078c1d03954094d7646e","67bfed4a6c0630c5f857b23e","2025-07-02T10:30:00.016Z","","","","","1","mental_health","","","","","","","","","","","","","","","","","","","","","","","","","","","","","","","","","","","","","","",""
"15326","","","{""depression_history"":[""Yes""]}","survey-multi-select","12","454396","0.0-7.0-1.0","163","1","2025-07-02 10:22:26","80fe4187154257d5fb01684ea91b68b9","41.13.68.122","Mozilla/5.0 (Windows NT 10.0; Win64; x64) AppleWebKit/537.36 (KHTML, like Gecko) Chrome/137.0.0.0 Safari/537.36","WebKit","Chrome","137.0.0.0","Windows","10.0","https://app.prolific.com/","en-GB,en-US;q=0.9,en;q=0.8","67bfed4a6c0630c5f857b23e","683db6dfa200031b80f2a654","6865078c1d03954094d7646e","67bfed4a6c0630c5f857b23e","","","[0]","","","","mental_health","","","","","","","","","","","","","","","","","","","","","","","","","","","","","","","","","","","","","","",""
"12437","","","{""depression_episodes"":""1-2"",""depression_recent"":""More than 1 year ago""}","survey-multi-choice","13","466839","0.0-7.0-2.0-0.0","163","1","2025-07-02 10:22:26","80fe4187154257d5fb01684ea91b68b9","41.13.68.122","Mozilla/5.0 (Windows NT 10.0; Win64; x64) AppleWebKit/537.36 (KHTML, like Gecko) Chrome/137.0.0.0 Safari/537.36","WebKit","Chrome","137.0.0.0","Windows","10.0","https://app.prolific.com/","en-GB,en-US;q=0.9,en;q=0.8","67bfed4a6c0630c5f857b23e","683db6dfa200031b80f2a654","6865078c1d03954094d7646e","67bfed4a6c0630c5f857b23e","2025-07-02T10:30:27.793Z","","[0,1]","","","3","mental_health","","","","","","","","","","","","","","","","","","","","","","","","","","","","","","","","","","","","","","",""
"222824.89999997616","","","","survey-template","14","689677","0.0-7.0-3.0","163","1","2025-07-02 10:22:26","80fe4187154257d5fb01684ea91b68b9","41.13.68.122","Mozilla/5.0 (Windows NT 10.0; Win64; x64) AppleWebKit/537.36 (KHTML, like Gecko) Chrome/137.0.0.0 Safari/537.36","WebKit","Chrome","137.0.0.0","Windows","10.0","https://app.prolific.com/","en-GB,en-US;q=0.9,en;q=0.8","67bfed4a6c0630c5f857b23e","683db6dfa200031b80f2a654","6865078c1d03954094d7646e","67bfed4a6c0630c5f857b23e","2025-07-02T10:34:10.631Z","","","","","","ius","{""Q01"":""3"",""Q02"":""1"",""Q03"":""3"",""Q04"":""3"",""Q05"":""3"",""Q06"":""1"",""Q07"":""1"",""Q08"":""0"",""Q09"":""4"",""Q10"":""0"",""Q11"":""2"",""Q12"":""3"",""Q13"":""3""}","[0,1,2,3,4,5,6,7,8,9,10,11,12]","[""Q01"",""Q02"",""Q03"",""Q04"",""Q05"",""Q06"",""Q08"",""Q07"",""Q09"",""Q10"",""Q11"",""Q11"",""Q12"",""Q13""]","[35395.60000002384,45605.299999952316,46952.60000002384,50287.60000002384,173930.29999995232,177936.10000002384,189028.20000004768,193078,202502.10000002384,204818.5,211058.89999997616,214609.70000004768,219918.10000002384,221793.70000004768]","[]","[35395.60000002384,39414.200000047684,42192.200000047684,43547.89999997616,45605.299999952316,46952.60000002384,50287.60000002384,173930.29999995232,176698.70000004768,177936.10000002384,184578.5,187533,189028.20000004768,193078,202502.10000002384,204818.5,211058.89999997616,214609.70000004768,217816.89999997616,219918.10000002384,220902.10000002384,221793.70000004768,222817.60000002384]","0.46153846153846156","0.3333333333333333","0","","","","","","","","","","","","","","","","","","","","","","","","","","","","","",""
"4089","1751452454723","<p style='font-size:1.1em;line-height:1.25'>In the following, we will ask you a few questions relating to your experiences over the past month.<br></p><p style='font-size:1.1em;line-height:1.25'>Press the <strong>Next</strong> button to continue.</p>","0","custom-html-button-response","15","693770","0.0-7.0-4.0","163","1","2025-07-02 10:22:26","80fe4187154257d5fb01684ea91b68b9","41.13.68.122","Mozilla/5.0 (Windows NT 10.0; Win64; x64) AppleWebKit/537.36 (KHTML, like Gecko) Chrome/137.0.0.0 Safari/537.36","WebKit","Chrome","137.0.0.0","Windows","10.0","https://app.prolific.com/","en-GB,en-US;q=0.9,en;q=0.8","67bfed4a6c0630c5f857b23e","683db6dfa200031b80f2a654","6865078c1d03954094d7646e","67bfed4a6c0630c5f857b23e","2025-07-02T10:34:14.725Z","","","","","","","","","","","","","","","","","","","","","","","","","","","","","","","","","","","","","","","","","","","","",""
"41473.10000002384","","","","survey-template","16","735256","0.0-7.0-5.0","163","1","2025-07-02 10:22:26","80fe4187154257d5fb01684ea91b68b9","41.13.68.122","Mozilla/5.0 (Windows NT 10.0; Win64; x64) AppleWebKit/537.36 (KHTML, like Gecko) Chrome/137.0.0.0 Safari/537.36","WebKit","Chrome","137.0.0.0","Windows","10.0","https://app.prolific.com/","en-GB,en-US;q=0.9,en;q=0.8","67bfed4a6c0630c5f857b23e","683db6dfa200031b80f2a654","6865078c1d03954094d7646e","67bfed4a6c0630c5f857b23e","2025-07-02T10:34:56.211Z","","","","","","pss","{""Q01"":""1"",""Q02"":""1"",""Q03"":""1"",""Q04"":""0"",""Q05"":""0"",""Q06"":""0"",""Q07"":""0"",""Q08"":""0"",""Q09"":""0"",""Q10"":""0""}","[0,1,2,3,4,5,6,7,8,9]","[""Q01"",""Q03"",""Q02"",""Q04"",""Q05"",""Q06"",""Q07"",""Q08"",""Q09"",""Q10""]","[4802.199999928474,10645.5,11618.199999928474,15694.5,19058.5,23968.100000023842,26910.899999976158,30435.199999928474,36267.60000002384,39679.10000002384]","[]","[0.19999992847442627,4802.199999928474,8146.699999928474,10645.5,11618.199999928474,15694.5,19058.5,23968.100000023842,26910.899999976158,30435.199999928474,36267.60000002384,38684.699999928474,39679.10000002384,41467.10000002384]","0.4","0.3333333333333333","0","","","","","","","","","","","","","","","","","","","","","","","","","","","","","",""
"4563","1751452500778","<p style='font-size:1.1em;line-height:1.25'>Thank you for your answers! Now we will ask you a few more questions relating to your feelings in the last 24 hours.<br></p><p style='font-size:1.1em;line-height:1.25'>Press the <strong>Next</strong> button to continue.</p>","0","custom-html-button-response","17","739827","0.0-7.0-6.0","163","1","2025-07-02 10:22:26","80fe4187154257d5fb01684ea91b68b9","41.13.68.122","Mozilla/5.0 (Windows NT 10.0; Win64; x64) AppleWebKit/537.36 (KHTML, like Gecko) Chrome/137.0.0.0 Safari/537.36","WebKit","Chrome","137.0.0.0","Windows","10.0","https://app.prolific.com/","en-GB,en-US;q=0.9,en;q=0.8","67bfed4a6c0630c5f857b23e","683db6dfa200031b80f2a654","6865078c1d03954094d7646e","67bfed4a6c0630c5f857b23e","2025-07-02T10:35:00.781Z","","","","","","","","","","","","","","","","","","","","","","","","","","","","","","","","","","","","","","","","","","","","",""
"62601.5","","","","survey-template","18","802452","0.0-7.0-7.0","163","1","2025-07-02 10:22:26","80fe4187154257d5fb01684ea91b68b9","41.13.68.122","Mozilla/5.0 (Windows NT 10.0; Win64; x64) AppleWebKit/537.36 (KHTML, like Gecko) Chrome/137.0.0.0 Safari/537.36","WebKit","Chrome","137.0.0.0","Windows","10.0","https://app.prolific.com/","en-GB,en-US;q=0.9,en;q=0.8","67bfed4a6c0630c5f857b23e","683db6dfa200031b80f2a654","6865078c1d03954094d7646e","67bfed4a6c0630c5f857b23e","2025-07-02T10:36:03.406Z","","","","","","drsp","{""Q01"":""0"",""Q02"":""0"",""Q03"":""0"",""Q04"":""0"",""Q05"":""0"",""Q06"":""0"",""Q07"":""0"",""Q08"":""0"",""Q09"":""0"",""Q10"":""0"",""Q11"":""0"",""Q12"":""1"",""Q13"":""1"",""Q14"":""0"",""Q15"":""0"",""Q16"":""0"",""Q17"":""0"",""Q18"":""0"",""Q19"":""0"",""Q20"":""0"",""Q21"":""0""}","[0,1,2,3,4,5,6,7,8,9,10,11,12,13,14,15,16,17,18,19,20]","[""Q01"",""Q02"",""Q03"",""Q04"",""Q05"",""Q06"",""Q07"",""Q08"",""Q09"",""Q10"",""Q11"",""Q12"",""Q13"",""Q14"",""Q15"",""Q16"",""Q17"",""Q18"",""Q19"",""Q20"",""Q21""]","[4167.100000023842,5072.600000023842,7948,10362.600000023842,11683.799999952316,16105.399999976158,17488.399999976158,22388.299999952316,23847.799999952316,28171.5,29731.200000047684,32187.700000047684,34221.5,37053.200000047684,39299.200000047684,43627.799999952316,45380.700000047684,47762.10000002384,53519.700000047684,58146,60912.39999997616]","[]","[0.2999999523162842,2865.100000023842,4167.100000023842,5072.600000023842,6663.899999976158,7948,9420.100000023842,10362.600000023842,11683.799999952316,14455.200000047684,16105.399999976158,17488.399999976158,18796.600000023842,20701.299999952316,22388.299999952316,23847.799999952316,28171.5,29731.200000047684,32187.700000047684,34221.5,37053.200000047684,39299.200000047684,40586.799999952316,43627.799999952316,45380.700000047684,47762.10000002384,52437.200000047684,53519.700000047684,58146,60013.60000002384,60912.39999997616,62584.799999952316]","0.9047619047619048","0.1","0","","","","","","","","","","","","","","","","","","","","","","","","","","","","","",""
"14897.300000071526","","","","survey-template","19","817361","0.0-7.0-8.0","163","1","2025-07-02 10:22:26","80fe4187154257d5fb01684ea91b68b9","41.13.68.122","Mozilla/5.0 (Windows NT 10.0; Win64; x64) AppleWebKit/537.36 (KHTML, like Gecko) Chrome/137.0.0.0 Safari/537.36","WebKit","Chrome","137.0.0.0","Windows","10.0","https://app.prolific.com/","en-GB,en-US;q=0.9,en;q=0.8","67bfed4a6c0630c5f857b23e","683db6dfa200031b80f2a654","6865078c1d03954094d7646e","67bfed4a6c0630c5f857b23e","2025-07-02T10:36:18.315Z","","","","","","stress","{""Q01"":""0"",""Q02"":""1"",""Q03"":""0""}","[0,1,2]","[""Q01"",""Q02"",""Q03""]","[5058.200000047684,10313.200000047684,13164.399999976158]","[]","[5058.200000047684,10313.200000047684,13164.399999976158,14890.600000023842]","0.6666666666666666","0","0","","","","","","","","","","","","","","","","","","","","","","","","","","","","","",""
"199843","","","","instructions","20","1017208","0.0-8.0-0.0","163","1","2025-07-02 10:22:26","80fe4187154257d5fb01684ea91b68b9","41.13.68.122","Mozilla/5.0 (Windows NT 10.0; Win64; x64) AppleWebKit/537.36 (KHTML, like Gecko) Chrome/137.0.0.0 Safari/537.36","WebKit","Chrome","137.0.0.0","Windows","10.0","https://app.prolific.com/","en-GB,en-US;q=0.9,en;q=0.8","67bfed4a6c0630c5f857b23e","683db6dfa200031b80f2a654","6865078c1d03954094d7646e","67bfed4a6c0630c5f857b23e","","[{""page_index"":0,""viewing_time"":53742},{""page_index"":1,""viewing_time"":24499},{""page_index"":2,""viewing_time"":71315},{""page_index"":3,""viewing_time"":50286}]","","","","","","","","","","","","","","","","","","","","","","","","","","","","","","","","","","","","","","","","","","","",""
"","","","","ctl-task-cpt","21","1035456","0.0-8.0-1.0","163","1","2025-07-02 10:22:26","80fe4187154257d5fb01684ea91b68b9","41.13.68.122","Mozilla/5.0 (Windows NT 10.0; Win64; x64) AppleWebKit/537.36 (KHTML, like Gecko) Chrome/137.0.0.0 Safari/537.36","WebKit","Chrome","137.0.0.0","Windows","10.0","https://app.prolific.com/","en-GB,en-US;q=0.9,en;q=0.8","67bfed4a6c0630c5f857b23e","683db6dfa200031b80f2a654","6865078c1d03954094d7646e","67bfed4a6c0630c5f857b23e","","","","","","","","","","","","","","","","","win-only","3","g1:SW,g2:NE","1","0","1","1034857.8","4734.7","8748.5","15217.6","2","4","4","6","1","-2","-2","0","0","0","3176.3","4000","-2330","[""down"",""left""]","{""num_key_presses"":0,""num_perfect"":0,""num_errors"":0,""num_randdir"":0,""num_randdir_good_moves"":0,""num_whilered"":0,""num_whileblue"":0,""num_blue"":0,""num_good_moves"":0}","[419.0714133126395,405.32142761775424,2.2,419.0714133126395,405.32142761775424,106,419.0714133126395,405.32142761775424,213.6,419.0714133126395,405.32142761775424,322.6,419.0714133126395,405.32142761775424,425.3,419.0714133126395,405.32142761775424,526.3,419.0714133126395,405.32142761775424,627.4,419.0714133126395,405.32142761775424,735.6,419.0714133126395,405.32142761775424,839.9,419.0714133126395,405.32142761775424,945.1,419.0714133126395,405.32142761775424,1056.9,419.0714133126395,405.32142761775424,1163,419.0714133126395,405.32142761775424,1273.5,419.0714133126395,405.32142761775424,1375.1,419.0714133126395,405.32142761775424,1478.4,419.0714133126395,405.32142761775424,1584.8,404.0714133126395,462.82142761775424,1684.8,389.0714133126395,520.3214276177542,1785.9,361.5714133126395,561.5714276177542,1889.9,326.5714133126395,590.3214276177542,1990.2,286.5714133126395,590.3214276177542,2097.9,272.8214133126395,547.8214276177542,2198.2,312.8214133126395,500.32142761775424,2306.2,374.0714133126395,489.07142761775424,2408.6,345.3214133126395,557.8214276177542,2512.1,184.0714133126395,680.3214276177542,2614,141.5714133126395,714.0714276177542,2716.7,125.3214133126395,736.5714276177542,2819.8,99.0714133126395,744.0714276177542,2922.9,95.3214133126395,746.5714276177542,3024.9,95.3214133126395,746.5714276177542,3125.9,95.3214133126395,746.5714276177542,3227.8,95.3214133126395,746.5714276177542,3334.2,95.3214133126395,746.5714276177542,3436.6,95.3214133126395,746.5714276177542,3539.2,95.3214133126395,746.5714276177542,3642,95.3214133126395,746.5714276177542,3746.2,95.3214133126395,746.5714276177542,3847.9,95.3214133126395,746.5714276177542,3951.9]","[]","","",""
"18484","","","","instructions","22","1053941","0.0-8.0-2.0","163","1","2025-07-02 10:22:26","80fe4187154257d5fb01684ea91b68b9","41.13.68.122","Mozilla/5.0 (Windows NT 10.0; Win64; x64) AppleWebKit/537.36 (KHTML, like Gecko) Chrome/137.0.0.0 Safari/537.36","WebKit","Chrome","137.0.0.0","Windows","10.0","https://app.prolific.com/","en-GB,en-US;q=0.9,en;q=0.8","67bfed4a6c0630c5f857b23e","683db6dfa200031b80f2a654","6865078c1d03954094d7646e","67bfed4a6c0630c5f857b23e","","[{""page_index"":0,""viewing_time"":18482}]","","","","","","","","","","","","","","","","","","","","","","","","","","","","","","","","","","","","","","","","","","","",""
"","","","","ctl-task-cpt","23","1072314","0.0-8.0-3.0","163","1","2025-07-02 10:22:26","80fe4187154257d5fb01684ea91b68b9","41.13.68.122","Mozilla/5.0 (Windows NT 10.0; Win64; x64) AppleWebKit/537.36 (KHTML, like Gecko) Chrome/137.0.0.0 Safari/537.36","WebKit","Chrome","137.0.0.0","Windows","10.0","https://app.prolific.com/","en-GB,en-US;q=0.9,en;q=0.8","67bfed4a6c0630c5f857b23e","683db6dfa200031b80f2a654","6865078c1d03954094d7646e","67bfed4a6c0630c5f857b23e","","","","","","","","","","","","","","","","","win-only","3","g1:SW,g2:NE","0.35","0","3","1071576.1","5115.5","9122.4","15345.4","2","4","8","6","1","-2","-2","0","0","0","3838.6","4000","-2395","[""down"",""left""]","{""num_key_presses"":0,""num_perfect"":0,""num_errors"":0,""num_randdir"":0,""num_randdir_good_moves"":0,""num_whilered"":0,""num_whileblue"":0,""num_blue"":0,""num_good_moves"":0}","[416.5714133126395,414.07142761775424,0.8,416.5714133126395,414.07142761775424,103,416.5714133126395,414.07142761775424,206.4,416.5714133126395,414.07142761775424,306.6,416.5714133126395,414.07142761775424,407.1,416.5714133126395,414.07142761775424,514.4,416.5714133126395,414.07142761775424,625.6,416.5714133126395,414.07142761775424,731.1,416.5714133126395,414.07142761775424,836.4,416.5714133126395,414.07142761775424,939,416.5714133126395,414.07142761775424,1046.9,416.5714133126395,414.07142761775424,1147.1,416.5714133126395,414.07142761775424,1255.7,391.5714133126395,446.57142761775424,1355.8,356.5714133126395,505.32142761775424,1456.3,336.5714133126395,562.8214276177542,1557.1,310.3214133126395,605.3214276177542,1661,237.8214133126395,666.5714276177542,1761.2,222.8214133126395,677.8214276177542,1866.4,209.0714133126395,674.0714276177542,1973.5,181.5714133126395,636.5714276177542,2076.6,181.5714133126395,636.5714276177542,2178.9,181.5714133126395,636.5714276177542,2282,181.5714133126395,636.5714276177542,2385.6,181.5714133126395,636.5714276177542,2486.2,181.5714133126395,636.5714276177542,2590.4,181.5714133126395,636.5714276177542,2691.8,181.5714133126395,636.5714276177542,2802.7,181.5714133126395,636.5714276177542,2907.8,181.5714133126395,636.5714276177542,3013.6,181.5714133126395,636.5714276177542,3118.5,181.5714133126395,636.5714276177542,3226.6,181.5714133126395,636.5714276177542,3330.9,181.5714133126395,636.5714276177542,3435.1,92.8214133126395,734.0714276177542,3539.8,74.0714133126395,752.8214276177542,3641.9,74.0714133126395,752.8214276177542,3743.7,74.0714133126395,752.8214276177542,3848.1,74.0714133126395,752.8214276177542,3957.4]","[]","","",""
"106854","","","","instructions","24","1179171","0.0-8.0-4.0","163","1","2025-07-02 10:22:26","80fe4187154257d5fb01684ea91b68b9","41.13.68.122","Mozilla/5.0 (Windows NT 10.0; Win64; x64) AppleWebKit/537.36 (KHTML, like Gecko) Chrome/137.0.0.0 Safari/537.36","WebKit","Chrome","137.0.0.0","Windows","10.0","https://app.prolific.com/","en-GB,en-US;q=0.9,en;q=0.8","67bfed4a6c0630c5f857b23e","683db6dfa200031b80f2a654","6865078c1d03954094d7646e","67bfed4a6c0630c5f857b23e","","[{""page_index"":0,""viewing_time"":68302},{""page_index"":1,""viewing_time"":38540}]","","","","","","","","","","","","","","","","","","","","","","","","","","","","","","","","","","","","","","","","","","","",""
"30127","","","{""green_ball"":[""Ball always moves in the direction I press""]}","survey-multi-select","25","1209318","0.0-8.0-5.0-0.0","163","1","2025-07-02 10:22:26","80fe4187154257d5fb01684ea91b68b9","41.13.68.122","Mozilla/5.0 (Windows NT 10.0; Win64; x64) AppleWebKit/537.36 (KHTML, like Gecko) Chrome/137.0.0.0 Safari/537.36","WebKit","Chrome","137.0.0.0","Windows","10.0","https://app.prolific.com/","en-GB,en-US;q=0.9,en;q=0.8","67bfed4a6c0630c5f857b23e","683db6dfa200031b80f2a654","6865078c1d03954094d7646e","67bfed4a6c0630c5f857b23e","","","[0]","","","","quiz","","","","","","","","","","","","","","","","","","","","","","","","","","","","","","","","","","","","","false","",""
"6573","","<p align='center'><b>INCORRECT.</b> Usually the green ball moves in the indicated direction, but sometimes it shakes and moves randomly. </p>","0","html-button-response","26","1215932","0.0-8.0-5.0-1.0","163","1","2025-07-02 10:22:26","80fe4187154257d5fb01684ea91b68b9","41.13.68.122","Mozilla/5.0 (Windows NT 10.0; Win64; x64) AppleWebKit/537.36 (KHTML, like Gecko) Chrome/137.0.0.0 Safari/537.36","WebKit","Chrome","137.0.0.0","Windows","10.0","https://app.prolific.com/","en-GB,en-US;q=0.9,en;q=0.8","67bfed4a6c0630c5f857b23e","683db6dfa200031b80f2a654","6865078c1d03954094d7646e","67bfed4a6c0630c5f857b23e","","","","","","","","","","","","","","","","","","","","","","","","","","","","","","","","","","","","","","","","","","","","","",""
"16299","","","{""green_ball"":[""Ball always moves in the direction I press"",""Ball sometimes shakes and moves in a random direction""]}","survey-multi-select","27","1232242","0.0-8.0-5.1-0.1","163","1","2025-07-02 10:22:26","80fe4187154257d5fb01684ea91b68b9","41.13.68.122","Mozilla/5.0 (Windows NT 10.0; Win64; x64) AppleWebKit/537.36 (KHTML, like Gecko) Chrome/137.0.0.0 Safari/537.36","WebKit","Chrome","137.0.0.0","Windows","10.0","https://app.prolific.com/","en-GB,en-US;q=0.9,en;q=0.8","67bfed4a6c0630c5f857b23e","683db6dfa200031b80f2a654","6865078c1d03954094d7646e","67bfed4a6c0630c5f857b23e","","","[0]","","","","quiz","","","","","","","","","","","","","","","","","","","","","","","","","","","","","","","","","","","","","false","",""
"2272","","<p align='center'><b>INCORRECT.</b> Usually the green ball moves in the indicated direction, but sometimes it shakes and moves randomly. </p>","0","html-button-response","28","1234520","0.0-8.0-5.1-1.1","163","1","2025-07-02 10:22:26","80fe4187154257d5fb01684ea91b68b9","41.13.68.122","Mozilla/5.0 (Windows NT 10.0; Win64; x64) AppleWebKit/537.36 (KHTML, like Gecko) Chrome/137.0.0.0 Safari/537.36","WebKit","Chrome","137.0.0.0","Windows","10.0","https://app.prolific.com/","en-GB,en-US;q=0.9,en;q=0.8","67bfed4a6c0630c5f857b23e","683db6dfa200031b80f2a654","6865078c1d03954094d7646e","67bfed4a6c0630c5f857b23e","","","","","","","","","","","","","","","","","","","","","","","","","","","","","","","","","","","","","","","","","","","","","",""
"5064","","","{""green_ball"":[""Ball sometimes shakes and moves in a random direction""]}","survey-multi-select","29","1239590","0.0-8.0-5.2-0.2","163","1","2025-07-02 10:22:26","80fe4187154257d5fb01684ea91b68b9","41.13.68.122","Mozilla/5.0 (Windows NT 10.0; Win64; x64) AppleWebKit/537.36 (KHTML, like Gecko) Chrome/137.0.0.0 Safari/537.36","WebKit","Chrome","137.0.0.0","Windows","10.0","https://app.prolific.com/","en-GB,en-US;q=0.9,en;q=0.8","67bfed4a6c0630c5f857b23e","683db6dfa200031b80f2a654","6865078c1d03954094d7646e","67bfed4a6c0630c5f857b23e","","","[0]","","","","quiz","","","","","","","","","","","","","","","","","","","","","","","","","","","","","","","","","","","","","true","",""
"2927","","<p align='center'><b>CORRECT!</b> Indeed, the green ball may sometimes shake and move in a random direction.</p>","0","html-button-response","30","1242526","0.0-8.0-5.2-1.2","163","1","2025-07-02 10:22:26","80fe4187154257d5fb01684ea91b68b9","41.13.68.122","Mozilla/5.0 (Windows NT 10.0; Win64; x64) AppleWebKit/537.36 (KHTML, like Gecko) Chrome/137.0.0.0 Safari/537.36","WebKit","Chrome","137.0.0.0","Windows","10.0","https://app.prolific.com/","en-GB,en-US;q=0.9,en;q=0.8","67bfed4a6c0630c5f857b23e","683db6dfa200031b80f2a654","6865078c1d03954094d7646e","67bfed4a6c0630c5f857b23e","","","","","","","","","","","","","","","","","","","","","","","","","","","","","","","","","","","","","","","","","","","","","",""
"6494","","","{""yellow_ball"":[""Ball doesn‘t move and I get -1 penalty point""]}","survey-multi-select","31","1249034","0.0-8.0-6.0-0.0","163","1","2025-07-02 10:22:26","80fe4187154257d5fb01684ea91b68b9","41.13.68.122","Mozilla/5.0 (Windows NT 10.0; Win64; x64) AppleWebKit/537.36 (KHTML, like Gecko) Chrome/137.0.0.0 Safari/537.36","WebKit","Chrome","137.0.0.0","Windows","10.0","https://app.prolific.com/","en-GB,en-US;q=0.9,en;q=0.8","67bfed4a6c0630c5f857b23e","683db6dfa200031b80f2a654","6865078c1d03954094d7646e","67bfed4a6c0630c5f857b23e","","","[0]","","","","quiz","","","","","","","","","","","","","","","","","","","","","","","","","","","","","","","","","","","","","true","",""
"1830","","<p align='center'><b>CORRECT!</b> Indeed, the yellow ball never moves and you receive a penalty.</p>","0","html-button-response","32","1250869","0.0-8.0-6.0-1.0","163","1","2025-07-02 10:22:26","80fe4187154257d5fb01684ea91b68b9","41.13.68.122","Mozilla/5.0 (Windows NT 10.0; Win64; x64) AppleWebKit/537.36 (KHTML, like Gecko) Chrome/137.0.0.0 Safari/537.36","WebKit","Chrome","137.0.0.0","Windows","10.0","https://app.prolific.com/","en-GB,en-US;q=0.9,en;q=0.8","67bfed4a6c0630c5f857b23e","683db6dfa200031b80f2a654","6865078c1d03954094d7646e","67bfed4a6c0630c5f857b23e","","","","","","","","","","","","","","","","","","","","","","","","","","","","","","","","","","","","","","","","","","","","","",""
"7342","","","{""blue_ball"":[""Ball always shakes and moves in a random direction""]}","survey-multi-select","33","1258220","0.0-8.0-7.0-0.0","163","1","2025-07-02 10:22:26","80fe4187154257d5fb01684ea91b68b9","41.13.68.122","Mozilla/5.0 (Windows NT 10.0; Win64; x64) AppleWebKit/537.36 (KHTML, like Gecko) Chrome/137.0.0.0 Safari/537.36","WebKit","Chrome","137.0.0.0","Windows","10.0","https://app.prolific.com/","en-GB,en-US;q=0.9,en;q=0.8","67bfed4a6c0630c5f857b23e","683db6dfa200031b80f2a654","6865078c1d03954094d7646e","67bfed4a6c0630c5f857b23e","","","[0]","","","","quiz","","","","","","","","","","","","","","","","","","","","","","","","","","","","","","","","","","","","","true","",""
"1880","","<p align='center'><b>CORRECT!</b> Indeed, the blue ball always shakes and moves in a random direction. Also there is a penalty of -1 point.</p>","0","html-button-response","34","1260105","0.0-8.0-7.0-1.0","163","1","2025-07-02 10:22:26","80fe4187154257d5fb01684ea91b68b9","41.13.68.122","Mozilla/5.0 (Windows NT 10.0; Win64; x64) AppleWebKit/537.36 (KHTML, like Gecko) Chrome/137.0.0.0 Safari/537.36","WebKit","Chrome","137.0.0.0","Windows","10.0","https://app.prolific.com/","en-GB,en-US;q=0.9,en;q=0.8","67bfed4a6c0630c5f857b23e","683db6dfa200031b80f2a654","6865078c1d03954094d7646e","67bfed4a6c0630c5f857b23e","","","","","","","","","","","","","","","","","","","","","","","","","","","","","","","","","","","","","","","","","","","","","",""
"4563","","","{""bonus"":[""When I reach 50% of points""]}","survey-multi-select","35","1264676","0.0-8.0-8.0-0.0","163","1","2025-07-02 10:22:26","80fe4187154257d5fb01684ea91b68b9","41.13.68.122","Mozilla/5.0 (Windows NT 10.0; Win64; x64) AppleWebKit/537.36 (KHTML, like Gecko) Chrome/137.0.0.0 Safari/537.36","WebKit","Chrome","137.0.0.0","Windows","10.0","https://app.prolific.com/","en-GB,en-US;q=0.9,en;q=0.8","67bfed4a6c0630c5f857b23e","683db6dfa200031b80f2a654","6865078c1d03954094d7646e","67bfed4a6c0630c5f857b23e","","","[0]","","","","quiz","","","","","","","","","","","","","","","","","","","","","","","","","","","","","","","","","","","","","true","",""
"1532","","<p align='center'><b>CORRECT!</b> Indeed, you receive 2 pounds extra when you reach 50% of points.</p>","0","html-button-response","36","1266216","0.0-8.0-8.0-1.0","163","1","2025-07-02 10:22:26","80fe4187154257d5fb01684ea91b68b9","41.13.68.122","Mozilla/5.0 (Windows NT 10.0; Win64; x64) AppleWebKit/537.36 (KHTML, like Gecko) Chrome/137.0.0.0 Safari/537.36","WebKit","Chrome","137.0.0.0","Windows","10.0","https://app.prolific.com/","en-GB,en-US;q=0.9,en;q=0.8","67bfed4a6c0630c5f857b23e","683db6dfa200031b80f2a654","6865078c1d03954094d7646e","67bfed4a6c0630c5f857b23e","","","","","","","","","","","","","","","","","","","","","","","","","","","","","","","","","","","","","","","","","","","","","",""
"8882","","","","instructions","37","1275101","0.0-8.0-9.0","163","1","2025-07-02 10:22:26","80fe4187154257d5fb01684ea91b68b9","41.13.68.122","Mozilla/5.0 (Windows NT 10.0; Win64; x64) AppleWebKit/537.36 (KHTML, like Gecko) Chrome/137.0.0.0 Safari/537.36","WebKit","Chrome","137.0.0.0","Windows","10.0","https://app.prolific.com/","en-GB,en-US;q=0.9,en;q=0.8","67bfed4a6c0630c5f857b23e","683db6dfa200031b80f2a654","6865078c1d03954094d7646e","67bfed4a6c0630c5f857b23e","","[{""page_index"":0,""viewing_time"":8882}]","","","","","","","","","","","","","","","","","","","","","","","","","","","","","","","","","","","","","","","","","","","",""
"10958","","<p>Before you start with this game please answer the following three questions yourself. </p>
  <p>Through this game, we measure several aspects of your cognitive performance, such as reaction times, multi-tasking capabilities </p>
  <p>and the ability to assess the situation you are in.</p>
  <p></p>
  <p><b>How good do you usually are in such tasks?</b></p>","64","html-slider-response","38","1286095","0.0-9.0-0.0","163","1","2025-07-02 10:22:26","80fe4187154257d5fb01684ea91b68b9","41.13.68.122","Mozilla/5.0 (Windows NT 10.0; Win64; x64) AppleWebKit/537.36 (KHTML, like Gecko) Chrome/137.0.0.0 Safari/537.36","WebKit","Chrome","137.0.0.0","Windows","10.0","https://app.prolific.com/","en-GB,en-US;q=0.9,en;q=0.8","67bfed4a6c0630c5f857b23e","683db6dfa200031b80f2a654","6865078c1d03954094d7646e","67bfed4a6c0630c5f857b23e","2025-07-02T10:44:07.050Z","","","","","","PreSkillQ","","","","","","","","","","","","","","","","","","","","","","","","","","","","","","","","","","","","","","50",""
"10765","","<div style=""width:500px;"">
  <p>How well do you think you will perform in this task compared to other participants?</p>
  </div>","50","html-slider-response","39","1296866","0.0-9.0-1.0","163","1","2025-07-02 10:22:26","80fe4187154257d5fb01684ea91b68b9","41.13.68.122","Mozilla/5.0 (Windows NT 10.0; Win64; x64) AppleWebKit/537.36 (KHTML, like Gecko) Chrome/137.0.0.0 Safari/537.36","WebKit","Chrome","137.0.0.0","Windows","10.0","https://app.prolific.com/","en-GB,en-US;q=0.9,en;q=0.8","67bfed4a6c0630c5f857b23e","683db6dfa200031b80f2a654","6865078c1d03954094d7646e","67bfed4a6c0630c5f857b23e","2025-07-02T10:44:17.820Z","","","","","","PrePerfQ","","","","","","","","","","","","","","","","","","","","","","","","","","","","","","","","","","","","","","50",""
"5381","","<div style=""width:500px;"">
  <p>What best describes how you currently feel?</p>
  </div>","74","html-slider-response","40","1302252","0.0-9.0-2.0","163","1","2025-07-02 10:22:26","80fe4187154257d5fb01684ea91b68b9","41.13.68.122","Mozilla/5.0 (Windows NT 10.0; Win64; x64) AppleWebKit/537.36 (KHTML, like Gecko) Chrome/137.0.0.0 Safari/537.36","WebKit","Chrome","137.0.0.0","Windows","10.0","https://app.prolific.com/","en-GB,en-US;q=0.9,en;q=0.8","67bfed4a6c0630c5f857b23e","683db6dfa200031b80f2a654","6865078c1d03954094d7646e","67bfed4a6c0630c5f857b23e","2025-07-02T10:44:23.206Z","","","","","","PreMotivationQ","","","","","","","","","","","","","","","","","","","","","","","","","","","","","","","","","","","","","","50",""
"","","","","ctl-task-cpt","41","1346705","0.0-10.0-0.0","163","1","2025-07-02 10:22:26","80fe4187154257d5fb01684ea91b68b9","41.13.68.122","Mozilla/5.0 (Windows NT 10.0; Win64; x64) AppleWebKit/537.36 (KHTML, like Gecko) Chrome/137.0.0.0 Safari/537.36","WebKit","Chrome","137.0.0.0","Windows","10.0","https://app.prolific.com/","en-GB,en-US;q=0.9,en;q=0.8","67bfed4a6c0630c5f857b23e","683db6dfa200031b80f2a654","6865078c1d03954094d7646e","67bfed4a6c0630c5f857b23e","2025-07-02T10:45:07.660Z","","","","","","","","","","","","","","","","win-only","0","g1:NW,g2:SE","1","1","0","1319893.6","4229.4","9239.7","41422.3","1","4","8","6","2","8","5","5","0","0.03787878787878788","2477.2","3000","575","[""down"",""right""]","{""num_key_presses"":10,""num_perfect"":6,""num_errors"":3,""num_randdir"":0,""num_randdir_good_moves"":0,""num_whilered"":1,""num_whileblue"":0,""num_blue"":3,""num_good_moves"":6}","[416.5714133126395,416.57142761775424,2.8,416.5714133126395,416.57142761775424,104.4,416.5714133126395,416.57142761775424,220,416.5714133126395,416.57142761775424,323.7,416.5714133126395,416.57142761775424,427.9,416.5714133126395,416.57142761775424,527.9,416.5714133126395,416.57142761775424,632,416.5714133126395,416.57142761775424,736.4,416.5714133126395,416.57142761775424,837.4,416.5714133126395,416.57142761775424,937.8,416.5714133126395,416.57142761775424,1043,416.5714133126395,416.57142761775424,1145.1,416.5714133126395,416.57142761775424,1247.8,541.5714133126395,556.5714276177542,1348.8,672.8214133126395,716.5714276177542,1453.8,672.8214133126395,716.5714276177542,1554,672.8214133126395,716.5714276177542,1655.8,672.8214133126395,716.5714276177542,1763,672.8214133126395,716.5714276177542,1872.5,711.5714133126395,719.0714276177542,1976.3,730.3214133126395,736.5714276177542,2082.7,746.5714133126395,756.5714276177542,2197.5,757.8214133126395,761.5714276177542,2298.2,757.8214133126395,761.5714276177542,2405.1,757.8214133126395,761.5714276177542,2510.7,757.8214133126395,761.5714276177542,2615.8,757.8214133126395,761.5714276177542,2716.7,757.8214133126395,761.5714276177542,2823.2,757.8214133126395,761.5714276177542,2923.6,757.8214133126395,761.5714276177542,3024.4,717.8214133126395,716.5714276177542,3131.2,559.0714133126395,535.3214276177542,3233.1,546.5714133126395,521.5714276177542,3339.5,546.5714133126395,521.5714276177542,3444.7,546.5714133126395,521.5714276177542,3553.6,546.5714133126395,521.5714276177542,3654.6,546.5714133126395,521.5714276177542,3761.1,546.5714133126395,521.5714276177542,3861.3,546.5714133126395,521.5714276177542,3970.1,546.5714133126395,521.5714276177542,4072.6,546.5714133126395,521.5714276177542,4175.3,546.5714133126395,521.5714276177542,4277.3,546.5714133126395,521.5714276177542,4378.4,546.5714133126395,521.5714276177542,4478.6,546.5714133126395,521.5714276177542,4581.3,546.5714133126395,521.5714276177542,4686.4,546.5714133126395,521.5714276177542,4788,546.5714133126395,521.5714276177542,4890.6,546.5714133126395,521.5714276177542,4994.1]","[5489.8,5489.8,2817.3,2002.8,669.7,""smooth"",""right"",""right"",""good_move"",5939.1,445.9,2223.6,5493.2,-1777.7,""error"",""-"",""-"",""no_move"",6443.5,503.6,2223.6,5493.2,-1273.2,""while_red"",""-"",""-"",""no_move"",7346.3,1406.4,2557.9,6943.8,-2155.4,""error"",""-"",""-"",""no_move"",10951.9,3604,2019.5,8352.6,579.9,""smooth"",""right"",""right"",""good_move"",11809.8,856.2,2217.3,10953.7,-1361.2,""error"",""-"",""-"",""no_move"",15788.1,3974.8,2250.6,12815.9,721.6,""smooth"",""down"",""down"",""good_move"",22605,6815.6,2010.5,20145,449.5,""smooth"",""down"",""down"",""good_move"",28915.6,6307.3,2203.9,26301.7,410,""smooth"",""right"",""right"",""good_move"",32056.2,3139.9,2611.6,28916.3,528.3,""smooth"",""down"",""down"",""good_move""]","","",""
"5008","","<div style=""width:500px;"">
  <p>What determined the result of this run?</p>
  </div>","81","html-slider-response","42","1351716","0.0-10.0-1.0","163","1","2025-07-02 10:22:26","80fe4187154257d5fb01684ea91b68b9","41.13.68.122","Mozilla/5.0 (Windows NT 10.0; Win64; x64) AppleWebKit/537.36 (KHTML, like Gecko) Chrome/137.0.0.0 Safari/537.36","WebKit","Chrome","137.0.0.0","Windows","10.0","https://app.prolific.com/","en-GB,en-US;q=0.9,en;q=0.8","67bfed4a6c0630c5f857b23e","683db6dfa200031b80f2a654","6865078c1d03954094d7646e","67bfed4a6c0630c5f857b23e","2025-07-02T10:45:12.670Z","","","","","","AttribQ","","","","","","","","","","","","","","","","","","","","","","","","","","","","","","","","","","","","","","50",""
"15596","","<div style=""width:500px;"">
  <p>How much control did you have over the ball?</p>
  </div>","86","html-slider-response","43","1367315","0.0-10.0-2.0","163","1","2025-07-02 10:22:26","80fe4187154257d5fb01684ea91b68b9","41.13.68.122","Mozilla/5.0 (Windows NT 10.0; Win64; x64) AppleWebKit/537.36 (KHTML, like Gecko) Chrome/137.0.0.0 Safari/537.36","WebKit","Chrome","137.0.0.0","Windows","10.0","https://app.prolific.com/","en-GB,en-US;q=0.9,en;q=0.8","67bfed4a6c0630c5f857b23e","683db6dfa200031b80f2a654","6865078c1d03954094d7646e","67bfed4a6c0630c5f857b23e","2025-07-02T10:45:28.269Z","","","","","","ControlQ","","","","","","","","","","","","","","","","","","","","","","","","","","","","","","","","","","","","","","50",""
"4646","","<div style=""width:500px;"">
  <p>How would you describe your current emotional state?</p>
  </div>","5","html-slider-response","44","1371964","0.0-10.0-3.0","163","1","2025-07-02 10:22:26","80fe4187154257d5fb01684ea91b68b9","41.13.68.122","Mozilla/5.0 (Windows NT 10.0; Win64; x64) AppleWebKit/537.36 (KHTML, like Gecko) Chrome/137.0.0.0 Safari/537.36","WebKit","Chrome","137.0.0.0","Windows","10.0","https://app.prolific.com/","en-GB,en-US;q=0.9,en;q=0.8","67bfed4a6c0630c5f857b23e","683db6dfa200031b80f2a654","6865078c1d03954094d7646e","67bfed4a6c0630c5f857b23e","2025-07-02T10:45:32.918Z","","","","","","StressQ","","","","","","","","","","","","","","","","","","","","","","","","","","","","","","","","","","","","","","50",""
"5250","","<div style=""width:500px;"">
  <p>What best describes how you currently feel?</p>
  </div>","95","html-slider-response","45","1377217","0.0-10.0-4.0","163","1","2025-07-02 10:22:26","80fe4187154257d5fb01684ea91b68b9","41.13.68.122","Mozilla/5.0 (Windows NT 10.0; Win64; x64) AppleWebKit/537.36 (KHTML, like Gecko) Chrome/137.0.0.0 Safari/537.36","WebKit","Chrome","137.0.0.0","Windows","10.0","https://app.prolific.com/","en-GB,en-US;q=0.9,en;q=0.8","67bfed4a6c0630c5f857b23e","683db6dfa200031b80f2a654","6865078c1d03954094d7646e","67bfed4a6c0630c5f857b23e","2025-07-02T10:45:38.171Z","","","","","","MotivationQ","","","","","","","","","","","","","","","","","","","","","","","","","","","","","","","","","","","","","","50",""
"","","","","ctl-task-cpt","46","1420419","0.0-10.0-0.1","163","1","2025-07-02 10:22:26","80fe4187154257d5fb01684ea91b68b9","41.13.68.122","Mozilla/5.0 (Windows NT 10.0; Win64; x64) AppleWebKit/537.36 (KHTML, like Gecko) Chrome/137.0.0.0 Safari/537.36","WebKit","Chrome","137.0.0.0","Windows","10.0","https://app.prolific.com/","en-GB,en-US;q=0.9,en;q=0.8","67bfed4a6c0630c5f857b23e","683db6dfa200031b80f2a654","6865078c1d03954094d7646e","67bfed4a6c0630c5f857b23e","2025-07-02T10:46:21.373Z","","","","","","","","","","","","","","","","win-only","1","g1:NE,g2:SW","0.9","2","0","1394853.4","3397.2","8400.1","40189.1","1","4","4","6","1","1","1","6","5","0.045454545454545456","2904.2","3000","50","[""up"",""right""]","{""num_key_presses"":6,""num_perfect"":5,""num_errors"":0,""num_randdir"":1,""num_randdir_good_moves"":0,""num_whilered"":0,""num_whileblue"":0,""num_blue"":4,""num_good_moves"":5}","[406.5714133126395,412.82142761775424,1.2,406.5714133126395,412.82142761775424,103.6,406.5714133126395,412.82142761775424,218.2,406.5714133126395,412.82142761775424,323.5,406.5714133126395,412.82142761775424,432.7,406.5714133126395,412.82142761775424,534.7,406.5714133126395,412.82142761775424,636.1,406.5714133126395,412.82142761775424,736.4,406.5714133126395,412.82142761775424,841.6,406.5714133126395,412.82142761775424,951.5,330.3214133126395,495.32142761775424,1054.8,292.8214133126395,531.5714276177542,1167.1,281.5714133126395,540.3214276177542,1269.9,370.3214133126395,450.32142761775424,1381.2,461.5714133126395,346.57142761775424,1483.8,555.3214133126395,259.07142761775424,1584.3,571.5714133126395,246.57142761775424,1691.5,626.5714133126395,185.32142761775424,1792.4,640.3214133126395,159.07142761775424,1899.4,641.5714133126395,155.32142761775424,2008.5,641.5714133126395,155.32142761775424,2110,641.5714133126395,155.32142761775424,2216.6,641.5714133126395,155.32142761775424,2321,729.0714133126395,76.57142761775425,2425.4,757.8214133126395,52.82142761775425,2531.5,757.8214133126395,52.82142761775425,2632.8,757.8214133126395,52.82142761775425,2737.3,757.8214133126395,52.82142761775425,2847.5,757.8214133126395,52.82142761775425,2948.7,757.8214133126395,52.82142761775425,3052.9,757.8214133126395,52.82142761775425,3163.7,757.8214133126395,52.82142761775425,3269,757.8214133126395,52.82142761775425,3370.3,757.8214133126395,52.82142761775425,3476.2,757.8214133126395,52.82142761775425,3583.8,757.8214133126395,52.82142761775425,3687.2,757.8214133126395,52.82142761775425,3798,757.8214133126395,52.82142761775425,3899.3,757.8214133126395,52.82142761775425,4000,757.8214133126395,52.82142761775425,4102.4,757.8214133126395,52.82142761775425,4203.7,757.8214133126395,52.82142761775425,4304.6,757.8214133126395,52.82142761775425,4404.6,757.8214133126395,52.82142761775425,4509.1,757.8214133126395,52.82142761775425,4612,757.8214133126395,52.82142761775425,4716.6,757.8214133126395,52.82142761775425,4817.4,757.8214133126395,52.82142761775425,4919.3]","[1598.6,1598.6,1000,0,598.6,""oops"",""up"",""down"",""bad_move"",11695.8,10095.4,2120.5,9144.1,431.2,""smooth"",""up"",""up"",""good_move"",22070.1,10373.3,2531.1,19060.9,478.1,""smooth"",""right"",""right"",""good_move"",25756.5,3685.1,1830.3,22071.4,1854.8,""smooth"",""up"",""up"",""good_move"",28303.4,2545.4,2081.8,25758,463.6,""smooth"",""right"",""right"",""good_move"",31658.9,3353.6,2957.4,28305.3,396.2,""smooth"",""up"",""up"",""good_move""]","","",""
"3718","","<div style=""width:500px;"">
  <p>What determined the result of this run?</p>
  </div>","97","html-slider-response","47","1424140","0.0-10.0-1.1","163","1","2025-07-02 10:22:26","80fe4187154257d5fb01684ea91b68b9","41.13.68.122","Mozilla/5.0 (Windows NT 10.0; Win64; x64) AppleWebKit/537.36 (KHTML, like Gecko) Chrome/137.0.0.0 Safari/537.36","WebKit","Chrome","137.0.0.0","Windows","10.0","https://app.prolific.com/","en-GB,en-US;q=0.9,en;q=0.8","67bfed4a6c0630c5f857b23e","683db6dfa200031b80f2a654","6865078c1d03954094d7646e","67bfed4a6c0630c5f857b23e","2025-07-02T10:46:25.094Z","","","","","","AttribQ","","","","","","","","","","","","","","","","","","","","","","","","","","","","","","","","","","","","","","50",""
"2929","","<div style=""width:500px;"">
  <p>How much control did you have over the ball?</p>
  </div>","66","html-slider-response","48","1427077","0.0-10.0-2.1","163","1","2025-07-02 10:22:26","80fe4187154257d5fb01684ea91b68b9","41.13.68.122","Mozilla/5.0 (Windows NT 10.0; Win64; x64) AppleWebKit/537.36 (KHTML, like Gecko) Chrome/137.0.0.0 Safari/537.36","WebKit","Chrome","137.0.0.0","Windows","10.0","https://app.prolific.com/","en-GB,en-US;q=0.9,en;q=0.8","67bfed4a6c0630c5f857b23e","683db6dfa200031b80f2a654","6865078c1d03954094d7646e","67bfed4a6c0630c5f857b23e","2025-07-02T10:46:28.031Z","","","","","","ControlQ","","","","","","","","","","","","","","","","","","","","","","","","","","","","","","","","","","","","","","50",""
"3743","","<div style=""width:500px;"">
  <p>How would you describe your current emotional state?</p>
  </div>","14","html-slider-response","49","1430824","0.0-10.0-3.1","163","1","2025-07-02 10:22:26","80fe4187154257d5fb01684ea91b68b9","41.13.68.122","Mozilla/5.0 (Windows NT 10.0; Win64; x64) AppleWebKit/537.36 (KHTML, like Gecko) Chrome/137.0.0.0 Safari/537.36","WebKit","Chrome","137.0.0.0","Windows","10.0","https://app.prolific.com/","en-GB,en-US;q=0.9,en;q=0.8","67bfed4a6c0630c5f857b23e","683db6dfa200031b80f2a654","6865078c1d03954094d7646e","67bfed4a6c0630c5f857b23e","2025-07-02T10:46:31.778Z","","","","","","StressQ","","","","","","","","","","","","","","","","","","","","","","","","","","","","","","","","","","","","","","50",""
"12152","","<div style=""width:500px;"">
  <p>What best describes how you currently feel?</p>
  </div>","91","html-slider-response","50","1442979","0.0-10.0-4.1","163","1","2025-07-02 10:22:26","80fe4187154257d5fb01684ea91b68b9","41.13.68.122","Mozilla/5.0 (Windows NT 10.0; Win64; x64) AppleWebKit/537.36 (KHTML, like Gecko) Chrome/137.0.0.0 Safari/537.36","WebKit","Chrome","137.0.0.0","Windows","10.0","https://app.prolific.com/","en-GB,en-US;q=0.9,en;q=0.8","67bfed4a6c0630c5f857b23e","683db6dfa200031b80f2a654","6865078c1d03954094d7646e","67bfed4a6c0630c5f857b23e","2025-07-02T10:46:43.933Z","","","","","","MotivationQ","","","","","","","","","","","","","","","","","","","","","","","","","","","","","","","","","","","","","","50",""
"","","","","ctl-task-cpt","51","1480532","0.0-10.0-0.2","163","1","2025-07-02 10:22:26","80fe4187154257d5fb01684ea91b68b9","41.13.68.122","Mozilla/5.0 (Windows NT 10.0; Win64; x64) AppleWebKit/537.36 (KHTML, like Gecko) Chrome/137.0.0.0 Safari/537.36","WebKit","Chrome","137.0.0.0","Windows","10.0","https://app.prolific.com/","en-GB,en-US;q=0.9,en;q=0.8","67bfed4a6c0630c5f857b23e","683db6dfa200031b80f2a654","6865078c1d03954094d7646e","67bfed4a6c0630c5f857b23e","2025-07-02T10:47:21.486Z","","","","","","","","","","","","","","","","win-only","1","g1:NE,g2:SW","0.8","3","0","1460613.1","1727","6730","34537.3","1","4","8","6","2","8","8","14","6","0.10606060606060606","2205","3000","1065","[""down"",""left""]","{""num_key_presses"":6,""num_perfect"":6,""num_errors"":0,""num_randdir"":0,""num_randdir_good_moves"":0,""num_whilered"":0,""num_whileblue"":0,""num_blue"":3,""num_good_moves"":6}","[411.5714133126395,419.07142761775424,3,411.5714133126395,419.07142761775424,102.9,411.5714133126395,419.07142761775424,210.6,411.5714133126395,419.07142761775424,319,411.5714133126395,419.07142761775424,420.4,411.5714133126395,419.07142761775424,534.4,411.5714133126395,419.07142761775424,641.9,411.5714133126395,419.07142761775424,746,411.5714133126395,419.07142761775424,849.6,411.5714133126395,419.07142761775424,963,411.5714133126395,419.07142761775424,1069.6,411.5714133126395,419.07142761775424,1174,411.5714133126395,419.07142761775424,1275.3,411.5714133126395,419.07142761775424,1383,411.5714133126395,419.07142761775424,1485.8,295.3214133126395,496.57142761775424,1586.4,52.82141331263951,687.8214276177542,1701.7,29.071413312639507,699.0714276177542,1805.9,35.32141331263951,711.5714276177542,1911.1,51.57141331263951,751.5714276177542,2019.1,51.57141331263951,751.5714276177542,2121.5,51.57141331263951,751.5714276177542,2222.2,51.57141331263951,751.5714276177542,2325.3,51.57141331263951,751.5714276177542,2441.2,51.57141331263951,751.5714276177542,2545.9,51.57141331263951,751.5714276177542,2653.8,51.57141331263951,751.5714276177542,2755.3,51.57141331263951,751.5714276177542,2863.3,51.57141331263951,751.5714276177542,2976.3,51.57141331263951,751.5714276177542,3080.1,51.57141331263951,751.5714276177542,3180.5,51.57141331263951,751.5714276177542,3289.4,51.57141331263951,751.5714276177542,3389.5,51.57141331263951,751.5714276177542,3500.2,51.57141331263951,751.5714276177542,3602.2,51.57141331263951,751.5714276177542,3704,51.57141331263951,751.5714276177542,3804.6,51.57141331263951,751.5714276177542,3906.5,51.57141331263951,751.5714276177542,4007.8,51.57141331263951,751.5714276177542,4109.5,51.57141331263951,751.5714276177542,4210.5,51.57141331263951,751.5714276177542,4320.8,51.57141331263951,751.5714276177542,4424.5,51.57141331263951,751.5714276177542,4527.6,51.57141331263951,751.5714276177542,4629.8,51.57141331263951,751.5714276177542,4737.8,51.57141331263951,751.5714276177542,4841.5,51.57141331263951,751.5714276177542,4951.5]","[8607.6,8607.6,2785.6,5397,425,""smooth"",""left"",""left"",""good_move"",12040.4,3431.2,2964.8,8609.3,466.3,""smooth"",""down"",""down"",""good_move"",19225,7183.2,3090.9,15756.2,377.9,""smooth"",""left"",""left"",""good_move"",22689.8,3463.6,2631,19226.2,832.6,""smooth"",""down"",""down"",""good_move"",25533,2842.2,2292.7,22690.9,549.4,""smooth"",""left"",""left"",""good_move"",27674.7,2139.3,1697,25535.4,442.3,""smooth"",""down"",""down"",""good_move""]","","",""
"4486","","<div style=""width:500px;"">
  <p>What determined the result of this run?</p>
  </div>","96","html-slider-response","52","1485022","0.0-10.0-1.2","163","1","2025-07-02 10:22:26","80fe4187154257d5fb01684ea91b68b9","41.13.68.122","Mozilla/5.0 (Windows NT 10.0; Win64; x64) AppleWebKit/537.36 (KHTML, like Gecko) Chrome/137.0.0.0 Safari/537.36","WebKit","Chrome","137.0.0.0","Windows","10.0","https://app.prolific.com/","en-GB,en-US;q=0.9,en;q=0.8","67bfed4a6c0630c5f857b23e","683db6dfa200031b80f2a654","6865078c1d03954094d7646e","67bfed4a6c0630c5f857b23e","2025-07-02T10:47:25.976Z","","","","","","AttribQ","","","","","","","","","","","","","","","","","","","","","","","","","","","","","","","","","","","","","","50",""
"2886","","<div style=""width:500px;"">
  <p>How much control did you have over the ball?</p>
  </div>","97","html-slider-response","53","1487910","0.0-10.0-2.2","163","1","2025-07-02 10:22:26","80fe4187154257d5fb01684ea91b68b9","41.13.68.122","Mozilla/5.0 (Windows NT 10.0; Win64; x64) AppleWebKit/537.36 (KHTML, like Gecko) Chrome/137.0.0.0 Safari/537.36","WebKit","Chrome","137.0.0.0","Windows","10.0","https://app.prolific.com/","en-GB,en-US;q=0.9,en;q=0.8","67bfed4a6c0630c5f857b23e","683db6dfa200031b80f2a654","6865078c1d03954094d7646e","67bfed4a6c0630c5f857b23e","2025-07-02T10:47:28.864Z","","","","","","ControlQ","","","","","","","","","","","","","","","","","","","","","","","","","","","","","","","","","","","","","","50",""
"3089","","<div style=""width:500px;"">
  <p>How would you describe your current emotional state?</p>
  </div>","1","html-slider-response","54","1491004","0.0-10.0-3.2","163","1","2025-07-02 10:22:26","80fe4187154257d5fb01684ea91b68b9","41.13.68.122","Mozilla/5.0 (Windows NT 10.0; Win64; x64) AppleWebKit/537.36 (KHTML, like Gecko) Chrome/137.0.0.0 Safari/537.36","WebKit","Chrome","137.0.0.0","Windows","10.0","https://app.prolific.com/","en-GB,en-US;q=0.9,en;q=0.8","67bfed4a6c0630c5f857b23e","683db6dfa200031b80f2a654","6865078c1d03954094d7646e","67bfed4a6c0630c5f857b23e","2025-07-02T10:47:31.958Z","","","","","","StressQ","","","","","","","","","","","","","","","","","","","","","","","","","","","","","","","","","","","","","","50",""
"3994","","<div style=""width:500px;"">
  <p>What best describes how you currently feel?</p>
  </div>","97","html-slider-response","55","1495004","0.0-10.0-4.2","163","1","2025-07-02 10:22:26","80fe4187154257d5fb01684ea91b68b9","41.13.68.122","Mozilla/5.0 (Windows NT 10.0; Win64; x64) AppleWebKit/537.36 (KHTML, like Gecko) Chrome/137.0.0.0 Safari/537.36","WebKit","Chrome","137.0.0.0","Windows","10.0","https://app.prolific.com/","en-GB,en-US;q=0.9,en;q=0.8","67bfed4a6c0630c5f857b23e","683db6dfa200031b80f2a654","6865078c1d03954094d7646e","67bfed4a6c0630c5f857b23e","2025-07-02T10:47:35.958Z","","","","","","MotivationQ","","","","","","","","","","","","","","","","","","","","","","","","","","","","","","","","","","","","","","50",""
"","","","","ctl-task-cpt","56","1536685","0.0-10.0-0.3","163","1","2025-07-02 10:22:26","80fe4187154257d5fb01684ea91b68b9","41.13.68.122","Mozilla/5.0 (Windows NT 10.0; Win64; x64) AppleWebKit/537.36 (KHTML, like Gecko) Chrome/137.0.0.0 Safari/537.36","WebKit","Chrome","137.0.0.0","Windows","10.0","https://app.prolific.com/","en-GB,en-US;q=0.9,en;q=0.8","67bfed4a6c0630c5f857b23e","683db6dfa200031b80f2a654","6865078c1d03954094d7646e","67bfed4a6c0630c5f857b23e","2025-07-02T10:48:17.639Z","","","","","","","","","","","","","","","","win-only","0","g1:NW,g2:SE","0.7","4","0","1512639.3","3876.9","8884.9","38662","1","4","4","6","2","4","4","18","14","0.13636363636363635","2478.5","3000","1015","[""down"",""right""]","{""num_key_presses"":8,""num_perfect"":6,""num_errors"":0,""num_randdir"":2,""num_randdir_good_moves"":1,""num_whilered"":0,""num_whileblue"":0,""num_blue"":2,""num_good_moves"":7}","[421.5714133126395,415.32142761775424,1.7,421.5714133126395,415.32142761775424,101.2,421.5714133126395,415.32142761775424,214,421.5714133126395,415.32142761775424,319,421.5714133126395,415.32142761775424,419.9,421.5714133126395,415.32142761775424,531.6,421.5714133126395,415.32142761775424,631.8,421.5714133126395,415.32142761775424,736.5,421.5714133126395,415.32142761775424,847.9,421.5714133126395,415.32142761775424,950.5,421.5714133126395,415.32142761775424,1055.9,421.5714133126395,415.32142761775424,1159.5,421.5714133126395,415.32142761775424,1263,421.5714133126395,415.32142761775424,1367.2,421.5714133126395,415.32142761775424,1468.3,580.3214133126395,570.3214276177542,1583.7,664.0714133126395,646.5714276177542,1688.7,664.0714133126395,646.5714276177542,1789.1,664.0714133126395,646.5714276177542,1890.5,691.5714133126395,671.5714276177542,2002.9,727.8214133126395,711.5714276177542,2108.5,741.5714133126395,732.8214276177542,2208.7,749.0714133126395,746.5714276177542,2311.3,749.0714133126395,746.5714276177542,2411.4,749.0714133126395,746.5714276177542,2512.4,749.0714133126395,746.5714276177542,2622.7,749.0714133126395,746.5714276177542,2723,749.0714133126395,746.5714276177542,2826.8,749.0714133126395,746.5714276177542,2928.8,749.0714133126395,746.5714276177542,3038.7,749.0714133126395,746.5714276177542,3140.8,749.0714133126395,746.5714276177542,3242.2,749.0714133126395,746.5714276177542,3346.9,749.0714133126395,746.5714276177542,3448.1,749.0714133126395,746.5714276177542,3549.6,749.0714133126395,746.5714276177542,3655.3,749.0714133126395,746.5714276177542,3764.4,749.0714133126395,746.5714276177542,3865.5,749.0714133126395,746.5714276177542,3974.1,749.0714133126395,746.5714276177542,4078.3,749.0714133126395,746.5714276177542,4182.5,749.0714133126395,746.5714276177542,4282.7,749.0714133126395,746.5714276177542,4383.9,749.0714133126395,746.5714276177542,4487.9,749.0714133126395,746.5714276177542,4596.8,749.0714133126395,746.5714276177542,4698.3,749.0714133126395,746.5714276177542,4800.1,749.0714133126395,746.5714276177542,4907]","[1645.7,1645.7,1000,0,645.7,""smooth"",""down"",""down"",""good_move"",4261.8,2611.8,2161.3,1650.2,450.3,""smooth"",""down"",""down"",""good_move"",15075.8,10810.8,2403.5,12309.6,362.7,""smooth"",""down"",""down"",""good_move"",18318.9,3242,2718.4,15076.9,523.6,""smooth"",""right"",""right"",""good_move"",21415.2,3094.2,2667,18321,427.2,""oops"",""right"",""left"",""bad_move"",24500.7,3084.1,2544.6,21416.6,539.5,""smooth"",""right"",""right"",""good_move"",27555.4,3053.5,2706.2,24501.9,347.3,""smooth"",""right"",""right"",""good_move"",29603,2046.6,1673.4,27556.4,373.2,""oops"",""right"",""right"",""good_move""]","","",""
"4972","","<div style=""width:500px;"">
  <p>What determined the result of this run?</p>
  </div>","96","html-slider-response","57","1541660","0.0-10.0-1.3","163","1","2025-07-02 10:22:26","80fe4187154257d5fb01684ea91b68b9","41.13.68.122","Mozilla/5.0 (Windows NT 10.0; Win64; x64) AppleWebKit/537.36 (KHTML, like Gecko) Chrome/137.0.0.0 Safari/537.36","WebKit","Chrome","137.0.0.0","Windows","10.0","https://app.prolific.com/","en-GB,en-US;q=0.9,en;q=0.8","67bfed4a6c0630c5f857b23e","683db6dfa200031b80f2a654","6865078c1d03954094d7646e","67bfed4a6c0630c5f857b23e","2025-07-02T10:48:22.615Z","","","","","","AttribQ","","","","","","","","","","","","","","","","","","","","","","","","","","","","","","","","","","","","","","50",""
"2272","","<div style=""width:500px;"">
  <p>How much control did you have over the ball?</p>
  </div>","85","html-slider-response","58","1543938","0.0-10.0-2.3","163","1","2025-07-02 10:22:26","80fe4187154257d5fb01684ea91b68b9","41.13.68.122","Mozilla/5.0 (Windows NT 10.0; Win64; x64) AppleWebKit/537.36 (KHTML, like Gecko) Chrome/137.0.0.0 Safari/537.36","WebKit","Chrome","137.0.0.0","Windows","10.0","https://app.prolific.com/","en-GB,en-US;q=0.9,en;q=0.8","67bfed4a6c0630c5f857b23e","683db6dfa200031b80f2a654","6865078c1d03954094d7646e","67bfed4a6c0630c5f857b23e","2025-07-02T10:48:24.893Z","","","","","","ControlQ","","","","","","","","","","","","","","","","","","","","","","","","","","","","","","","","","","","","","","50",""
"3155","","<div style=""width:500px;"">
  <p>How would you describe your current emotional state?</p>
  </div>","7","html-slider-response","59","1547097","0.0-10.0-3.3","163","1","2025-07-02 10:22:26","80fe4187154257d5fb01684ea91b68b9","41.13.68.122","Mozilla/5.0 (Windows NT 10.0; Win64; x64) AppleWebKit/537.36 (KHTML, like Gecko) Chrome/137.0.0.0 Safari/537.36","WebKit","Chrome","137.0.0.0","Windows","10.0","https://app.prolific.com/","en-GB,en-US;q=0.9,en;q=0.8","67bfed4a6c0630c5f857b23e","683db6dfa200031b80f2a654","6865078c1d03954094d7646e","67bfed4a6c0630c5f857b23e","2025-07-02T10:48:28.052Z","","","","","","StressQ","","","","","","","","","","","","","","","","","","","","","","","","","","","","","","","","","","","","","","50",""
"3175","","<div style=""width:500px;"">
  <p>What best describes how you currently feel?</p>
  </div>","100","html-slider-response","60","1550275","0.0-10.0-4.3","163","1","2025-07-02 10:22:26","80fe4187154257d5fb01684ea91b68b9","41.13.68.122","Mozilla/5.0 (Windows NT 10.0; Win64; x64) AppleWebKit/537.36 (KHTML, like Gecko) Chrome/137.0.0.0 Safari/537.36","WebKit","Chrome","137.0.0.0","Windows","10.0","https://app.prolific.com/","en-GB,en-US;q=0.9,en;q=0.8","67bfed4a6c0630c5f857b23e","683db6dfa200031b80f2a654","6865078c1d03954094d7646e","67bfed4a6c0630c5f857b23e","2025-07-02T10:48:31.230Z","","","","","","MotivationQ","","","","","","","","","","","","","","","","","","","","","","","","","","","","","","","","","","","","","","50",""
"","","","","ctl-task-cpt","61","1592438","0.0-10.0-0.4","163","1","2025-07-02 10:22:26","80fe4187154257d5fb01684ea91b68b9","41.13.68.122","Mozilla/5.0 (Windows NT 10.0; Win64; x64) AppleWebKit/537.36 (KHTML, like Gecko) Chrome/137.0.0.0 Safari/537.36","WebKit","Chrome","137.0.0.0","Windows","10.0","https://app.prolific.com/","en-GB,en-US;q=0.9,en;q=0.8","67bfed4a6c0630c5f857b23e","683db6dfa200031b80f2a654","6865078c1d03954094d7646e","67bfed4a6c0630c5f857b23e","2025-07-02T10:49:13.392Z","","","","","","","","","","","","","","","","win-only","2","g1:SE,g2:NW","0.6","5","0","1567912.1","1913.1","6922.6","39133.3","1","4","8","6","2","8","8","26","18","0.19696969696969696","1852.7","3000","1310","[""left"",""up""]","{""num_key_presses"":8,""num_perfect"":5,""num_errors"":0,""num_randdir"":3,""num_randdir_good_moves"":2,""num_whilered"":0,""num_whileblue"":0,""num_blue"":3,""num_good_moves"":7}","[412.8214133126395,411.57142761775424,0.6,412.8214133126395,411.57142761775424,102.2,412.8214133126395,411.57142761775424,208.2,412.8214133126395,411.57142761775424,317.7,412.8214133126395,411.57142761775424,430.1,412.8214133126395,411.57142761775424,530.8,412.8214133126395,411.57142761775424,635.9,412.8214133126395,411.57142761775424,743.1,412.8214133126395,411.57142761775424,848.5,412.8214133126395,411.57142761775424,948.9,412.8214133126395,411.57142761775424,1060.1,135.3214133126395,146.57142761775424,1165.6,135.3214133126395,146.57142761775424,1268.6,135.3214133126395,146.57142761775424,1375,135.3214133126395,146.57142761775424,1487.7,96.5714133126395,111.57142761775425,1598.6,89.0714133126395,100.32142761775425,1699.9,89.0714133126395,100.32142761775425,1808.9,89.0714133126395,100.32142761775425,1908.9,89.0714133126395,100.32142761775425,2019.4,89.0714133126395,100.32142761775425,2120.7,89.0714133126395,100.32142761775425,2221.6,89.0714133126395,100.32142761775425,2330.2,89.0714133126395,100.32142761775425,2431.6,89.0714133126395,100.32142761775425,2533.4,89.0714133126395,100.32142761775425,2638.1,89.0714133126395,100.32142761775425,2741.4,89.0714133126395,100.32142761775425,2842.5,89.0714133126395,100.32142761775425,2952.7,89.0714133126395,100.32142761775425,3059.3,89.0714133126395,100.32142761775425,3163.4,89.0714133126395,100.32142761775425,3264.9,89.0714133126395,100.32142761775425,3375.3,89.0714133126395,100.32142761775425,3483.7,89.0714133126395,100.32142761775425,3597.1,89.0714133126395,100.32142761775425,3699.3,89.0714133126395,100.32142761775425,3803,89.0714133126395,100.32142761775425,3909,89.0714133126395,100.32142761775425,4014.3,89.0714133126395,100.32142761775425,4118.2,89.0714133126395,100.32142761775425,4219.9,89.0714133126395,100.32142761775425,4324.2,89.0714133126395,100.32142761775425,4429.7,89.0714133126395,100.32142761775425,4537.3,89.0714133126395,100.32142761775425,4648.4,89.0714133126395,100.32142761775425,4748.4,89.0714133126395,100.32142761775425,4851.7,89.0714133126395,100.32142761775425,4962]","[4894,4894,2478.3,2012.6,403.1,""smooth"",""left"",""left"",""good_move"",7980.6,3084.4,2532.4,4896.2,552,""oops"",""up"",""left"",""good_move"",10523.6,2541.7,1991.5,7982,550.1,""oops"",""up"",""left"",""good_move"",17000.3,6475.5,2711,13897,392.3,""smooth"",""up"",""up"",""good_move"",20007.6,3004.8,2571.7,17002.8,433.1,""oops"",""up"",""right"",""bad_move"",22295.8,2286.7,1847.9,20009.1,438.8,""smooth"",""up"",""up"",""good_move"",28590,6292,2531.6,25688.6,369.8,""smooth"",""left"",""left"",""good_move"",31958.5,3367.6,2986.6,28591,380.9,""smooth"",""up"",""up"",""good_move""]","","",""
"34648","","<div style=""width:500px;"">
  <p>What determined the result of this run?</p>
  </div>","35","html-slider-response","62","1627090","0.0-10.0-1.4","163","1","2025-07-02 10:22:26","80fe4187154257d5fb01684ea91b68b9","41.13.68.122","Mozilla/5.0 (Windows NT 10.0; Win64; x64) AppleWebKit/537.36 (KHTML, like Gecko) Chrome/137.0.0.0 Safari/537.36","WebKit","Chrome","137.0.0.0","Windows","10.0","https://app.prolific.com/","en-GB,en-US;q=0.9,en;q=0.8","67bfed4a6c0630c5f857b23e","683db6dfa200031b80f2a654","6865078c1d03954094d7646e","67bfed4a6c0630c5f857b23e","2025-07-02T10:49:48.044Z","","","","","","AttribQ","","","","","","","","","","","","","","","","","","","","","","","","","","","","","","","","","","","","","","50",""
"15973","","<div style=""width:500px;"">
  <p>How much control did you have over the ball?</p>
  </div>","89","html-slider-response","63","1643066","0.0-10.0-2.4","163","1","2025-07-02 10:22:26","80fe4187154257d5fb01684ea91b68b9","41.13.68.122","Mozilla/5.0 (Windows NT 10.0; Win64; x64) AppleWebKit/537.36 (KHTML, like Gecko) Chrome/137.0.0.0 Safari/537.36","WebKit","Chrome","137.0.0.0","Windows","10.0","https://app.prolific.com/","en-GB,en-US;q=0.9,en;q=0.8","67bfed4a6c0630c5f857b23e","683db6dfa200031b80f2a654","6865078c1d03954094d7646e","67bfed4a6c0630c5f857b23e","2025-07-02T10:50:04.021Z","","","","","","ControlQ","","","","","","","","","","","","","","","","","","","","","","","","","","","","","","","","","","","","","","50",""
"5635","","<div style=""width:500px;"">
  <p>How would you describe your current emotional state?</p>
  </div>","6","html-slider-response","64","1648706","0.0-10.0-3.4","163","1","2025-07-02 10:22:26","80fe4187154257d5fb01684ea91b68b9","41.13.68.122","Mozilla/5.0 (Windows NT 10.0; Win64; x64) AppleWebKit/537.36 (KHTML, like Gecko) Chrome/137.0.0.0 Safari/537.36","WebKit","Chrome","137.0.0.0","Windows","10.0","https://app.prolific.com/","en-GB,en-US;q=0.9,en;q=0.8","67bfed4a6c0630c5f857b23e","683db6dfa200031b80f2a654","6865078c1d03954094d7646e","67bfed4a6c0630c5f857b23e","2025-07-02T10:50:09.661Z","","","","","","StressQ","","","","","","","","","","","","","","","","","","","","","","","","","","","","","","","","","","","","","","50",""
"4546","","<div style=""width:500px;"">
  <p>What best describes how you currently feel?</p>
  </div>","96","html-slider-response","65","1653257","0.0-10.0-4.4","163","1","2025-07-02 10:22:26","80fe4187154257d5fb01684ea91b68b9","41.13.68.122","Mozilla/5.0 (Windows NT 10.0; Win64; x64) AppleWebKit/537.36 (KHTML, like Gecko) Chrome/137.0.0.0 Safari/537.36","WebKit","Chrome","137.0.0.0","Windows","10.0","https://app.prolific.com/","en-GB,en-US;q=0.9,en;q=0.8","67bfed4a6c0630c5f857b23e","683db6dfa200031b80f2a654","6865078c1d03954094d7646e","67bfed4a6c0630c5f857b23e","2025-07-02T10:50:14.211Z","","","","","","MotivationQ","","","","","","","","","","","","","","","","","","","","","","","","","","","","","","","","","","","","","","50",""
"","","","","ctl-task-cpt","66","1790984","0.0-10.0-0.5","163","1","2025-07-02 10:22:26","80fe4187154257d5fb01684ea91b68b9","41.13.68.122","Mozilla/5.0 (Windows NT 10.0; Win64; x64) AppleWebKit/537.36 (KHTML, like Gecko) Chrome/137.0.0.0 Safari/537.36","WebKit","Chrome","137.0.0.0","Windows","10.0","https://app.prolific.com/","en-GB,en-US;q=0.9,en;q=0.8","67bfed4a6c0630c5f857b23e","683db6dfa200031b80f2a654","6865078c1d03954094d7646e","67bfed4a6c0630c5f857b23e","2025-07-02T10:52:31.938Z","","","","","","","","","","","","","","","","win-only","2","g1:SE,g2:NW","0.5","6","0","1670892.3","1701.3","6710.2","134679.6","1","4","4","6","2","4","1","27","26","0.20454545454545456","2625.9","3000","1565","[""left"",""up""]","{""num_key_presses"":21,""num_perfect"":9,""num_errors"":3,""num_randdir"":9,""num_randdir_good_moves"":3,""num_whilered"":0,""num_whileblue"":0,""num_blue"":4,""num_good_moves"":12}","[406.5714133126395,410.32142761775424,2,406.5714133126395,410.32142761775424,129.8,406.5714133126395,410.32142761775424,232.5,406.5714133126395,410.32142761775424,364.3,406.5714133126395,410.32142761775424,465.9,406.5714133126395,410.32142761775424,568.1,406.5714133126395,410.32142761775424,698.6,406.5714133126395,410.32142761775424,825.4,406.5714133126395,410.32142761775424,947.7,406.5714133126395,410.32142761775424,1049.4,406.5714133126395,410.32142761775424,1153.2,406.5714133126395,410.32142761775424,1257.9,406.5714133126395,410.32142761775424,1358,406.5714133126395,410.32142761775424,1486.2,406.5714133126395,410.32142761775424,1587.2,406.5714133126395,410.32142761775424,1720.6,406.5714133126395,410.32142761775424,1833.3,306.5714133126395,296.57142761775424,1952.9,166.5714133126395,97.82142761775425,2076.4,166.5714133126395,97.82142761775425,2199.6,120.3214133126395,87.82142761775425,2332.6,49.07141331263951,60.32142761775425,2436.8,49.07141331263951,60.32142761775425,2547.1,49.07141331263951,60.32142761775425,2685.9,49.07141331263951,60.32142761775425,2800.2,49.07141331263951,60.32142761775425,2925.3,49.07141331263951,60.32142761775425,3057.9,49.07141331263951,60.32142761775425,3193,49.07141331263951,60.32142761775425,3321.2,49.07141331263951,60.32142761775425,3448.2,49.07141331263951,60.32142761775425,3567.4,49.07141331263951,60.32142761775425,3698.9,49.07141331263951,60.32142761775425,3819.2,49.07141331263951,60.32142761775425,3937.4,49.07141331263951,60.32142761775425,4069,49.07141331263951,60.32142761775425,4194.5,49.07141331263951,60.32142761775425,4320.3,49.07141331263951,60.32142761775425,4451.1,49.07141331263951,60.32142761775425,4553.4,49.07141331263951,60.32142761775425,4678.9,49.07141331263951,60.32142761775425,4798.5,49.07141331263951,60.32142761775425,4923.2]","[8229.4,8229.4,2070.8,5675.5,483.1,""oops"",""up"",""right"",""bad_move"",19371.9,11141.4,2994,15906,471.9,""oops"",""left"",""left"",""good_move"",26645.2,7272.4,2825.5,19372.9,4446.8,""smooth"",""left"",""left"",""good_move"",34154,7508.1,2733.3,26645.9,4774.8,""oops"",""up"",""right"",""bad_move"",38117.2,3961.1,3493.9,34156.1,467.2,""smooth"",""up"",""up"",""good_move"",41795.2,3676.6,2867,38118.6,809.6,""error"",""-"",""-"",""no_move"",45646.7,3850.4,2297.5,42796.5,552.7,""oops"",""left"",""down"",""bad_move"",48751,3102.4,2165.8,45648.6,936.6,""oops"",""left"",""down"",""bad_move"",52577.5,3822.6,2402.2,48754.9,1420.4,""smooth"",""up"",""up"",""good_move"",60664.2,8085.5,2553.6,52578.7,5531.9,""smooth"",""up"",""up"",""good_move"",68877.3,8211,2269.5,60666.4,5941.5,""smooth"",""up"",""up"",""good_move"",76752.3,7873.8,2074.1,68878.5,5799.7,""oops"",""left"",""up"",""good_move"",84513.7,7760.5,2425.1,76753.2,5335.4,""smooth"",""left"",""left"",""good_move"",88800.8,4286.5,1385.5,84514.4,2901,""error"",""-"",""-"",""no_move"",90621.2,1818.6,2511,89839.7,-1729.5,""error"",""-"",""-"",""no_move"",95369.5,4747.4,2270.1,91634.5,1464.9,""smooth"",""left"",""left"",""good_move"",103788.9,8418.6,2526.5,95370.3,5892.1,""oops"",""left"",""down"",""bad_move"",108185.9,4396.3,2590.6,103789.6,1805.7,""oops"",""up"",""up"",""good_move"",116275.6,8088.6,2957.8,108187,5130.8,""oops"",""left"",""down"",""bad_move"",119056.1,2779.1,1987.4,116277,791.7,""smooth"",""up"",""up"",""good_move"",127204,8142.7,2948.8,119061.3,5193.9,""smooth"",""left"",""left"",""good_move""]","","",""
"6149","","<div style=""width:500px;"">
  <p>What determined the result of this run?</p>
  </div>","48","html-slider-response","67","1797139","0.0-10.0-1.5","163","1","2025-07-02 10:22:26","80fe4187154257d5fb01684ea91b68b9","41.13.68.122","Mozilla/5.0 (Windows NT 10.0; Win64; x64) AppleWebKit/537.36 (KHTML, like Gecko) Chrome/137.0.0.0 Safari/537.36","WebKit","Chrome","137.0.0.0","Windows","10.0","https://app.prolific.com/","en-GB,en-US;q=0.9,en;q=0.8","67bfed4a6c0630c5f857b23e","683db6dfa200031b80f2a654","6865078c1d03954094d7646e","67bfed4a6c0630c5f857b23e","2025-07-02T10:52:38.093Z","","","","","","AttribQ","","","","","","","","","","","","","","","","","","","","","","","","","","","","","","","","","","","","","","50",""
"3678","","<div style=""width:500px;"">
  <p>How much control did you have over the ball?</p>
  </div>","22","html-slider-response","68","1800824","0.0-10.0-2.5","163","1","2025-07-02 10:22:26","80fe4187154257d5fb01684ea91b68b9","41.13.68.122","Mozilla/5.0 (Windows NT 10.0; Win64; x64) AppleWebKit/537.36 (KHTML, like Gecko) Chrome/137.0.0.0 Safari/537.36","WebKit","Chrome","137.0.0.0","Windows","10.0","https://app.prolific.com/","en-GB,en-US;q=0.9,en;q=0.8","67bfed4a6c0630c5f857b23e","683db6dfa200031b80f2a654","6865078c1d03954094d7646e","67bfed4a6c0630c5f857b23e","2025-07-02T10:52:41.778Z","","","","","","ControlQ","","","","","","","","","","","","","","","","","","","","","","","","","","","","","","","","","","","","","","50",""
"4973","","<div style=""width:500px;"">
  <p>How would you describe your current emotional state?</p>
  </div>","4","html-slider-response","69","1805804","0.0-10.0-3.5","163","1","2025-07-02 10:22:26","80fe4187154257d5fb01684ea91b68b9","41.13.68.122","Mozilla/5.0 (Windows NT 10.0; Win64; x64) AppleWebKit/537.36 (KHTML, like Gecko) Chrome/137.0.0.0 Safari/537.36","WebKit","Chrome","137.0.0.0","Windows","10.0","https://app.prolific.com/","en-GB,en-US;q=0.9,en;q=0.8","67bfed4a6c0630c5f857b23e","683db6dfa200031b80f2a654","6865078c1d03954094d7646e","67bfed4a6c0630c5f857b23e","2025-07-02T10:52:46.758Z","","","","","","StressQ","","","","","","","","","","","","","","","","","","","","","","","","","","","","","","","","","","","","","","50",""
"5195","","<div style=""width:500px;"">
  <p>What best describes how you currently feel?</p>
  </div>","98","html-slider-response","70","1811006","0.0-10.0-4.5","163","1","2025-07-02 10:22:26","80fe4187154257d5fb01684ea91b68b9","41.13.68.122","Mozilla/5.0 (Windows NT 10.0; Win64; x64) AppleWebKit/537.36 (KHTML, like Gecko) Chrome/137.0.0.0 Safari/537.36","WebKit","Chrome","137.0.0.0","Windows","10.0","https://app.prolific.com/","en-GB,en-US;q=0.9,en;q=0.8","67bfed4a6c0630c5f857b23e","683db6dfa200031b80f2a654","6865078c1d03954094d7646e","67bfed4a6c0630c5f857b23e","2025-07-02T10:52:51.961Z","","","","","","MotivationQ","","","","","","","","","","","","","","","","","","","","","","","","","","","","","","","","","","","","","","50",""
"","","","","ctl-task-cpt","71","1929820","0.0-10.0-0.6","163","1","2025-07-02 10:22:26","80fe4187154257d5fb01684ea91b68b9","41.13.68.122","Mozilla/5.0 (Windows NT 10.0; Win64; x64) AppleWebKit/537.36 (KHTML, like Gecko) Chrome/137.0.0.0 Safari/537.36","WebKit","Chrome","137.0.0.0","Windows","10.0","https://app.prolific.com/","en-GB,en-US;q=0.9,en;q=0.8","67bfed4a6c0630c5f857b23e","683db6dfa200031b80f2a654","6865078c1d03954094d7646e","67bfed4a6c0630c5f857b23e","2025-07-02T10:54:50.775Z","","","","","","","","","","","","","","","","win-only","2","g1:SE,g2:NW","0.4","7","0","1828641.9","1644.1","6660.4","115773.4","1","4","8","6","2","-8","-9","18","27","0.13636363636363635","2247.4","3000","-480","[""left"",""up""]","{""num_key_presses"":24,""num_perfect"":10,""num_errors"":1,""num_randdir"":13,""num_randdir_good_moves"":4,""num_whilered"":0,""num_whileblue"":0,""num_blue"":4,""num_good_moves"":14}","[411.5714133126395,422.82142761775424,0.7,411.5714133126395,422.82142761775424,117.2,411.5714133126395,422.82142761775424,226.5,411.5714133126395,422.82142761775424,331.5,411.5714133126395,422.82142761775424,432.4,411.5714133126395,422.82142761775424,542.4,411.5714133126395,422.82142761775424,643.3,411.5714133126395,422.82142761775424,754.4,411.5714133126395,422.82142761775424,870.4,411.5714133126395,422.82142761775424,980.4,411.5714133126395,422.82142761775424,1101.5,411.5714133126395,422.82142761775424,1217,411.5714133126395,422.82142761775424,1329.6,241.5714133126395,205.32142761775424,1430.7,206.5714133126395,170.32142761775424,1542.3,206.5714133126395,170.32142761775424,1652,206.5714133126395,170.32142761775424,1764.7,130.3214133126395,116.57142761775425,1888.9,106.5714133126395,102.82142761775425,2001.3,106.5714133126395,102.82142761775425,2108.7,106.5714133126395,102.82142761775425,2232.2,106.5714133126395,102.82142761775425,2340,106.5714133126395,102.82142761775425,2441.6,106.5714133126395,102.82142761775425,2550.4,106.5714133126395,102.82142761775425,2660.6,106.5714133126395,102.82142761775425,2766.4,106.5714133126395,102.82142761775425,2869.6,106.5714133126395,102.82142761775425,2988.4,106.5714133126395,102.82142761775425,3090.2,106.5714133126395,102.82142761775425,3209.8,106.5714133126395,102.82142761775425,3311.7,106.5714133126395,102.82142761775425,3420.9,106.5714133126395,102.82142761775425,3539.9,106.5714133126395,102.82142761775425,3662.3,106.5714133126395,102.82142761775425,3765.9,106.5714133126395,102.82142761775425,3870.2,106.5714133126395,102.82142761775425,3989.1,106.5714133126395,102.82142761775425,4089.6,106.5714133126395,102.82142761775425,4196.8,106.5714133126395,102.82142761775425,4300.7,106.5714133126395,102.82142761775425,4402.9,106.5714133126395,102.82142761775425,4506.5,106.5714133126395,102.82142761775425,4627.5,106.5714133126395,102.82142761775425,4727.6,106.5714133126395,102.82142761775425,4828.9,106.5714133126395,102.82142761775425,4931.8]","[2082,2082,1000,0,1082,""oops"",""left"",""right"",""bad_move"",5383.5,3300.3,2841.5,2083.2,458.8,""smooth"",""up"",""up"",""good_move"",9463.6,4077.9,2657.7,5385.7,1420.2,""oops"",""left"",""left"",""good_move"",13989,4522.4,3209.4,9466.6,1313,""smooth"",""up"",""up"",""good_move"",17604.2,3613.9,3152.5,13990.3,461.4,""oops"",""left"",""right"",""bad_move"",21097.1,3489.2,2726.2,17607.9,763,""smooth"",""up"",""up"",""good_move"",23935.9,2835.2,2481.6,21100.7,353.6,""oops"",""left"",""left"",""good_move"",26788.1,2847.2,2449.1,23940.9,398.1,""oops"",""left"",""right"",""bad_move"",29852.4,3061.5,2616.6,26791,444.9,""smooth"",""left"",""left"",""good_move"",36636.9,6782.9,2507.8,33666.9,462.2,""oops"",""left"",""down"",""bad_move"",39403.8,2765.8,2032.4,36638,733.4,""oops"",""left"",""right"",""bad_move"",42660.4,3255.4,2723.9,39405.1,531.4,""oops"",""left"",""down"",""bad_move"",46416,3753.5,2481.8,42662.5,1271.7,""oops"",""left"",""up"",""good_move"",50545.3,4127.7,2729.8,46417.6,1397.9,""smooth"",""left"",""left"",""good_move"",54703.5,4157.1,2360.9,50546.5,1796.1,""smooth"",""left"",""left"",""good_move"",59481.3,4776.6,3026.7,54704.7,1749.9,""smooth"",""left"",""left"",""good_move"",64503.9,5021.4,2620.5,59482.5,2400.9,""oops"",""up"",""right"",""bad_move"",70451.9,5945.5,2090.9,67904.2,456.8,""oops"",""left"",""left"",""good_move"",75845.6,5392.4,2271.4,70453.3,3120.9,""oops"",""left"",""down"",""bad_move"",79571.6,3725.3,2227.9,75846.4,1497.3,""smooth"",""up"",""up"",""good_move"",85427.7,5854.8,3125.7,79572.9,2729.1,""smooth"",""up"",""up"",""good_move"",91122.8,5694,2356.4,85428.8,3337.6,""oops"",""left"",""down"",""bad_move"",95061.9,3938.3,3011.7,94652.5,-2602.3,""error"",""-"",""-"",""no_move"",99615.3,4552.4,2997,96072.4,545.9,""smooth"",""left"",""left"",""good_move""]","","",""
"31670","","<div style=""width:500px;"">
  <p>What determined the result of this run?</p>
  </div>","3","html-slider-response","72","1961494","0.0-10.0-1.6","163","1","2025-07-02 10:22:26","80fe4187154257d5fb01684ea91b68b9","41.13.68.122","Mozilla/5.0 (Windows NT 10.0; Win64; x64) AppleWebKit/537.36 (KHTML, like Gecko) Chrome/137.0.0.0 Safari/537.36","WebKit","Chrome","137.0.0.0","Windows","10.0","https://app.prolific.com/","en-GB,en-US;q=0.9,en;q=0.8","67bfed4a6c0630c5f857b23e","683db6dfa200031b80f2a654","6865078c1d03954094d7646e","67bfed4a6c0630c5f857b23e","2025-07-02T10:55:22.449Z","","","","","","AttribQ","","","","","","","","","","","","","","","","","","","","","","","","","","","","","","","","","","","","","","50",""
"2759","","<div style=""width:500px;"">
  <p>How much control did you have over the ball?</p>
  </div>","1","html-slider-response","73","1964260","0.0-10.0-2.6","163","1","2025-07-02 10:22:26","80fe4187154257d5fb01684ea91b68b9","41.13.68.122","Mozilla/5.0 (Windows NT 10.0; Win64; x64) AppleWebKit/537.36 (KHTML, like Gecko) Chrome/137.0.0.0 Safari/537.36","WebKit","Chrome","137.0.0.0","Windows","10.0","https://app.prolific.com/","en-GB,en-US;q=0.9,en;q=0.8","67bfed4a6c0630c5f857b23e","683db6dfa200031b80f2a654","6865078c1d03954094d7646e","67bfed4a6c0630c5f857b23e","2025-07-02T10:55:25.214Z","","","","","","ControlQ","","","","","","","","","","","","","","","","","","","","","","","","","","","","","","","","","","","","","","50",""
"2756","","<div style=""width:500px;"">
  <p>How would you describe your current emotional state?</p>
  </div>","12","html-slider-response","74","1967022","0.0-10.0-3.6","163","1","2025-07-02 10:22:26","80fe4187154257d5fb01684ea91b68b9","41.13.68.122","Mozilla/5.0 (Windows NT 10.0; Win64; x64) AppleWebKit/537.36 (KHTML, like Gecko) Chrome/137.0.0.0 Safari/537.36","WebKit","Chrome","137.0.0.0","Windows","10.0","https://app.prolific.com/","en-GB,en-US;q=0.9,en;q=0.8","67bfed4a6c0630c5f857b23e","683db6dfa200031b80f2a654","6865078c1d03954094d7646e","67bfed4a6c0630c5f857b23e","2025-07-02T10:55:27.977Z","","","","","","StressQ","","","","","","","","","","","","","","","","","","","","","","","","","","","","","","","","","","","","","","50",""
"4766","","<div style=""width:500px;"">
  <p>What best describes how you currently feel?</p>
  </div>","94","html-slider-response","75","1971794","0.0-10.0-4.6","163","1","2025-07-02 10:22:26","80fe4187154257d5fb01684ea91b68b9","41.13.68.122","Mozilla/5.0 (Windows NT 10.0; Win64; x64) AppleWebKit/537.36 (KHTML, like Gecko) Chrome/137.0.0.0 Safari/537.36","WebKit","Chrome","137.0.0.0","Windows","10.0","https://app.prolific.com/","en-GB,en-US;q=0.9,en;q=0.8","67bfed4a6c0630c5f857b23e","683db6dfa200031b80f2a654","6865078c1d03954094d7646e","67bfed4a6c0630c5f857b23e","2025-07-02T10:55:32.748Z","","","","","","MotivationQ","","","","","","","","","","","","","","","","","","","","","","","","","","","","","","","","","","","","","","50",""
"","","","","ctl-task-cpt","76","2147423","0.0-10.0-0.7","163","1","2025-07-02 10:22:26","80fe4187154257d5fb01684ea91b68b9","41.13.68.122","Mozilla/5.0 (Windows NT 10.0; Win64; x64) AppleWebKit/537.36 (KHTML, like Gecko) Chrome/137.0.0.0 Safari/537.36","WebKit","Chrome","137.0.0.0","Windows","10.0","https://app.prolific.com/","en-GB,en-US;q=0.9,en;q=0.8","67bfed4a6c0630c5f857b23e","683db6dfa200031b80f2a654","6865078c1d03954094d7646e","67bfed4a6c0630c5f857b23e","2025-07-02T10:58:28.377Z","","","","","","","","","","","","","","","","win-only","1","g1:NE,g2:SW","0.3","8","0","1989432.8","2340.3","7399.3","172545.8","1","4","4","6","2","4","4","22","18","0.16666666666666666","3955.1","3000","705","[""down"",""left""]","{""num_key_presses"":20,""num_perfect"":6,""num_errors"":0,""num_randdir"":14,""num_randdir_good_moves"":7,""num_whilered"":0,""num_whileblue"":0,""num_blue"":3,""num_good_moves"":13}","[421.5714133126395,414.07142761775424,1.3,421.5714133126395,414.07142761775424,163.3,421.5714133126395,414.07142761775424,296.1,421.5714133126395,414.07142761775424,413.3,421.5714133126395,414.07142761775424,530.4,421.5714133126395,414.07142761775424,644.2,421.5714133126395,414.07142761775424,753.1,421.5714133126395,414.07142761775424,859.8,421.5714133126395,414.07142761775424,966.7,421.5714133126395,414.07142761775424,1074,421.5714133126395,414.07142761775424,1182.6,421.5714133126395,414.07142761775424,1286.2,421.5714133126395,414.07142761775424,1395.2,421.5714133126395,414.07142761775424,1503.9,421.5714133126395,414.07142761775424,1609,421.5714133126395,414.07142761775424,1714.2,421.5714133126395,414.07142761775424,1815.1,421.5714133126395,414.07142761775424,1920.7,421.5714133126395,414.07142761775424,2024.2,421.5714133126395,414.07142761775424,2134.1,421.5714133126395,414.07142761775424,2241.3,421.5714133126395,414.07142761775424,2352.8,421.5714133126395,414.07142761775424,2458.2,421.5714133126395,414.07142761775424,2563.7,421.5714133126395,414.07142761775424,2667.4,421.5714133126395,414.07142761775424,2775.8,421.5714133126395,414.07142761775424,2882.5,421.5714133126395,414.07142761775424,2987.4,421.5714133126395,414.07142761775424,3102.6,421.5714133126395,414.07142761775424,3213.4,292.8214133126395,500.32142761775424,3345.6,134.0714133126395,656.5714276177542,3491.2,81.5714133126395,719.0714276177542,3634.4,65.3214133126395,755.3214276177542,3781.8,65.3214133126395,755.3214276177542,3899.7,65.3214133126395,755.3214276177542,4035.9,65.3214133126395,755.3214276177542,4150.5,65.3214133126395,755.3214276177542,4270.8,65.3214133126395,755.3214276177542,4383.7,65.3214133126395,755.3214276177542,4499.9,65.3214133126395,755.3214276177542,4613.6,65.3214133126395,755.3214276177542,4719.6,65.3214133126395,755.3214276177542,4830.1,65.3214133126395,755.3214276177542,4942.3]","[6626,6626,1000,0.1,5625.9,""oops"",""left"",""left"",""good_move"",16436.8,9809.7,2630.6,6627.1,7179.1,""oops"",""down"",""right"",""bad_move"",19676.4,3238.4,2497.7,16438,740.7,""oops"",""down"",""left"",""good_move"",30165.9,10488.1,2983.8,19677.8,7504.3,""smooth"",""down"",""down"",""good_move"",36409.6,6242.8,2781,30166.8,3461.8,""oops"",""down"",""up"",""bad_move"",49881.9,13471.1,2021.9,47107.1,752.9,""smooth"",""left"",""left"",""good_move"",60512.4,10628.7,1615.4,49883.7,9013.3,""oops"",""down"",""right"",""bad_move"",67561.8,7048.5,2364.1,64587.7,610,""oops"",""left"",""down"",""good_move"",71172.7,3610.1,2730.4,67562.6,879.7,""smooth"",""left"",""left"",""good_move"",81786.3,10612.1,2845,71174.2,7767.1,""oops"",""down"",""left"",""good_move"",92472,10684.7,1555.9,81787.3,9128.8,""oops"",""down"",""right"",""bad_move"",96664.6,4191.8,3226.4,92472.8,965.4,""oops"",""down"",""up"",""bad_move"",107672.5,11006.5,2528.9,96666.1,8477.5,""oops"",""left"",""right"",""bad_move"",112010.2,4337,2963.4,107673.2,1373.6,""oops"",""down"",""right"",""bad_move"",115782,3770.5,2813.5,112011.6,957,""oops"",""down"",""left"",""good_move"",126599.4,10816.1,2774.1,115783.3,8042,""smooth"",""left"",""left"",""good_move"",141814.3,15214.2,2551.2,138701.4,561.7,""smooth"",""down"",""down"",""good_move"",145462.9,3647.6,2245,141815.3,1402.6,""oops"",""down"",""down"",""good_move"",148783.3,3319.1,2176.2,145464.2,1142.9,""oops"",""down"",""left"",""good_move"",162341.4,13556.7,2793.1,148784.8,10763.5,""smooth"",""down"",""down"",""good_move""]","","",""
"18410","","<div style=""width:500px;"">
  <p>What determined the result of this run?</p>
  </div>","56","html-slider-response","77","2165840","0.0-10.0-1.7","163","1","2025-07-02 10:22:26","80fe4187154257d5fb01684ea91b68b9","41.13.68.122","Mozilla/5.0 (Windows NT 10.0; Win64; x64) AppleWebKit/537.36 (KHTML, like Gecko) Chrome/137.0.0.0 Safari/537.36","WebKit","Chrome","137.0.0.0","Windows","10.0","https://app.prolific.com/","en-GB,en-US;q=0.9,en;q=0.8","67bfed4a6c0630c5f857b23e","683db6dfa200031b80f2a654","6865078c1d03954094d7646e","67bfed4a6c0630c5f857b23e","2025-07-02T10:58:46.794Z","","","","","","AttribQ","","","","","","","","","","","","","","","","","","","","","","","","","","","","","","","","","","","","","","50",""
"3853","","<div style=""width:500px;"">
  <p>How much control did you have over the ball?</p>
  </div>","56","html-slider-response","78","2169704","0.0-10.0-2.7","163","1","2025-07-02 10:22:26","80fe4187154257d5fb01684ea91b68b9","41.13.68.122","Mozilla/5.0 (Windows NT 10.0; Win64; x64) AppleWebKit/537.36 (KHTML, like Gecko) Chrome/137.0.0.0 Safari/537.36","WebKit","Chrome","137.0.0.0","Windows","10.0","https://app.prolific.com/","en-GB,en-US;q=0.9,en;q=0.8","67bfed4a6c0630c5f857b23e","683db6dfa200031b80f2a654","6865078c1d03954094d7646e","67bfed4a6c0630c5f857b23e","2025-07-02T10:58:50.658Z","","","","","","ControlQ","","","","","","","","","","","","","","","","","","","","","","","","","","","","","","","","","","","","","","50",""
"4699","","<div style=""width:500px;"">
  <p>How would you describe your current emotional state?</p>
  </div>","8","html-slider-response","79","2174414","0.0-10.0-3.7","163","1","2025-07-02 10:22:26","80fe4187154257d5fb01684ea91b68b9","41.13.68.122","Mozilla/5.0 (Windows NT 10.0; Win64; x64) AppleWebKit/537.36 (KHTML, like Gecko) Chrome/137.0.0.0 Safari/537.36","WebKit","Chrome","137.0.0.0","Windows","10.0","https://app.prolific.com/","en-GB,en-US;q=0.9,en;q=0.8","67bfed4a6c0630c5f857b23e","683db6dfa200031b80f2a654","6865078c1d03954094d7646e","67bfed4a6c0630c5f857b23e","2025-07-02T10:58:55.368Z","","","","","","StressQ","","","","","","","","","","","","","","","","","","","","","","","","","","","","","","","","","","","","","","50",""
"4981","","<div style=""width:500px;"">
  <p>What best describes how you currently feel?</p>
  </div>","95","html-slider-response","80","2179396","0.0-10.0-4.7","163","1","2025-07-02 10:22:26","80fe4187154257d5fb01684ea91b68b9","41.13.68.122","Mozilla/5.0 (Windows NT 10.0; Win64; x64) AppleWebKit/537.36 (KHTML, like Gecko) Chrome/137.0.0.0 Safari/537.36","WebKit","Chrome","137.0.0.0","Windows","10.0","https://app.prolific.com/","en-GB,en-US;q=0.9,en;q=0.8","67bfed4a6c0630c5f857b23e","683db6dfa200031b80f2a654","6865078c1d03954094d7646e","67bfed4a6c0630c5f857b23e","2025-07-02T10:59:00.351Z","","","","","","MotivationQ","","","","","","","","","","","","","","","","","","","","","","","","","","","","","","","","","","","","","","50",""
"","","","","ctl-task-cpt","81","2229006","0.0-10.0-0.8","163","1","2025-07-02 10:22:26","80fe4187154257d5fb01684ea91b68b9","41.13.68.122","Mozilla/5.0 (Windows NT 10.0; Win64; x64) AppleWebKit/537.36 (KHTML, like Gecko) Chrome/137.0.0.0 Safari/537.36","WebKit","Chrome","137.0.0.0","Windows","10.0","https://app.prolific.com/","en-GB,en-US;q=0.9,en;q=0.8","67bfed4a6c0630c5f857b23e","683db6dfa200031b80f2a654","6865078c1d03954094d7646e","67bfed4a6c0630c5f857b23e","2025-07-02T10:59:49.960Z","","","","","","","","","","","","","","","","win-only","0","g1:NW,g2:SE","0.4","9","0","2197030.8","4455.6","9467.9","46579.6","1","4","8","6","2","8","7","29","22","0.2196969696969697","2582","3000","1905","[""down"",""right""]","{""num_key_presses"":9,""num_perfect"":3,""num_errors"":1,""num_randdir"":5,""num_randdir_good_moves"":4,""num_whilered"":0,""num_whileblue"":0,""num_blue"":2,""num_good_moves"":7}","[419.0714133126395,411.57142761775424,0.8,419.0714133126395,411.57142761775424,102.3,419.0714133126395,411.57142761775424,226,419.0714133126395,411.57142761775424,332.9,419.0714133126395,411.57142761775424,435.3,419.0714133126395,411.57142761775424,545,419.0714133126395,411.57142761775424,649.3,419.0714133126395,411.57142761775424,750,419.0714133126395,411.57142761775424,855.9,419.0714133126395,411.57142761775424,962.7,419.0714133126395,411.57142761775424,1067.1,419.0714133126395,411.57142761775424,1176,537.8214133126395,542.8214276177542,1280.6,571.5714133126395,574.0714276177542,1400.8,571.5714133126395,574.0714276177542,1511,571.5714133126395,574.0714276177542,1629.9,720.3214133126395,701.5714276177542,1750.9,741.5714133126395,735.3214276177542,1862.7,741.5714133126395,735.3214276177542,1963.8,741.5714133126395,735.3214276177542,2069.3,741.5714133126395,735.3214276177542,2176,741.5714133126395,735.3214276177542,2286.3,741.5714133126395,735.3214276177542,2397.7,741.5714133126395,735.3214276177542,2517.7,741.5714133126395,735.3214276177542,2626.2,741.5714133126395,735.3214276177542,2742.2,741.5714133126395,735.3214276177542,2850.3,741.5714133126395,735.3214276177542,2969.9,741.5714133126395,735.3214276177542,3077.2,741.5714133126395,735.3214276177542,3177.8,741.5714133126395,735.3214276177542,3279,741.5714133126395,735.3214276177542,3379.5,741.5714133126395,735.3214276177542,3486.7,741.5714133126395,735.3214276177542,3609.3,741.5714133126395,735.3214276177542,3712.6,741.5714133126395,735.3214276177542,3834.2,741.5714133126395,735.3214276177542,3946.6,741.5714133126395,735.3214276177542,4050.4,741.5714133126395,735.3214276177542,4158.3,741.5714133126395,735.3214276177542,4261.1,741.5714133126395,735.3214276177542,4379.1,741.5714133126395,735.3214276177542,4480.6,741.5714133126395,735.3214276177542,4593.5,741.5714133126395,735.3214276177542,4699.1,741.5714133126395,735.3214276177542,4807.9,741.5714133126395,735.3214276177542,4910.6]","[987.8,987.8,1000,0.2,-12.4,""error"",""-"",""-"",""no_move"",5809.8,4816.7,3223.2,2007.2,579.5,""smooth"",""down"",""down"",""good_move"",8656.5,2841.4,2368.6,5815.1,472.8,""smooth"",""right"",""right"",""good_move"",15559.3,6892.3,2582.2,12512.9,464.2,""smooth"",""down"",""down"",""good_move"",22883.1,7322.3,2863.2,19657,362.9,""oops"",""right"",""right"",""good_move"",26932.5,4048.2,2503,22884.3,1545.2,""oops"",""down"",""left"",""bad_move"",30334.7,3400.6,2238.4,26934.2,1162.2,""oops"",""down"",""down"",""good_move"",33609.3,3271.6,2795.9,30337.9,476.7,""oops"",""right"",""right"",""good_move"",36694.7,3080.1,2667.4,33614.6,412.7,""oops"",""right"",""right"",""good_move""]","","",""
"3477","","<div style=""width:500px;"">
  <p>What determined the result of this run?</p>
  </div>","100","html-slider-response","82","2232486","0.0-10.0-1.8","163","1","2025-07-02 10:22:26","80fe4187154257d5fb01684ea91b68b9","41.13.68.122","Mozilla/5.0 (Windows NT 10.0; Win64; x64) AppleWebKit/537.36 (KHTML, like Gecko) Chrome/137.0.0.0 Safari/537.36","WebKit","Chrome","137.0.0.0","Windows","10.0","https://app.prolific.com/","en-GB,en-US;q=0.9,en;q=0.8","67bfed4a6c0630c5f857b23e","683db6dfa200031b80f2a654","6865078c1d03954094d7646e","67bfed4a6c0630c5f857b23e","2025-07-02T10:59:53.440Z","","","","","","AttribQ","","","","","","","","","","","","","","","","","","","","","","","","","","","","","","","","","","","","","","50",""
"3299","","<div style=""width:500px;"">
  <p>How much control did you have over the ball?</p>
  </div>","92","html-slider-response","83","2235788","0.0-10.0-2.8","163","1","2025-07-02 10:22:26","80fe4187154257d5fb01684ea91b68b9","41.13.68.122","Mozilla/5.0 (Windows NT 10.0; Win64; x64) AppleWebKit/537.36 (KHTML, like Gecko) Chrome/137.0.0.0 Safari/537.36","WebKit","Chrome","137.0.0.0","Windows","10.0","https://app.prolific.com/","en-GB,en-US;q=0.9,en;q=0.8","67bfed4a6c0630c5f857b23e","683db6dfa200031b80f2a654","6865078c1d03954094d7646e","67bfed4a6c0630c5f857b23e","2025-07-02T10:59:56.742Z","","","","","","ControlQ","","","","","","","","","","","","","","","","","","","","","","","","","","","","","","","","","","","","","","50",""
"3234","","<div style=""width:500px;"">
  <p>How would you describe your current emotional state?</p>
  </div>","6","html-slider-response","84","2239027","0.0-10.0-3.8","163","1","2025-07-02 10:22:26","80fe4187154257d5fb01684ea91b68b9","41.13.68.122","Mozilla/5.0 (Windows NT 10.0; Win64; x64) AppleWebKit/537.36 (KHTML, like Gecko) Chrome/137.0.0.0 Safari/537.36","WebKit","Chrome","137.0.0.0","Windows","10.0","https://app.prolific.com/","en-GB,en-US;q=0.9,en;q=0.8","67bfed4a6c0630c5f857b23e","683db6dfa200031b80f2a654","6865078c1d03954094d7646e","67bfed4a6c0630c5f857b23e","2025-07-02T10:59:59.981Z","","","","","","StressQ","","","","","","","","","","","","","","","","","","","","","","","","","","","","","","","","","","","","","","50",""
"3750","","<div style=""width:500px;"">
  <p>What best describes how you currently feel?</p>
