"rt","response_timestamp","stimulus","response","trial_type","trial_index","time_elapsed","internal_node_id","run_id","condition","recorded_at","source_code_version","ip","user_agent","device","browser","browser_version","platform","platform_version","referer","accept_language","PROLIFIC_PID","STUDY_ID","SESSION_ID","prolific_id","realtime","view_history","question_order","consent","success","question_id","eventType","responses","item_order","radio_event_ids","radio_event_times","key_event_times","mouse_event_times","straightlining","zigzagging","honeypot","which_type","canvas_config","goals_layout","control_level","trial_number","tutorial_trial_number","trial_start_time","phase1_start_time","phase2_start_time","phase3_start_time","goal_1_value","goal_1_distance","goal_2_value","goal_2_distance","goal_selected","outcome","outcome_total","participant_final_score","participant_initial_score","participant_final_score_prop","goal_choice_rt","allocated_time","allocated_time_remaining","goal_direction","counts","mouse_movements","key_presses","correct","slider_start"
"8769","1751452190496","<p style='font-size:40px;line-height:1.25'><strong>Welcome to the experiment!</strong></p><p style='font-size:1.1em;line-height:1.25'>Thank you for your interest in our experiment! Before you begin, it is important that we obtain your informed consent to participate in the study.</p><p style='font-size:1.1em;line-height:1.25'>On the next screen will be an <strong>information sheet</strong> for you to read. To participate in the study we need you to read this information sheet and the following consent form carefully. If you agree with all the statements, please click the <strong>I agree</strong> button.</p><p style='font-size:1.1em;line-height:1.25'>Press <strong>Next</strong> to read the information sheet.</p>","0","custom-html-button-response","0","8771","0.0-0.0","199","1","2025-07-02 10:29:39","80fe4187154257d5fb01684ea91b68b9","41.13.84.116","Mozilla/5.0 (Macintosh; Intel Mac OS X 10_15_7) AppleWebKit/537.36 (KHTML, like Gecko) Chrome/136.0.0.0 Safari/537.36","Macintosh","Chrome","136.0.0.0","OS X","10_15_7","https://app.prolific.com/","en-GB,en-US;q=0.9,en;q=0.8","67d6aaa962783013102482a0","683db6dfa200031b80f2a654","686507848b10cf9f6d70fe23","67d6aaa962783013102482a0","2025-07-02T10:29:50.497Z","","","","","","","","","","","","","","","","","","","","","","","","","","","","","","","","","","","","","","","","","","","",""
"10089","","","","instructions","1","18863","0.0-1.0","199","1","2025-07-02 10:29:39","80fe4187154257d5fb01684ea91b68b9","41.13.84.116","Mozilla/5.0 (Macintosh; Intel Mac OS X 10_15_7) AppleWebKit/537.36 (KHTML, like Gecko) Chrome/136.0.0.0 Safari/537.36","Macintosh","Chrome","136.0.0.0","OS X","10_15_7","https://app.prolific.com/","en-GB,en-US;q=0.9,en;q=0.8","67d6aaa962783013102482a0","683db6dfa200031b80f2a654","686507848b10cf9f6d70fe23","67d6aaa962783013102482a0","","[{""page_index"":0,""viewing_time"":8105},{""page_index"":1,""viewing_time"":1983}]","","","","","","","","","","","","","","","","","","","","","","","","","","","","","","","","","","","","","","","","","","",""
"9041","","","{""Q0"":"""",""Q1"":"""",""Q2"":"""",""Q3"":"""",""Q4"":"""",""Q5"":"""",""Q6"":""I agree""}","survey-multi-choice","2","27907","0.0-2.0","199","1","2025-07-02 10:29:39","80fe4187154257d5fb01684ea91b68b9","41.13.84.116","Mozilla/5.0 (Macintosh; Intel Mac OS X 10_15_7) AppleWebKit/537.36 (KHTML, like Gecko) Chrome/136.0.0.0 Safari/537.36","Macintosh","Chrome","136.0.0.0","OS X","10_15_7","https://app.prolific.com/","en-GB,en-US;q=0.9,en;q=0.8","67d6aaa962783013102482a0","683db6dfa200031b80f2a654","686507848b10cf9f6d70fe23","67d6aaa962783013102482a0","","","[0,1,2,3,4,5,6]","true","","","","","","","","","","","","","","","","","","","","","","","","","","","","","","","","","","","","","","","","",""
"13500","","","","fullscreen","3","42439","0.0-4.0","199","1","2025-07-02 10:29:39","80fe4187154257d5fb01684ea91b68b9","41.13.84.116","Mozilla/5.0 (Macintosh; Intel Mac OS X 10_15_7) AppleWebKit/537.36 (KHTML, like Gecko) Chrome/136.0.0.0 Safari/537.36","Macintosh","Chrome","136.0.0.0","OS X","10_15_7","https://app.prolific.com/","en-GB,en-US;q=0.9,en;q=0.8","67d6aaa962783013102482a0","683db6dfa200031b80f2a654","686507848b10cf9f6d70fe23","67d6aaa962783013102482a0","","","","","true","","","","","","","","","","","","","","","","","","","","","","","","","","","","","","","","","","","","","","","",""
"4325","1751452228503"," <p style='font-size:1.1em;line-height:1.25'>Thank you for completing the consent form and closing all other tabs.</p><p style='font-size:1.1em;line-height:1.25'>We will now invite you to fill in some demographic information and questionnaires, before starting the game.<br>This will take about 5 minutes.<br></p><p style='font-size:1.1em;line-height:1.25'>Press the <strong>Next</strong> button to continue.</p>","0","custom-html-button-response","4","46777","0.0-5.0","199","1","2025-07-02 10:29:39","80fe4187154257d5fb01684ea91b68b9","41.13.84.116","Mozilla/5.0 (Macintosh; Intel Mac OS X 10_15_7) AppleWebKit/537.36 (KHTML, like Gecko) Chrome/136.0.0.0 Safari/537.36","Macintosh","Chrome","136.0.0.0","OS X","10_15_7","https://app.prolific.com/","en-GB,en-US;q=0.9,en;q=0.8","67d6aaa962783013102482a0","683db6dfa200031b80f2a654","686507848b10cf9f6d70fe23","67d6aaa962783013102482a0","2025-07-02T10:30:28.503Z","","","","","","","","","","","","","","","","","","","","","","","","","","","","","","","","","","","","","","","","","","","",""
"7890","","","{""age"":""23""}","survey-text","5","54670","0.0-6.0-0.0","199","1","2025-07-02 10:29:39","80fe4187154257d5fb01684ea91b68b9","41.13.84.116","Mozilla/5.0 (Macintosh; Intel Mac OS X 10_15_7) AppleWebKit/537.36 (KHTML, like Gecko) Chrome/136.0.0.0 Safari/537.36","Macintosh","Chrome","136.0.0.0","OS X","10_15_7","https://app.prolific.com/","en-GB,en-US;q=0.9,en;q=0.8","67d6aaa962783013102482a0","683db6dfa200031b80f2a654","686507848b10cf9f6d70fe23","67d6aaa962783013102482a0","","","","","","0","demographics","","","","","","","","","","","","","","","","","","","","","","","","","","","","","","","","","","","","","",""
"3398","","","{""gender_identity"":""female/woman""}","survey-multi-choice","6","58070","0.0-6.0-1.0","199","1","2025-07-02 10:29:39","80fe4187154257d5fb01684ea91b68b9","41.13.84.116","Mozilla/5.0 (Macintosh; Intel Mac OS X 10_15_7) AppleWebKit/537.36 (KHTML, like Gecko) Chrome/136.0.0.0 Safari/537.36","Macintosh","Chrome","136.0.0.0","OS X","10_15_7","https://app.prolific.com/","en-GB,en-US;q=0.9,en;q=0.8","67d6aaa962783013102482a0","683db6dfa200031b80f2a654","686507848b10cf9f6d70fe23","67d6aaa962783013102482a0","","","[0]","","","1","demographics","","","","","","","","","","","","","","","","","","","","","","","","","","","","","","","","","","","","","",""
"3510","","","{""assigned_sex"":""female""}","survey-multi-choice","7","61582","0.0-6.0-2.0","199","1","2025-07-02 10:29:39","80fe4187154257d5fb01684ea91b68b9","41.13.84.116","Mozilla/5.0 (Macintosh; Intel Mac OS X 10_15_7) AppleWebKit/537.36 (KHTML, like Gecko) Chrome/136.0.0.0 Safari/537.36","Macintosh","Chrome","136.0.0.0","OS X","10_15_7","https://app.prolific.com/","en-GB,en-US;q=0.9,en;q=0.8","67d6aaa962783013102482a0","683db6dfa200031b80f2a654","686507848b10cf9f6d70fe23","67d6aaa962783013102482a0","","","[0]","","","2","demographics","","","","","","","","","","","","","","","","","","","","","","","","","","","","","","","","","","","","","",""
"7221","","","{""menstrual_cycle"":""Yes""}","survey-multi-choice","8","68804","0.0-6.0-3.0","199","1","2025-07-02 10:29:39","80fe4187154257d5fb01684ea91b68b9","41.13.84.116","Mozilla/5.0 (Macintosh; Intel Mac OS X 10_15_7) AppleWebKit/537.36 (KHTML, like Gecko) Chrome/136.0.0.0 Safari/537.36","Macintosh","Chrome","136.0.0.0","OS X","10_15_7","https://app.prolific.com/","en-GB,en-US;q=0.9,en;q=0.8","67d6aaa962783013102482a0","683db6dfa200031b80f2a654","686507848b10cf9f6d70fe23","67d6aaa962783013102482a0","","","[0]","","","4","demographics","","","","","","","","","","","","","","","","","","","","","","","","","","","","","","","","","","","","","",""
"28309","","","{""education"":""GCSE/Standard Grades""}","survey-multi-choice","9","97116","0.0-6.0-4.0","199","1","2025-07-02 10:29:39","80fe4187154257d5fb01684ea91b68b9","41.13.84.116","Mozilla/5.0 (Macintosh; Intel Mac OS X 10_15_7) AppleWebKit/537.36 (KHTML, like Gecko) Chrome/136.0.0.0 Safari/537.36","Macintosh","Chrome","136.0.0.0","OS X","10_15_7","https://app.prolific.com/","en-GB,en-US;q=0.9,en;q=0.8","67d6aaa962783013102482a0","683db6dfa200031b80f2a654","686507848b10cf9f6d70fe23","67d6aaa962783013102482a0","","","[0]","","","5","demographics","","","","","","","","","","","","","","","","","","","","","","","","","","","","","","","","","","","","","",""
"20687","","","{""education"":""Doctoral Degree (e.g., PhD)""}","survey-multi-choice","10","117805","0.0-6.0-5.0","199","1","2025-07-02 10:29:39","80fe4187154257d5fb01684ea91b68b9","41.13.84.116","Mozilla/5.0 (Macintosh; Intel Mac OS X 10_15_7) AppleWebKit/537.36 (KHTML, like Gecko) Chrome/136.0.0.0 Safari/537.36","Macintosh","Chrome","136.0.0.0","OS X","10_15_7","https://app.prolific.com/","en-GB,en-US;q=0.9,en;q=0.8","67d6aaa962783013102482a0","683db6dfa200031b80f2a654","686507848b10cf9f6d70fe23","67d6aaa962783013102482a0","2025-07-02T10:31:39.531Z","","[0]","","","6","demographics","","","","","","","","","","","","","","","","","","","","","","","","","","","","","","","","","","","","","",""
"183914","","","{""mental_health_condition"":""depression"",""mental_health_treatment"":""anti depressants"",""psychiatric_medication"":""""}","survey-text","11","301725","0.0-7.0-0.0","199","1","2025-07-02 10:29:39","80fe4187154257d5fb01684ea91b68b9","41.13.84.116","Mozilla/5.0 (Macintosh; Intel Mac OS X 10_15_7) AppleWebKit/537.36 (KHTML, like Gecko) Chrome/136.0.0.0 Safari/537.36","Macintosh","Chrome","136.0.0.0","OS X","10_15_7","https://app.prolific.com/","en-GB,en-US;q=0.9,en;q=0.8","67d6aaa962783013102482a0","683db6dfa200031b80f2a654","686507848b10cf9f6d70fe23","67d6aaa962783013102482a0","2025-07-02T10:34:43.451Z","","","","","1","mental_health","","","","","","","","","","","","","","","","","","","","","","","","","","","","","","","","","","","","","",""
"22125","","","{""depression_history"":[""No""]}","survey-multi-select","12","323854","0.0-7.0-1.0","199","1","2025-07-02 10:29:39","80fe4187154257d5fb01684ea91b68b9","41.13.84.116","Mozilla/5.0 (Macintosh; Intel Mac OS X 10_15_7) AppleWebKit/537.36 (KHTML, like Gecko) Chrome/136.0.0.0 Safari/537.36","Macintosh","Chrome","136.0.0.0","OS X","10_15_7","https://app.prolific.com/","en-GB,en-US;q=0.9,en;q=0.8","67d6aaa962783013102482a0","683db6dfa200031b80f2a654","686507848b10cf9f6d70fe23","67d6aaa962783013102482a0","","","[0]","","","","mental_health","","","","","","","","","","","","","","","","","","","","","","","","","","","","","","","","","","","","","",""
"102838.5","","","","survey-template","13","426700","0.0-7.0-3.0","199","1","2025-07-02 10:29:39","80fe4187154257d5fb01684ea91b68b9","41.13.84.116","Mozilla/5.0 (Macintosh; Intel Mac OS X 10_15_7) AppleWebKit/537.36 (KHTML, like Gecko) Chrome/136.0.0.0 Safari/537.36","Macintosh","Chrome","136.0.0.0","OS X","10_15_7","https://app.prolific.com/","en-GB,en-US;q=0.9,en;q=0.8","67d6aaa962783013102482a0","683db6dfa200031b80f2a654","686507848b10cf9f6d70fe23","67d6aaa962783013102482a0","2025-07-02T10:36:48.426Z","","","","","","ius","{""Q01"":""2"",""Q02"":""3"",""Q03"":""3"",""Q04"":""4"",""Q05"":""3"",""Q06"":""4"",""Q07"":""3"",""Q08"":""3"",""Q09"":""3"",""Q10"":""1"",""Q11"":""1"",""Q12"":""1"",""Q13"":""3""}","[0,1,2,3,4,5,6,7,8,9,10,11,12]","[""Q02"",""Q03"",""Q04"",""Q04"",""Q01"",""Q06"",""Q07"",""Q08"",""Q10"",""Q10"",""Q11"",""Q12"",""Q13"",""Q09"",""Q05""]","[11438.5,17573,22276.099999904633,23333.099999904633,27853.199999928474,37299.299999952316,43113.699999928474,44626.39999997616,52251.39999997616,56058.699999928474,63054.39999997616,68598.69999992847,72638.5,82535.59999990463,98226.39999997616]","[]","[11438.5,17573,22276.099999904633,23333.099999904633,27853.199999928474,32598.299999952316,37299.299999952316,38035.39999997616,43113.699999928474,44626.39999997616,47154.699999928474,52251.39999997616,56058.699999928474,63054.39999997616,68598.69999992847,72638.5,73630.29999995232,79383.19999992847,82535.59999990463,83494,86408.09999990463,98226.39999997616,99547.09999990463,102836.19999992847]","0.5384615384615384","0.4166666666666667","0","","","","","","","","","","","","","","","","","","","","","","","","","","","","",""
"76932","1751452685361","<p style='font-size:1.1em;line-height:1.25'>In the following, we will ask you a few questions relating to your experiences over the past month.<br></p><p style='font-size:1.1em;line-height:1.25'>Press the <strong>Next</strong> button to continue.</p>","0","custom-html-button-response","14","503635","0.0-7.0-4.0","199","1","2025-07-02 10:29:39","80fe4187154257d5fb01684ea91b68b9","41.13.84.116","Mozilla/5.0 (Macintosh; Intel Mac OS X 10_15_7) AppleWebKit/537.36 (KHTML, like Gecko) Chrome/136.0.0.0 Safari/537.36","Macintosh","Chrome","136.0.0.0","OS X","10_15_7","https://app.prolific.com/","en-GB,en-US;q=0.9,en;q=0.8","67d6aaa962783013102482a0","683db6dfa200031b80f2a654","686507848b10cf9f6d70fe23","67d6aaa962783013102482a0","2025-07-02T10:38:05.362Z","","","","","","","","","","","","","","","","","","","","","","","","","","","","","","","","","","","","","","","","","","","",""
"52144.10000002384","","","","survey-template","15","555786","0.0-7.0-5.0","199","1","2025-07-02 10:29:39","80fe4187154257d5fb01684ea91b68b9","41.13.84.116","Mozilla/5.0 (Macintosh; Intel Mac OS X 10_15_7) AppleWebKit/537.36 (KHTML, like Gecko) Chrome/136.0.0.0 Safari/537.36","Macintosh","Chrome","136.0.0.0","OS X","10_15_7","https://app.prolific.com/","en-GB,en-US;q=0.9,en;q=0.8","67d6aaa962783013102482a0","683db6dfa200031b80f2a654","686507848b10cf9f6d70fe23","67d6aaa962783013102482a0","2025-07-02T10:38:57.512Z","","","","","","pss","{""Q01"":""4"",""Q02"":""4"",""Q03"":""4"",""Q04"":""1"",""Q05"":""0"",""Q06"":""3"",""Q07"":""0"",""Q08"":""2"",""Q09"":""3"",""Q10"":""4""}","[0,1,2,3,4,5,6,7,8,9]","[""Q01"",""Q02"",""Q03"",""Q04"",""Q05"",""Q06"",""Q07"",""Q08"",""Q08"",""Q09"",""Q10""]","[6421.299999952316,11584.5,14160.5,21474.899999976158,27042.199999928474,33667.799999952316,40236.89999997616,41243.799999952316,44754.89999997616,47084.5,48812.60000002384]","[]","[0.10000002384185791,6421.299999952316,11584.5,14160.5,20235.299999952316,21474.899999976158,27042.199999928474,33667.799999952316,34620.10000002384,40236.89999997616,41243.799999952316,44754.89999997616,47084.5,48812.60000002384,52140.5]","0.6","0.6666666666666666","0","","","","","","","","","","","","","","","","","","","","","","","","","","","","",""
"58386","1751452795900","<p style='font-size:1.1em;line-height:1.25'>Thank you for your answers! Now we will ask you a few more questions relating to your feelings in the last 24 hours.<br></p><p style='font-size:1.1em;line-height:1.25'>Press the <strong>Next</strong> button to continue.</p>","0","custom-html-button-response","16","614174","0.0-7.0-6.0","199","1","2025-07-02 10:29:39","80fe4187154257d5fb01684ea91b68b9","41.13.84.116","Mozilla/5.0 (Macintosh; Intel Mac OS X 10_15_7) AppleWebKit/537.36 (KHTML, like Gecko) Chrome/136.0.0.0 Safari/537.36","Macintosh","Chrome","136.0.0.0","OS X","10_15_7","https://app.prolific.com/","en-GB,en-US;q=0.9,en;q=0.8","67d6aaa962783013102482a0","683db6dfa200031b80f2a654","686507848b10cf9f6d70fe23","67d6aaa962783013102482a0","2025-07-02T10:39:55.901Z","","","","","","","","","","","","","","","","","","","","","","","","","","","","","","","","","","","","","","","","","","","",""
"83598.60000002384","","","","survey-template","17","697779","0.0-7.0-7.0","199","1","2025-07-02 10:29:39","80fe4187154257d5fb01684ea91b68b9","41.13.84.116","Mozilla/5.0 (Macintosh; Intel Mac OS X 10_15_7) AppleWebKit/537.36 (KHTML, like Gecko) Chrome/136.0.0.0 Safari/537.36","Macintosh","Chrome","136.0.0.0","OS X","10_15_7","https://app.prolific.com/","en-GB,en-US;q=0.9,en;q=0.8","67d6aaa962783013102482a0","683db6dfa200031b80f2a654","686507848b10cf9f6d70fe23","67d6aaa962783013102482a0","2025-07-02T10:41:19.506Z","","","","","","drsp","{""Q01"":""4"",""Q02"":""4"",""Q03"":""4"",""Q04"":""5"",""Q05"":""5"",""Q06"":""4"",""Q07"":""5"",""Q08"":""5"",""Q09"":""4"",""Q10"":""4"",""Q11"":""4"",""Q12"":""4"",""Q13"":""4"",""Q14"":""4"",""Q15"":""4"",""Q16"":""5"",""Q17"":""5"",""Q18"":""4"",""Q19"":""4"",""Q20"":""5"",""Q21"":""4""}","[0,1,2,3,4,5,6,7,8,9,10,11,12,13,14,15,16,17,18,19,20]","[""Q01"",""Q03"",""Q04"",""Q05"",""Q06"",""Q07"",""Q08"",""Q09"",""Q10"",""Q11"",""Q12"",""Q13"",""Q14"",""Q15"",""Q16"",""Q17"",""Q18"",""Q19"",""Q20"",""Q21"",""Q02""]","[32873.5,36392.700000047684,39641.300000071526,40731.10000002384,44756.200000047684,45900,46867.800000071526,47764.60000002384,48811.800000071526,55384.90000009537,56192.700000047684,57080.90000009537,58002.10000002384,59097.90000009537,63337.90000009537,64289,65172.300000071526,67131.10000002384,68267.30000007153,72085.10000002384,76596.30000007153]","[]","[0.10000002384185791,32873.5,34714.10000002384,36392.700000047684,39641.300000071526,40731.10000002384,41843.300000071526,42819.90000009537,44756.200000047684,45900,46867.800000071526,47764.60000002384,48811.800000071526,49701,55384.90000009537,56192.700000047684,57080.90000009537,58002.10000002384,59097.90000009537,60105.5,61090.10000002384,61954,63337.90000009537,64289,65172.300000071526,66106.40000009537,67131.10000002384,68267.30000007153,69132.10000002384,72085.10000002384,73060.80000007153,76596.30000007153,79261.30000007153,83595.30000007153]","0.6666666666666666","0.4","0","","","","","","","","","","","","","","","","","","","","","","","","","","","","",""
"38672.39999997616","","","","survey-template","18","736455","0.0-7.0-8.0","199","1","2025-07-02 10:29:39","80fe4187154257d5fb01684ea91b68b9","41.13.84.116","Mozilla/5.0 (Macintosh; Intel Mac OS X 10_15_7) AppleWebKit/537.36 (KHTML, like Gecko) Chrome/136.0.0.0 Safari/537.36","Macintosh","Chrome","136.0.0.0","OS X","10_15_7","https://app.prolific.com/","en-GB,en-US;q=0.9,en;q=0.8","67d6aaa962783013102482a0","683db6dfa200031b80f2a654","686507848b10cf9f6d70fe23","67d6aaa962783013102482a0","2025-07-02T10:41:58.182Z","","","","","","stress","{""Q01"":""3"",""Q02"":""1"",""Q03"":""5""}","[0,1,2]","[""Q01"",""Q02"",""Q03""]","[8661.899999976158,10989.399999976158,37536.39999997616]","[]","[8661.899999976158,10989.399999976158,14359,36118.89999997616,37536.39999997616,38671.59999990463]","0.3333333333333333","1","0","","","","","","","","","","","","","","","","","","","","","","","","","","","","",""
"159286","","","","instructions","19","895745","0.0-8.0-0.0","199","1","2025-07-02 10:29:39","80fe4187154257d5fb01684ea91b68b9","41.13.84.116","Mozilla/5.0 (Macintosh; Intel Mac OS X 10_15_7) AppleWebKit/537.36 (KHTML, like Gecko) Chrome/136.0.0.0 Safari/537.36","Macintosh","Chrome","136.0.0.0","OS X","10_15_7","https://app.prolific.com/","en-GB,en-US;q=0.9,en;q=0.8","67d6aaa962783013102482a0","683db6dfa200031b80f2a654","686507848b10cf9f6d70fe23","67d6aaa962783013102482a0","","[{""page_index"":0,""viewing_time"":51967},{""page_index"":1,""viewing_time"":48071},{""page_index"":2,""viewing_time"":24669},{""page_index"":3,""viewing_time"":34578}]","","","","","","","","","","","","","","","","","","","","","","","","","","","","","","","","","","","","","","","","","","",""
"","","","","ctl-task-cpt","20","914107","0.0-8.0-1.0","199","1","2025-07-02 10:29:39","80fe4187154257d5fb01684ea91b68b9","41.13.84.116","Mozilla/5.0 (Macintosh; Intel Mac OS X 10_15_7) AppleWebKit/537.36 (KHTML, like Gecko) Chrome/136.0.0.0 Safari/537.36","Macintosh","Chrome","136.0.0.0","OS X","10_15_7","https://app.prolific.com/","en-GB,en-US;q=0.9,en;q=0.8","67d6aaa962783013102482a0","683db6dfa200031b80f2a654","686507848b10cf9f6d70fe23","67d6aaa962783013102482a0","","","","","","","","","","","","","","","","","win-only","2","g1:SE,g2:NW","1","0","1","898349.1","3385.2","7387","15347.3","2","4","4","6","1","-2","-2","0","0","0","3735.2","4000","-3005","[""down"",""right""]","{""num_key_presses"":0,""num_perfect"":0,""num_errors"":0,""num_randdir"":0,""num_randdir_good_moves"":0,""num_whilered"":0,""num_whileblue"":0,""num_blue"":1,""num_good_moves"":0}","[696.2857142857143,682.0825892857143,0.2,696.2857142857143,682.0825892857143,101,696.2857142857143,682.0825892857143,205.6,696.2857142857143,682.0825892857143,311.2,696.2857142857143,682.0825892857143,415.6,696.2857142857143,682.0825892857143,520.1,696.2857142857143,682.0825892857143,620.8,696.2857142857143,682.0825892857143,726.3,696.2857142857143,682.0825892857143,826.3,698.2857142857143,682.0825892857143,931.3,744.2857142857143,724.0825892857143,1036.5,790.2857142857143,788.0825892857143,1140.8,798.2857142857143,804.0825892857143,1241,800.2857142857143,810.0825892857143,1346.1,800.2857142857143,814.0825892857143,1451.3,800.2857142857143,814.0825892857143,1555.4,800.2857142857143,814.0825892857143,1656,800.2857142857143,814.0825892857143,1761.3,800.2857142857143,814.0825892857143,1861.3,800.2857142857143,814.0825892857143,1961.4,800.2857142857143,814.0825892857143,2066.8,800.2857142857143,814.0825892857143,2170.2,800.2857142857143,814.0825892857143,2270.5,800.2857142857143,814.0825892857143,2375.6,830.2857142857143,822.0825892857143,2475.9,912.2857142857143,878.0825892857143,2576.4,1028.2857142857142,982.0825892857143,2680.6,1190.2857142857142,1164.0825892857142,2781.2,1282.2857142857142,1274.0825892857142,2886.6,1326.2857142857142,1316.0825892857142,2991.2,1328.2857142857142,1318.0825892857142,3095.8,1318.2857142857142,1306.0825892857142,3196.4,1304.2857142857142,1290.0825892857142,3296.4,1300.2857142857142,1284.0825892857142,3400.8,1294.2857142857142,1276.0825892857142,3505.2,1294.2857142857142,1276.0825892857142,3605.4,1294.2857142857142,1276.0825892857142,3705.7,1294.2857142857142,1276.0825892857142,3810.6,1294.2857142857142,1276.0825892857142,3911.3]","[]","",""
"21914","","","","instructions","21","936021","0.0-8.0-2.0","199","1","2025-07-02 10:29:39","80fe4187154257d5fb01684ea91b68b9","41.13.84.116","Mozilla/5.0 (Macintosh; Intel Mac OS X 10_15_7) AppleWebKit/537.36 (KHTML, like Gecko) Chrome/136.0.0.0 Safari/537.36","Macintosh","Chrome","136.0.0.0","OS X","10_15_7","https://app.prolific.com/","en-GB,en-US;q=0.9,en;q=0.8","67d6aaa962783013102482a0","683db6dfa200031b80f2a654","686507848b10cf9f6d70fe23","67d6aaa962783013102482a0","","[{""page_index"":0,""viewing_time"":21913}]","","","","","","","","","","","","","","","","","","","","","","","","","","","","","","","","","","","","","","","","","","",""
"","","","","ctl-task-cpt","22","952061","0.0-8.0-3.0","199","1","2025-07-02 10:29:39","80fe4187154257d5fb01684ea91b68b9","41.13.84.116","Mozilla/5.0 (Macintosh; Intel Mac OS X 10_15_7) AppleWebKit/537.36 (KHTML, like Gecko) Chrome/136.0.0.0 Safari/537.36","Macintosh","Chrome","136.0.0.0","OS X","10_15_7","https://app.prolific.com/","en-GB,en-US;q=0.9,en;q=0.8","67d6aaa962783013102482a0","683db6dfa200031b80f2a654","686507848b10cf9f6d70fe23","67d6aaa962783013102482a0","","","","","","","","","","","","","","","","","win-only","2","g1:SE,g2:NW","0.35","0","3","938618.5","4016","8016.5","13035.8","2","4","8","6","2","-8","-8","0","0","0","4000.5","4000","-2995","[""left"",""up""]","{""num_key_presses"":0,""num_perfect"":0,""num_errors"":0,""num_randdir"":0,""num_randdir_good_moves"":0,""num_whilered"":0,""num_whileblue"":0,""num_blue"":0,""num_good_moves"":0}","[696.2857142857143,696.0825892857143,0.2,696.2857142857143,696.0825892857143,104.6,696.2857142857143,696.0825892857143,209.6,696.2857142857143,696.0825892857143,310.5,696.2857142857143,696.0825892857143,415.3,696.2857142857143,696.0825892857143,519.9,696.2857142857143,696.0825892857143,620.5,696.2857142857143,696.0825892857143,724.2,696.2857142857143,696.0825892857143,824.3,716.2857142857143,702.0825892857143,924.9,782.2857142857143,762.0825892857143,1030.4,840.2857142857143,834.0825892857143,1134.6,854.2857142857143,854.0825892857143,1234.8,854.2857142857143,854.0825892857143,1335,854.2857142857143,854.0825892857143,1435.6,854.2857142857143,854.0825892857143,1540,854.2857142857143,854.0825892857143,1645,892.2857142857143,910.0825892857143,1750.3,1262.2857142857142,1326.0825892857142,1855,1304.2857142857142,1350.0825892857142,1960.2,1304.2857142857142,1350.0825892857142,2060.7,1304.2857142857142,1350.0825892857142,2161,1304.2857142857142,1350.0825892857142,2261,1302.2857142857142,1344.0825892857142,2365.6,1292.2857142857142,1328.0825892857142,2469.6,1288.2857142857142,1322.0825892857142,2570,1288.2857142857142,1320.0825892857142,2670.2,1286.2857142857142,1318.0825892857142,2775.1,1286.2857142857142,1318.0825892857142,2879.8,1286.2857142857142,1318.0825892857142,2979.9,1286.2857142857142,1318.0825892857142,3085.1,1282.2857142857142,1316.0825892857142,3185.1,1278.2857142857142,1312.0825892857142,3285.3,1278.2857142857142,1312.0825892857142,3390,1278.2857142857142,1312.0825892857142,3495.2,1276.2857142857142,1312.0825892857142,3600.4,1276.2857142857142,1312.0825892857142,3700.6,1276.2857142857142,1310.0825892857142,3804.6,1276.2857142857142,1310.0825892857142,3904.6]","[]","",""
"53263","","","","instructions","23","1005325","0.0-8.0-4.0","199","1","2025-07-02 10:29:39","80fe4187154257d5fb01684ea91b68b9","41.13.84.116","Mozilla/5.0 (Macintosh; Intel Mac OS X 10_15_7) AppleWebKit/537.36 (KHTML, like Gecko) Chrome/136.0.0.0 Safari/537.36","Macintosh","Chrome","136.0.0.0","OS X","10_15_7","https://app.prolific.com/","en-GB,en-US;q=0.9,en;q=0.8","67d6aaa962783013102482a0","683db6dfa200031b80f2a654","686507848b10cf9f6d70fe23","67d6aaa962783013102482a0","","[{""page_index"":0,""viewing_time"":14389},{""page_index"":1,""viewing_time"":38874}]","","","","","","","","","","","","","","","","","","","","","","","","","","","","","","","","","","","","","","","","","","",""
"64136","","","{""green_ball"":[""Ball sometimes shakes and moves in a random direction""]}","survey-multi-select","24","1069465","0.0-8.0-5.0-0.0","199","1","2025-07-02 10:29:39","80fe4187154257d5fb01684ea91b68b9","41.13.84.116","Mozilla/5.0 (Macintosh; Intel Mac OS X 10_15_7) AppleWebKit/537.36 (KHTML, like Gecko) Chrome/136.0.0.0 Safari/537.36","Macintosh","Chrome","136.0.0.0","OS X","10_15_7","https://app.prolific.com/","en-GB,en-US;q=0.9,en;q=0.8","67d6aaa962783013102482a0","683db6dfa200031b80f2a654","686507848b10cf9f6d70fe23","67d6aaa962783013102482a0","","","[0]","","","","quiz","","","","","","","","","","","","","","","","","","","","","","","","","","","","","","","","","","","","","true",""
"5199","","<p align='center'><b>CORRECT!</b> Indeed, the green ball may sometimes shake and move in a random direction.</p>","0","html-button-response","25","1074666","0.0-8.0-5.0-1.0","199","1","2025-07-02 10:29:39","80fe4187154257d5fb01684ea91b68b9","41.13.84.116","Mozilla/5.0 (Macintosh; Intel Mac OS X 10_15_7) AppleWebKit/537.36 (KHTML, like Gecko) Chrome/136.0.0.0 Safari/537.36","Macintosh","Chrome","136.0.0.0","OS X","10_15_7","https://app.prolific.com/","en-GB,en-US;q=0.9,en;q=0.8","67d6aaa962783013102482a0","683db6dfa200031b80f2a654","686507848b10cf9f6d70fe23","67d6aaa962783013102482a0","","","","","","","","","","","","","","","","","","","","","","","","","","","","","","","","","","","","","","","","","","","","",""
"11267","","","{""yellow_ball"":[""Ball doesn‘t move and I get -1 penalty point""]}","survey-multi-select","26","1085936","0.0-8.0-6.0-0.0","199","1","2025-07-02 10:29:39","80fe4187154257d5fb01684ea91b68b9","41.13.84.116","Mozilla/5.0 (Macintosh; Intel Mac OS X 10_15_7) AppleWebKit/537.36 (KHTML, like Gecko) Chrome/136.0.0.0 Safari/537.36","Macintosh","Chrome","136.0.0.0","OS X","10_15_7","https://app.prolific.com/","en-GB,en-US;q=0.9,en;q=0.8","67d6aaa962783013102482a0","683db6dfa200031b80f2a654","686507848b10cf9f6d70fe23","67d6aaa962783013102482a0","","","[0]","","","","quiz","","","","","","","","","","","","","","","","","","","","","","","","","","","","","","","","","","","","","true",""
"2475","","<p align='center'><b>CORRECT!</b> Indeed, the yellow ball never moves and you receive a penalty.</p>","0","html-button-response","27","1088412","0.0-8.0-6.0-1.0","199","1","2025-07-02 10:29:39","80fe4187154257d5fb01684ea91b68b9","41.13.84.116","Mozilla/5.0 (Macintosh; Intel Mac OS X 10_15_7) AppleWebKit/537.36 (KHTML, like Gecko) Chrome/136.0.0.0 Safari/537.36","Macintosh","Chrome","136.0.0.0","OS X","10_15_7","https://app.prolific.com/","en-GB,en-US;q=0.9,en;q=0.8","67d6aaa962783013102482a0","683db6dfa200031b80f2a654","686507848b10cf9f6d70fe23","67d6aaa962783013102482a0","","","","","","","","","","","","","","","","","","","","","","","","","","","","","","","","","","","","","","","","","","","","",""
"15371","","","{""blue_ball"":[""Ball always shakes and moves in a random direction""]}","survey-multi-select","28","1103785","0.0-8.0-7.0-0.0","199","1","2025-07-02 10:29:39","80fe4187154257d5fb01684ea91b68b9","41.13.84.116","Mozilla/5.0 (Macintosh; Intel Mac OS X 10_15_7) AppleWebKit/537.36 (KHTML, like Gecko) Chrome/136.0.0.0 Safari/537.36","Macintosh","Chrome","136.0.0.0","OS X","10_15_7","https://app.prolific.com/","en-GB,en-US;q=0.9,en;q=0.8","67d6aaa962783013102482a0","683db6dfa200031b80f2a654","686507848b10cf9f6d70fe23","67d6aaa962783013102482a0","","","[0]","","","","quiz","","","","","","","","","","","","","","","","","","","","","","","","","","","","","","","","","","","","","true",""
"3792","","<p align='center'><b>CORRECT!</b> Indeed, the blue ball always shakes and moves in a random direction. Also there is a penalty of -1 point.</p>","0","html-button-response","29","1107578","0.0-8.0-7.0-1.0","199","1","2025-07-02 10:29:39","80fe4187154257d5fb01684ea91b68b9","41.13.84.116","Mozilla/5.0 (Macintosh; Intel Mac OS X 10_15_7) AppleWebKit/537.36 (KHTML, like Gecko) Chrome/136.0.0.0 Safari/537.36","Macintosh","Chrome","136.0.0.0","OS X","10_15_7","https://app.prolific.com/","en-GB,en-US;q=0.9,en;q=0.8","67d6aaa962783013102482a0","683db6dfa200031b80f2a654","686507848b10cf9f6d70fe23","67d6aaa962783013102482a0","","","","","","","","","","","","","","","","","","","","","","","","","","","","","","","","","","","","","","","","","","","","",""
"5495","","","{""bonus"":[""When I reach 50% of points""]}","survey-multi-select","30","1113075","0.0-8.0-8.0-0.0","199","1","2025-07-02 10:29:39","80fe4187154257d5fb01684ea91b68b9","41.13.84.116","Mozilla/5.0 (Macintosh; Intel Mac OS X 10_15_7) AppleWebKit/537.36 (KHTML, like Gecko) Chrome/136.0.0.0 Safari/537.36","Macintosh","Chrome","136.0.0.0","OS X","10_15_7","https://app.prolific.com/","en-GB,en-US;q=0.9,en;q=0.8","67d6aaa962783013102482a0","683db6dfa200031b80f2a654","686507848b10cf9f6d70fe23","67d6aaa962783013102482a0","","","[0]","","","","quiz","","","","","","","","","","","","","","","","","","","","","","","","","","","","","","","","","","","","","true",""
"1520","","<p align='center'><b>CORRECT!</b> Indeed, you receive 2 pounds extra when you reach 50% of points.</p>","0","html-button-response","31","1114597","0.0-8.0-8.0-1.0","199","1","2025-07-02 10:29:39","80fe4187154257d5fb01684ea91b68b9","41.13.84.116","Mozilla/5.0 (Macintosh; Intel Mac OS X 10_15_7) AppleWebKit/537.36 (KHTML, like Gecko) Chrome/136.0.0.0 Safari/537.36","Macintosh","Chrome","136.0.0.0","OS X","10_15_7","https://app.prolific.com/","en-GB,en-US;q=0.9,en;q=0.8","67d6aaa962783013102482a0","683db6dfa200031b80f2a654","686507848b10cf9f6d70fe23","67d6aaa962783013102482a0","","","","","","","","","","","","","","","","","","","","","","","","","","","","","","","","","","","","","","","","","","","","",""
"14076","","","","instructions","32","1128500","0.0-8.0-9.0","199","1","2025-07-02 10:29:39","80fe4187154257d5fb01684ea91b68b9","41.13.84.116","Mozilla/5.0 (Macintosh; Intel Mac OS X 10_15_7) AppleWebKit/537.36 (KHTML, like Gecko) Chrome/136.0.0.0 Safari/537.36","Macintosh","Chrome","136.0.0.0","OS X","10_15_7","https://app.prolific.com/","en-GB,en-US;q=0.9,en;q=0.8","67d6aaa962783013102482a0","683db6dfa200031b80f2a654","686507848b10cf9f6d70fe23","67d6aaa962783013102482a0","","[{""page_index"":0,""viewing_time"":14075}]","","","","","","","","","","","","","","","","","","","","","","","","","","","","","","","","","","","","","","","","","","",""
"8013","","<p>Before you start with this game please answer the following three questions yourself. </p>
  <p>Through this game, we measure several aspects of your cognitive performance, such as reaction times, multi-tasking capabilities </p>
  <p>and the ability to assess the situation you are in.</p>
  <p></p>
  <p><b>How good do you usually are in such tasks?</b></p>","14","html-slider-response","33","1136515","0.0-9.0-0.0","199","1","2025-07-02 10:29:39","80fe4187154257d5fb01684ea91b68b9","41.13.84.116","Mozilla/5.0 (Macintosh; Intel Mac OS X 10_15_7) AppleWebKit/537.36 (KHTML, like Gecko) Chrome/136.0.0.0 Safari/537.36","Macintosh","Chrome","136.0.0.0","OS X","10_15_7","https://app.prolific.com/","en-GB,en-US;q=0.9,en;q=0.8","67d6aaa962783013102482a0","683db6dfa200031b80f2a654","686507848b10cf9f6d70fe23","67d6aaa962783013102482a0","2025-07-02T10:48:38.241Z","","","","","","PreSkillQ","","","","","","","","","","","","","","","","","","","","","","","","","","","","","","","","","","","","","","50"
"7455","","<div style=""width:500px;"">
  <p>How well do you think you will perform in this task compared to other participants?</p>
  </div>","25","html-slider-response","34","1143971","0.0-9.0-1.0","199","1","2025-07-02 10:29:39","80fe4187154257d5fb01684ea91b68b9","41.13.84.116","Mozilla/5.0 (Macintosh; Intel Mac OS X 10_15_7) AppleWebKit/537.36 (KHTML, like Gecko) Chrome/136.0.0.0 Safari/537.36","Macintosh","Chrome","136.0.0.0","OS X","10_15_7","https://app.prolific.com/","en-GB,en-US;q=0.9,en;q=0.8","67d6aaa962783013102482a0","683db6dfa200031b80f2a654","686507848b10cf9f6d70fe23","67d6aaa962783013102482a0","2025-07-02T10:48:45.697Z","","","","","","PrePerfQ","","","","","","","","","","","","","","","","","","","","","","","","","","","","","","","","","","","","","","50"
"9577","","<div style=""width:500px;"">
  <p>What best describes how you currently feel?</p>
  </div>","80","html-slider-response","35","1153548","0.0-9.0-2.0","199","1","2025-07-02 10:29:39","80fe4187154257d5fb01684ea91b68b9","41.13.84.116","Mozilla/5.0 (Macintosh; Intel Mac OS X 10_15_7) AppleWebKit/537.36 (KHTML, like Gecko) Chrome/136.0.0.0 Safari/537.36","Macintosh","Chrome","136.0.0.0","OS X","10_15_7","https://app.prolific.com/","en-GB,en-US;q=0.9,en;q=0.8","67d6aaa962783013102482a0","683db6dfa200031b80f2a654","686507848b10cf9f6d70fe23","67d6aaa962783013102482a0","2025-07-02T10:48:55.274Z","","","","","","PreMotivationQ","","","","","","","","","","","","","","","","","","","","","","","","","","","","","","","","","","","","","","50"
"","","","","ctl-task-cpt","36","1173257","0.0-10.0-0.0","199","1","2025-07-02 10:29:39","80fe4187154257d5fb01684ea91b68b9","41.13.84.116","Mozilla/5.0 (Macintosh; Intel Mac OS X 10_15_7) AppleWebKit/537.36 (KHTML, like Gecko) Chrome/136.0.0.0 Safari/537.36","Macintosh","Chrome","136.0.0.0","OS X","10_15_7","https://app.prolific.com/","en-GB,en-US;q=0.9,en;q=0.8","67d6aaa962783013102482a0","683db6dfa200031b80f2a654","686507848b10cf9f6d70fe23","67d6aaa962783013102482a0","2025-07-02T10:49:14.983Z","","","","","","","","","","","","","","","","win-only","3","g1:SW,g2:NE","1","1","0","1156318.9","7691.7","12697.5","16701","1","4","4","6","1","-1","-1","0","0","0","3909.4","3000","-3005","[""down"",""left""]","{""num_key_presses"":0,""num_perfect"":0,""num_errors"":0,""num_randdir"":0,""num_randdir_good_moves"":0,""num_whilered"":0,""num_whileblue"":0,""num_blue"":0,""num_good_moves"":0}","[690.2857142857143,686.0825892857143,0.2,690.2857142857143,686.0825892857143,100.1,690.2857142857143,686.0825892857143,203.8,690.2857142857143,686.0825892857143,304.9,690.2857142857143,686.0825892857143,409.2,690.2857142857143,686.0825892857143,509.8,690.2857142857143,686.0825892857143,614.6,684.2857142857143,698.0825892857143,719.3,664.2857142857143,740.0825892857143,824.3,648.2857142857143,774.0825892857143,929.4,626.2857142857143,804.0825892857143,1029.4,606.2857142857143,820.0825892857143,1129.7,596.2857142857143,822.0825892857143,1229.9,594.2857142857143,818.0825892857143,1334.2,594.2857142857143,818.0825892857143,1434.6,594.2857142857143,818.0825892857143,1534.7,594.2857142857143,818.0825892857143,1640.1,594.2857142857143,818.0825892857143,1745.2,594.2857142857143,818.0825892857143,1850.1,594.2857142857143,818.0825892857143,1950.6,594.2857142857143,818.0825892857143,2051.1,594.2857142857143,818.0825892857143,2154.1,594.2857142857143,818.0825892857143,2254.7,594.2857142857143,818.0825892857143,2358.8,594.2857142857143,818.0825892857143,2459.5,534.2857142857143,862.0825892857143,2559.6,466.2857142857143,910.0825892857143,2664.6,376.2857142857143,998.0825892857143,2769.2,270.2857142857143,1106.0825892857142,2869.3,240.28571428571428,1128.0825892857142,2969.9,232.28571428571428,1130.0825892857142,3070.9,216.28571428571428,1136.0825892857142,3174.6,216.28571428571428,1136.0825892857142,3279.1,216.28571428571428,1140.0825892857142,3384.1,166.28571428571428,1206.0825892857142,3484.9,126.28571428571429,1256.0825892857142,3584.9,118.28571428571429,1264.0825892857142,3689.2,118.28571428571429,1264.0825892857142,3789.4,118.28571428571429,1264.0825892857142,3895.2,118.28571428571429,1264.0825892857142,3999.5,118.28571428571429,1264.0825892857142,4099.8,118.28571428571429,1264.0825892857142,4203.5,118.28571428571429,1264.0825892857142,4304.1,118.28571428571429,1264.0825892857142,4409.7,118.28571428571429,1264.0825892857142,4514.1,118.28571428571429,1264.0825892857142,4615.1,118.28571428571429,1264.0825892857142,4719.6,118.28571428571429,1264.0825892857142,4820.5,118.28571428571429,1264.0825892857142,4925.3]","[]","",""
"4941","","<div style=""width:500px;"">
  <p>What determined the result of this run?</p>
  </div>","17","html-slider-response","37","1178199","0.0-10.0-1.0","199","1","2025-07-02 10:29:39","80fe4187154257d5fb01684ea91b68b9","41.13.84.116","Mozilla/5.0 (Macintosh; Intel Mac OS X 10_15_7) AppleWebKit/537.36 (KHTML, like Gecko) Chrome/136.0.0.0 Safari/537.36","Macintosh","Chrome","136.0.0.0","OS X","10_15_7","https://app.prolific.com/","en-GB,en-US;q=0.9,en;q=0.8","67d6aaa962783013102482a0","683db6dfa200031b80f2a654","686507848b10cf9f6d70fe23","67d6aaa962783013102482a0","2025-07-02T10:49:19.925Z","","","","","","AttribQ","","","","","","","","","","","","","","","","","","","","","","","","","","","","","","","","","","","","","","50"
"5056","","<div style=""width:500px;"">
  <p>How much control did you have over the ball?</p>
  </div>","6","html-slider-response","38","1183256","0.0-10.0-2.0","199","1","2025-07-02 10:29:39","80fe4187154257d5fb01684ea91b68b9","41.13.84.116","Mozilla/5.0 (Macintosh; Intel Mac OS X 10_15_7) AppleWebKit/537.36 (KHTML, like Gecko) Chrome/136.0.0.0 Safari/537.36","Macintosh","Chrome","136.0.0.0","OS X","10_15_7","https://app.prolific.com/","en-GB,en-US;q=0.9,en;q=0.8","67d6aaa962783013102482a0","683db6dfa200031b80f2a654","686507848b10cf9f6d70fe23","67d6aaa962783013102482a0","2025-07-02T10:49:24.982Z","","","","","","ControlQ","","","","","","","","","","","","","","","","","","","","","","","","","","","","","","","","","","","","","","50"
"5856","","<div style=""width:500px;"">
  <p>How would you describe your current emotional state?</p>
  </div>","60","html-slider-response","39","1189112","0.0-10.0-3.0","199","1","2025-07-02 10:29:39","80fe4187154257d5fb01684ea91b68b9","41.13.84.116","Mozilla/5.0 (Macintosh; Intel Mac OS X 10_15_7) AppleWebKit/537.36 (KHTML, like Gecko) Chrome/136.0.0.0 Safari/537.36","Macintosh","Chrome","136.0.0.0","OS X","10_15_7","https://app.prolific.com/","en-GB,en-US;q=0.9,en;q=0.8","67d6aaa962783013102482a0","683db6dfa200031b80f2a654","686507848b10cf9f6d70fe23","67d6aaa962783013102482a0","2025-07-02T10:49:30.838Z","","","","","","StressQ","","","","","","","","","","","","","","","","","","","","","","","","","","","","","","","","","","","","","","50"
"6328","","<div style=""width:500px;"">
  <p>What best describes how you currently feel?</p>
  </div>","17","html-slider-response","40","1195441","0.0-10.0-4.0","199","1","2025-07-02 10:29:39","80fe4187154257d5fb01684ea91b68b9","41.13.84.116","Mozilla/5.0 (Macintosh; Intel Mac OS X 10_15_7) AppleWebKit/537.36 (KHTML, like Gecko) Chrome/136.0.0.0 Safari/537.36","Macintosh","Chrome","136.0.0.0","OS X","10_15_7","https://app.prolific.com/","en-GB,en-US;q=0.9,en;q=0.8","67d6aaa962783013102482a0","683db6dfa200031b80f2a654","686507848b10cf9f6d70fe23","67d6aaa962783013102482a0","2025-07-02T10:49:37.167Z","","","","","","MotivationQ","","","","","","","","","","","","","","","","","","","","","","","","","","","","","","","","","","","","","","50"
"","","","","ctl-task-cpt","41","1209405","0.0-10.0-0.1","199","1","2025-07-02 10:29:39","80fe4187154257d5fb01684ea91b68b9","41.13.84.116","Mozilla/5.0 (Macintosh; Intel Mac OS X 10_15_7) AppleWebKit/537.36 (KHTML, like Gecko) Chrome/136.0.0.0 Safari/537.36","Macintosh","Chrome","136.0.0.0","OS X","10_15_7","https://app.prolific.com/","en-GB,en-US;q=0.9,en;q=0.8","67d6aaa962783013102482a0","683db6dfa200031b80f2a654","686507848b10cf9f6d70fe23","67d6aaa962783013102482a0","2025-07-02T10:49:51.131Z","","","","","","","","","","","","","","","","win-only","3","g1:SW,g2:NE","0.9","2","0","1198212.9","1929.5","6931.4","10955.5","1","4","8","6","1","-1","-1","0","0","0","1357.1","3000","-2990","[""down"",""left""]","{""num_key_presses"":0,""num_perfect"":0,""num_errors"":0,""num_randdir"":0,""num_randdir_good_moves"":0,""num_whilered"":0,""num_whileblue"":0,""num_blue"":0,""num_good_moves"":0}","[700.2857142857143,682.0825892857143,0.1,700.2857142857143,682.0825892857143,101.3,700.2857142857143,682.0825892857143,206.3,700.2857142857143,682.0825892857143,311.4,700.2857142857143,682.0825892857143,411.9,700.2857142857143,682.0825892857143,515.9,686.2857142857143,698.0825892857143,616.8,614.2857142857143,784.0825892857143,721.1,552.2857142857143,866.0825892857143,821.4,356.2857142857143,1066.0825892857142,921.5,214.28571428571428,1216.0825892857142,1026.9,170.28571428571428,1258.0825892857142,1131.4,132.28571428571428,1294.0825892857142,1231.5,126.28571428571429,1298.0825892857142,1331.6,126.28571428571429,1298.0825892857142,1438,126.28571428571429,1298.0825892857142,1541.4,126.28571428571429,1298.0825892857142,1641.9,126.28571428571429,1298.0825892857142,1747,126.28571428571429,1298.0825892857142,1849.9,126.28571428571429,1298.0825892857142,1951.9,168.28571428571428,1220.0825892857142,2057.4,316.2857142857143,1040.0825892857142,2161.2,490.2857142857143,910.0825892857143,2266.1,588.2857142857143,862.0825892857143,2366.2,624.2857142857143,846.0825892857143,2466.7,628.2857142857143,846.0825892857143,2567.1,624.2857142857143,844.0825892857143,2671.7,586.2857142857143,848.0825892857143,2776.5,578.2857142857143,852.0825892857143,2876.6,578.2857142857143,852.0825892857143,2976.8,578.2857142857143,852.0825892857143,3076.8,578.2857142857143,852.0825892857143,3176.8,578.2857142857143,852.0825892857143,3281.5,578.2857142857143,852.0825892857143,3386.8,578.2857142857143,852.0825892857143,3491.2,578.2857142857143,852.0825892857143,3596.6,578.2857142857143,852.0825892857143,3696.7,578.2857142857143,840.0825892857143,3802,606.2857142857143,790.0825892857143,3906.4,618.2857142857143,770.0825892857143,4006.6,618.2857142857143,768.0825892857143,4111.1,618.2857142857143,768.0825892857143,4211.2,618.2857142857143,768.0825892857143,4311.5,618.2857142857143,768.0825892857143,4411.6,618.2857142857143,768.0825892857143,4511.8,618.2857142857143,768.0825892857143,4611.9,612.2857142857143,770.0825892857143,4716.5,608.2857142857143,770.0825892857143,4820.7,608.2857142857143,770.0825892857143,4921.5]","[]","",""
"6555","","<div style=""width:500px;"">
  <p>What determined the result of this run?</p>
  </div>","74","html-slider-response","42","1215961","0.0-10.0-1.1","199","1","2025-07-02 10:29:39","80fe4187154257d5fb01684ea91b68b9","41.13.84.116","Mozilla/5.0 (Macintosh; Intel Mac OS X 10_15_7) AppleWebKit/537.36 (KHTML, like Gecko) Chrome/136.0.0.0 Safari/537.36","Macintosh","Chrome","136.0.0.0","OS X","10_15_7","https://app.prolific.com/","en-GB,en-US;q=0.9,en;q=0.8","67d6aaa962783013102482a0","683db6dfa200031b80f2a654","686507848b10cf9f6d70fe23","67d6aaa962783013102482a0","2025-07-02T10:49:57.687Z","","","","","","AttribQ","","","","","","","","","","","","","","","","","","","","","","","","","","","","","","","","","","","","","","50"
"8657","","<div style=""width:500px;"">
  <p>How much control did you have over the ball?</p>
  </div>","25","html-slider-response","43","1224618","0.0-10.0-2.1","199","1","2025-07-02 10:29:39","80fe4187154257d5fb01684ea91b68b9","41.13.84.116","Mozilla/5.0 (Macintosh; Intel Mac OS X 10_15_7) AppleWebKit/537.36 (KHTML, like Gecko) Chrome/136.0.0.0 Safari/537.36","Macintosh","Chrome","136.0.0.0","OS X","10_15_7","https://app.prolific.com/","en-GB,en-US;q=0.9,en;q=0.8","67d6aaa962783013102482a0","683db6dfa200031b80f2a654","686507848b10cf9f6d70fe23","67d6aaa962783013102482a0","2025-07-02T10:50:06.344Z","","","","","","ControlQ","","","","","","","","","","","","","","","","","","","","","","","","","","","","","","","","","","","","","","50"
"4776","","<div style=""width:500px;"">
  <p>How would you describe your current emotional state?</p>
  </div>","68","html-slider-response","44","1229394","0.0-10.0-3.1","199","1","2025-07-02 10:29:39","80fe4187154257d5fb01684ea91b68b9","41.13.84.116","Mozilla/5.0 (Macintosh; Intel Mac OS X 10_15_7) AppleWebKit/537.36 (KHTML, like Gecko) Chrome/136.0.0.0 Safari/537.36","Macintosh","Chrome","136.0.0.0","OS X","10_15_7","https://app.prolific.com/","en-GB,en-US;q=0.9,en;q=0.8","67d6aaa962783013102482a0","683db6dfa200031b80f2a654","686507848b10cf9f6d70fe23","67d6aaa962783013102482a0","2025-07-02T10:50:11.120Z","","","","","","StressQ","","","","","","","","","","","","","","","","","","","","","","","","","","","","","","","","","","","","","","50"
"3776","","<div style=""width:500px;"">
  <p>What best describes how you currently feel?</p>
  </div>","65","html-slider-response","45","1233171","0.0-10.0-4.1","199","1","2025-07-02 10:29:39","80fe4187154257d5fb01684ea91b68b9","41.13.84.116","Mozilla/5.0 (Macintosh; Intel Mac OS X 10_15_7) AppleWebKit/537.36 (KHTML, like Gecko) Chrome/136.0.0.0 Safari/537.36","Macintosh","Chrome","136.0.0.0","OS X","10_15_7","https://app.prolific.com/","en-GB,en-US;q=0.9,en;q=0.8","67d6aaa962783013102482a0","683db6dfa200031b80f2a654","686507848b10cf9f6d70fe23","67d6aaa962783013102482a0","2025-07-02T10:50:14.897Z","","","","","","MotivationQ","","","","","","","","","","","","","","","","","","","","","","","","","","","","","","","","","","","","","","50"
"","","","","ctl-task-cpt","46","1247699","0.0-10.0-0.2","199","1","2025-07-02 10:29:39","80fe4187154257d5fb01684ea91b68b9","41.13.84.116","Mozilla/5.0 (Macintosh; Intel Mac OS X 10_15_7) AppleWebKit/537.36 (KHTML, like Gecko) Chrome/136.0.0.0 Safari/537.36","Macintosh","Chrome","136.0.0.0","OS X","10_15_7","https://app.prolific.com/","en-GB,en-US;q=0.9,en;q=0.8","67d6aaa962783013102482a0","683db6dfa200031b80f2a654","686507848b10cf9f6d70fe23","67d6aaa962783013102482a0","2025-07-02T10:50:29.425Z","","","","","","","","","","","","","","","","win-only","2","g1:SE,g2:NW","0.8","3","0","1235943.6","2513.2","7516.2","11520.7","1","4","8","6","2","-8","-8","0","0","0","3128","3000","-3000","[""left"",""up""]","{""num_key_presses"":0,""num_perfect"":0,""num_errors"":0,""num_randdir"":0,""num_randdir_good_moves"":0,""num_whilered"":0,""num_whileblue"":0,""num_blue"":0,""num_good_moves"":0}","[696.2857142857143,678.0825892857143,0.2,696.2857142857143,678.0825892857143,102.9,696.2857142857143,678.0825892857143,202.9,696.2857142857143,678.0825892857143,307.6,696.2857142857143,678.0825892857143,413.8,696.2857142857143,678.0825892857143,515.7,696.2857142857143,678.0825892857143,617.8,696.2857142857143,678.0825892857143,718.1,696.2857142857143,678.0825892857143,823.9,696.2857142857143,678.0825892857143,928.2,696.2857142857143,678.0825892857143,1030.3,696.2857142857143,678.0825892857143,1133.2,696.2857142857143,678.0825892857143,1233.2,696.2857142857143,678.0825892857143,1333.4,696.2857142857143,678.0825892857143,1433.4,696.2857142857143,678.0825892857143,1538.1,696.2857142857143,678.0825892857143,1638.5,696.2857142857143,678.0825892857143,1742.2,696.2857142857143,678.0825892857143,1847.3,696.2857142857143,678.0825892857143,1947.9,696.2857142857143,678.0825892857143,2048.9,696.2857142857143,678.0825892857143,2153.1,696.2857142857143,678.0825892857143,2258.2,632.2857142857143,602.0825892857143,2364.2,424.2857142857143,332.0825892857143,2468.1,204.28571428571428,-3.917410714285708,2579.1,188.28571428571428,-31.917410714285708,2683.3,186.28571428571428,-25.917410714285708,2788.3,154.28571428571428,36.08258928571429,2892.9,128.28571428571428,82.08258928571429,2995.1,126.28571428571429,92.08258928571429,3095.2,128.28571428571428,94.08258928571429,3198.3,128.28571428571428,94.08258928571429,3298.5,128.28571428571428,94.08258928571429,3402.8,128.28571428571428,94.08258928571429,3503.5,128.28571428571428,94.08258928571429,3607.5,128.28571428571428,94.08258928571429,3707.7,178.28571428571428,190.08258928571428,3808.2,310.2857142857143,536.0825892857143,3908.2,376.2857142857143,744.0825892857143,4008.3,386.2857142857143,804.0825892857143,4113.6,388.2857142857143,806.0825892857143,4214.7,388.2857142857143,806.0825892857143,4318.6,388.2857142857143,806.0825892857143,4422.5,388.2857142857143,806.0825892857143,4522.9,388.2857142857143,806.0825892857143,4623.2,388.2857142857143,806.0825892857143,4728.2,388.2857142857143,806.0825892857143,4828.2,388.2857142857143,806.0825892857143,4932.8]","[]","",""
"15928","","<div style=""width:500px;"">
  <p>What determined the result of this run?</p>
  </div>","75","html-slider-response","47","1263628","0.0-10.0-1.2","199","1","2025-07-02 10:29:39","80fe4187154257d5fb01684ea91b68b9","41.13.84.116","Mozilla/5.0 (Macintosh; Intel Mac OS X 10_15_7) AppleWebKit/537.36 (KHTML, like Gecko) Chrome/136.0.0.0 Safari/537.36","Macintosh","Chrome","136.0.0.0","OS X","10_15_7","https://app.prolific.com/","en-GB,en-US;q=0.9,en;q=0.8","67d6aaa962783013102482a0","683db6dfa200031b80f2a654","686507848b10cf9f6d70fe23","67d6aaa962783013102482a0","2025-07-02T10:50:45.354Z","","","","","","AttribQ","","","","","","","","","","","","","","","","","","","","","","","","","","","","","","","","","","","","","","50"
"4494","","<div style=""width:500px;"">
  <p>How much control did you have over the ball?</p>
  </div>","24","html-slider-response","48","1268123","0.0-10.0-2.2","199","1","2025-07-02 10:29:39","80fe4187154257d5fb01684ea91b68b9","41.13.84.116","Mozilla/5.0 (Macintosh; Intel Mac OS X 10_15_7) AppleWebKit/537.36 (KHTML, like Gecko) Chrome/136.0.0.0 Safari/537.36","Macintosh","Chrome","136.0.0.0","OS X","10_15_7","https://app.prolific.com/","en-GB,en-US;q=0.9,en;q=0.8","67d6aaa962783013102482a0","683db6dfa200031b80f2a654","686507848b10cf9f6d70fe23","67d6aaa962783013102482a0","2025-07-02T10:50:49.849Z","","","","","","ControlQ","","","","","","","","","","","","","","","","","","","","","","","","","","","","","","","","","","","","","","50"
"3751","","<div style=""width:500px;"">
  <p>How would you describe your current emotional state?</p>
  </div>","33","html-slider-response","49","1271875","0.0-10.0-3.2","199","1","2025-07-02 10:29:39","80fe4187154257d5fb01684ea91b68b9","41.13.84.116","Mozilla/5.0 (Macintosh; Intel Mac OS X 10_15_7) AppleWebKit/537.36 (KHTML, like Gecko) Chrome/136.0.0.0 Safari/537.36","Macintosh","Chrome","136.0.0.0","OS X","10_15_7","https://app.prolific.com/","en-GB,en-US;q=0.9,en;q=0.8","67d6aaa962783013102482a0","683db6dfa200031b80f2a654","686507848b10cf9f6d70fe23","67d6aaa962783013102482a0","2025-07-02T10:50:53.601Z","","","","","","StressQ","","","","","","","","","","","","","","","","","","","","","","","","","","","","","","","","","","","","","","50"
"3544","","<div style=""width:500px;"">
  <p>What best describes how you currently feel?</p>
  </div>","31","html-slider-response","50","1275419","0.0-10.0-4.2","199","1","2025-07-02 10:29:39","80fe4187154257d5fb01684ea91b68b9","41.13.84.116","Mozilla/5.0 (Macintosh; Intel Mac OS X 10_15_7) AppleWebKit/537.36 (KHTML, like Gecko) Chrome/136.0.0.0 Safari/537.36","Macintosh","Chrome","136.0.0.0","OS X","10_15_7","https://app.prolific.com/","en-GB,en-US;q=0.9,en;q=0.8","67d6aaa962783013102482a0","683db6dfa200031b80f2a654","686507848b10cf9f6d70fe23","67d6aaa962783013102482a0","2025-07-02T10:50:57.145Z","","","","","","MotivationQ","","","","","","","","","","","","","","","","","","","","","","","","","","","","","","","","","","","","","","50"
"","","","","ctl-task-cpt","51","1291277","0.0-10.0-0.3","199","1","2025-07-02 10:29:39","80fe4187154257d5fb01684ea91b68b9","41.13.84.116","Mozilla/5.0 (Macintosh; Intel Mac OS X 10_15_7) AppleWebKit/537.36 (KHTML, like Gecko) Chrome/136.0.0.0 Safari/537.36","Macintosh","Chrome","136.0.0.0","OS X","10_15_7","https://app.prolific.com/","en-GB,en-US;q=0.9,en;q=0.8","67d6aaa962783013102482a0","683db6dfa200031b80f2a654","686507848b10cf9f6d70fe23","67d6aaa962783013102482a0","2025-07-02T10:51:13.003Z","","","","","","","","","","","","","","","","win-only","0","g1:NW,g2:SE","0.7","4","0","1278193.4","3756.5","8761.5","12851.1","1","4","4","6","2","-4","-4","0","0","0","2183.7","3000","-2985","[""down"",""right""]","{""num_key_presses"":0,""num_perfect"":0,""num_errors"":0,""num_randdir"":0,""num_randdir_good_moves"":0,""num_whilered"":0,""num_whileblue"":0,""num_blue"":0,""num_good_moves"":0}","[684.2857142857143,678.0825892857143,0.4,684.2857142857143,678.0825892857143,100.2,684.2857142857143,678.0825892857143,201.9,684.2857142857143,678.0825892857143,304.4,684.2857142857143,678.0825892857143,404.5,684.2857142857143,678.0825892857143,505,684.2857142857143,678.0825892857143,607.1,684.2857142857143,678.0825892857143,709.3,748.2857142857143,784.0825892857143,811.1,882.2857142857143,1070.0825892857142,914.5,940.2857142857143,1228.0825892857142,1019.2,940.2857142857143,1228.0825892857142,1124.4,940.2857142857143,1228.0825892857142,1229.3,940.2857142857143,1228.0825892857142,1329.8,966.2857142857143,1208.0825892857142,1430.5,1118.2857142857142,1198.0825892857142,1534.5,1204.2857142857142,1238.0825892857142,1636.8,1204.2857142857142,1238.0825892857142,1739.4,1204.2857142857142,1238.0825892857142,1844.4,1204.2857142857142,1238.0825892857142,1944.9,1234.2857142857142,1240.0825892857142,2045,1250.2857142857142,1246.0825892857142,2149.4,1250.2857142857142,1250.0825892857142,2253.7,1250.2857142857142,1250.0825892857142,2354.3,1250.2857142857142,1250.0825892857142,2458.7,1250.2857142857142,1250.0825892857142,2558.9,1250.2857142857142,1250.0825892857142,2659.6,1250.2857142857142,1250.0825892857142,2765.1,1250.2857142857142,1250.0825892857142,2869,1238.2857142857142,1246.0825892857142,2969,1210.2857142857142,1238.0825892857142,3072.3,1198.2857142857142,1232.0825892857142,3174.4,1156.2857142857142,1214.0825892857142,3274.4,1036.2857142857142,1096.0825892857142,3379.4,1012.2857142857143,1044.0825892857142,3485.9,1012.2857142857143,1042.0825892857142,3590,1012.2857142857143,1042.0825892857142,3694.5,1012.2857142857143,1042.0825892857142,3794.9,1012.2857142857143,1036.0825892857142,3899.8,1094.2857142857142,750.0825892857143,4004.6,1152.2857142857142,644.0825892857143,4109.6,1158.2857142857142,640.0825892857143,4214.7,1158.2857142857142,640.0825892857143,4322.5,1158.2857142857142,640.0825892857143,4424.8,1158.2857142857142,640.0825892857143,4529.8,1158.2857142857142,640.0825892857143,4634.8,1158.2857142857142,640.0825892857143,4739.6,1168.2857142857142,794.0825892857143,4844.4,1214.2857142857142,1200.0825892857142,4950.6]","[]","",""
"4590","","<div style=""width:500px;"">
  <p>What determined the result of this run?</p>
  </div>","76","html-slider-response","52","1295868","0.0-10.0-1.3","199","1","2025-07-02 10:29:39","80fe4187154257d5fb01684ea91b68b9","41.13.84.116","Mozilla/5.0 (Macintosh; Intel Mac OS X 10_15_7) AppleWebKit/537.36 (KHTML, like Gecko) Chrome/136.0.0.0 Safari/537.36","Macintosh","Chrome","136.0.0.0","OS X","10_15_7","https://app.prolific.com/","en-GB,en-US;q=0.9,en;q=0.8","67d6aaa962783013102482a0","683db6dfa200031b80f2a654","686507848b10cf9f6d70fe23","67d6aaa962783013102482a0","2025-07-02T10:51:17.594Z","","","","","","AttribQ","","","","","","","","","","","","","","","","","","","","","","","","","","","","","","","","","","","","","","50"
"2869","","<div style=""width:500px;"">
  <p>How much control did you have over the ball?</p>
  </div>","34","html-slider-response","53","1298738","0.0-10.0-2.3","199","1","2025-07-02 10:29:39","80fe4187154257d5fb01684ea91b68b9","41.13.84.116","Mozilla/5.0 (Macintosh; Intel Mac OS X 10_15_7) AppleWebKit/537.36 (KHTML, like Gecko) Chrome/136.0.0.0 Safari/537.36","Macintosh","Chrome","136.0.0.0","OS X","10_15_7","https://app.prolific.com/","en-GB,en-US;q=0.9,en;q=0.8","67d6aaa962783013102482a0","683db6dfa200031b80f2a654","686507848b10cf9f6d70fe23","67d6aaa962783013102482a0","2025-07-02T10:51:20.464Z","","","","","","ControlQ","","","","","","","","","","","","","","","","","","","","","","","","","","","","","","","","","","","","","","50"
"5240","","<div style=""width:500px;"">
  <p>How would you describe your current emotional state?</p>
  </div>","33","html-slider-response","54","1303979","0.0-10.0-3.3","199","1","2025-07-02 10:29:39","80fe4187154257d5fb01684ea91b68b9","41.13.84.116","Mozilla/5.0 (Macintosh; Intel Mac OS X 10_15_7) AppleWebKit/537.36 (KHTML, like Gecko) Chrome/136.0.0.0 Safari/537.36","Macintosh","Chrome","136.0.0.0","OS X","10_15_7","https://app.prolific.com/","en-GB,en-US;q=0.9,en;q=0.8","67d6aaa962783013102482a0","683db6dfa200031b80f2a654","686507848b10cf9f6d70fe23","67d6aaa962783013102482a0","2025-07-02T10:51:25.705Z","","","","","","StressQ","","","","","","","","","","","","","","","","","","","","","","","","","","","","","","","","","","","","","","50"
"3664","","<div style=""width:500px;"">
  <p>What best describes how you currently feel?</p>
  </div>","26","html-slider-response","55","1307644","0.0-10.0-4.3","199","1","2025-07-02 10:29:39","80fe4187154257d5fb01684ea91b68b9","41.13.84.116","Mozilla/5.0 (Macintosh; Intel Mac OS X 10_15_7) AppleWebKit/537.36 (KHTML, like Gecko) Chrome/136.0.0.0 Safari/537.36","Macintosh","Chrome","136.0.0.0","OS X","10_15_7","https://app.prolific.com/","en-GB,en-US;q=0.9,en;q=0.8","67d6aaa962783013102482a0","683db6dfa200031b80f2a654","686507848b10cf9f6d70fe23","67d6aaa962783013102482a0","2025-07-02T10:51:29.370Z","","","","","","MotivationQ","","","","","","","","","","","","","","","","","","","","","","","","","","","","","","","","","","","","","","50"
"","","","","ctl-task-cpt","56","1321796","0.0-10.0-0.4","199","1","2025-07-02 10:29:39","80fe4187154257d5fb01684ea91b68b9","41.13.84.116","Mozilla/5.0 (Macintosh; Intel Mac OS X 10_15_7) AppleWebKit/537.36 (KHTML, like Gecko) Chrome/136.0.0.0 Safari/537.36","Macintosh","Chrome","136.0.0.0","OS X","10_15_7","https://app.prolific.com/","en-GB,en-US;q=0.9,en;q=0.8","67d6aaa962783013102482a0","683db6dfa200031b80f2a654","686507848b10cf9f6d70fe23","67d6aaa962783013102482a0","2025-07-02T10:51:43.522Z","","","","","","","","","","","","","","","","win-only","2","g1:SE,g2:NW","0.6","5","0","1310418.8","1887.4","6890.9","11141.4","1","4","8","6","2","-8","-8","0","0","0","5003.5","3000","-2815","[""left"",""up""]","{""num_key_presses"":0,""num_perfect"":0,""num_errors"":0,""num_randdir"":0,""num_randdir_good_moves"":0,""num_whilered"":0,""num_whileblue"":0,""num_blue"":0,""num_good_moves"":0}","[692.2857142857143,686.0825892857143,0.1,692.2857142857143,686.0825892857143,103.9,692.2857142857143,686.0825892857143,204.2,692.2857142857143,686.0825892857143,304.2,692.2857142857143,686.0825892857143,404.4,692.2857142857143,686.0825892857143,509.3,692.2857142857143,686.0825892857143,609.5,692.2857142857143,686.0825892857143,710.4,720.2857142857143,694.0825892857143,815,778.2857142857143,720.0825892857143,919.2,806.2857142857143,756.0825892857143,1019.4,814.2857142857143,786.0825892857143,1119.4,818.2857142857143,798.0825892857143,1220.8,824.2857142857143,806.0825892857143,1324.6,828.2857142857143,812.0825892857143,1428.8,828.2857142857143,812.0825892857143,1534.7,828.2857142857143,812.0825892857143,1638.9,812.2857142857143,794.0825892857143,1739.4,660.2857142857143,562.0825892857143,1839.5,16.285714285714292,152.08258928571428,1947.7,-145.71428571428572,40.08258928571429,2050.6,0.2857142857142918,40.08258928571429,2153.5,96.28571428571429,50.08258928571429,2253.5,134.28571428571428,68.08258928571429,2354,166.28571428571428,84.08258928571429,2458.2,174.28571428571428,98.08258928571429,2559.2,174.28571428571428,98.08258928571429,2664.5,174.28571428571428,98.08258928571429,2768.8,174.28571428571428,98.08258928571429,2874.2,174.28571428571428,98.08258928571429,2974.2,174.28571428571428,98.08258928571429,3078.1,174.28571428571428,98.08258928571429,3186.9,174.28571428571428,98.08258928571429,3289.1,174.28571428571428,98.08258928571429,3395.5,174.28571428571428,98.08258928571429,3503.1,174.28571428571428,98.08258928571429,3604.1,174.28571428571428,98.08258928571429,3704.1,174.28571428571428,98.08258928571429,3804.1,174.28571428571428,98.08258928571429,3904.3,174.28571428571428,98.08258928571429,4009.5,174.28571428571428,98.08258928571429,4114.2,174.28571428571428,98.08258928571429,4214.5,174.28571428571428,98.08258928571429,4319.1,174.28571428571428,98.08258928571429,4419.7,174.28571428571428,98.08258928571429,4523.7,174.28571428571428,98.08258928571429,4623.8,174.28571428571428,98.08258928571429,4724.4,174.28571428571428,98.08258928571429,4825.1,174.28571428571428,98.08258928571429,4929.6]","[]","",""
"4320","","<div style=""width:500px;"">
  <p>What determined the result of this run?</p>
  </div>","21","html-slider-response","57","1326117","0.0-10.0-1.4","199","1","2025-07-02 10:29:39","80fe4187154257d5fb01684ea91b68b9","41.13.84.116","Mozilla/5.0 (Macintosh; Intel Mac OS X 10_15_7) AppleWebKit/537.36 (KHTML, like Gecko) Chrome/136.0.0.0 Safari/537.36","Macintosh","Chrome","136.0.0.0","OS X","10_15_7","https://app.prolific.com/","en-GB,en-US;q=0.9,en;q=0.8","67d6aaa962783013102482a0","683db6dfa200031b80f2a654","686507848b10cf9f6d70fe23","67d6aaa962783013102482a0","2025-07-02T10:51:47.843Z","","","","","","AttribQ","","","","","","","","","","","","","","","","","","","","","","","","","","","","","","","","","","","","","","50"
"3832","","<div style=""width:500px;"">
  <p>How much control did you have over the ball?</p>
  </div>","28","html-slider-response","58","1329949","0.0-10.0-2.4","199","1","2025-07-02 10:29:39","80fe4187154257d5fb01684ea91b68b9","41.13.84.116","Mozilla/5.0 (Macintosh; Intel Mac OS X 10_15_7) AppleWebKit/537.36 (KHTML, like Gecko) Chrome/136.0.0.0 Safari/537.36","Macintosh","Chrome","136.0.0.0","OS X","10_15_7","https://app.prolific.com/","en-GB,en-US;q=0.9,en;q=0.8","67d6aaa962783013102482a0","683db6dfa200031b80f2a654","686507848b10cf9f6d70fe23","67d6aaa962783013102482a0","2025-07-02T10:51:51.675Z","","","","","","ControlQ","","","","","","","","","","","","","","","","","","","","","","","","","","","","","","","","","","","","","","50"
"4006","","<div style=""width:500px;"">
  <p>How would you describe your current emotional state?</p>
  </div>","21","html-slider-response","59","1333957","0.0-10.0-3.4","199","1","2025-07-02 10:29:39","80fe4187154257d5fb01684ea91b68b9","41.13.84.116","Mozilla/5.0 (Macintosh; Intel Mac OS X 10_15_7) AppleWebKit/537.36 (KHTML, like Gecko) Chrome/136.0.0.0 Safari/537.36","Macintosh","Chrome","136.0.0.0","OS X","10_15_7","https://app.prolific.com/","en-GB,en-US;q=0.9,en;q=0.8","67d6aaa962783013102482a0","683db6dfa200031b80f2a654","686507848b10cf9f6d70fe23","67d6aaa962783013102482a0","2025-07-02T10:51:55.683Z","","","","","","StressQ","","","","","","","","","","","","","","","","","","","","","","","","","","","","","","","","","","","","","","50"
"3616","","<div style=""width:500px;"">
  <p>What best describes how you currently feel?</p>
  </div>","26","html-slider-response","60","1337574","0.0-10.0-4.4","199","1","2025-07-02 10:29:39","80fe4187154257d5fb01684ea91b68b9","41.13.84.116","Mozilla/5.0 (Macintosh; Intel Mac OS X 10_15_7) AppleWebKit/537.36 (KHTML, like Gecko) Chrome/136.0.0.0 Safari/537.36","Macintosh","Chrome","136.0.0.0","OS X","10_15_7","https://app.prolific.com/","en-GB,en-US;q=0.9,en;q=0.8","67d6aaa962783013102482a0","683db6dfa200031b80f2a654","686507848b10cf9f6d70fe23","67d6aaa962783013102482a0","2025-07-02T10:51:59.300Z","","","","","","MotivationQ","","","","","","","","","","","","","","","","","","","","","","","","","","","","","","","","","","","","","","50"
"","","","","ctl-task-cpt","61","1379426","0.0-10.0-0.5","199","1","2025-07-02 10:29:39","80fe4187154257d5fb01684ea91b68b9","41.13.84.116","Mozilla/5.0 (Macintosh; Intel Mac OS X 10_15_7) AppleWebKit/537.36 (KHTML, like Gecko) Chrome/136.0.0.0 Safari/537.36","Macintosh","Chrome","136.0.0.0","OS X","10_15_7","https://app.prolific.com/","en-GB,en-US;q=0.9,en;q=0.8","67d6aaa962783013102482a0","683db6dfa200031b80f2a654","686507848b10cf9f6d70fe23","67d6aaa962783013102482a0","2025-07-02T10:52:41.152Z","","","","","","","","","","","","","","","","win-only","3","g1:SW,g2:NE","0.5","6","0","1340349.8","1697.1","6701.9","38844.2","1","4","4","6","1","-1","-6","0","0","0","2750.9","3000","-2680","[""down"",""left""]","{""num_key_presses"":14,""num_perfect"":4,""num_errors"":5,""num_randdir"":2,""num_randdir_good_moves"":1,""num_whilered"":3,""num_whileblue"":0,""num_blue"":0,""num_good_moves"":4}","[690.2857142857143,684.0825892857143,0,690.2857142857143,686.0825892857143,102.5,690.2857142857143,686.0825892857143,210,690.2857142857143,686.0825892857143,310.3,690.2857142857143,686.0825892857143,414.8,690.2857142857143,686.0825892857143,519.9,690.2857142857143,686.0825892857143,620,688.2857142857143,688.0825892857143,720.1,660.2857142857143,728.0825892857143,824.3,654.2857142857143,742.0825892857143,929.5,640.2857142857143,758.0825892857143,1030.4,622.2857142857143,772.0825892857143,1134.4,604.2857142857143,782.0825892857143,1234.8,598.2857142857143,768.0825892857143,1340.2,636.2857142857143,712.0825892857143,1444.9,716.2857142857143,658.0825892857143,1550.2,740.2857142857143,650.0825892857143,1659.6,644.2857142857143,736.0825892857143,1764.1,434.2857142857143,950.0825892857143,1864.9,246.28571428571428,1168.0825892857142,1969.4,132.28571428571428,1300.0825892857142,2078.7,118.28571428571429,1308.0825892857142,2179,114.28571428571429,1308.0825892857142,2280.3,114.28571428571429,1306.0825892857142,2380.3,118.28571428571429,1302.0825892857142,2485.1,118.28571428571429,1302.0825892857142,2593.2,118.28571428571429,1302.0825892857142,2699.8,120.28571428571429,1302.0825892857142,2805.3,120.28571428571429,1302.0825892857142,2906.6,120.28571428571429,1302.0825892857142,3007.2,120.28571428571429,1302.0825892857142,3114.1,120.28571428571429,1302.0825892857142,3218.1,120.28571428571429,1302.0825892857142,3319.5,120.28571428571429,1302.0825892857142,3427.9,120.28571428571429,1302.0825892857142,3528.4,120.28571428571429,1302.0825892857142,3635.9,120.28571428571429,1302.0825892857142,3743.4,120.28571428571429,1302.0825892857142,3844.2,120.28571428571429,1302.0825892857142,3944.4,120.28571428571429,1302.0825892857142,4050.2,120.28571428571429,1302.0825892857142,4157.3,120.28571428571429,1302.0825892857142,4258.5,120.28571428571429,1302.0825892857142,4363.8,120.28571428571429,1302.0825892857142,4464.1,120.28571428571429,1302.0825892857142,4568.7,120.28571428571429,1302.0825892857142,4669.2,120.28571428571429,1302.0825892857142,4774,120.28571428571429,1302.0825892857142,4874.9,120.28571428571429,1302.0825892857142,4980.8]","[197.1,197.1,1000,0,-802.9,""error"",""-"",""-"",""no_move"",501.1,303.9,1000,0,-498.9,""while_red"",""-"",""-"",""no_move"",819,621.8,1000,0,-181,""while_red"",""-"",""-"",""no_move"",3958,3760.8,2724.4,1199.6,34,""smooth"",""right"",""right"",""bad_move"",4554.5,596.1,2531,3958.4,-1934.9,""error"",""-"",""-"",""no_move"",8637.1,4082.5,2541,5558.6,537.5,""smooth"",""left"",""left"",""good_move"",10150.5,1513.1,2397.3,8637.4,-884.2,""error"",""-"",""-"",""no_move"",10598,447.3,2397.3,8637.4,-436.7,""while_red"",""-"",""-"",""no_move"",11925,1774.3,2888.3,11154.1,-2117.4,""error"",""-"",""-"",""no_move"",16590.3,4665.2,2952.9,12925.2,712.2,""oops"",""down"",""left"",""good_move"",19973.7,3381.9,2788.2,16591.8,593.7,""smooth"",""down"",""down"",""good_move"",23179.5,3205.7,2674.1,19973.8,531.6,""oops"",""down"",""up"",""bad_move"",24722.7,1542.9,1914.1,23179.9,-371.3,""error"",""-"",""-"",""no_move"",29143.2,4420.3,2850.3,25724.1,568.8,""smooth"",""down"",""down"",""good_move""]","",""
"5129","","<div style=""width:500px;"">
  <p>What determined the result of this run?</p>
  </div>","67","html-slider-response","62","1384555","0.0-10.0-1.5","199","1","2025-07-02 10:29:39","80fe4187154257d5fb01684ea91b68b9","41.13.84.116","Mozilla/5.0 (Macintosh; Intel Mac OS X 10_15_7) AppleWebKit/537.36 (KHTML, like Gecko) Chrome/136.0.0.0 Safari/537.36","Macintosh","Chrome","136.0.0.0","OS X","10_15_7","https://app.prolific.com/","en-GB,en-US;q=0.9,en;q=0.8","67d6aaa962783013102482a0","683db6dfa200031b80f2a654","686507848b10cf9f6d70fe23","67d6aaa962783013102482a0","2025-07-02T10:52:46.281Z","","","","","","AttribQ","","","","","","","","","","","","","","","","","","","","","","","","","","","","","","","","","","","","","","50"
"3024","","<div style=""width:500px;"">
  <p>How much control did you have over the ball?</p>
  </div>","30","html-slider-response","63","1387580","0.0-10.0-2.5","199","1","2025-07-02 10:29:39","80fe4187154257d5fb01684ea91b68b9","41.13.84.116","Mozilla/5.0 (Macintosh; Intel Mac OS X 10_15_7) AppleWebKit/537.36 (KHTML, like Gecko) Chrome/136.0.0.0 Safari/537.36","Macintosh","Chrome","136.0.0.0","OS X","10_15_7","https://app.prolific.com/","en-GB,en-US;q=0.9,en;q=0.8","67d6aaa962783013102482a0","683db6dfa200031b80f2a654","686507848b10cf9f6d70fe23","67d6aaa962783013102482a0","2025-07-02T10:52:49.306Z","","","","","","ControlQ","","","","","","","","","","","","","","","","","","","","","","","","","","","","","","","","","","","","","","50"
"11476","","<div style=""width:500px;"">
  <p>How would you describe your current emotional state?</p>
  </div>","63","html-slider-response","64","1399057","0.0-10.0-3.5","199","1","2025-07-02 10:29:39","80fe4187154257d5fb01684ea91b68b9","41.13.84.116","Mozilla/5.0 (Macintosh; Intel Mac OS X 10_15_7) AppleWebKit/537.36 (KHTML, like Gecko) Chrome/136.0.0.0 Safari/537.36","Macintosh","Chrome","136.0.0.0","OS X","10_15_7","https://app.prolific.com/","en-GB,en-US;q=0.9,en;q=0.8","67d6aaa962783013102482a0","683db6dfa200031b80f2a654","686507848b10cf9f6d70fe23","67d6aaa962783013102482a0","2025-07-02T10:53:00.783Z","","","","","","StressQ","","","","","","","","","","","","","","","","","","","","","","","","","","","","","","","","","","","","","","50"
"3653","","<div style=""width:500px;"">
  <p>What best describes how you currently feel?</p>
  </div>","30","html-slider-response","65","1402711","0.0-10.0-4.5","199","1","2025-07-02 10:29:39","80fe4187154257d5fb01684ea91b68b9","41.13.84.116","Mozilla/5.0 (Macintosh; Intel Mac OS X 10_15_7) AppleWebKit/537.36 (KHTML, like Gecko) Chrome/136.0.0.0 Safari/537.36","Macintosh","Chrome","136.0.0.0","OS X","10_15_7","https://app.prolific.com/","en-GB,en-US;q=0.9,en;q=0.8","67d6aaa962783013102482a0","683db6dfa200031b80f2a654","686507848b10cf9f6d70fe23","67d6aaa962783013102482a0","2025-07-02T10:53:04.438Z","","","","","","MotivationQ","","","","","","","","","","","","","","","","","","","","","","","","","","","","","","","","","","","","","","50"
"","","","","ctl-task-cpt","66","1430533","0.0-10.0-0.6","199","1","2025-07-02 10:29:39","80fe4187154257d5fb01684ea91b68b9","41.13.84.116","Mozilla/5.0 (Macintosh; Intel Mac OS X 10_15_7) AppleWebKit/537.36 (KHTML, like Gecko) Chrome/136.0.0.0 Safari/537.36","Macintosh","Chrome","136.0.0.0","OS X","10_15_7","https://app.prolific.com/","en-GB,en-US;q=0.9,en;q=0.8","67d6aaa962783013102482a0","683db6dfa200031b80f2a654","686507848b10cf9f6d70fe23","67d6aaa962783013102482a0","2025-07-02T10:53:32.259Z","","","","","","","","","","","","","","","","win-only","3","g1:SW,g2:NE","0.4","7","0","1405489.6","1216.2","6217.5","24811.6","1","4","4","6","2","-4","-4","0","0","0","3066.9","3000","-2740","[""up"",""right""]","{""num_key_presses"":4,""num_perfect"":2,""num_errors"":0,""num_randdir"":2,""num_randdir_good_moves"":1,""num_whilered"":0,""num_whileblue"":0,""num_blue"":1,""num_good_moves"":1}","[694.2857142857143,696.0825892857143,0.2,694.2857142857143,696.0825892857143,103.5,694.2857142857143,696.0825892857143,215.8,694.2857142857143,696.0825892857143,320.1,694.2857142857143,696.0825892857143,423.9,694.2857142857143,696.0825892857143,526.7,694.2857142857143,696.0825892857143,630.3,694.2857142857143,696.0825892857143,734.7,694.2857142857143,696.0825892857143,836.9,678.2857142857143,716.0825892857143,940.3,650.2857142857143,750.0825892857143,1044,632.2857142857143,770.0825892857143,1145.6,608.2857142857143,792.0825892857143,1247.9,580.2857142857143,824.0825892857143,1350.2,538.2857142857143,870.0825892857143,1450.9,492.2857142857143,912.0825892857143,1551.2,798.2857142857143,574.0825892857143,1651.2,1242.2857142857142,248.08258928571428,1754.9,1242.2857142857142,248.08258928571428,1856.5,1236.2857142857142,256.0825892857143,1957.2,1232.2857142857142,232.08258928571428,2060.6,1286.2857142857142,118.08258928571429,2160.9,1288.2857142857142,106.08258928571429,2266.1,1288.2857142857142,106.08258928571429,2366.6,1288.2857142857142,106.08258928571429,2470,1288.2857142857142,106.08258928571429,2574.8,1288.2857142857142,110.08258928571429,2680.9,1288.2857142857142,110.08258928571429,2781.3,1288.2857142857142,110.08258928571429,2891.3,1288.2857142857142,110.08258928571429,2994.7,1288.2857142857142,110.08258928571429,3096,1288.2857142857142,110.08258928571429,3200.2,1288.2857142857142,110.08258928571429,3301.2,1288.2857142857142,110.08258928571429,3405.8,1288.2857142857142,110.08258928571429,3510.5,1288.2857142857142,110.08258928571429,3611.5,1288.2857142857142,110.08258928571429,3718.1,1284.2857142857142,114.08258928571429,3821,1144.2857142857142,266.0825892857143,3925.6,1044.2857142857142,414.0825892857143,4036.3,928.2857142857143,600.0825892857143,4141.5,848.2857142857143,702.0825892857143,4242,804.2857142857143,740.0825892857143,4346,756.2857142857143,762.0825892857143,4446.3,702.2857142857143,776.0825892857143,4551.4,690.2857142857143,778.0825892857143,4655.4,690.2857142857143,778.0825892857143,4755.8,690.2857142857143,778.0825892857143,4860.2,690.2857142857143,778.0825892857143,4969.2]","[2032.1,2032.1,1000,0,1032.1,""smooth"",""left"",""left"",""bad_move"",4874.9,2842.6,2161.1,2032.4,681.4,""smooth"",""left"",""left"",""bad_move"",8552.4,3677.4,3196.4,4875,481,""oops"",""down"",""down"",""bad_move"",15703.7,7151.1,3199.9,11920.1,583.7,""oops"",""down"",""right"",""good_move""]","",""
"4411","","<div style=""width:500px;"">
  <p>What determined the result of this run?</p>
  </div>","63","html-slider-response","67","1434944","0.0-10.0-1.6","199","1","2025-07-02 10:29:39","80fe4187154257d5fb01684ea91b68b9","41.13.84.116","Mozilla/5.0 (Macintosh; Intel Mac OS X 10_15_7) AppleWebKit/537.36 (KHTML, like Gecko) Chrome/136.0.0.0 Safari/537.36","Macintosh","Chrome","136.0.0.0","OS X","10_15_7","https://app.prolific.com/","en-GB,en-US;q=0.9,en;q=0.8","67d6aaa962783013102482a0","683db6dfa200031b80f2a654","686507848b10cf9f6d70fe23","67d6aaa962783013102482a0","2025-07-02T10:53:36.670Z","","","","","","AttribQ","","","","","","","","","","","","","","","","","","","","","","","","","","","","","","","","","","","","","","50"
"4095","","<div style=""width:500px;"">
  <p>How much control did you have over the ball?</p>
  </div>","62","html-slider-response","68","1439040","0.0-10.0-2.6","199","1","2025-07-02 10:29:39","80fe4187154257d5fb01684ea91b68b9","41.13.84.116","Mozilla/5.0 (Macintosh; Intel Mac OS X 10_15_7) AppleWebKit/537.36 (KHTML, like Gecko) Chrome/136.0.0.0 Safari/537.36","Macintosh","Chrome","136.0.0.0","OS X","10_15_7","https://app.prolific.com/","en-GB,en-US;q=0.9,en;q=0.8","67d6aaa962783013102482a0","683db6dfa200031b80f2a654","686507848b10cf9f6d70fe23","67d6aaa962783013102482a0","2025-07-02T10:53:40.766Z","","","","","","ControlQ","","","","","","","","","","","","","","","","","","","","","","","","","","","","","","","","","","","","","","50"
"3814","","<div style=""width:500px;"">
  <p>How would you describe your current emotional state?</p>
  </div>","65","html-slider-response","69","1442855","0.0-10.0-3.6","199","1","2025-07-02 10:29:39","80fe4187154257d5fb01684ea91b68b9","41.13.84.116","Mozilla/5.0 (Macintosh; Intel Mac OS X 10_15_7) AppleWebKit/537.36 (KHTML, like Gecko) Chrome/136.0.0.0 Safari/537.36","Macintosh","Chrome","136.0.0.0","OS X","10_15_7","https://app.prolific.com/","en-GB,en-US;q=0.9,en;q=0.8","67d6aaa962783013102482a0","683db6dfa200031b80f2a654","686507848b10cf9f6d70fe23","67d6aaa962783013102482a0","2025-07-02T10:53:44.582Z","","","","","","StressQ","","","","","","","","","","","","","","","","","","","","","","","","","","","","","","","","","","","","","","50"
"4001","","<div style=""width:500px;"">
  <p>What best describes how you currently feel?</p>
  </div>","60","html-slider-response","70","1446857","0.0-10.0-4.6","199","1","2025-07-02 10:29:39","80fe4187154257d5fb01684ea91b68b9","41.13.84.116","Mozilla/5.0 (Macintosh; Intel Mac OS X 10_15_7) AppleWebKit/537.36 (KHTML, like Gecko) Chrome/136.0.0.0 Safari/537.36","Macintosh","Chrome","136.0.0.0","OS X","10_15_7","https://app.prolific.com/","en-GB,en-US;q=0.9,en;q=0.8","67d6aaa962783013102482a0","683db6dfa200031b80f2a654","686507848b10cf9f6d70fe23","67d6aaa962783013102482a0","2025-07-02T10:53:48.583Z","","","","","","MotivationQ","","","","","","","","","","","","","","","","","","","","","","","","","","","","","","","","","","","","","","50"
"","","","","ctl-task-cpt","71","1481713","0.0-10.0-0.7","199","1","2025-07-02 10:29:39","80fe4187154257d5fb01684ea91b68b9","41.13.84.116","Mozilla/5.0 (Macintosh; Intel Mac OS X 10_15_7) AppleWebKit/537.36 (KHTML, like Gecko) Chrome/136.0.0.0 Safari/537.36","Macintosh","Chrome","136.0.0.0","OS X","10_15_7","https://app.prolific.com/","en-GB,en-US;q=0.9,en;q=0.8","67d6aaa962783013102482a0","683db6dfa200031b80f2a654","686507848b10cf9f6d70fe23","67d6aaa962783013102482a0","2025-07-02T10:54:23.439Z","","","","","","","","","","","","","","","","win-only","3","g1:SW,g2:NE","0.3","8","0","1449636.6","2512.8","7515.5","31846","1","4","8","6","2","-8","-8","0","0","0","2463","3000","-2770","[""up"",""right""]","{""num_key_presses"":5,""num_perfect"":3,""num_errors"":0,""num_randdir"":2,""num_randdir_good_moves"":1,""num_whilered"":0,""num_whileblue"":0,""num_blue"":2,""num_good_moves"":4}","[688.2857142857143,700.0825892857143,0.2,688.2857142857143,700.0825892857143,102.7,688.2857142857143,700.0825892857143,203.1,688.2857142857143,700.0825892857143,306.9,688.2857142857143,700.0825892857143,407.7,688.2857142857143,700.0825892857143,507.9,688.2857142857143,700.0825892857143,613.4,688.2857142857143,700.0825892857143,718.1,676.2857142857143,722.0825892857143,823.5,644.2857142857143,770.0825892857143,927.8,648.2857142857143,762.0825892857143,1027.9,1008.2857142857143,386.0825892857143,1132.7,1048.2857142857142,362.0825892857143,1232.9,1048.2857142857142,362.0825892857143,1333,1048.2857142857142,354.0825892857143,1433.1,1202.2857142857142,154.08258928571428,1537.6,1294.2857142857142,72.08258928571429,1637.9,1300.2857142857142,68.08258928571429,1741.2,1300.2857142857142,70.08258928571429,1841.8,1294.2857142857142,76.08258928571429,1943.5,1276.2857142857142,90.08258928571429,2043.8,1274.2857142857142,92.08258928571429,2147.8,1274.2857142857142,92.08258928571429,2248.3,1274.2857142857142,94.08258928571429,2353.2,1274.2857142857142,96.08258928571429,2453.3,1274.2857142857142,96.08258928571429,2557.5,1274.2857142857142,96.08258928571429,2664.6,1274.2857142857142,96.08258928571429,2770.7,1274.2857142857142,96.08258928571429,2873,1274.2857142857142,96.08258928571429,2977.3,1226.2857142857142,152.08258928571428,3077.8,1070.2857142857142,376.0825892857143,3178,950.2857142857143,566.0825892857143,3278,846.2857142857143,666.0825892857143,3383.3,746.2857142857143,748.0825892857143,3491.8,702.2857142857143,792.0825892857143,3594.9,702.2857142857143,792.0825892857143,3698.6,702.2857142857143,792.0825892857143,3803.2,702.2857142857143,792.0825892857143,3904,672.2857142857143,798.0825892857143,4004.9,606.2857142857143,814.0825892857143,4106,582.2857142857143,816.0825892857143,4211.6,574.2857142857143,818.0825892857143,4313.5,570.2857142857143,818.0825892857143,4418.5,568.2857142857143,818.0825892857143,4523.9,568.2857142857143,818.0825892857143,4627.8,568.2857142857143,818.0825892857143,4728.3,568.2857142857143,818.0825892857143,4828.4,568.2857142857143,818.0825892857143,4933.2]","[4759.4,4759.4,2206.9,2010.8,541.7,""oops"",""up"",""left"",""bad_move"",7948.8,3189,2680,4759.8,509,""smooth"",""right"",""right"",""good_move"",11106.4,3157.3,2624,7949.1,533.3,""oops"",""right"",""up"",""good_move"",14072.3,2965.8,2260.9,11106.5,704.9,""smooth"",""right"",""right"",""good_move"",17422.4,3350,2745.7,14072.4,604.3,""smooth"",""right"",""right"",""good_move""]","",""
"3277","","<div style=""width:500px;"">
  <p>What determined the result of this run?</p>
  </div>","71","html-slider-response","72","1484991","0.0-10.0-1.7","199","1","2025-07-02 10:29:39","80fe4187154257d5fb01684ea91b68b9","41.13.84.116","Mozilla/5.0 (Macintosh; Intel Mac OS X 10_15_7) AppleWebKit/537.36 (KHTML, like Gecko) Chrome/136.0.0.0 Safari/537.36","Macintosh","Chrome","136.0.0.0","OS X","10_15_7","https://app.prolific.com/","en-GB,en-US;q=0.9,en;q=0.8","67d6aaa962783013102482a0","683db6dfa200031b80f2a654","686507848b10cf9f6d70fe23","67d6aaa962783013102482a0","2025-07-02T10:54:26.717Z","","","","","","AttribQ","","","","","","","","","","","","","","","","","","","","","","","","","","","","","","","","","","","","","","50"
"3016","","<div style=""width:500px;"">
  <p>How much control did you have over the ball?</p>
  </div>","70","html-slider-response","73","1488008","0.0-10.0-2.7","199","1","2025-07-02 10:29:39","80fe4187154257d5fb01684ea91b68b9","41.13.84.116","Mozilla/5.0 (Macintosh; Intel Mac OS X 10_15_7) AppleWebKit/537.36 (KHTML, like Gecko) Chrome/136.0.0.0 Safari/537.36","Macintosh","Chrome","136.0.0.0","OS X","10_15_7","https://app.prolific.com/","en-GB,en-US;q=0.9,en;q=0.8","67d6aaa962783013102482a0","683db6dfa200031b80f2a654","686507848b10cf9f6d70fe23","67d6aaa962783013102482a0","2025-07-02T10:54:29.734Z","","","","","","ControlQ","","","","","","","","","","","","","","","","","","","","","","","","","","","","","","","","","","","","","","50"
"3495","","<div style=""width:500px;"">
  <p>How would you describe your current emotional state?</p>
  </div>","68","html-slider-response","74","1491504","0.0-10.0-3.7","199","1","2025-07-02 10:29:39","80fe4187154257d5fb01684ea91b68b9","41.13.84.116","Mozilla/5.0 (Macintosh; Intel Mac OS X 10_15_7) AppleWebKit/537.36 (KHTML, like Gecko) Chrome/136.0.0.0 Safari/537.36","Macintosh","Chrome","136.0.0.0","OS X","10_15_7","https://app.prolific.com/","en-GB,en-US;q=0.9,en;q=0.8","67d6aaa962783013102482a0","683db6dfa200031b80f2a654","686507848b10cf9f6d70fe23","67d6aaa962783013102482a0","2025-07-02T10:54:33.230Z","","","","","","StressQ","","","","","","","","","","","","","","","","","","","","","","","","","","","","","","","","","","","","","","50"
"3472","","<div style=""width:500px;"">
  <p>What best describes how you currently feel?</p>
  </div>","68","html-slider-response","75","1494977","0.0-10.0-4.7","199","1","2025-07-02 10:29:39","80fe4187154257d5fb01684ea91b68b9","41.13.84.116","Mozilla/5.0 (Macintosh; Intel Mac OS X 10_15_7) AppleWebKit/537.36 (KHTML, like Gecko) Chrome/136.0.0.0 Safari/537.36","Macintosh","Chrome","136.0.0.0","OS X","10_15_7","https://app.prolific.com/","en-GB,en-US;q=0.9,en;q=0.8","67d6aaa962783013102482a0","683db6dfa200031b80f2a654","686507848b10cf9f6d70fe23","67d6aaa962783013102482a0","2025-07-02T10:54:36.703Z","","","","","","MotivationQ","","","","","","","","","","","","","","","","","","","","","","","","","","","","","","","","","","","","","","50"
"","","","","ctl-task-cpt","76","1524650","0.0-10.0-0.8","199","1","2025-07-02 10:29:39","80fe4187154257d5fb01684ea91b68b9","41.13.84.116","Mozilla/5.0 (Macintosh; Intel Mac OS X 10_15_7) AppleWebKit/537.36 (KHTML, like Gecko) Chrome/136.0.0.0 Safari/537.36","Macintosh","Chrome","136.0.0.0","OS X","10_15_7","https://app.prolific.com/","en-GB,en-US;q=0.9,en;q=0.8","67d6aaa962783013102482a0","683db6dfa200031b80f2a654","686507848b10cf9f6d70fe23","67d6aaa962783013102482a0","2025-07-02T10:55:06.376Z","","","","","","","","","","","","","","","","win-only","2","g1:SE,g2:NW","0.4","9","0","1497757.9","1816.1","6821.9","26663.7","1","4","8","6","1","-1","-2","0","0","0","2311.5","3000","-2730","[""down"",""right""]","{""num_key_presses"":4,""num_perfect"":2,""num_errors"":1,""num_randdir"":1,""num_randdir_good_moves"":1,""num_whilered"":0,""num_whileblue"":0,""num_blue"":2,""num_good_moves"":2}","[704.2857142857143,680.0825892857143,0.1,704.2857142857143,680.0825892857143,102.2,704.2857142857143,680.0825892857143,205.4,704.2857142857143,680.0825892857143,309.6,704.2857142857143,680.0825892857143,410.9,704.2857142857143,680.0825892857143,514.6,788.2857142857143,706.0825892857143,615.7,888.2857142857143,760.0825892857143,721.2,1012.2857142857143,910.0825892857143,822,1060.2857142857142,970.0825892857143,924.4,1060.2857142857142,970.0825892857143,1027,1060.2857142857142,970.0825892857143,1129.8,920.2857142857143,846.0825892857143,1236.6,808.2857142857143,704.0825892857143,1340.3,786.2857142857143,682.0825892857143,1444.5,786.2857142857143,682.0825892857143,1544.9,904.2857142857143,800.0825892857143,1647.6,1394.2857142857142,1312.0825892857142,1754,1438.2857142857142,1378.0825892857142,1856.6,1438.2857142857142,1376.0825892857142,1961,1352.2857142857142,1354.0825892857142,2062.7,1286.2857142857142,1328.0825892857142,2168.1,1260.2857142857142,1310.0825892857142,2272,1260.2857142857142,1310.0825892857142,2379.6,1260.2857142857142,1310.0825892857142,2483.3,1260.2857142857142,1310.0825892857142,2588.5,1260.2857142857142,1310.0825892857142,2691.6,1260.2857142857142,1310.0825892857142,2794.6,1260.2857142857142,1310.0825892857142,2895.6,1246.2857142857142,1306.0825892857142,2995.8,1186.2857142857142,1272.0825892857142,3097,1148.2857142857142,1208.0825892857142,3204.4,1146.2857142857142,1172.0825892857142,3306,1156.2857142857142,1148.0825892857142,3406.2,1156.2857142857142,1136.0825892857142,3509.1,1110.2857142857142,1062.0825892857142,3612.5,1060.2857142857142,1012.0825892857143,3715.9,1058.2857142857142,1012.0825892857143,3820.9,1058.2857142857142,1012.0825892857143,3924.6,1058.2857142857142,1012.0825892857143,4024.9,1040.2857142857142,1000.0825892857143,4125.3,964.2857142857143,928.0825892857143,4230,952.2857142857143,878.0825892857143,4334.5,952.2857142857143,878.0825892857143,4437,952.2857142857143,878.0825892857143,4540,930.2857142857143,882.0825892857143,4640.2,858.2857142857143,854.0825892857143,4740.3,830.2857142857143,832.0825892857143,4841.1,822.2857142857143,826.0825892857143,4944.7]","[1664,1664,1000,0,664,""smooth"",""right"",""right"",""good_move"",4943.6,3279.3,2475,4575.2,-2106.6,""error"",""-"",""-"",""no_move"",13599.2,8655.4,2330,9894.7,1374.5,""oops"",""left"",""down"",""good_move"",17159.7,3560.3,2707.1,13599.4,853.2,""smooth"",""left"",""left"",""bad_move""]","",""
"4048","","<div style=""width:500px;"">
  <p>What determined the result of this run?</p>
  </div>","74","html-slider-response","77","1528699","0.0-10.0-1.8","199","1","2025-07-02 10:29:39","80fe4187154257d5fb01684ea91b68b9","41.13.84.116","Mozilla/5.0 (Macintosh; Intel Mac OS X 10_15_7) AppleWebKit/537.36 (KHTML, like Gecko) Chrome/136.0.0.0 Safari/537.36","Macintosh","Chrome","136.0.0.0","OS X","10_15_7","https://app.prolific.com/","en-GB,en-US;q=0.9,en;q=0.8","67d6aaa962783013102482a0","683db6dfa200031b80f2a654","686507848b10cf9f6d70fe23","67d6aaa962783013102482a0","2025-07-02T10:55:10.425Z","","","","","","AttribQ","","","","","","","","","","","","","","","","","","","","","","","","","","","","","","","","","","","","","","50"
"3118","","<div style=""width:500px;"">
  <p>How much control did you have over the ball?</p>
  </div>","58","html-slider-response","78","1531818","0.0-10.0-2.8","199","1","2025-07-02 10:29:39","80fe4187154257d5fb01684ea91b68b9","41.13.84.116","Mozilla/5.0 (Macintosh; Intel Mac OS X 10_15_7) AppleWebKit/537.36 (KHTML, like Gecko) Chrome/136.0.0.0 Safari/537.36","Macintosh","Chrome","136.0.0.0","OS X","10_15_7","https://app.prolific.com/","en-GB,en-US;q=0.9,en;q=0.8","67d6aaa962783013102482a0","683db6dfa200031b80f2a654","686507848b10cf9f6d70fe23","67d6aaa962783013102482a0","2025-07-02T10:55:13.544Z","","","","","","ControlQ","","","","","","","","","","","","","","","","","","","","","","","","","","","","","","","","","","","","","","50"
"3657","","<div style=""width:500px;"">
  <p>How would you describe your current emotional state?</p>
  </div>","64","html-slider-response","79","1535476","0.0-10.0-3.8","199","1","2025-07-02 10:29:39","80fe4187154257d5fb01684ea91b68b9","41.13.84.116","Mozilla/5.0 (Macintosh; Intel Mac OS X 10_15_7) AppleWebKit/537.36 (KHTML, like Gecko) Chrome/136.0.0.0 Safari/537.36","Macintosh","Chrome","136.0.0.0","OS X","10_15_7","https://app.prolific.com/","en-GB,en-US;q=0.9,en;q=0.8","67d6aaa962783013102482a0","683db6dfa200031b80f2a654","686507848b10cf9f6d70fe23","67d6aaa962783013102482a0","2025-07-02T10:55:17.202Z","","","","","","StressQ","","","","","","","","","","","","","","","","","","","","","","","","","","","","","","","","","","","","","","50"
"67826","","<div style=""width:500px;"">
  <p>What best describes how you currently feel?</p>
  </div>","62","html-slider-response","80","1603300","0.0-10.0-4.8","199","1","2025-07-02 10:29:39","80fe4187154257d5fb01684ea91b68b9","41.13.84.116","Mozilla/5.0 (Macintosh; Intel Mac OS X 10_15_7) AppleWebKit/537.36 (KHTML, like Gecko) Chrome/136.0.0.0 Safari/537.36","Macintosh","Chrome","136.0.0.0","OS X","10_15_7","https://app.prolific.com/","en-GB,en-US;q=0.9,en;q=0.8","67d6aaa962783013102482a0","683db6dfa200031b80f2a654","686507848b10cf9f6d70fe23","67d6aaa962783013102482a0","2025-07-02T10:56:25.026Z","","","","","","MotivationQ","","","","","","","","","","","","","","","","","","","","","","","","","","","","","","","","","","","","","","50"
"","","","","ctl-task-cpt","81","1630318","0.0-10.0-0.9","199","1","2025-07-02 10:29:39","80fe4187154257d5fb01684ea91b68b9","41.13.84.116","Mozilla/5.0 (Macintosh; Intel Mac OS X 10_15_7) AppleWebKit/537.36 (KHTML, like Gecko) Chrome/136.0.0.0 Safari/537.36","Macintosh","Chrome","136.0.0.0","OS X","10_15_7","https://app.prolific.com/","en-GB,en-US;q=0.9,en;q=0.8","67d6aaa962783013102482a0","683db6dfa200031b80f2a654","686507848b10cf9f6d70fe23","67d6aaa962783013102482a0","2025-07-02T10:56:52.044Z","","","","","","","","","","","","","","","","win-only","3","g1:SW,g2:NE","0.5","10","0","1606086.5","1775.8","6779.4","24006.4","1","4","4","6","2","-4","-4","0","0","0","2383.8","3000","-2805","[""up"",""right""]","{""num_key_presses"":2,""num_perfect"":1,""num_errors"":0,""num_randdir"":1,""num_randdir_good_moves"":1,""num_whilered"":0,""num_whileblue"":0,""num_blue"":2,""num_good_moves"":1}","[698.2857142857143,704.0825892857143,0.2,698.2857142857143,704.0825892857143,104.7,698.2857142857143,704.0825892857143,206.3,698.2857142857143,704.0825892857143,312.9,698.2857142857143,704.0825892857143,419.3,698.2857142857143,704.0825892857143,522.7,698.2857142857143,706.0825892857143,624.6,664.2857142857143,760.0825892857143,726.3,632.2857142857143,808.0825892857143,827.5,598.2857142857143,842.0825892857143,928.4,448.2857142857143,1040.0825892857142,1029.5,422.2857142857143,1080.0825892857142,1138,486.2857142857143,972.0825892857143,1238.5,530.2857142857143,916.0825892857143,1344.5,532.2857142857143,920.0825892857143,1448.6,580.2857142857143,854.0825892857143,1550.2,850.2857142857143,512.0825892857143,1650.3,1068.2857142857142,286.0825892857143,1753.3,1068.2857142857142,286.0825892857143,1855.8,1068.2857142857142,284.0825892857143,1958,1224.2857142857142,74.08258928571429,2060.9,1254.2857142857142,48.08258928571429,2163.5,1258.2857142857142,48.08258928571429,2270,1260.2857142857142,54.08258928571429,2370.6,1262.2857142857142,54.08258928571429,2473.3,1262.2857142857142,54.08258928571429,2578.1,1262.2857142857142,54.08258928571429,2692,1262.2857142857142,54.08258928571429,2797.6,1262.2857142857142,54.08258928571429,2902,1164.2857142857142,132.08258928571428,3008,984.2857142857143,294.0825892857143,3108.5,756.2857142857143,542.0825892857143,3215.5,628.2857142857143,736.0825892857143,3324.5,586.2857142857143,810.0825892857143,3428.3,576.2857142857143,830.0825892857143,3533.5,576.2857142857143,830.0825892857143,3636.1,576.2857142857143,830.0825892857143,3743.4,576.2857142857143,830.0825892857143,3850.3,576.2857142857143,830.0825892857143,3951.7,576.2857142857143,830.0825892857143,4054.7,576.2857142857143,830.0825892857143,4165.5,576.2857142857143,830.0825892857143,4266.1,576.2857142857143,830.0825892857143,4370,576.2857142857143,830.0825892857143,4470.9,576.2857142857143,830.0825892857143,4576.2,576.2857142857143,830.0825892857143,4681.9,576.2857142857143,830.0825892857143,4784.2,576.2857142857143,830.0825892857143,4889.1,576.2857142857143,830.0825892857143,4991.2]","[2665.5,2665.5,1000,0,1665.5,""smooth"",""down"",""down"",""bad_move"",9639,6973.2,2048.2,6690.2,900.6,""oops"",""right"",""right"",""good_move""]","",""
"3704","","<div style=""width:500px;"">
  <p>What determined the result of this run?</p>
  </div>","62","html-slider-response","82","1634024","0.0-10.0-1.9","199","1","2025-07-02 10:29:39","80fe4187154257d5fb01684ea91b68b9","41.13.84.116","Mozilla/5.0 (Macintosh; Intel Mac OS X 10_15_7) AppleWebKit/537.36 (KHTML, like Gecko) Chrome/136.0.0.0 Safari/537.36","Macintosh","Chrome","136.0.0.0","OS X","10_15_7","https://app.prolific.com/","en-GB,en-US;q=0.9,en;q=0.8","67d6aaa962783013102482a0","683db6dfa200031b80f2a654","686507848b10cf9f6d70fe23","67d6aaa962783013102482a0","2025-07-02T10:56:55.750Z","","","","","","AttribQ","","","","","","","","","","","","","","","","","","","","","","","","","","","","","","","","","","","","","","50"
"2654","","<div style=""width:500px;"">
  <p>How much control did you have over the ball?</p>
  </div>","64","html-slider-response","83","1636679","0.0-10.0-2.9","199","1","2025-07-02 10:29:39","80fe4187154257d5fb01684ea91b68b9","41.13.84.116","Mozilla/5.0 (Macintosh; Intel Mac OS X 10_15_7) AppleWebKit/537.36 (KHTML, like Gecko) Chrome/136.0.0.0 Safari/537.36","Macintosh","Chrome","136.0.0.0","OS X","10_15_7","https://app.prolific.com/","en-GB,en-US;q=0.9,en;q=0.8","67d6aaa962783013102482a0","683db6dfa200031b80f2a654","686507848b10cf9f6d70fe23","67d6aaa962783013102482a0","2025-07-02T10:56:58.405Z","","","","","","ControlQ","","","","","","","","","","","","","","","","","","","","","","","","","","","","","","","","","","","","","","50"
"3357","","<div style=""width:500px;"">
  <p>How would you describe your current emotional state?</p>
  </div>","59","html-slider-response","84","1640037","0.0-10.0-3.9","199","1","2025-07-02 10:29:39","80fe4187154257d5fb01684ea91b68b9","41.13.84.116","Mozilla/5.0 (Macintosh; Intel Mac OS X 10_15_7) AppleWebKit/537.36 (KHTML, like Gecko) Chrome/136.0.0.0 Safari/537.36","Macintosh","Chrome","136.0.0.0","OS X","10_15_7","https://app.prolific.com/","en-GB,en-US;q=0.9,en;q=0.8","67d6aaa962783013102482a0","683db6dfa200031b80f2a654","686507848b10cf9f6d70fe23","67d6aaa962783013102482a0","2025-07-02T10:57:01.763Z","","","","","","StressQ","","","","","","","","","","","","","","","","","","","","","","","","","","","","","","","","","","","","","","50"
"31125","","<div style=""width:500px;"">
  <p>What best describes how you currently feel?</p>
  </div>","60","html-slider-response","85","1671162","0.0-10.0-4.9","199","1","2025-07-02 10:29:39","80fe4187154257d5fb01684ea91b68b9","41.13.84.116","Mozilla/5.0 (Macintosh; Intel Mac OS X 10_15_7) AppleWebKit/537.36 (KHTML, like Gecko) Chrome/136.0.0.0 Safari/537.36","Macintosh","Chrome","136.0.0.0","OS X","10_15_7","https://app.prolific.com/","en-GB,en-US;q=0.9,en;q=0.8","67d6aaa962783013102482a0","683db6dfa200031b80f2a654","686507848b10cf9f6d70fe23","67d6aaa962783013102482a0","2025-07-02T10:57:32.888Z","","","","","","MotivationQ","","","","","","","","","","","","","","","","","","","","","","","","","","","","","","","","","","","","","","50"
