"rt","response_timestamp","stimulus","response","trial_type","trial_index","time_elapsed","internal_node_id","run_id","condition","recorded_at","source_code_version","ip","user_agent","device","browser","browser_version","platform","platform_version","referer","accept_language","PROLIFIC_PID","STUDY_ID","SESSION_ID","prolific_id","realtime","view_history","question_order","consent","success","question_id","eventType","responses","item_order","radio_event_ids","radio_event_times","key_event_times","mouse_event_times","straightlining","zigzagging","honeypot","which_type","canvas_config","goals_layout","control_level","trial_number","tutorial_trial_number","trial_start_time","phase1_start_time","phase2_start_time","phase3_start_time","goal_1_value","goal_1_distance","goal_2_value","goal_2_distance","goal_selected","outcome","outcome_total","participant_final_score","participant_initial_score","participant_final_score_prop","goal_choice_rt","allocated_time","allocated_time_remaining","goal_direction","counts","mouse_movements","key_presses","correct","slider_start","sub_question"
"30247","1751451769977","<p style='font-size:40px;line-height:1.25'><strong>Welcome to the experiment!</strong></p><p style='font-size:1.1em;line-height:1.25'>Thank you for your interest in our experiment! Before you begin, it is important that we obtain your informed consent to participate in the study.</p><p style='font-size:1.1em;line-height:1.25'>On the next screen will be an <strong>information sheet</strong> for you to read. To participate in the study we need you to read this information sheet and the following consent form carefully. If you agree with all the statements, please click the <strong>I agree</strong> button.</p><p style='font-size:1.1em;line-height:1.25'>Press <strong>Next</strong> to read the information sheet.</p>","0","custom-html-button-response","0","30251","0.0-0.0","161","1","2025-07-02 10:22:13","80fe4187154257d5fb01684ea91b68b9","102.209.191.19","Mozilla/5.0 (Windows NT 10.0; Win64; x64) AppleWebKit/537.36 (KHTML, like Gecko) Chrome/138.0.0.0 Safari/537.36","WebKit","Chrome","138.0.0.0","Windows","10.0","https://app.prolific.com/","en-US,en;q=0.9","67d7fa657f5ac0292a291a38","683db6dfa200031b80f2a654","686507588104868c306feaef","67d7fa657f5ac0292a291a38","2025-07-02T10:22:49.980Z","","","","","","","","","","","","","","","","","","","","","","","","","","","","","","","","","","","","","","","","","","","","",""
"38191","","","","instructions","1","68446","0.0-1.0","161","1","2025-07-02 10:22:13","80fe4187154257d5fb01684ea91b68b9","102.209.191.19","Mozilla/5.0 (Windows NT 10.0; Win64; x64) AppleWebKit/537.36 (KHTML, like Gecko) Chrome/138.0.0.0 Safari/537.36","WebKit","Chrome","138.0.0.0","Windows","10.0","https://app.prolific.com/","en-US,en;q=0.9","67d7fa657f5ac0292a291a38","683db6dfa200031b80f2a654","686507588104868c306feaef","67d7fa657f5ac0292a291a38","","[{""page_index"":0,""viewing_time"":36179},{""page_index"":1,""viewing_time"":2012}]","","","","","","","","","","","","","","","","","","","","","","","","","","","","","","","","","","","","","","","","","","","",""
"12708","","","{""Q0"":"""",""Q1"":"""",""Q2"":"""",""Q3"":"""",""Q4"":"""",""Q5"":"""",""Q6"":""I agree""}","survey-multi-choice","2","81159","0.0-2.0","161","1","2025-07-02 10:22:13","80fe4187154257d5fb01684ea91b68b9","102.209.191.19","Mozilla/5.0 (Windows NT 10.0; Win64; x64) AppleWebKit/537.36 (KHTML, like Gecko) Chrome/138.0.0.0 Safari/537.36","WebKit","Chrome","138.0.0.0","Windows","10.0","https://app.prolific.com/","en-US,en;q=0.9","67d7fa657f5ac0292a291a38","683db6dfa200031b80f2a654","686507588104868c306feaef","67d7fa657f5ac0292a291a38","","","[0,1,2,3,4,5,6]","true","","","","","","","","","","","","","","","","","","","","","","","","","","","","","","","","","","","","","","","","","",""
"22161","","","","fullscreen","3","104338","0.0-4.0","161","1","2025-07-02 10:22:13","80fe4187154257d5fb01684ea91b68b9","102.209.191.19","Mozilla/5.0 (Windows NT 10.0; Win64; x64) AppleWebKit/537.36 (KHTML, like Gecko) Chrome/138.0.0.0 Safari/537.36","WebKit","Chrome","138.0.0.0","Windows","10.0","https://app.prolific.com/","en-US,en;q=0.9","67d7fa657f5ac0292a291a38","683db6dfa200031b80f2a654","686507588104868c306feaef","67d7fa657f5ac0292a291a38","","","","","true","","","","","","","","","","","","","","","","","","","","","","","","","","","","","","","","","","","","","","","","",""
"3014","1751451847085"," <p style='font-size:1.1em;line-height:1.25'>Thank you for completing the consent form and closing all other tabs.</p><p style='font-size:1.1em;line-height:1.25'>We will now invite you to fill in some demographic information and questionnaires, before starting the game.<br>This will take about 5 minutes.<br></p><p style='font-size:1.1em;line-height:1.25'>Press the <strong>Next</strong> button to continue.</p>","0","custom-html-button-response","4","107357","0.0-5.0","161","1","2025-07-02 10:22:13","80fe4187154257d5fb01684ea91b68b9","102.209.191.19","Mozilla/5.0 (Windows NT 10.0; Win64; x64) AppleWebKit/537.36 (KHTML, like Gecko) Chrome/138.0.0.0 Safari/537.36","WebKit","Chrome","138.0.0.0","Windows","10.0","https://app.prolific.com/","en-US,en;q=0.9","67d7fa657f5ac0292a291a38","683db6dfa200031b80f2a654","686507588104868c306feaef","67d7fa657f5ac0292a291a38","2025-07-02T10:24:07.085Z","","","","","","","","","","","","","","","","","","","","","","","","","","","","","","","","","","","","","","","","","","","","",""
"9235","","","{""age"":""24""}","survey-text","5","116597","0.0-6.0-0.0","161","1","2025-07-02 10:22:13","80fe4187154257d5fb01684ea91b68b9","102.209.191.19","Mozilla/5.0 (Windows NT 10.0; Win64; x64) AppleWebKit/537.36 (KHTML, like Gecko) Chrome/138.0.0.0 Safari/537.36","WebKit","Chrome","138.0.0.0","Windows","10.0","https://app.prolific.com/","en-US,en;q=0.9","67d7fa657f5ac0292a291a38","683db6dfa200031b80f2a654","686507588104868c306feaef","67d7fa657f5ac0292a291a38","","","","","","0","demographics","","","","","","","","","","","","","","","","","","","","","","","","","","","","","","","","","","","","","","",""
"3211","","","{""gender_identity"":""female/woman""}","survey-multi-choice","6","119810","0.0-6.0-1.0","161","1","2025-07-02 10:22:13","80fe4187154257d5fb01684ea91b68b9","102.209.191.19","Mozilla/5.0 (Windows NT 10.0; Win64; x64) AppleWebKit/537.36 (KHTML, like Gecko) Chrome/138.0.0.0 Safari/537.36","WebKit","Chrome","138.0.0.0","Windows","10.0","https://app.prolific.com/","en-US,en;q=0.9","67d7fa657f5ac0292a291a38","683db6dfa200031b80f2a654","686507588104868c306feaef","67d7fa657f5ac0292a291a38","","","[0]","","","1","demographics","","","","","","","","","","","","","","","","","","","","","","","","","","","","","","","","","","","","","","",""
"6600","","","{""assigned_sex"":""female""}","survey-multi-choice","7","126412","0.0-6.0-2.0","161","1","2025-07-02 10:22:13","80fe4187154257d5fb01684ea91b68b9","102.209.191.19","Mozilla/5.0 (Windows NT 10.0; Win64; x64) AppleWebKit/537.36 (KHTML, like Gecko) Chrome/138.0.0.0 Safari/537.36","WebKit","Chrome","138.0.0.0","Windows","10.0","https://app.prolific.com/","en-US,en;q=0.9","67d7fa657f5ac0292a291a38","683db6dfa200031b80f2a654","686507588104868c306feaef","67d7fa657f5ac0292a291a38","","","[0]","","","2","demographics","","","","","","","","","","","","","","","","","","","","","","","","","","","","","","","","","","","","","","",""
"5986","","","{""menstrual_cycle"":""Yes""}","survey-multi-choice","8","132399","0.0-6.0-3.0","161","1","2025-07-02 10:22:13","80fe4187154257d5fb01684ea91b68b9","102.209.191.19","Mozilla/5.0 (Windows NT 10.0; Win64; x64) AppleWebKit/537.36 (KHTML, like Gecko) Chrome/138.0.0.0 Safari/537.36","WebKit","Chrome","138.0.0.0","Windows","10.0","https://app.prolific.com/","en-US,en;q=0.9","67d7fa657f5ac0292a291a38","683db6dfa200031b80f2a654","686507588104868c306feaef","67d7fa657f5ac0292a291a38","","","[0]","","","4","demographics","","","","","","","","","","","","","","","","","","","","","","","","","","","","","","","","","","","","","","",""
"8623","","","{""education"":""Master's Degree (e.g., MSc)""}","survey-multi-choice","9","141025","0.0-6.0-4.0","161","1","2025-07-02 10:22:13","80fe4187154257d5fb01684ea91b68b9","102.209.191.19","Mozilla/5.0 (Windows NT 10.0; Win64; x64) AppleWebKit/537.36 (KHTML, like Gecko) Chrome/138.0.0.0 Safari/537.36","WebKit","Chrome","138.0.0.0","Windows","10.0","https://app.prolific.com/","en-US,en;q=0.9","67d7fa657f5ac0292a291a38","683db6dfa200031b80f2a654","686507588104868c306feaef","67d7fa657f5ac0292a291a38","","","[0]","","","5","demographics","","","","","","","","","","","","","","","","","","","","","","","","","","","","","","","","","","","","","","",""
"7065","","","{""education"":""Doctoral Degree (e.g., PhD)""}","survey-multi-choice","10","148093","0.0-6.0-5.0","161","1","2025-07-02 10:22:13","80fe4187154257d5fb01684ea91b68b9","102.209.191.19","Mozilla/5.0 (Windows NT 10.0; Win64; x64) AppleWebKit/537.36 (KHTML, like Gecko) Chrome/138.0.0.0 Safari/537.36","WebKit","Chrome","138.0.0.0","Windows","10.0","https://app.prolific.com/","en-US,en;q=0.9","67d7fa657f5ac0292a291a38","683db6dfa200031b80f2a654","686507588104868c306feaef","67d7fa657f5ac0292a291a38","2025-07-02T10:24:47.821Z","","[0]","","","6","demographics","","","","","","","","","","","","","","","","","","","","","","","","","","","","","","","","","","","","","","",""
"118558","","","{""mental_health_condition"":""no"",""mental_health_treatment"":""no"",""psychiatric_medication"":""none""}","survey-text","11","266655","0.0-7.0-0.0","161","1","2025-07-02 10:22:13","80fe4187154257d5fb01684ea91b68b9","102.209.191.19","Mozilla/5.0 (Windows NT 10.0; Win64; x64) AppleWebKit/537.36 (KHTML, like Gecko) Chrome/138.0.0.0 Safari/537.36","WebKit","Chrome","138.0.0.0","Windows","10.0","https://app.prolific.com/","en-US,en;q=0.9","67d7fa657f5ac0292a291a38","683db6dfa200031b80f2a654","686507588104868c306feaef","67d7fa657f5ac0292a291a38","2025-07-02T10:26:46.383Z","","","","","1","mental_health","","","","","","","","","","","","","","","","","","","","","","","","","","","","","","","","","","","","","","",""
"16145","","","{""depression_history"":[""Yes""]}","survey-multi-select","12","282804","0.0-7.0-1.0","161","1","2025-07-02 10:22:13","80fe4187154257d5fb01684ea91b68b9","102.209.191.19","Mozilla/5.0 (Windows NT 10.0; Win64; x64) AppleWebKit/537.36 (KHTML, like Gecko) Chrome/138.0.0.0 Safari/537.36","WebKit","Chrome","138.0.0.0","Windows","10.0","https://app.prolific.com/","en-US,en;q=0.9","67d7fa657f5ac0292a291a38","683db6dfa200031b80f2a654","686507588104868c306feaef","67d7fa657f5ac0292a291a38","","","[0]","","","","mental_health","","","","","","","","","","","","","","","","","","","","","","","","","","","","","","","","","","","","","","",""
"15276","","","{""depression_episodes"":""more than 5"",""depression_recent"":""Currently experiencing an episode""}","survey-multi-choice","13","298082","0.0-7.0-2.0-0.0","161","1","2025-07-02 10:22:13","80fe4187154257d5fb01684ea91b68b9","102.209.191.19","Mozilla/5.0 (Windows NT 10.0; Win64; x64) AppleWebKit/537.36 (KHTML, like Gecko) Chrome/138.0.0.0 Safari/537.36","WebKit","Chrome","138.0.0.0","Windows","10.0","https://app.prolific.com/","en-US,en;q=0.9","67d7fa657f5ac0292a291a38","683db6dfa200031b80f2a654","686507588104868c306feaef","67d7fa657f5ac0292a291a38","2025-07-02T10:27:17.810Z","","[0,1]","","","3","mental_health","","","","","","","","","","","","","","","","","","","","","","","","","","","","","","","","","","","","","","",""
"126661.90000000596","","","","survey-template","14","424749","0.0-7.0-3.0","161","1","2025-07-02 10:22:13","80fe4187154257d5fb01684ea91b68b9","102.209.191.19","Mozilla/5.0 (Windows NT 10.0; Win64; x64) AppleWebKit/537.36 (KHTML, like Gecko) Chrome/138.0.0.0 Safari/537.36","WebKit","Chrome","138.0.0.0","Windows","10.0","https://app.prolific.com/","en-US,en;q=0.9","67d7fa657f5ac0292a291a38","683db6dfa200031b80f2a654","686507588104868c306feaef","67d7fa657f5ac0292a291a38","2025-07-02T10:29:24.477Z","","","","","","ius","{""Q01"":""4"",""Q02"":""3"",""Q03"":""2"",""Q04"":""4"",""Q05"":""4"",""Q06"":""2"",""Q07"":""4"",""Q08"":""0"",""Q09"":""4"",""Q10"":""3"",""Q11"":""3"",""Q12"":""4"",""Q13"":""4""}","[0,1,2,3,4,5,6,7,8,9,10,11,12]","[""Q01"",""Q02"",""Q03"",""Q04"",""Q05"",""Q05"",""Q06"",""Q07"",""Q08"",""Q09"",""Q10"",""Q11"",""Q12"",""Q13""]","[17622,24480.80000001192,40509.70000000298,55597.30000001192,66691.60000000894,66967.90000000596,73550.90000000596,85575.10000000894,93347.60000000894,99166.10000000894,108435.90000000596,115731.5,121382.20000000298,125426.90000000596]","[]","[17622,24480.80000001192,40509.70000000298,54199.80000001192,55597.30000001192,66691.60000000894,66967.90000000596,73550.90000000596,75078,85575.10000000894,93347.60000000894,98085.60000000894,99166.10000000894,106512.30000001192,108435.90000000596,109932.80000001192,115731.5,121382.20000000298,125426.90000000596,126656.30000001192]","0.5384615384615384","0.5","0","","","","","","","","","","","","","","","","","","","","","","","","","","","","","",""
"3887","1751452168365","<p style='font-size:1.1em;line-height:1.25'>In the following, we will ask you a few questions relating to your experiences over the past month.<br></p><p style='font-size:1.1em;line-height:1.25'>Press the <strong>Next</strong> button to continue.</p>","0","custom-html-button-response","15","428638","0.0-7.0-4.0","161","1","2025-07-02 10:22:13","80fe4187154257d5fb01684ea91b68b9","102.209.191.19","Mozilla/5.0 (Windows NT 10.0; Win64; x64) AppleWebKit/537.36 (KHTML, like Gecko) Chrome/138.0.0.0 Safari/537.36","WebKit","Chrome","138.0.0.0","Windows","10.0","https://app.prolific.com/","en-US,en;q=0.9","67d7fa657f5ac0292a291a38","683db6dfa200031b80f2a654","686507588104868c306feaef","67d7fa657f5ac0292a291a38","2025-07-02T10:29:28.366Z","","","","","","","","","","","","","","","","","","","","","","","","","","","","","","","","","","","","","","","","","","","","",""
"71170.79999999702","","","","survey-template","16","499812","0.0-7.0-5.0","161","1","2025-07-02 10:22:13","80fe4187154257d5fb01684ea91b68b9","102.209.191.19","Mozilla/5.0 (Windows NT 10.0; Win64; x64) AppleWebKit/537.36 (KHTML, like Gecko) Chrome/138.0.0.0 Safari/537.36","WebKit","Chrome","138.0.0.0","Windows","10.0","https://app.prolific.com/","en-US,en;q=0.9","67d7fa657f5ac0292a291a38","683db6dfa200031b80f2a654","686507588104868c306feaef","67d7fa657f5ac0292a291a38","2025-07-02T10:30:39.540Z","","","","","","pss","{""Q01"":""3"",""Q02"":""4"",""Q03"":""4"",""Q04"":""1"",""Q05"":""2"",""Q06"":""3"",""Q07"":""2"",""Q08"":""2"",""Q09"":""3"",""Q10"":""3""}","[0,1,2,3,4,5,6,7,8,9]","[""Q01"",""Q02"",""Q03"",""Q04"",""Q05"",""Q06"",""Q07"",""Q08"",""Q09"",""Q10""]","[7699.9000000059605,13855.70000000298,19446.70000000298,25910,30757.70000000298,37162.20000000298,47987.79999999702,55284.40000000596,60895.20000000298,70105.09999999404]","[]","[0,393.70000000298023,7699.9000000059605,13855.70000000298,19446.70000000298,25910,30757.70000000298,37162.20000000298,38916.90000000596,47987.79999999702,55284.40000000596,60895.20000000298,70105.09999999404,71165.79999999702]","0.5","0.6666666666666666","0","","","","","","","","","","","","","","","","","","","","","","","","","","","","","",""
"4195","1751452243737","<p style='font-size:1.1em;line-height:1.25'>Thank you for your answers! Now we will ask you a few more questions relating to your feelings in the last 24 hours.<br></p><p style='font-size:1.1em;line-height:1.25'>Press the <strong>Next</strong> button to continue.</p>","0","custom-html-button-response","17","504009","0.0-7.0-6.0","161","1","2025-07-02 10:22:13","80fe4187154257d5fb01684ea91b68b9","102.209.191.19","Mozilla/5.0 (Windows NT 10.0; Win64; x64) AppleWebKit/537.36 (KHTML, like Gecko) Chrome/138.0.0.0 Safari/537.36","WebKit","Chrome","138.0.0.0","Windows","10.0","https://app.prolific.com/","en-US,en;q=0.9","67d7fa657f5ac0292a291a38","683db6dfa200031b80f2a654","686507588104868c306feaef","67d7fa657f5ac0292a291a38","2025-07-02T10:30:43.737Z","","","","","","","","","","","","","","","","","","","","","","","","","","","","","","","","","","","","","","","","","","","","",""
"112036.69999998808","","","","survey-template","18","616052","0.0-7.0-7.0","161","1","2025-07-02 10:22:13","80fe4187154257d5fb01684ea91b68b9","102.209.191.19","Mozilla/5.0 (Windows NT 10.0; Win64; x64) AppleWebKit/537.36 (KHTML, like Gecko) Chrome/138.0.0.0 Safari/537.36","WebKit","Chrome","138.0.0.0","Windows","10.0","https://app.prolific.com/","en-US,en;q=0.9","67d7fa657f5ac0292a291a38","683db6dfa200031b80f2a654","686507588104868c306feaef","67d7fa657f5ac0292a291a38","2025-07-02T10:32:35.780Z","","","","","","drsp","{""Q01"":""3"",""Q02"":""3"",""Q03"":""2"",""Q04"":""1"",""Q05"":""4"",""Q06"":""2"",""Q07"":""1"",""Q08"":""5"",""Q09"":""1"",""Q10"":""0"",""Q11"":""1"",""Q12"":""2"",""Q13"":""2"",""Q14"":""1"",""Q15"":""4"",""Q16"":""5"",""Q17"":""3"",""Q18"":""5"",""Q19"":""5"",""Q20"":""4"",""Q21"":""5""}","[0,1,2,3,4,5,6,7,8,9,10,11,12,13,14,15,16,17,18,19,20]","[""Q01"",""Q02"",""Q03"",""Q04"",""Q05"",""Q06"",""Q07"",""Q08"",""Q08"",""Q09"",""Q10"",""Q11"",""Q12"",""Q13"",""Q14"",""Q15"",""Q16"",""Q17"",""Q17"",""Q18"",""Q19"",""Q20"",""Q21""]","[4724.699999988079,6430.199999988079,9245.699999988079,11575,14192,21359.59999999404,24690.29999999702,27625.09999999404,35564.89999999106,37647,41929.89999999106,46827,51972.39999999106,54579.39999999106,57553.5,64136.5,68012.39999999106,69827,72027.89999999106,75726.19999998808,83171.29999999702,87840.89999999106,94146.29999999702]","[]","[0.09999999403953552,4724.699999988079,6430.199999988079,9245.699999988079,11575,14192,21359.59999999404,24690.29999999702,27625.09999999404,29072,33938.89999999106,35564.89999999106,37647,41929.89999999106,46827,51972.39999999106,54579.39999999106,57553.5,58981.89999999106,64136.5,68012.39999999106,69827,72027.89999999106,75726.19999998808,76519.29999999702,83171.29999999702,87840.89999999106,94146.29999999702,112028.69999998808]","0.23809523809523808","0.5","0","","","","","","","","","","","","","","","","","","","","","","","","","","","","","",""
"21166.40000000596","","","","survey-template","19","637221","0.0-7.0-8.0","161","1","2025-07-02 10:22:13","80fe4187154257d5fb01684ea91b68b9","102.209.191.19","Mozilla/5.0 (Windows NT 10.0; Win64; x64) AppleWebKit/537.36 (KHTML, like Gecko) Chrome/138.0.0.0 Safari/537.36","WebKit","Chrome","138.0.0.0","Windows","10.0","https://app.prolific.com/","en-US,en;q=0.9","67d7fa657f5ac0292a291a38","683db6dfa200031b80f2a654","686507588104868c306feaef","67d7fa657f5ac0292a291a38","2025-07-02T10:32:56.949Z","","","","","","stress","{""Q01"":""4"",""Q02"":""3"",""Q03"":""2""}","[0,1,2]","[""Q01"",""Q02"",""Q03""]","[4450.100000008941,11458.40000000596,18854.10000000894]","[]","[4450.100000008941,10279.300000011921,11458.40000000596,17377.30000001192,18854.10000000894,21164.20000000298]","0.6666666666666666","0","0","","","","","","","","","","","","","","","","","","","","","","","","","","","","","",""
"127210","","","","instructions","20","764433","0.0-8.0-0.0","161","1","2025-07-02 10:22:13","80fe4187154257d5fb01684ea91b68b9","102.209.191.19","Mozilla/5.0 (Windows NT 10.0; Win64; x64) AppleWebKit/537.36 (KHTML, like Gecko) Chrome/138.0.0.0 Safari/537.36","WebKit","Chrome","138.0.0.0","Windows","10.0","https://app.prolific.com/","en-US,en;q=0.9","67d7fa657f5ac0292a291a38","683db6dfa200031b80f2a654","686507588104868c306feaef","67d7fa657f5ac0292a291a38","","[{""page_index"":0,""viewing_time"":33731},{""page_index"":1,""viewing_time"":44284},{""page_index"":2,""viewing_time"":20413},{""page_index"":3,""viewing_time"":28781}]","","","","","","","","","","","","","","","","","","","","","","","","","","","","","","","","","","","","","","","","","","","",""
"","","","","ctl-task-cpt","21","812995","0.0-8.0-1.0","161","1","2025-07-02 10:22:13","80fe4187154257d5fb01684ea91b68b9","102.209.191.19","Mozilla/5.0 (Windows NT 10.0; Win64; x64) AppleWebKit/537.36 (KHTML, like Gecko) Chrome/138.0.0.0 Safari/537.36","WebKit","Chrome","138.0.0.0","Windows","10.0","https://app.prolific.com/","en-US,en;q=0.9","67d7fa657f5ac0292a291a38","683db6dfa200031b80f2a654","686507588104868c306feaef","67d7fa657f5ac0292a291a38","","","","","","","","","","","","","","","","","win-only","1","g1:NE,g2:SW","1","0","1","772306.6","9239.7","13242.4","45427.1","2","4","4","6","1","-2","-7","0","0","0","4002.5","4000","-2930","[""up"",""right""]","{""num_key_presses"":13,""num_perfect"":7,""num_errors"":5,""num_randdir"":0,""num_randdir_good_moves"":0,""num_whilered"":1,""num_whileblue"":0,""num_blue"":0,""num_good_moves"":1}","[297.22232142857143,296.12857142857143,24,297.22232142857143,296.12857142857143,101.1,297.22232142857143,296.12857142857143,325.1,297.22232142857143,296.12857142857143,426.6,297.22232142857143,296.12857142857143,531.8,297.22232142857143,296.12857142857143,631.8,297.22232142857143,296.12857142857143,732.7,297.22232142857143,296.12857142857143,836.1,297.22232142857143,296.12857142857143,936.4,297.22232142857143,296.12857142857143,1039.4,297.22232142857143,296.12857142857143,1142.5,297.22232142857143,296.12857142857143,1246.1,297.22232142857143,296.12857142857143,1346.7,297.22232142857143,296.12857142857143,1446.8,297.22232142857143,296.12857142857143,1551.7,298.22232142857143,296.12857142857143,1652.1,307.22232142857143,292.12857142857143,1752.3,328.22232142857143,286.12857142857143,1855.9,335.22232142857143,283.12857142857143,1956.8,336.22232142857143,281.12857142857143,2081.1,347.22232142857143,273.12857142857143,2181.3,347.22232142857143,272.12857142857143,2281.3,347.22232142857143,272.12857142857143,2385.9,347.22232142857143,270.12857142857143,2486.7,348.22232142857143,264.12857142857143,2591.5,348.22232142857143,262.12857142857143,2691.7,348.22232142857143,262.12857142857143,2796.6,348.22232142857143,262.12857142857143,2901.6,348.22232142857143,261.12857142857143,3001.7,348.22232142857143,261.12857142857143,3101.8,348.22232142857143,260.12857142857143,3207.2,348.22232142857143,260.12857142857143,3310.8,348.22232142857143,259.12857142857143,3411.7,348.22232142857143,259.12857142857143,3516.6,348.22232142857143,259.12857142857143,3616.8,348.22232142857143,259.12857142857143,3721.2,348.22232142857143,259.12857142857143,3823,348.22232142857143,259.12857142857143,3926.8]","[2387.4,2387.4,1000,0,1387.4,""smooth"",""left"",""left"",""bad_move"",2654.9,266.4,2512.3,2388.6,-2246,""error"",""-"",""-"",""no_move"",3327.2,646.7,2512.3,2388.6,-1573.7,""while_red"",""-"",""-"",""no_move"",3908.5,1228,2682.9,3683.6,-2457.9,""error"",""-"",""-"",""no_move"",5206.7,1297.9,2272,4913.4,-1978.7,""error"",""-"",""-"",""no_move"",7684.2,2477.4,2323.7,6209.9,-849.3,""error"",""-"",""-"",""no_move"",11463.8,3779.3,2112.8,8688.7,662.3,""smooth"",""left"",""left"",""bad_move"",12307.6,843.5,2314,11464.3,-1470.6,""error"",""-"",""-"",""no_move"",17144,4835.7,3199.5,13309.7,634.8,""smooth"",""left"",""left"",""bad_move"",20138.7,2993.8,2416.4,17145,577.4,""smooth"",""down"",""down"",""bad_move"",23320.1,3180.6,2760.2,20139.5,420.4,""smooth"",""down"",""down"",""bad_move"",26686.4,3366,2924.4,23320.4,441.6,""smooth"",""down"",""down"",""bad_move"",29698.8,3012.3,2511.6,26686.6,500.7,""smooth"",""right"",""right"",""good_move""]","","",""
"25120","","","","instructions","22","838116","0.0-8.0-2.0","161","1","2025-07-02 10:22:13","80fe4187154257d5fb01684ea91b68b9","102.209.191.19","Mozilla/5.0 (Windows NT 10.0; Win64; x64) AppleWebKit/537.36 (KHTML, like Gecko) Chrome/138.0.0.0 Safari/537.36","WebKit","Chrome","138.0.0.0","Windows","10.0","https://app.prolific.com/","en-US,en;q=0.9","67d7fa657f5ac0292a291a38","683db6dfa200031b80f2a654","686507588104868c306feaef","67d7fa657f5ac0292a291a38","","[{""page_index"":0,""viewing_time"":25120}]","","","","","","","","","","","","","","","","","","","","","","","","","","","","","","","","","","","","","","","","","","","",""
"","","","","ctl-task-cpt","23","872115","0.0-8.0-3.0","161","1","2025-07-02 10:22:13","80fe4187154257d5fb01684ea91b68b9","102.209.191.19","Mozilla/5.0 (Windows NT 10.0; Win64; x64) AppleWebKit/537.36 (KHTML, like Gecko) Chrome/138.0.0.0 Safari/537.36","WebKit","Chrome","138.0.0.0","Windows","10.0","https://app.prolific.com/","en-US,en;q=0.9","67d7fa657f5ac0292a291a38","683db6dfa200031b80f2a654","686507588104868c306feaef","67d7fa657f5ac0292a291a38","","","","","","","","","","","","","","","","","win-only","1","g1:NE,g2:SW","0.35","0","3","845863.3","2536.5","6543.2","30982.1","2","4","8","6","1","2","1","1","0","0.007575757575757576","4006.5","4000","970","[""up"",""right""]","{""num_key_presses"":7,""num_perfect"":2,""num_errors"":1,""num_randdir"":4,""num_randdir_good_moves"":3,""num_whilered"":0,""num_whileblue"":0,""num_blue"":2,""num_good_moves"":5}","[291.22232142857143,304.12857142857143,0.3,291.22232142857143,304.12857142857143,100,291.22232142857143,304.12857142857143,207.7,291.22232142857143,304.12857142857143,309.8,291.22232142857143,304.12857142857143,411.2,291.22232142857143,304.12857142857143,514.9,291.22232142857143,304.12857142857143,619.9,291.22232142857143,304.12857142857143,720.2,291.22232142857143,304.12857142857143,827.2,291.22232142857143,304.12857142857143,929.3,291.22232142857143,304.12857142857143,1030.1,291.22232142857143,304.12857142857143,1133.8,291.22232142857143,304.12857142857143,1234.6,291.22232142857143,304.12857142857143,1335.4,291.22232142857143,304.12857142857143,1440,291.22232142857143,304.12857142857143,1542.2,291.22232142857143,304.12857142857143,1645.6,291.22232142857143,304.12857142857143,1749.7,291.22232142857143,304.12857142857143,1853.6,291.22232142857143,304.12857142857143,1957,291.22232142857143,304.12857142857143,2060.8,291.22232142857143,304.12857142857143,2160.8,291.22232142857143,304.12857142857143,2263.9,291.22232142857143,304.12857142857143,2365.6,291.22232142857143,304.12857142857143,2470.5,291.22232142857143,304.12857142857143,2576.2,291.22232142857143,304.12857142857143,2679.5,291.22232142857143,304.12857142857143,2784.8,291.22232142857143,304.12857142857143,2888.8,291.22232142857143,304.12857142857143,2990.4,291.22232142857143,304.12857142857143,3094.4,291.22232142857143,304.12857142857143,3199.5,291.22232142857143,304.12857142857143,3304.9,291.22232142857143,304.12857142857143,3410.7,291.22232142857143,304.12857142857143,3511.1,291.22232142857143,304.12857142857143,3611.1,291.22232142857143,304.12857142857143,3711.1,291.22232142857143,304.12857142857143,3811.2,291.22232142857143,304.12857142857143,3915.1]","[3249.8,3249.8,3303.8,2003.3,-2057.3,""error"",""-"",""-"",""no_move"",6924.4,3674.3,2145,4252.9,526.5,""oops"",""right"",""up"",""good_move"",10008.4,3082.4,2542.6,6926.1,539.7,""oops"",""right"",""right"",""good_move"",13097.7,3088.5,2457.1,10009.3,631.3,""oops"",""right"",""left"",""bad_move"",18765.3,5666,2588.9,15735.2,441.2,""smooth"",""right"",""right"",""good_move"",21719.7,2953.9,2412.4,18765.8,541.5,""smooth"",""right"",""right"",""good_move"",24348,2628,2241,21720,387,""oops"",""up"",""up"",""good_move""]","","",""
"51065","","","","instructions","24","923181","0.0-8.0-4.0","161","1","2025-07-02 10:22:13","80fe4187154257d5fb01684ea91b68b9","102.209.191.19","Mozilla/5.0 (Windows NT 10.0; Win64; x64) AppleWebKit/537.36 (KHTML, like Gecko) Chrome/138.0.0.0 Safari/537.36","WebKit","Chrome","138.0.0.0","Windows","10.0","https://app.prolific.com/","en-US,en;q=0.9","67d7fa657f5ac0292a291a38","683db6dfa200031b80f2a654","686507588104868c306feaef","67d7fa657f5ac0292a291a38","","[{""page_index"":0,""viewing_time"":19193},{""page_index"":1,""viewing_time"":31872}]","","","","","","","","","","","","","","","","","","","","","","","","","","","","","","","","","","","","","","","","","","","",""
"20754","","","{""green_ball"":[""Ball always moves in the direction I press""]}","survey-multi-select","25","943940","0.0-8.0-5.0-0.0","161","1","2025-07-02 10:22:13","80fe4187154257d5fb01684ea91b68b9","102.209.191.19","Mozilla/5.0 (Windows NT 10.0; Win64; x64) AppleWebKit/537.36 (KHTML, like Gecko) Chrome/138.0.0.0 Safari/537.36","WebKit","Chrome","138.0.0.0","Windows","10.0","https://app.prolific.com/","en-US,en;q=0.9","67d7fa657f5ac0292a291a38","683db6dfa200031b80f2a654","686507588104868c306feaef","67d7fa657f5ac0292a291a38","","","[0]","","","","quiz","","","","","","","","","","","","","","","","","","","","","","","","","","","","","","","","","","","","","false","",""
"9244","","<p align='center'><b>INCORRECT.</b> Usually the green ball moves in the indicated direction, but sometimes it shakes and moves randomly. </p>","0","html-button-response","26","953218","0.0-8.0-5.0-1.0","161","1","2025-07-02 10:22:13","80fe4187154257d5fb01684ea91b68b9","102.209.191.19","Mozilla/5.0 (Windows NT 10.0; Win64; x64) AppleWebKit/537.36 (KHTML, like Gecko) Chrome/138.0.0.0 Safari/537.36","WebKit","Chrome","138.0.0.0","Windows","10.0","https://app.prolific.com/","en-US,en;q=0.9","67d7fa657f5ac0292a291a38","683db6dfa200031b80f2a654","686507588104868c306feaef","67d7fa657f5ac0292a291a38","","","","","","","","","","","","","","","","","","","","","","","","","","","","","","","","","","","","","","","","","","","","","",""
"21642","","","{""green_ball"":[""Ball always moves in the direction I press"",""Ball sometimes shakes and moves in a random direction""]}","survey-multi-select","27","974864","0.0-8.0-5.1-0.1","161","1","2025-07-02 10:22:13","80fe4187154257d5fb01684ea91b68b9","102.209.191.19","Mozilla/5.0 (Windows NT 10.0; Win64; x64) AppleWebKit/537.36 (KHTML, like Gecko) Chrome/138.0.0.0 Safari/537.36","WebKit","Chrome","138.0.0.0","Windows","10.0","https://app.prolific.com/","en-US,en;q=0.9","67d7fa657f5ac0292a291a38","683db6dfa200031b80f2a654","686507588104868c306feaef","67d7fa657f5ac0292a291a38","","","[0]","","","","quiz","","","","","","","","","","","","","","","","","","","","","","","","","","","","","","","","","","","","","false","",""
"21367","","<p align='center'><b>INCORRECT.</b> Usually the green ball moves in the indicated direction, but sometimes it shakes and moves randomly. </p>","0","html-button-response","28","996233","0.0-8.0-5.1-1.1","161","1","2025-07-02 10:22:13","80fe4187154257d5fb01684ea91b68b9","102.209.191.19","Mozilla/5.0 (Windows NT 10.0; Win64; x64) AppleWebKit/537.36 (KHTML, like Gecko) Chrome/138.0.0.0 Safari/537.36","WebKit","Chrome","138.0.0.0","Windows","10.0","https://app.prolific.com/","en-US,en;q=0.9","67d7fa657f5ac0292a291a38","683db6dfa200031b80f2a654","686507588104868c306feaef","67d7fa657f5ac0292a291a38","","","","","","","","","","","","","","","","","","","","","","","","","","","","","","","","","","","","","","","","","","","","","",""
"28105","","","{""green_ball"":[""Ball sometimes shakes and moves in a random direction""]}","survey-multi-select","29","1024343","0.0-8.0-5.2-0.2","161","1","2025-07-02 10:22:13","80fe4187154257d5fb01684ea91b68b9","102.209.191.19","Mozilla/5.0 (Windows NT 10.0; Win64; x64) AppleWebKit/537.36 (KHTML, like Gecko) Chrome/138.0.0.0 Safari/537.36","WebKit","Chrome","138.0.0.0","Windows","10.0","https://app.prolific.com/","en-US,en;q=0.9","67d7fa657f5ac0292a291a38","683db6dfa200031b80f2a654","686507588104868c306feaef","67d7fa657f5ac0292a291a38","","","[0]","","","","quiz","","","","","","","","","","","","","","","","","","","","","","","","","","","","","","","","","","","","","true","",""
"2515","","<p align='center'><b>CORRECT!</b> Indeed, the green ball may sometimes shake and move in a random direction.</p>","0","html-button-response","30","1026861","0.0-8.0-5.2-1.2","161","1","2025-07-02 10:22:13","80fe4187154257d5fb01684ea91b68b9","102.209.191.19","Mozilla/5.0 (Windows NT 10.0; Win64; x64) AppleWebKit/537.36 (KHTML, like Gecko) Chrome/138.0.0.0 Safari/537.36","WebKit","Chrome","138.0.0.0","Windows","10.0","https://app.prolific.com/","en-US,en;q=0.9","67d7fa657f5ac0292a291a38","683db6dfa200031b80f2a654","686507588104868c306feaef","67d7fa657f5ac0292a291a38","","","","","","","","","","","","","","","","","","","","","","","","","","","","","","","","","","","","","","","","","","","","","",""
"11840","","","{""yellow_ball"":[""Ball doesn‘t move and I get -1 penalty point""]}","survey-multi-select","31","1038707","0.0-8.0-6.0-0.0","161","1","2025-07-02 10:22:13","80fe4187154257d5fb01684ea91b68b9","102.209.191.19","Mozilla/5.0 (Windows NT 10.0; Win64; x64) AppleWebKit/537.36 (KHTML, like Gecko) Chrome/138.0.0.0 Safari/537.36","WebKit","Chrome","138.0.0.0","Windows","10.0","https://app.prolific.com/","en-US,en;q=0.9","67d7fa657f5ac0292a291a38","683db6dfa200031b80f2a654","686507588104868c306feaef","67d7fa657f5ac0292a291a38","","","[0]","","","","quiz","","","","","","","","","","","","","","","","","","","","","","","","","","","","","","","","","","","","","true","",""
"1969","","<p align='center'><b>CORRECT!</b> Indeed, the yellow ball never moves and you receive a penalty.</p>","0","html-button-response","32","1040679","0.0-8.0-6.0-1.0","161","1","2025-07-02 10:22:13","80fe4187154257d5fb01684ea91b68b9","102.209.191.19","Mozilla/5.0 (Windows NT 10.0; Win64; x64) AppleWebKit/537.36 (KHTML, like Gecko) Chrome/138.0.0.0 Safari/537.36","WebKit","Chrome","138.0.0.0","Windows","10.0","https://app.prolific.com/","en-US,en;q=0.9","67d7fa657f5ac0292a291a38","683db6dfa200031b80f2a654","686507588104868c306feaef","67d7fa657f5ac0292a291a38","","","","","","","","","","","","","","","","","","","","","","","","","","","","","","","","","","","","","","","","","","","","","",""
"7541","","","{""blue_ball"":[""Ball doesn‘t move and I get -1 penalty point""]}","survey-multi-select","33","1048225","0.0-8.0-7.0-0.0","161","1","2025-07-02 10:22:13","80fe4187154257d5fb01684ea91b68b9","102.209.191.19","Mozilla/5.0 (Windows NT 10.0; Win64; x64) AppleWebKit/537.36 (KHTML, like Gecko) Chrome/138.0.0.0 Safari/537.36","WebKit","Chrome","138.0.0.0","Windows","10.0","https://app.prolific.com/","en-US,en;q=0.9","67d7fa657f5ac0292a291a38","683db6dfa200031b80f2a654","686507588104868c306feaef","67d7fa657f5ac0292a291a38","","","[0]","","","","quiz","","","","","","","","","","","","","","","","","","","","","","","","","","","","","","","","","","","","","false","",""
"3745","","<p align='center'><b>INCORRECT.</b> The blue ball always shakes and moves randomly.</p>","0","html-button-response","34","1051972","0.0-8.0-7.0-1.0","161","1","2025-07-02 10:22:13","80fe4187154257d5fb01684ea91b68b9","102.209.191.19","Mozilla/5.0 (Windows NT 10.0; Win64; x64) AppleWebKit/537.36 (KHTML, like Gecko) Chrome/138.0.0.0 Safari/537.36","WebKit","Chrome","138.0.0.0","Windows","10.0","https://app.prolific.com/","en-US,en;q=0.9","67d7fa657f5ac0292a291a38","683db6dfa200031b80f2a654","686507588104868c306feaef","67d7fa657f5ac0292a291a38","","","","","","","","","","","","","","","","","","","","","","","","","","","","","","","","","","","","","","","","","","","","","",""
"6768","","","{""blue_ball"":[""Ball always shakes and moves in a random direction""]}","survey-multi-select","35","1058745","0.0-8.0-7.1-0.1","161","1","2025-07-02 10:22:13","80fe4187154257d5fb01684ea91b68b9","102.209.191.19","Mozilla/5.0 (Windows NT 10.0; Win64; x64) AppleWebKit/537.36 (KHTML, like Gecko) Chrome/138.0.0.0 Safari/537.36","WebKit","Chrome","138.0.0.0","Windows","10.0","https://app.prolific.com/","en-US,en;q=0.9","67d7fa657f5ac0292a291a38","683db6dfa200031b80f2a654","686507588104868c306feaef","67d7fa657f5ac0292a291a38","","","[0]","","","","quiz","","","","","","","","","","","","","","","","","","","","","","","","","","","","","","","","","","","","","true","",""
"1807","","<p align='center'><b>CORRECT!</b> Indeed, the blue ball always shakes and moves in a random direction. Also there is a penalty of -1 point.</p>","0","html-button-response","36","1060557","0.0-8.0-7.1-1.1","161","1","2025-07-02 10:22:13","80fe4187154257d5fb01684ea91b68b9","102.209.191.19","Mozilla/5.0 (Windows NT 10.0; Win64; x64) AppleWebKit/537.36 (KHTML, like Gecko) Chrome/138.0.0.0 Safari/537.36","WebKit","Chrome","138.0.0.0","Windows","10.0","https://app.prolific.com/","en-US,en;q=0.9","67d7fa657f5ac0292a291a38","683db6dfa200031b80f2a654","686507588104868c306feaef","67d7fa657f5ac0292a291a38","","","","","","","","","","","","","","","","","","","","","","","","","","","","","","","","","","","","","","","","","","","","","",""
"6045","","","{""bonus"":[""When I reach 50% of points""]}","survey-multi-select","37","1066605","0.0-8.0-8.0-0.0","161","1","2025-07-02 10:22:13","80fe4187154257d5fb01684ea91b68b9","102.209.191.19","Mozilla/5.0 (Windows NT 10.0; Win64; x64) AppleWebKit/537.36 (KHTML, like Gecko) Chrome/138.0.0.0 Safari/537.36","WebKit","Chrome","138.0.0.0","Windows","10.0","https://app.prolific.com/","en-US,en;q=0.9","67d7fa657f5ac0292a291a38","683db6dfa200031b80f2a654","686507588104868c306feaef","67d7fa657f5ac0292a291a38","","","[0]","","","","quiz","","","","","","","","","","","","","","","","","","","","","","","","","","","","","","","","","","","","","true","",""
"2644","","<p align='center'><b>CORRECT!</b> Indeed, you receive 2 pounds extra when you reach 50% of points.</p>","0","html-button-response","38","1069251","0.0-8.0-8.0-1.0","161","1","2025-07-02 10:22:13","80fe4187154257d5fb01684ea91b68b9","102.209.191.19","Mozilla/5.0 (Windows NT 10.0; Win64; x64) AppleWebKit/537.36 (KHTML, like Gecko) Chrome/138.0.0.0 Safari/537.36","WebKit","Chrome","138.0.0.0","Windows","10.0","https://app.prolific.com/","en-US,en;q=0.9","67d7fa657f5ac0292a291a38","683db6dfa200031b80f2a654","686507588104868c306feaef","67d7fa657f5ac0292a291a38","","","","","","","","","","","","","","","","","","","","","","","","","","","","","","","","","","","","","","","","","","","","","",""
"15889","","","","instructions","39","1085142","0.0-8.0-9.0","161","1","2025-07-02 10:22:13","80fe4187154257d5fb01684ea91b68b9","102.209.191.19","Mozilla/5.0 (Windows NT 10.0; Win64; x64) AppleWebKit/537.36 (KHTML, like Gecko) Chrome/138.0.0.0 Safari/537.36","WebKit","Chrome","138.0.0.0","Windows","10.0","https://app.prolific.com/","en-US,en;q=0.9","67d7fa657f5ac0292a291a38","683db6dfa200031b80f2a654","686507588104868c306feaef","67d7fa657f5ac0292a291a38","","[{""page_index"":0,""viewing_time"":15889}]","","","","","","","","","","","","","","","","","","","","","","","","","","","","","","","","","","","","","","","","","","","",""
"23712","","<p>Before you start with this game please answer the following three questions yourself. </p>
  <p>Through this game, we measure several aspects of your cognitive performance, such as reaction times, multi-tasking capabilities </p>
  <p>and the ability to assess the situation you are in.</p>
  <p></p>
  <p><b>How good do you usually are in such tasks?</b></p>","100","html-slider-response","40","1108935","0.0-9.0-0.0","161","1","2025-07-02 10:22:13","80fe4187154257d5fb01684ea91b68b9","102.209.191.19","Mozilla/5.0 (Windows NT 10.0; Win64; x64) AppleWebKit/537.36 (KHTML, like Gecko) Chrome/138.0.0.0 Safari/537.36","WebKit","Chrome","138.0.0.0","Windows","10.0","https://app.prolific.com/","en-US,en;q=0.9","67d7fa657f5ac0292a291a38","683db6dfa200031b80f2a654","686507588104868c306feaef","67d7fa657f5ac0292a291a38","2025-07-02T10:40:48.664Z","","","","","","PreSkillQ","","","","","","","","","","","","","","","","","","","","","","","","","","","","","","","","","","","","","","50",""
"7264","","<div style=""width:500px;"">
  <p>How well do you think you will perform in this task compared to other participants?</p>
  </div>","100","html-slider-response","41","1116202","0.0-9.0-1.0","161","1","2025-07-02 10:22:13","80fe4187154257d5fb01684ea91b68b9","102.209.191.19","Mozilla/5.0 (Windows NT 10.0; Win64; x64) AppleWebKit/537.36 (KHTML, like Gecko) Chrome/138.0.0.0 Safari/537.36","WebKit","Chrome","138.0.0.0","Windows","10.0","https://app.prolific.com/","en-US,en;q=0.9","67d7fa657f5ac0292a291a38","683db6dfa200031b80f2a654","686507588104868c306feaef","67d7fa657f5ac0292a291a38","2025-07-02T10:40:55.931Z","","","","","","PrePerfQ","","","","","","","","","","","","","","","","","","","","","","","","","","","","","","","","","","","","","","50",""
"5550","","<div style=""width:500px;"">
  <p>What best describes how you currently feel?</p>
  </div>","100","html-slider-response","42","1121755","0.0-9.0-2.0","161","1","2025-07-02 10:22:13","80fe4187154257d5fb01684ea91b68b9","102.209.191.19","Mozilla/5.0 (Windows NT 10.0; Win64; x64) AppleWebKit/537.36 (KHTML, like Gecko) Chrome/138.0.0.0 Safari/537.36","WebKit","Chrome","138.0.0.0","Windows","10.0","https://app.prolific.com/","en-US,en;q=0.9","67d7fa657f5ac0292a291a38","683db6dfa200031b80f2a654","686507588104868c306feaef","67d7fa657f5ac0292a291a38","2025-07-02T10:41:01.483Z","","","","","","PreMotivationQ","","","","","","","","","","","","","","","","","","","","","","","","","","","","","","","","","","","","","","50",""
"","","","","ctl-task-cpt","43","1144679","0.0-10.0-0.0","161","1","2025-07-02 10:22:13","80fe4187154257d5fb01684ea91b68b9","102.209.191.19","Mozilla/5.0 (Windows NT 10.0; Win64; x64) AppleWebKit/537.36 (KHTML, like Gecko) Chrome/138.0.0.0 Safari/537.36","WebKit","Chrome","138.0.0.0","Windows","10.0","https://app.prolific.com/","en-US,en;q=0.9","67d7fa657f5ac0292a291a38","683db6dfa200031b80f2a654","686507588104868c306feaef","67d7fa657f5ac0292a291a38","2025-07-02T10:41:24.407Z","","","","","","","","","","","","","","","","win-only","1","g1:NE,g2:SW","1","1","0","1129507.9","3115.3","8118.5","19895.9","1","4","8","6","1","1","1","1","0","0.007575757575757576","5003.2","3000","465","[""up"",""right""]","{""num_key_presses"":4,""num_perfect"":4,""num_errors"":0,""num_randdir"":0,""num_randdir_good_moves"":0,""num_whilered"":0,""num_whileblue"":0,""num_blue"":0,""num_good_moves"":4}","[299.22232142857143,292.12857142857143,0.6,299.22232142857143,292.12857142857143,102.1,299.22232142857143,292.12857142857143,203.1,299.22232142857143,292.12857142857143,305.9,299.22232142857143,292.12857142857143,406.2,299.22232142857143,292.12857142857143,511.4,299.22232142857143,292.12857142857143,617.9,299.22232142857143,292.12857142857143,720.5,299.22232142857143,292.12857142857143,822.9,299.22232142857143,292.12857142857143,925.8,299.22232142857143,292.12857142857143,1033.5,299.22232142857143,292.12857142857143,1136.2,299.22232142857143,292.12857142857143,1238.4,299.22232142857143,292.12857142857143,1341.5,299.22232142857143,292.12857142857143,1446.2,299.22232142857143,292.12857142857143,1550.5,299.22232142857143,292.12857142857143,1651.3,299.22232142857143,292.12857142857143,1752.4,299.22232142857143,292.12857142857143,1859,299.22232142857143,292.12857142857143,1960.4,299.22232142857143,292.12857142857143,2066.9,299.22232142857143,292.12857142857143,2171,299.22232142857143,292.12857142857143,2275.6,299.22232142857143,292.12857142857143,2377.1,299.22232142857143,292.12857142857143,2481,299.22232142857143,292.12857142857143,2589.4,299.22232142857143,292.12857142857143,2690.2,299.22232142857143,292.12857142857143,2790.2,299.22232142857143,292.12857142857143,2891.1,299.22232142857143,292.12857142857143,2999.9,299.22232142857143,292.12857142857143,3102,299.22232142857143,292.12857142857143,3204,299.22232142857143,292.12857142857143,3306.2,299.22232142857143,292.12857142857143,3406.2,299.22232142857143,292.12857142857143,3508.4,299.22232142857143,292.12857142857143,3611,299.22232142857143,292.12857142857143,3719.1,299.22232142857143,292.12857142857143,3820.8,299.22232142857143,292.12857142857143,3921.8,299.22232142857143,292.12857142857143,4022.6,299.22232142857143,292.12857142857143,4125.4,299.22232142857143,292.12857142857143,4231.1,299.22232142857143,292.12857142857143,4334.3,299.22232142857143,292.12857142857143,4436,299.22232142857143,292.12857142857143,4536.3,299.22232142857143,292.12857142857143,4640.8,299.22232142857143,292.12857142857143,4745.2,299.22232142857143,292.12857142857143,4845.7,299.22232142857143,292.12857142857143,4953.6]","[2137.3,2137.3,1000,0,1137.3,""smooth"",""up"",""up"",""good_move"",5384.7,3246.7,2706.1,2138,540.6,""smooth"",""up"",""up"",""good_move"",8445.5,3060.5,2460,5385,600.5,""smooth"",""right"",""right"",""good_move"",11672.3,3226.3,2557.5,8446.1,668.7,""smooth"",""right"",""right"",""good_move""]","","",""
"5760","","<div style=""width:500px;"">
  <p>What determined the result of this run?</p>
  </div>","100","html-slider-response","44","1150442","0.0-10.0-1.0","161","1","2025-07-02 10:22:13","80fe4187154257d5fb01684ea91b68b9","102.209.191.19","Mozilla/5.0 (Windows NT 10.0; Win64; x64) AppleWebKit/537.36 (KHTML, like Gecko) Chrome/138.0.0.0 Safari/537.36","WebKit","Chrome","138.0.0.0","Windows","10.0","https://app.prolific.com/","en-US,en;q=0.9","67d7fa657f5ac0292a291a38","683db6dfa200031b80f2a654","686507588104868c306feaef","67d7fa657f5ac0292a291a38","2025-07-02T10:41:30.171Z","","","","","","AttribQ","","","","","","","","","","","","","","","","","","","","","","","","","","","","","","","","","","","","","","50",""
"3417","","<div style=""width:500px;"">
  <p>How much control did you have over the ball?</p>
  </div>","100","html-slider-response","45","1153862","0.0-10.0-2.0","161","1","2025-07-02 10:22:13","80fe4187154257d5fb01684ea91b68b9","102.209.191.19","Mozilla/5.0 (Windows NT 10.0; Win64; x64) AppleWebKit/537.36 (KHTML, like Gecko) Chrome/138.0.0.0 Safari/537.36","WebKit","Chrome","138.0.0.0","Windows","10.0","https://app.prolific.com/","en-US,en;q=0.9","67d7fa657f5ac0292a291a38","683db6dfa200031b80f2a654","686507588104868c306feaef","67d7fa657f5ac0292a291a38","2025-07-02T10:41:33.591Z","","","","","","ControlQ","","","","","","","","","","","","","","","","","","","","","","","","","","","","","","","","","","","","","","50",""
"6045","","<div style=""width:500px;"">
  <p>How would you describe your current emotional state?</p>
  </div>","0","html-slider-response","46","1159910","0.0-10.0-3.0","161","1","2025-07-02 10:22:13","80fe4187154257d5fb01684ea91b68b9","102.209.191.19","Mozilla/5.0 (Windows NT 10.0; Win64; x64) AppleWebKit/537.36 (KHTML, like Gecko) Chrome/138.0.0.0 Safari/537.36","WebKit","Chrome","138.0.0.0","Windows","10.0","https://app.prolific.com/","en-US,en;q=0.9","67d7fa657f5ac0292a291a38","683db6dfa200031b80f2a654","686507588104868c306feaef","67d7fa657f5ac0292a291a38","2025-07-02T10:41:39.638Z","","","","","","StressQ","","","","","","","","","","","","","","","","","","","","","","","","","","","","","","","","","","","","","","50",""
"7146","","<div style=""width:500px;"">
  <p>What best describes how you currently feel?</p>
  </div>","100","html-slider-response","47","1167058","0.0-10.0-4.0","161","1","2025-07-02 10:22:13","80fe4187154257d5fb01684ea91b68b9","102.209.191.19","Mozilla/5.0 (Windows NT 10.0; Win64; x64) AppleWebKit/537.36 (KHTML, like Gecko) Chrome/138.0.0.0 Safari/537.36","WebKit","Chrome","138.0.0.0","Windows","10.0","https://app.prolific.com/","en-US,en;q=0.9","67d7fa657f5ac0292a291a38","683db6dfa200031b80f2a654","686507588104868c306feaef","67d7fa657f5ac0292a291a38","2025-07-02T10:41:46.786Z","","","","","","MotivationQ","","","","","","","","","","","","","","","","","","","","","","","","","","","","","","","","","","","","","","50",""
"","","","","ctl-task-cpt","48","1190638","0.0-10.0-0.1","161","1","2025-07-02 10:22:13","80fe4187154257d5fb01684ea91b68b9","102.209.191.19","Mozilla/5.0 (Windows NT 10.0; Win64; x64) AppleWebKit/537.36 (KHTML, like Gecko) Chrome/138.0.0.0 Safari/537.36","WebKit","Chrome","138.0.0.0","Windows","10.0","https://app.prolific.com/","en-US,en;q=0.9","67d7fa657f5ac0292a291a38","683db6dfa200031b80f2a654","686507588104868c306feaef","67d7fa657f5ac0292a291a38","2025-07-02T10:42:10.366Z","","","","","","","","","","","","","","","","win-only","1","g1:NE,g2:SW","0.9","2","0","1174807.2","1901.5","6903.9","20557.5","1","4","4","6","1","1","1","2","1","0.015151515151515152","5002.4","3000","1445","[""up"",""right""]","{""num_key_presses"":4,""num_perfect"":4,""num_errors"":0,""num_randdir"":0,""num_randdir_good_moves"":0,""num_whilered"":0,""num_whileblue"":0,""num_blue"":1,""num_good_moves"":4}","[294.22232142857143,301.12857142857143,0.3,294.22232142857143,301.12857142857143,103.9,294.22232142857143,301.12857142857143,208.6,294.22232142857143,301.12857142857143,317.9,294.22232142857143,301.12857142857143,419.2,294.22232142857143,301.12857142857143,520.5,294.22232142857143,301.12857142857143,631.9,294.22232142857143,301.12857142857143,733.7,294.22232142857143,301.12857142857143,836.5,294.22232142857143,301.12857142857143,940.7,294.22232142857143,301.12857142857143,1051.7,294.22232142857143,301.12857142857143,1152.6,294.22232142857143,301.12857142857143,1252.6,294.22232142857143,301.12857142857143,1354.3,294.22232142857143,301.12857142857143,1456.3,294.22232142857143,301.12857142857143,1560.3,294.22232142857143,301.12857142857143,1661.2,294.22232142857143,301.12857142857143,1767.6,294.22232142857143,301.12857142857143,1871,294.22232142857143,301.12857142857143,1974.5,294.22232142857143,301.12857142857143,2080.8,294.22232142857143,301.12857142857143,2182.4,294.22232142857143,301.12857142857143,2282.6,294.22232142857143,301.12857142857143,2384.3,294.22232142857143,301.12857142857143,2485.4,294.22232142857143,301.12857142857143,2586.8,294.22232142857143,301.12857142857143,2694.7,294.22232142857143,301.12857142857143,2796.5,294.22232142857143,301.12857142857143,2898.8,294.22232142857143,301.12857142857143,2999.1,294.22232142857143,301.12857142857143,3099.7,294.22232142857143,301.12857142857143,3199.8,294.22232142857143,301.12857142857143,3304.7,294.22232142857143,301.12857142857143,3416.8,294.22232142857143,301.12857142857143,3517,294.22232142857143,301.12857142857143,3617.6,294.22232142857143,301.12857142857143,3719,294.22232142857143,301.12857142857143,3819.2,294.22232142857143,301.12857142857143,3919.4,294.22232142857143,301.12857142857143,4019.6,294.22232142857143,301.12857142857143,4120.6,294.22232142857143,301.12857142857143,4229.6,294.22232142857143,301.12857142857143,4330.3,294.22232142857143,301.12857142857143,4434.2,294.22232142857143,301.12857142857143,4535.8,294.22232142857143,301.12857142857143,4642.6,294.22232142857143,301.12857142857143,4745,294.22232142857143,301.12857142857143,4849.4,294.22232142857143,301.12857142857143,4953.1]","[1592.5,1592.5,1000,0,592.5,""smooth"",""up"",""up"",""good_move"",4305.2,2712,2216.9,1593.2,495.1,""smooth"",""up"",""up"",""good_move"",6730.1,2424.1,1978.5,4306,445.6,""smooth"",""right"",""right"",""good_move"",13544.3,6813.6,2643.4,10410,490.9,""smooth"",""right"",""right"",""good_move""]","","",""
"4060","","<div style=""width:500px;"">
  <p>What determined the result of this run?</p>
  </div>","100","html-slider-response","49","1194701","0.0-10.0-1.1","161","1","2025-07-02 10:22:13","80fe4187154257d5fb01684ea91b68b9","102.209.191.19","Mozilla/5.0 (Windows NT 10.0; Win64; x64) AppleWebKit/537.36 (KHTML, like Gecko) Chrome/138.0.0.0 Safari/537.36","WebKit","Chrome","138.0.0.0","Windows","10.0","https://app.prolific.com/","en-US,en;q=0.9","67d7fa657f5ac0292a291a38","683db6dfa200031b80f2a654","686507588104868c306feaef","67d7fa657f5ac0292a291a38","2025-07-02T10:42:14.430Z","","","","","","AttribQ","","","","","","","","","","","","","","","","","","","","","","","","","","","","","","","","","","","","","","50",""
"4243","","<div style=""width:500px;"">
  <p>How much control did you have over the ball?</p>
  </div>","100","html-slider-response","50","1198947","0.0-10.0-2.1","161","1","2025-07-02 10:22:13","80fe4187154257d5fb01684ea91b68b9","102.209.191.19","Mozilla/5.0 (Windows NT 10.0; Win64; x64) AppleWebKit/537.36 (KHTML, like Gecko) Chrome/138.0.0.0 Safari/537.36","WebKit","Chrome","138.0.0.0","Windows","10.0","https://app.prolific.com/","en-US,en;q=0.9","67d7fa657f5ac0292a291a38","683db6dfa200031b80f2a654","686507588104868c306feaef","67d7fa657f5ac0292a291a38","2025-07-02T10:42:18.676Z","","","","","","ControlQ","","","","","","","","","","","","","","","","","","","","","","","","","","","","","","","","","","","","","","50",""
"4717","","<div style=""width:500px;"">
  <p>How would you describe your current emotional state?</p>
  </div>","2","html-slider-response","51","1203667","0.0-10.0-3.1","161","1","2025-07-02 10:22:13","80fe4187154257d5fb01684ea91b68b9","102.209.191.19","Mozilla/5.0 (Windows NT 10.0; Win64; x64) AppleWebKit/537.36 (KHTML, like Gecko) Chrome/138.0.0.0 Safari/537.36","WebKit","Chrome","138.0.0.0","Windows","10.0","https://app.prolific.com/","en-US,en;q=0.9","67d7fa657f5ac0292a291a38","683db6dfa200031b80f2a654","686507588104868c306feaef","67d7fa657f5ac0292a291a38","2025-07-02T10:42:23.395Z","","","","","","StressQ","","","","","","","","","","","","","","","","","","","","","","","","","","","","","","","","","","","","","","50",""
"6720","","<div style=""width:500px;"">
  <p>What best describes how you currently feel?</p>
  </div>","100","html-slider-response","52","1210389","0.0-10.0-4.1","161","1","2025-07-02 10:22:13","80fe4187154257d5fb01684ea91b68b9","102.209.191.19","Mozilla/5.0 (Windows NT 10.0; Win64; x64) AppleWebKit/537.36 (KHTML, like Gecko) Chrome/138.0.0.0 Safari/537.36","WebKit","Chrome","138.0.0.0","Windows","10.0","https://app.prolific.com/","en-US,en;q=0.9","67d7fa657f5ac0292a291a38","683db6dfa200031b80f2a654","686507588104868c306feaef","67d7fa657f5ac0292a291a38","2025-07-02T10:42:30.118Z","","","","","","MotivationQ","","","","","","","","","","","","","","","","","","","","","","","","","","","","","","","","","","","","","","50",""
"","","","","ctl-task-cpt","53","1230689","0.0-10.0-0.2","161","1","2025-07-02 10:22:13","80fe4187154257d5fb01684ea91b68b9","102.209.191.19","Mozilla/5.0 (Windows NT 10.0; Win64; x64) AppleWebKit/537.36 (KHTML, like Gecko) Chrome/138.0.0.0 Safari/537.36","WebKit","Chrome","138.0.0.0","Windows","10.0","https://app.prolific.com/","en-US,en;q=0.9","67d7fa657f5ac0292a291a38","683db6dfa200031b80f2a654","686507588104868c306feaef","67d7fa657f5ac0292a291a38","2025-07-02T10:42:50.417Z","","","","","","","","","","","","","","","","win-only","3","g1:SW,g2:NE","0.8","3","0","1218140","1948.1","6951.2","17288.4","1","4","8","6","1","1","1","3","2","0.022727272727272728","5003.1","3000","1650","[""down"",""left""]","{""num_key_presses"":4,""num_perfect"":4,""num_errors"":0,""num_randdir"":0,""num_randdir_good_moves"":0,""num_whilered"":0,""num_whileblue"":0,""num_blue"":0,""num_good_moves"":4}","[295.22232142857143,300.12857142857143,0.4,295.22232142857143,300.12857142857143,103.3,295.22232142857143,300.12857142857143,210.7,295.22232142857143,300.12857142857143,312.3,295.22232142857143,300.12857142857143,414.8,295.22232142857143,300.12857142857143,520.5,295.22232142857143,300.12857142857143,636.6,295.22232142857143,300.12857142857143,745.4,295.22232142857143,300.12857142857143,851.8,295.22232142857143,300.12857142857143,959.2,295.22232142857143,300.12857142857143,1062.3,295.22232142857143,300.12857142857143,1164.1,295.22232142857143,300.12857142857143,1269.3,295.22232142857143,300.12857142857143,1372.5,295.22232142857143,300.12857142857143,1482.3,295.22232142857143,300.12857142857143,1584.8,295.22232142857143,300.12857142857143,1687.6,295.22232142857143,300.12857142857143,1788.9,295.22232142857143,300.12857142857143,1904.7,295.22232142857143,300.12857142857143,2008.3,295.22232142857143,300.12857142857143,2109.3,295.22232142857143,300.12857142857143,2212.8,295.22232142857143,300.12857142857143,2313.3,295.22232142857143,300.12857142857143,2417.8,295.22232142857143,300.12857142857143,2520.1,295.22232142857143,300.12857142857143,2632.7,295.22232142857143,300.12857142857143,2734.3,295.22232142857143,300.12857142857143,2834.8,295.22232142857143,300.12857142857143,2947.1,295.22232142857143,300.12857142857143,3047.1,295.22232142857143,300.12857142857143,3149.8,295.22232142857143,300.12857142857143,3252.5,295.22232142857143,300.12857142857143,3359.5,295.22232142857143,300.12857142857143,3464,295.22232142857143,300.12857142857143,3566.2,295.22232142857143,300.12857142857143,3668.7,295.22232142857143,300.12857142857143,3787,295.22232142857143,300.12857142857143,3895,295.22232142857143,300.12857142857143,3999.2,295.22232142857143,300.12857142857143,4113.1,295.22232142857143,300.12857142857143,4213.4,295.22232142857143,300.12857142857143,4313.5,295.22232142857143,300.12857142857143,4417.4,295.22232142857143,300.12857142857143,4518.3,295.22232142857143,300.12857142857143,4623.2,295.22232142857143,300.12857142857143,4731.9,295.22232142857143,300.12857142857143,4833.6,295.22232142857143,300.12857142857143,4934.4]","[1555.1,1555.1,1000,0,555.1,""smooth"",""down"",""down"",""good_move"",4707.8,3151.3,2659.1,1556.5,492.2,""smooth"",""down"",""down"",""good_move"",7473.2,2765.3,2361.2,4708.1,404,""smooth"",""left"",""left"",""good_move"",10210.1,2735.7,2269.2,7474.4,466.5,""smooth"",""left"",""left"",""good_move""]","","",""
"8906","","<div style=""width:500px;"">
  <p>What determined the result of this run?</p>
  </div>","100","html-slider-response","54","1239597","0.0-10.0-1.2","161","1","2025-07-02 10:22:13","80fe4187154257d5fb01684ea91b68b9","102.209.191.19","Mozilla/5.0 (Windows NT 10.0; Win64; x64) AppleWebKit/537.36 (KHTML, like Gecko) Chrome/138.0.0.0 Safari/537.36","WebKit","Chrome","138.0.0.0","Windows","10.0","https://app.prolific.com/","en-US,en;q=0.9","67d7fa657f5ac0292a291a38","683db6dfa200031b80f2a654","686507588104868c306feaef","67d7fa657f5ac0292a291a38","2025-07-02T10:42:59.325Z","","","","","","AttribQ","","","","","","","","","","","","","","","","","","","","","","","","","","","","","","","","","","","","","","50",""
"3196","","<div style=""width:500px;"">
  <p>How much control did you have over the ball?</p>
  </div>","100","html-slider-response","55","1242797","0.0-10.0-2.2","161","1","2025-07-02 10:22:13","80fe4187154257d5fb01684ea91b68b9","102.209.191.19","Mozilla/5.0 (Windows NT 10.0; Win64; x64) AppleWebKit/537.36 (KHTML, like Gecko) Chrome/138.0.0.0 Safari/537.36","WebKit","Chrome","138.0.0.0","Windows","10.0","https://app.prolific.com/","en-US,en;q=0.9","67d7fa657f5ac0292a291a38","683db6dfa200031b80f2a654","686507588104868c306feaef","67d7fa657f5ac0292a291a38","2025-07-02T10:43:02.525Z","","","","","","ControlQ","","","","","","","","","","","","","","","","","","","","","","","","","","","","","","","","","","","","","","50",""
"4730","","<div style=""width:500px;"">
  <p>How would you describe your current emotional state?</p>
  </div>","0","html-slider-response","56","1247529","0.0-10.0-3.2","161","1","2025-07-02 10:22:13","80fe4187154257d5fb01684ea91b68b9","102.209.191.19","Mozilla/5.0 (Windows NT 10.0; Win64; x64) AppleWebKit/537.36 (KHTML, like Gecko) Chrome/138.0.0.0 Safari/537.36","WebKit","Chrome","138.0.0.0","Windows","10.0","https://app.prolific.com/","en-US,en;q=0.9","67d7fa657f5ac0292a291a38","683db6dfa200031b80f2a654","686507588104868c306feaef","67d7fa657f5ac0292a291a38","2025-07-02T10:43:07.258Z","","","","","","StressQ","","","","","","","","","","","","","","","","","","","","","","","","","","","","","","","","","","","","","","50",""
"4624","","<div style=""width:500px;"">
  <p>What best describes how you currently feel?</p>
  </div>","100","html-slider-response","57","1252156","0.0-10.0-4.2","161","1","2025-07-02 10:22:13","80fe4187154257d5fb01684ea91b68b9","102.209.191.19","Mozilla/5.0 (Windows NT 10.0; Win64; x64) AppleWebKit/537.36 (KHTML, like Gecko) Chrome/138.0.0.0 Safari/537.36","WebKit","Chrome","138.0.0.0","Windows","10.0","https://app.prolific.com/","en-US,en;q=0.9","67d7fa657f5ac0292a291a38","683db6dfa200031b80f2a654","686507588104868c306feaef","67d7fa657f5ac0292a291a38","2025-07-02T10:43:11.884Z","","","","","","MotivationQ","","","","","","","","","","","","","","","","","","","","","","","","","","","","","","","","","","","","","","50",""
"","","","","ctl-task-cpt","58","1277330","0.0-10.0-0.3","161","1","2025-07-02 10:22:13","80fe4187154257d5fb01684ea91b68b9","102.209.191.19","Mozilla/5.0 (Windows NT 10.0; Win64; x64) AppleWebKit/537.36 (KHTML, like Gecko) Chrome/138.0.0.0 Safari/537.36","WebKit","Chrome","138.0.0.0","Windows","10.0","https://app.prolific.com/","en-US,en;q=0.9","67d7fa657f5ac0292a291a38","683db6dfa200031b80f2a654","686507588104868c306feaef","67d7fa657f5ac0292a291a38","2025-07-02T10:43:37.059Z","","","","","","","","","","","","","","","","win-only","1","g1:NE,g2:SW","0.7","4","0","1259905.6","1990.1","6993.5","22150.5","1","4","4","6","1","1","1","4","3","0.030303030303030304","5003.4","3000","1985","[""up"",""right""]","{""num_key_presses"":4,""num_perfect"":3,""num_errors"":0,""num_randdir"":1,""num_randdir_good_moves"":1,""num_whilered"":0,""num_whileblue"":0,""num_blue"":1,""num_good_moves"":4}","[296.22232142857143,287.12857142857143,0.5,296.22232142857143,287.12857142857143,100.4,296.22232142857143,287.12857142857143,205.4,296.22232142857143,287.12857142857143,312,296.22232142857143,287.12857142857143,412,296.22232142857143,287.12857142857143,519.8,296.22232142857143,287.12857142857143,621.6,296.22232142857143,287.12857142857143,735.9,296.22232142857143,287.12857142857143,845.8,296.22232142857143,287.12857142857143,948.7,296.22232142857143,287.12857142857143,1052.9,296.22232142857143,287.12857142857143,1155.3,296.22232142857143,287.12857142857143,1260.8,296.22232142857143,287.12857142857143,1372.5,296.22232142857143,287.12857142857143,1481.8,296.22232142857143,287.12857142857143,1584.5,296.22232142857143,287.12857142857143,1687,296.22232142857143,287.12857142857143,1800.2,296.22232142857143,287.12857142857143,1903.8,296.22232142857143,287.12857142857143,2006.6,296.22232142857143,287.12857142857143,2109.2,296.22232142857143,287.12857142857143,2226.5,296.22232142857143,287.12857142857143,2327.2,296.22232142857143,287.12857142857143,2428.5,296.22232142857143,287.12857142857143,2538.4,296.22232142857143,287.12857142857143,2640.1,296.22232142857143,287.12857142857143,2740.4,296.22232142857143,287.12857142857143,2842.8,296.22232142857143,287.12857142857143,2949.2,296.22232142857143,287.12857142857143,3062.5,296.22232142857143,287.12857142857143,3166.1,296.22232142857143,287.12857142857143,3282.4,296.22232142857143,287.12857142857143,3388,296.22232142857143,287.12857142857143,3504,296.22232142857143,287.12857142857143,3609.5,296.22232142857143,287.12857142857143,3715.8,296.22232142857143,287.12857142857143,3823.6,296.22232142857143,287.12857142857143,3938.8,296.22232142857143,287.12857142857143,4046,296.22232142857143,287.12857142857143,4153.2,296.22232142857143,287.12857142857143,4261.5,296.22232142857143,287.12857142857143,4363.7,296.22232142857143,287.12857142857143,4468.5,296.22232142857143,287.12857142857143,4570,296.22232142857143,287.12857142857143,4671.5,296.22232142857143,287.12857142857143,4777.6,296.22232142857143,287.12857142857143,4893]","[1498.6,1498.6,1000,0,498.6,""oops"",""up"",""up"",""good_move"",8728,7227.6,2992.9,5279.4,455.7,""smooth"",""up"",""up"",""good_move"",12254.6,3526.1,2907.3,8728.5,618.8,""smooth"",""right"",""right"",""good_move"",14980.8,2722.3,2276.9,12258.6,445.3,""smooth"",""right"",""right"",""good_move""]","","",""
"4049","","<div style=""width:500px;"">
  <p>What determined the result of this run?</p>
  </div>","100","html-slider-response","59","1281382","0.0-10.0-1.3","161","1","2025-07-02 10:22:13","80fe4187154257d5fb01684ea91b68b9","102.209.191.19","Mozilla/5.0 (Windows NT 10.0; Win64; x64) AppleWebKit/537.36 (KHTML, like Gecko) Chrome/138.0.0.0 Safari/537.36","WebKit","Chrome","138.0.0.0","Windows","10.0","https://app.prolific.com/","en-US,en;q=0.9","67d7fa657f5ac0292a291a38","683db6dfa200031b80f2a654","686507588104868c306feaef","67d7fa657f5ac0292a291a38","2025-07-02T10:43:41.111Z","","","","","","AttribQ","","","","","","","","","","","","","","","","","","","","","","","","","","","","","","","","","","","","","","50",""
"5415","","<div style=""width:500px;"">
  <p>How much control did you have over the ball?</p>
  </div>","97","html-slider-response","60","1286802","0.0-10.0-2.3","161","1","2025-07-02 10:22:13","80fe4187154257d5fb01684ea91b68b9","102.209.191.19","Mozilla/5.0 (Windows NT 10.0; Win64; x64) AppleWebKit/537.36 (KHTML, like Gecko) Chrome/138.0.0.0 Safari/537.36","WebKit","Chrome","138.0.0.0","Windows","10.0","https://app.prolific.com/","en-US,en;q=0.9","67d7fa657f5ac0292a291a38","683db6dfa200031b80f2a654","686507588104868c306feaef","67d7fa657f5ac0292a291a38","2025-07-02T10:43:46.530Z","","","","","","ControlQ","","","","","","","","","","","","","","","","","","","","","","","","","","","","","","","","","","","","","","50",""
"4707","","<div style=""width:500px;"">
  <p>How would you describe your current emotional state?</p>
  </div>","0","html-slider-response","61","1291514","0.0-10.0-3.3","161","1","2025-07-02 10:22:13","80fe4187154257d5fb01684ea91b68b9","102.209.191.19","Mozilla/5.0 (Windows NT 10.0; Win64; x64) AppleWebKit/537.36 (KHTML, like Gecko) Chrome/138.0.0.0 Safari/537.36","WebKit","Chrome","138.0.0.0","Windows","10.0","https://app.prolific.com/","en-US,en;q=0.9","67d7fa657f5ac0292a291a38","683db6dfa200031b80f2a654","686507588104868c306feaef","67d7fa657f5ac0292a291a38","2025-07-02T10:43:51.242Z","","","","","","StressQ","","","","","","","","","","","","","","","","","","","","","","","","","","","","","","","","","","","","","","50",""
"4678","","<div style=""width:500px;"">
  <p>What best describes how you currently feel?</p>
  </div>","100","html-slider-response","62","1296194","0.0-10.0-4.3","161","1","2025-07-02 10:22:13","80fe4187154257d5fb01684ea91b68b9","102.209.191.19","Mozilla/5.0 (Windows NT 10.0; Win64; x64) AppleWebKit/537.36 (KHTML, like Gecko) Chrome/138.0.0.0 Safari/537.36","WebKit","Chrome","138.0.0.0","Windows","10.0","https://app.prolific.com/","en-US,en;q=0.9","67d7fa657f5ac0292a291a38","683db6dfa200031b80f2a654","686507588104868c306feaef","67d7fa657f5ac0292a291a38","2025-07-02T10:43:55.923Z","","","","","","MotivationQ","","","","","","","","","","","","","","","","","","","","","","","","","","","","","","","","","","","","","","50",""
"","","","","ctl-task-cpt","63","1316693","0.0-10.0-0.4","161","1","2025-07-02 10:22:13","80fe4187154257d5fb01684ea91b68b9","102.209.191.19","Mozilla/5.0 (Windows NT 10.0; Win64; x64) AppleWebKit/537.36 (KHTML, like Gecko) Chrome/138.0.0.0 Safari/537.36","WebKit","Chrome","138.0.0.0","Windows","10.0","https://app.prolific.com/","en-US,en;q=0.9","67d7fa657f5ac0292a291a38","683db6dfa200031b80f2a654","686507588104868c306feaef","67d7fa657f5ac0292a291a38","2025-07-02T10:44:16.421Z","","","","","","","","","","","","","","","","win-only","1","g1:NE,g2:SW","0.6","5","0","1303946.6","2086.8","7090.9","17481.3","1","4","8","6","1","1","1","5","4","0.03787878787878788","5004.1","3000","1690","[""up"",""right""]","{""num_key_presses"":4,""num_perfect"":3,""num_errors"":0,""num_randdir"":1,""num_randdir_good_moves"":1,""num_whilered"":0,""num_whileblue"":0,""num_blue"":0,""num_good_moves"":4}","[299.22232142857143,297.12857142857143,0.5,299.22232142857143,297.12857142857143,100.1,299.22232142857143,297.12857142857143,202.9,299.22232142857143,297.12857142857143,306.5,299.22232142857143,297.12857142857143,409.1,299.22232142857143,297.12857142857143,523.4,299.22232142857143,297.12857142857143,633.3,299.22232142857143,297.12857142857143,741.6,299.22232142857143,297.12857142857143,842,299.22232142857143,297.12857142857143,942,299.22232142857143,297.12857142857143,1042.1,299.22232142857143,297.12857142857143,1147.9,299.22232142857143,297.12857142857143,1259.7,299.22232142857143,297.12857142857143,1359.9,299.22232142857143,297.12857142857143,1461.3,299.22232142857143,297.12857142857143,1568.3,299.22232142857143,297.12857142857143,1673.5,299.22232142857143,297.12857142857143,1774.6,299.22232142857143,297.12857142857143,1879.4,299.22232142857143,297.12857142857143,1986.2,299.22232142857143,297.12857142857143,2088.2,299.22232142857143,297.12857142857143,2190,299.22232142857143,297.12857142857143,2291.6,299.22232142857143,297.12857142857143,2391.7,299.22232142857143,297.12857142857143,2496.8,299.22232142857143,297.12857142857143,2599.3,299.22232142857143,297.12857142857143,2703.9,299.22232142857143,297.12857142857143,2805.7,299.22232142857143,297.12857142857143,2909.6,299.22232142857143,297.12857142857143,3011.4,299.22232142857143,297.12857142857143,3120.5,299.22232142857143,297.12857142857143,3230,299.22232142857143,297.12857142857143,3341.7,299.22232142857143,297.12857142857143,3454.3,299.22232142857143,297.12857142857143,3557.2,299.22232142857143,297.12857142857143,3661.6,299.22232142857143,297.12857142857143,3765.3,299.22232142857143,297.12857142857143,3868.6,299.22232142857143,297.12857142857143,3969,299.22232142857143,297.12857142857143,4073.5,299.22232142857143,297.12857142857143,4190,299.22232142857143,297.12857142857143,4290.1,299.22232142857143,297.12857142857143,4398.6,299.22232142857143,297.12857142857143,4511.7,299.22232142857143,297.12857142857143,4622.6,299.22232142857143,297.12857142857143,4724,299.22232142857143,297.12857142857143,4826.5,299.22232142857143,297.12857142857143,4929.3]","[1748.1,1748.1,1000,0,748.1,""smooth"",""up"",""up"",""good_move"",5137,3387.4,2940,1749.7,447.3,""oops"",""up"",""up"",""good_move"",7787,2648.5,2187.7,5138.5,460.8,""smooth"",""right"",""right"",""good_move"",10253.6,2463.1,1971.5,7790.7,491.4,""smooth"",""right"",""right"",""good_move""]","","",""
"4577","","<div style=""width:500px;"">
  <p>What determined the result of this run?</p>
  </div>","100","html-slider-response","64","1321274","0.0-10.0-1.4","161","1","2025-07-02 10:22:13","80fe4187154257d5fb01684ea91b68b9","102.209.191.19","Mozilla/5.0 (Windows NT 10.0; Win64; x64) AppleWebKit/537.36 (KHTML, like Gecko) Chrome/138.0.0.0 Safari/537.36","WebKit","Chrome","138.0.0.0","Windows","10.0","https://app.prolific.com/","en-US,en;q=0.9","67d7fa657f5ac0292a291a38","683db6dfa200031b80f2a654","686507588104868c306feaef","67d7fa657f5ac0292a291a38","2025-07-02T10:44:21.002Z","","","","","","AttribQ","","","","","","","","","","","","","","","","","","","","","","","","","","","","","","","","","","","","","","50",""
"5440","","<div style=""width:500px;"">
  <p>How much control did you have over the ball?</p>
  </div>","100","html-slider-response","65","1326718","0.0-10.0-2.4","161","1","2025-07-02 10:22:13","80fe4187154257d5fb01684ea91b68b9","102.209.191.19","Mozilla/5.0 (Windows NT 10.0; Win64; x64) AppleWebKit/537.36 (KHTML, like Gecko) Chrome/138.0.0.0 Safari/537.36","WebKit","Chrome","138.0.0.0","Windows","10.0","https://app.prolific.com/","en-US,en;q=0.9","67d7fa657f5ac0292a291a38","683db6dfa200031b80f2a654","686507588104868c306feaef","67d7fa657f5ac0292a291a38","2025-07-02T10:44:26.447Z","","","","","","ControlQ","","","","","","","","","","","","","","","","","","","","","","","","","","","","","","","","","","","","","","50",""
"3994","","<div style=""width:500px;"">
  <p>How would you describe your current emotional state?</p>
  </div>","0","html-slider-response","66","1330722","0.0-10.0-3.4","161","1","2025-07-02 10:22:13","80fe4187154257d5fb01684ea91b68b9","102.209.191.19","Mozilla/5.0 (Windows NT 10.0; Win64; x64) AppleWebKit/537.36 (KHTML, like Gecko) Chrome/138.0.0.0 Safari/537.36","WebKit","Chrome","138.0.0.0","Windows","10.0","https://app.prolific.com/","en-US,en;q=0.9","67d7fa657f5ac0292a291a38","683db6dfa200031b80f2a654","686507588104868c306feaef","67d7fa657f5ac0292a291a38","2025-07-02T10:44:30.450Z","","","","","","StressQ","","","","","","","","","","","","","","","","","","","","","","","","","","","","","","","","","","","","","","50",""
"3269","","<div style=""width:500px;"">
  <p>What best describes how you currently feel?</p>
  </div>","100","html-slider-response","67","1333995","0.0-10.0-4.4","161","1","2025-07-02 10:22:13","80fe4187154257d5fb01684ea91b68b9","102.209.191.19","Mozilla/5.0 (Windows NT 10.0; Win64; x64) AppleWebKit/537.36 (KHTML, like Gecko) Chrome/138.0.0.0 Safari/537.36","WebKit","Chrome","138.0.0.0","Windows","10.0","https://app.prolific.com/","en-US,en;q=0.9","67d7fa657f5ac0292a291a38","683db6dfa200031b80f2a654","686507588104868c306feaef","67d7fa657f5ac0292a291a38","2025-07-02T10:44:33.723Z","","","","","","MotivationQ","","","","","","","","","","","","","","","","","","","","","","","","","","","","","","","","","","","","","","50",""
"","","","","ctl-task-cpt","68","1407363","0.0-10.0-0.5","161","1","2025-07-02 10:22:13","80fe4187154257d5fb01684ea91b68b9","102.209.191.19","Mozilla/5.0 (Windows NT 10.0; Win64; x64) AppleWebKit/537.36 (KHTML, like Gecko) Chrome/138.0.0.0 Safari/537.36","WebKit","Chrome","138.0.0.0","Windows","10.0","https://app.prolific.com/","en-US,en;q=0.9","67d7fa657f5ac0292a291a38","683db6dfa200031b80f2a654","686507588104868c306feaef","67d7fa657f5ac0292a291a38","2025-07-02T10:45:47.091Z","","","","","","","","","","","","","","","","win-only","1","g1:NE,g2:SW","0.5","6","0","1341746.9","1716.5","6720.8","70307.6","1","4","4","6","2","-4","-5","0","5","0","5004.3","3000","-1585","[""down"",""left""]","{""num_key_presses"":12,""num_perfect"":5,""num_errors"":1,""num_randdir"":6,""num_randdir_good_moves"":3,""num_whilered"":0,""num_whileblue"":1,""num_blue"":8,""num_good_moves"":5}","[297.22232142857143,300.12857142857143,0.8,297.22232142857143,300.12857142857143,102.3,297.22232142857143,300.12857142857143,205,297.22232142857143,300.12857142857143,308.6,297.22232142857143,300.12857142857143,411.4,297.22232142857143,300.12857142857143,515.8,297.22232142857143,300.12857142857143,637.9,297.22232142857143,300.12857142857143,744.5,297.22232142857143,300.12857142857143,846.3,297.22232142857143,300.12857142857143,964.3,297.22232142857143,300.12857142857143,1067.1,297.22232142857143,300.12857142857143,1183,297.22232142857143,300.12857142857143,1286.4,297.22232142857143,300.12857142857143,1391.5,297.22232142857143,300.12857142857143,1496.1,297.22232142857143,300.12857142857143,1598,297.22232142857143,300.12857142857143,1702.1,297.22232142857143,300.12857142857143,1818.4,297.22232142857143,300.12857142857143,1919.6,297.22232142857143,300.12857142857143,2030.4,297.22232142857143,300.12857142857143,2131.9,297.22232142857143,300.12857142857143,2233.5,297.22232142857143,300.12857142857143,2334.6,297.22232142857143,300.12857142857143,2438.9,297.22232142857143,300.12857142857143,2540.2,297.22232142857143,300.12857142857143,2645.3,297.22232142857143,300.12857142857143,2752.9,297.22232142857143,300.12857142857143,2854.2,297.22232142857143,300.12857142857143,2967.9,297.22232142857143,300.12857142857143,3068.4,297.22232142857143,300.12857142857143,3176.7,297.22232142857143,300.12857142857143,3282.1,297.22232142857143,300.12857142857143,3384.3,297.22232142857143,300.12857142857143,3488.5,297.22232142857143,300.12857142857143,3613.8,297.22232142857143,300.12857142857143,3715.3,297.22232142857143,300.12857142857143,3818.7,297.22232142857143,300.12857142857143,3921.8,297.22232142857143,300.12857142857143,4022.5,297.22232142857143,300.12857142857143,4127.5,297.22232142857143,300.12857142857143,4235.6,297.22232142857143,300.12857142857143,4354.8,297.22232142857143,300.12857142857143,4463.8,297.22232142857143,300.12857142857143,4566.4,297.22232142857143,300.12857142857143,4667.4,297.22232142857143,300.12857142857143,4767.6,297.22232142857143,300.12857142857143,4874.3,297.22232142857143,300.12857142857143,4982]","[1515.8,1515.8,1000,0,515.8,""smooth"",""up"",""up"",""bad_move"",4310.7,2792.8,2313.9,1518,478.8,""smooth"",""up"",""up"",""bad_move"",10965.3,6652.6,2784.6,7757,423.7,""oops"",""right"",""right"",""bad_move"",14405.3,3439.3,2947.1,10966,492.2,""smooth"",""right"",""right"",""bad_move"",18230.9,3824.3,2520.7,14406.7,1303.6,""oops"",""down"",""down"",""good_move"",24137.5,5903.8,2263,21425,449.5,""smooth"",""down"",""down"",""good_move"",30091.5,5953.3,2548.4,27152.9,390.2,""while_blue"",""down"",""up"",""bad_move"",33582.2,3490.2,1886.3,30092,1603.9,""oops"",""down"",""down"",""good_move"",36890.5,3307.5,2696.6,33583,610.9,""oops"",""down"",""up"",""bad_move"",40291.4,3399.9,2851.9,36891.5,548,""oops"",""up"",""up"",""bad_move"",46512.6,6219,2217,43892.8,402.8,""smooth"",""left"",""left"",""good_move"",50210.8,3696.5,3083.3,46514.3,613.2,""oops"",""left"",""left"",""good_move""]","","",""
"4731","","<div style=""width:500px;"">
  <p>What determined the result of this run?</p>
  </div>","66","html-slider-response","69","1412098","0.0-10.0-1.5","161","1","2025-07-02 10:22:13","80fe4187154257d5fb01684ea91b68b9","102.209.191.19","Mozilla/5.0 (Windows NT 10.0; Win64; x64) AppleWebKit/537.36 (KHTML, like Gecko) Chrome/138.0.0.0 Safari/537.36","WebKit","Chrome","138.0.0.0","Windows","10.0","https://app.prolific.com/","en-US,en;q=0.9","67d7fa657f5ac0292a291a38","683db6dfa200031b80f2a654","686507588104868c306feaef","67d7fa657f5ac0292a291a38","2025-07-02T10:45:51.827Z","","","","","","AttribQ","","","","","","","","","","","","","","","","","","","","","","","","","","","","","","","","","","","","","","50",""
"4654","","<div style=""width:500px;"">
  <p>How much control did you have over the ball?</p>
  </div>","1","html-slider-response","70","1416756","0.0-10.0-2.5","161","1","2025-07-02 10:22:13","80fe4187154257d5fb01684ea91b68b9","102.209.191.19","Mozilla/5.0 (Windows NT 10.0; Win64; x64) AppleWebKit/537.36 (KHTML, like Gecko) Chrome/138.0.0.0 Safari/537.36","WebKit","Chrome","138.0.0.0","Windows","10.0","https://app.prolific.com/","en-US,en;q=0.9","67d7fa657f5ac0292a291a38","683db6dfa200031b80f2a654","686507588104868c306feaef","67d7fa657f5ac0292a291a38","2025-07-02T10:45:56.485Z","","","","","","ControlQ","","","","","","","","","","","","","","","","","","","","","","","","","","","","","","","","","","","","","","50",""
"4637","","<div style=""width:500px;"">
  <p>How would you describe your current emotional state?</p>
  </div>","2","html-slider-response","71","1421396","0.0-10.0-3.5","161","1","2025-07-02 10:22:13","80fe4187154257d5fb01684ea91b68b9","102.209.191.19","Mozilla/5.0 (Windows NT 10.0; Win64; x64) AppleWebKit/537.36 (KHTML, like Gecko) Chrome/138.0.0.0 Safari/537.36","WebKit","Chrome","138.0.0.0","Windows","10.0","https://app.prolific.com/","en-US,en;q=0.9","67d7fa657f5ac0292a291a38","683db6dfa200031b80f2a654","686507588104868c306feaef","67d7fa657f5ac0292a291a38","2025-07-02T10:46:01.124Z","","","","","","StressQ","","","","","","","","","","","","","","","","","","","","","","","","","","","","","","","","","","","","","","50",""
"3535","","<div style=""width:500px;"">
  <p>What best describes how you currently feel?</p>
  </div>","95","html-slider-response","72","1424935","0.0-10.0-4.5","161","1","2025-07-02 10:22:13","80fe4187154257d5fb01684ea91b68b9","102.209.191.19","Mozilla/5.0 (Windows NT 10.0; Win64; x64) AppleWebKit/537.36 (KHTML, like Gecko) Chrome/138.0.0.0 Safari/537.36","WebKit","Chrome","138.0.0.0","Windows","10.0","https://app.prolific.com/","en-US,en;q=0.9","67d7fa657f5ac0292a291a38","683db6dfa200031b80f2a654","686507588104868c306feaef","67d7fa657f5ac0292a291a38","2025-07-02T10:46:04.663Z","","","","","","MotivationQ","","","","","","","","","","","","","","","","","","","","","","","","","","","","","","","","","","","","","","50",""
"","","","","ctl-task-cpt","73","1492326","0.0-10.0-0.6","161","1","2025-07-02 10:22:13","80fe4187154257d5fb01684ea91b68b9","102.209.191.19","Mozilla/5.0 (Windows NT 10.0; Win64; x64) AppleWebKit/537.36 (KHTML, like Gecko) Chrome/138.0.0.0 Safari/537.36","WebKit","Chrome","138.0.0.0","Windows","10.0","https://app.prolific.com/","en-US,en;q=0.9","67d7fa657f5ac0292a291a38","683db6dfa200031b80f2a654","686507588104868c306feaef","67d7fa657f5ac0292a291a38","2025-07-02T10:47:12.055Z","","","","","","","","","","","","","","","","win-only","0","g1:NW,g2:SE","0.4","7","0","1432693.2","3944.5","8951.9","64368.6","1","4","4","6","1","1","0","0","0","0","5007.4","3000","555","[""left"",""up""]","{""num_key_presses"":14,""num_perfect"":4,""num_errors"":1,""num_randdir"":9,""num_randdir_good_moves"":4,""num_whilered"":0,""num_whileblue"":1,""num_blue"":4,""num_good_moves"":9}","[296.22232142857143,296.12857142857143,0.8,296.22232142857143,296.12857142857143,107.5,296.22232142857143,296.12857142857143,209.8,296.22232142857143,296.12857142857143,321.6,296.22232142857143,296.12857142857143,423.3,296.22232142857143,296.12857142857143,524,296.22232142857143,296.12857142857143,632.2,296.22232142857143,296.12857142857143,735,296.22232142857143,296.12857142857143,840.9,296.22232142857143,296.12857142857143,947.7,296.22232142857143,296.12857142857143,1054,296.22232142857143,296.12857142857143,1165.6,296.22232142857143,296.12857142857143,1266.6,296.22232142857143,296.12857142857143,1375.4,296.22232142857143,296.12857142857143,1478.3,296.22232142857143,296.12857142857143,1586.2,296.22232142857143,296.12857142857143,1690.5,296.22232142857143,296.12857142857143,1798.7,296.22232142857143,296.12857142857143,1909,296.22232142857143,296.12857142857143,2018.2,296.22232142857143,296.12857142857143,2122.4,296.22232142857143,296.12857142857143,2226.4,296.22232142857143,296.12857142857143,2332.7,296.22232142857143,296.12857142857143,2442.8,296.22232142857143,296.12857142857143,2550.6,296.22232142857143,296.12857142857143,2654.5,296.22232142857143,296.12857142857143,2767.5,296.22232142857143,296.12857142857143,2881.7,296.22232142857143,296.12857142857143,2985.4,296.22232142857143,296.12857142857143,3089.6,296.22232142857143,296.12857142857143,3198,296.22232142857143,296.12857142857143,3300.6,296.22232142857143,296.12857142857143,3400.8,296.22232142857143,296.12857142857143,3507.2,296.22232142857143,296.12857142857143,3608,296.22232142857143,296.12857142857143,3710.3,296.22232142857143,296.12857142857143,3818.2,296.22232142857143,296.12857142857143,3923.8,296.22232142857143,296.12857142857143,4034.8,296.22232142857143,296.12857142857143,4138.7,296.22232142857143,296.12857142857143,4246.6,296.22232142857143,296.12857142857143,4347.6,296.22232142857143,296.12857142857143,4452.4,296.22232142857143,296.12857142857143,4564.6,296.22232142857143,296.12857142857143,4665.4,296.22232142857143,296.12857142857143,4772,296.22232142857143,296.12857142857143,4876.8,296.22232142857143,296.12857142857143,4994.3]","[1856.6,1856.7,1000,0,856.7,""smooth"",""left"",""left"",""good_move"",4873.3,3015.3,2482.5,1858,532.8,""oops"",""left"",""down"",""bad_move"",11979.6,7103.9,2699.5,8723,557.1,""oops"",""up"",""left"",""good_move"",15849.7,3869,2412,11980.7,1457,""oops"",""up"",""right"",""bad_move"",18961.3,3109,2485.6,15852.3,623.4,""oops"",""up"",""right"",""bad_move"",22341,3378.8,2784.7,18962.2,594.1,""smooth"",""up"",""up"",""good_move"",25640.8,3298,2724.7,22342.8,573.3,""smooth"",""up"",""up"",""good_move"",35494.6,9853.4,2220.2,32760.4,514,""smooth"",""up"",""up"",""good_move"",38417.8,2922.5,2314.9,35495.3,607.6,""oops"",""left"",""right"",""bad_move"",41281.7,2862.9,2355,38418.8,507.9,""oops"",""left"",""left"",""good_move"",44753.7,3466.4,2489.7,41287.3,976.7,""oops"",""left"",""left"",""good_move"",48175.8,3421.2,1480.8,44754.6,1940.4,""oops"",""left"",""right"",""bad_move"",51273.7,3097.1,2584.7,48176.6,512.4,""while_blue"",""left"",""left"",""good_move"",55148.1,3873.3,2229.9,51274.9,1643.4,""oops"",""left"",""left"",""good_move""]","","",""
"4156","","<div style=""width:500px;"">
  <p>What determined the result of this run?</p>
  </div>","84","html-slider-response","74","1496486","0.0-10.0-1.6","161","1","2025-07-02 10:22:13","80fe4187154257d5fb01684ea91b68b9","102.209.191.19","Mozilla/5.0 (Windows NT 10.0; Win64; x64) AppleWebKit/537.36 (KHTML, like Gecko) Chrome/138.0.0.0 Safari/537.36","WebKit","Chrome","138.0.0.0","Windows","10.0","https://app.prolific.com/","en-US,en;q=0.9","67d7fa657f5ac0292a291a38","683db6dfa200031b80f2a654","686507588104868c306feaef","67d7fa657f5ac0292a291a38","2025-07-02T10:47:16.214Z","","","","","","AttribQ","","","","","","","","","","","","","","","","","","","","","","","","","","","","","","","","","","","","","","50",""
"5106","","<div style=""width:500px;"">
  <p>How much control did you have over the ball?</p>
  </div>","1","html-slider-response","75","1501598","0.0-10.0-2.6","161","1","2025-07-02 10:22:13","80fe4187154257d5fb01684ea91b68b9","102.209.191.19","Mozilla/5.0 (Windows NT 10.0; Win64; x64) AppleWebKit/537.36 (KHTML, like Gecko) Chrome/138.0.0.0 Safari/537.36","WebKit","Chrome","138.0.0.0","Windows","10.0","https://app.prolific.com/","en-US,en;q=0.9","67d7fa657f5ac0292a291a38","683db6dfa200031b80f2a654","686507588104868c306feaef","67d7fa657f5ac0292a291a38","2025-07-02T10:47:21.326Z","","","","","","ControlQ","","","","","","","","","","","","","","","","","","","","","","","","","","","","","","","","","","","","","","50",""
"3714","","<div style=""width:500px;"">
  <p>How would you describe your current emotional state?</p>
  </div>","14","html-slider-response","76","1505316","0.0-10.0-3.6","161","1","2025-07-02 10:22:13","80fe4187154257d5fb01684ea91b68b9","102.209.191.19","Mozilla/5.0 (Windows NT 10.0; Win64; x64) AppleWebKit/537.36 (KHTML, like Gecko) Chrome/138.0.0.0 Safari/537.36","WebKit","Chrome","138.0.0.0","Windows","10.0","https://app.prolific.com/","en-US,en;q=0.9","67d7fa657f5ac0292a291a38","683db6dfa200031b80f2a654","686507588104868c306feaef","67d7fa657f5ac0292a291a38","2025-07-02T10:47:25.045Z","","","","","","StressQ","","","","","","","","","","","","","","","","","","","","","","","","","","","","","","","","","","","","","","50",""
"4022","","<div style=""width:500px;"">
  <p>What best describes how you currently feel?</p>
  </div>","84","html-slider-response","77","1509344","0.0-10.0-4.6","161","1","2025-07-02 10:22:13","80fe4187154257d5fb01684ea91b68b9","102.209.191.19","Mozilla/5.0 (Windows NT 10.0; Win64; x64) AppleWebKit/537.36 (KHTML, like Gecko) Chrome/138.0.0.0 Safari/537.36","WebKit","Chrome","138.0.0.0","Windows","10.0","https://app.prolific.com/","en-US,en;q=0.9","67d7fa657f5ac0292a291a38","683db6dfa200031b80f2a654","686507588104868c306feaef","67d7fa657f5ac0292a291a38","2025-07-02T10:47:29.072Z","","","","","","MotivationQ","","","","","","","","","","","","","","","","","","","","","","","","","","","","","","","","","","","","","","50",""
"","","","","ctl-task-cpt","78","1571841","0.0-10.0-0.7","161","1","2025-07-02 10:22:13","80fe4187154257d5fb01684ea91b68b9","102.209.191.19","Mozilla/5.0 (Windows NT 10.0; Win64; x64) AppleWebKit/537.36 (KHTML, like Gecko) Chrome/138.0.0.0 Safari/537.36","WebKit","Chrome","138.0.0.0","Windows","10.0","https://app.prolific.com/","en-US,en;q=0.9","67d7fa657f5ac0292a291a38","683db6dfa200031b80f2a654","686507588104868c306feaef","67d7fa657f5ac0292a291a38","2025-07-02T10:48:31.569Z","","","","","","","","","","","","","","","","win-only","3","g1:SW,g2:NE","0.3","8","0","1517096.4","1490","6503.1","59457.3","1","4","8","6","1","-1","-2","0","0","0","5013.1","3000","-755","[""down"",""left""]","{""num_key_presses"":13,""num_perfect"":3,""num_errors"":1,""num_randdir"":9,""num_randdir_good_moves"":4,""num_whilered"":0,""num_whileblue"":1,""num_blue"":3,""num_good_moves"":8}","[298.22232142857143,300.12857142857143,0.2,298.22232142857143,300.12857142857143,107.7,298.22232142857143,300.12857142857143,214.2,298.22232142857143,300.12857142857143,318.8,298.22232142857143,300.12857142857143,426.4,298.22232142857143,300.12857142857143,528.7,298.22232142857143,300.12857142857143,631.2,298.22232142857143,300.12857142857143,742.9,298.22232142857143,300.12857142857143,848.9,298.22232142857143,300.12857142857143,952.8,298.22232142857143,300.12857142857143,1065.3,298.22232142857143,300.12857142857143,1168.2,298.22232142857143,300.12857142857143,1272.7,298.22232142857143,300.12857142857143,1380.9,298.22232142857143,300.12857142857143,1484.3,298.22232142857143,300.12857142857143,1592.9,298.22232142857143,300.12857142857143,1695.7,298.22232142857143,300.12857142857143,1797.5,298.22232142857143,300.12857142857143,1897.8,298.22232142857143,300.12857142857143,2013.2,298.22232142857143,300.12857142857143,2118.5,298.22232142857143,300.12857142857143,2228.5,298.22232142857143,300.12857142857143,2334.8,298.22232142857143,300.12857142857143,2436.4,298.22232142857143,300.12857142857143,2548.5,298.22232142857143,300.12857142857143,2654.4,298.22232142857143,300.12857142857143,2757.7,298.22232142857143,300.12857142857143,2863.2,298.22232142857143,300.12857142857143,2982.6,298.22232142857143,300.12857142857143,3097.8,298.22232142857143,300.12857142857143,3213.7,298.22232142857143,300.12857142857143,3327,298.22232142857143,300.12857142857143,3438.7,298.22232142857143,300.12857142857143,3545.6,298.22232142857143,300.12857142857143,3651.1,298.22232142857143,300.12857142857143,3762.8,298.22232142857143,300.12857142857143,3883.1,298.22232142857143,300.12857142857143,4007.6,298.22232142857143,300.12857142857143,4109.4,298.22232142857143,300.12857142857143,4223.1,298.22232142857143,300.12857142857143,4327.7,298.22232142857143,300.12857142857143,4429.9,298.22232142857143,300.12857142857143,4538.8,298.22232142857143,300.12857142857143,4639,298.22232142857143,300.12857142857143,4742.8,298.22232142857143,300.12857142857143,4850.9,298.22232142857143,300.12857142857143,4959.7]","[1007.1,1007.1,1003.5,0,3.6,""while_blue"",""down"",""down"",""good_move"",5445.1,4435.9,3282.1,1009.2,1153.8,""oops"",""down"",""left"",""good_move"",8784.7,3339.1,2470.1,5445.6,869,""oops"",""down"",""right"",""bad_move"",11705.9,2920,2169.5,8785.9,750.6,""oops"",""down"",""up"",""bad_move"",14906.7,3196.3,2603.6,11710.5,592.6,""smooth"",""down"",""down"",""good_move"",18566.8,3659.8,3057.7,14907,602.1,""smooth"",""down"",""down"",""good_move"",26100.2,7532.5,2384.4,23224,491.8,""oops"",""left"",""up"",""bad_move"",29364.9,3263.6,2706.1,26101.3,557.5,""oops"",""left"",""up"",""bad_move"",32893.4,3527.5,1607.2,29366,1920.3,""smooth"",""left"",""left"",""good_move"",36538.8,3644.6,3045.5,32894.2,599.1,""oops"",""left"",""left"",""good_move"",43591.1,7049.9,3180.3,39821.9,588.9,""oops"",""down"",""down"",""good_move"",46167,2574.9,2082,43592.2,492.8,""oops"",""down"",""right"",""bad_move"",49604.3,3433.2,2494.2,46171.1,939,""oops"",""down"",""down"",""good_move""]","","",""
"4866","","<div style=""width:500px;"">
  <p>What determined the result of this run?</p>
  </div>","100","html-slider-response","79","1576710","0.0-10.0-1.7","161","1","2025-07-02 10:22:13","80fe4187154257d5fb01684ea91b68b9","102.209.191.19","Mozilla/5.0 (Windows NT 10.0; Win64; x64) AppleWebKit/537.36 (KHTML, like Gecko) Chrome/138.0.0.0 Safari/537.36","WebKit","Chrome","138.0.0.0","Windows","10.0","https://app.prolific.com/","en-US,en;q=0.9","67d7fa657f5ac0292a291a38","683db6dfa200031b80f2a654","686507588104868c306feaef","67d7fa657f5ac0292a291a38","2025-07-02T10:48:36.439Z","","","","","","AttribQ","","","","","","","","","","","","","","","","","","","","","","","","","","","","","","","","","","","","","","50",""
"3660","","<div style=""width:500px;"">
  <p>How much control did you have over the ball?</p>
  </div>","1","html-slider-response","80","1580377","0.0-10.0-2.7","161","1","2025-07-02 10:22:13","80fe4187154257d5fb01684ea91b68b9","102.209.191.19","Mozilla/5.0 (Windows NT 10.0; Win64; x64) AppleWebKit/537.36 (KHTML, like Gecko) Chrome/138.0.0.0 Safari/537.36","WebKit","Chrome","138.0.0.0","Windows","10.0","https://app.prolific.com/","en-US,en;q=0.9","67d7fa657f5ac0292a291a38","683db6dfa200031b80f2a654","686507588104868c306feaef","67d7fa657f5ac0292a291a38","2025-07-02T10:48:40.105Z","","","","","","ControlQ","","","","","","","","","","","","","","","","","","","","","","","","","","","","","","","","","","","","","","50",""
"5352","","<div style=""width:500px;"">
  <p>How would you describe your current emotional state?</p>
  </div>","1","html-slider-response","81","1585735","0.0-10.0-3.7","161","1","2025-07-02 10:22:13","80fe4187154257d5fb01684ea91b68b9","102.209.191.19","Mozilla/5.0 (Windows NT 10.0; Win64; x64) AppleWebKit/537.36 (KHTML, like Gecko) Chrome/138.0.0.0 Safari/537.36","WebKit","Chrome","138.0.0.0","Windows","10.0","https://app.prolific.com/","en-US,en;q=0.9","67d7fa657f5ac0292a291a38","683db6dfa200031b80f2a654","686507588104868c306feaef","67d7fa657f5ac0292a291a38","2025-07-02T10:48:45.464Z","","","","","","StressQ","","","","","","","","","","","","","","","","","","","","","","","","","","","","","","","","","","","","","","50",""
"4712","","<div style=""width:500px;"">
  <p>What best describes how you currently feel?</p>
  </div>","100","html-slider-response","82","1590452","0.0-10.0-4.7","161","1","2025-07-02 10:22:13","80fe4187154257d5fb01684ea91b68b9","102.209.191.19","Mozilla/5.0 (Windows NT 10.0; Win64; x64) AppleWebKit/537.36 (KHTML, like Gecko) Chrome/138.0.0.0 Safari/537.36","WebKit","Chrome","138.0.0.0","Windows","10.0","https://app.prolific.com/","en-US,en;q=0.9","67d7fa657f5ac0292a291a38","683db6dfa200031b80f2a654","686507588104868c306feaef","67d7fa657f5ac0292a291a38","2025-07-02T10:48:50.180Z","","","","","","MotivationQ","","","","","","","","","","","","","","","","","","","","","","","","","","","","","","","","","","","","","","50",""
"","","","","ctl-task-cpt","83","1645397","0.0-10.0-0.8","161","1","2025-07-02 10:22:13","80fe4187154257d5fb01684ea91b68b9","102.209.191.19","Mozilla/5.0 (Windows NT 10.0; Win64; x64) AppleWebKit/537.36 (KHTML, like Gecko) Chrome/138.0.0.0 Safari/537.36","WebKit","Chrome","138.0.0.0","Windows","10.0","https://app.prolific.com/","en-US,en;q=0.9","67d7fa657f5ac0292a291a38","683db6dfa200031b80f2a654","686507588104868c306feaef","67d7fa657f5ac0292a291a38","2025-07-02T10:49:45.125Z","","","","","","","","","","","","","","","","win-only","1","g1:NE,g2:SW","0.4","9","0","1598203.6","4337.1","9348.8","51914.4","1","4","4","6","2","4","4","4","0","0.030303030303030304","5011.7","3000","1540","[""down"",""left""]","{""num_key_presses"":8,""num_perfect"":3,""num_errors"":0,""num_randdir"":5,""num_randdir_good_moves"":4,""num_whilered"":0,""num_whileblue"":0,""num_blue"":5,""num_good_moves"":7}","[293.22232142857143,291.12857142857143,0.4,293.22232142857143,291.12857142857143,119.6,293.22232142857143,291.12857142857143,228.9,293.22232142857143,291.12857142857143,329.8,293.22232142857143,291.12857142857143,440.5,293.22232142857143,291.12857142857143,545.9,293.22232142857143,291.12857142857143,648.2,293.22232142857143,291.12857142857143,752.7,293.22232142857143,293.12857142857143,858.2,302.22232142857143,338.12857142857143,958.6,302.22232142857143,364.12857142857143,1059.7,303.22232142857143,366.12857142857143,1162.1,345.22232142857143,278.12857142857143,1308.2,345.22232142857143,272.12857142857143,1410.6,345.22232142857143,272.12857142857143,1515.8,345.22232142857143,272.12857142857143,1615.9,345.22232142857143,272.12857142857143,1723.1,345.22232142857143,272.12857142857143,1843.7,345.22232142857143,272.12857142857143,1945.1,345.22232142857143,272.12857142857143,2049.6,345.22232142857143,272.12857142857143,2149.7,345.22232142857143,272.12857142857143,2250,345.22232142857143,272.12857142857143,2364.9,345.22232142857143,272.12857142857143,2477.1,345.22232142857143,272.12857142857143,2582.3,345.22232142857143,272.12857142857143,2685.5,345.22232142857143,272.12857142857143,2791.3,345.22232142857143,272.12857142857143,2900.5,345.22232142857143,272.12857142857143,3009.7,345.22232142857143,272.12857142857143,3110.3,345.22232142857143,272.12857142857143,3213,345.22232142857143,272.12857142857143,3317.1,345.22232142857143,272.12857142857143,3423,345.22232142857143,272.12857142857143,3527.8,345.22232142857143,272.12857142857143,3633.4,345.22232142857143,272.12857142857143,3742.5,345.22232142857143,272.12857142857143,3850.3,345.22232142857143,272.12857142857143,3954.9,345.22232142857143,272.12857142857143,4061.1,345.22232142857143,272.12857142857143,4163.6,345.22232142857143,272.12857142857143,4266,345.22232142857143,272.12857142857143,4370.5,345.22232142857143,272.12857142857143,4474.2,345.22232142857143,272.12857142857143,4575,345.22232142857143,272.12857142857143,4685.7,345.22232142857143,272.12857142857143,4800.9,345.22232142857143,272.12857142857143,4913.1]","[2033.2,2033.3,1000,0,1033.3,""oops"",""down"",""right"",""bad_move"",5280.2,3245.4,2716.4,2034.8,529,""smooth"",""down"",""down"",""good_move"",7844.7,2562.4,1904.3,5282.3,658.1,""oops"",""down"",""left"",""good_move"",10988.5,3141.4,1604.9,7847.1,1536.5,""oops"",""down"",""down"",""good_move"",14258.9,3269.1,2772.5,10989.9,496.6,""oops"",""down"",""down"",""good_move"",20175,5915,1886,17732.4,556.6,""smooth"",""left"",""left"",""good_move"",24092.9,3916.8,2751.4,20176.1,1165.4,""smooth"",""left"",""left"",""good_move"",42197,18102.1,2453.1,39266.2,477.8,""oops"",""left"",""left"",""good_move""]","","",""
"4625","","<div style=""width:500px;"">
  <p>What determined the result of this run?</p>
  </div>","100","html-slider-response","84","1650025","0.0-10.0-1.8","161","1","2025-07-02 10:22:13","80fe4187154257d5fb01684ea91b68b9","102.209.191.19","Mozilla/5.0 (Windows NT 10.0; Win64; x64) AppleWebKit/537.36 (KHTML, like Gecko) Chrome/138.0.0.0 Safari/537.36","WebKit","Chrome","138.0.0.0","Windows","10.0","https://app.prolific.com/","en-US,en;q=0.9","67d7fa657f5ac0292a291a38","683db6dfa200031b80f2a654","686507588104868c306feaef","67d7fa657f5ac0292a291a38","2025-07-02T10:49:49.753Z","","","","","","AttribQ","","","","","","","","","","","","","","","","","","","","","","","","","","","","","","","","","","","","","","50",""
"4702","","<div style=""width:500px;"">
  <p>How much control did you have over the ball?</p>
  </div>","44","html-slider-response","85","1654731","0.0-10.0-2.8","161","1","2025-07-02 10:22:13","80fe4187154257d5fb01684ea91b68b9","102.209.191.19","Mozilla/5.0 (Windows NT 10.0; Win64; x64) AppleWebKit/537.36 (KHTML, like Gecko) Chrome/138.0.0.0 Safari/537.36","WebKit","Chrome","138.0.0.0","Windows","10.0","https://app.prolific.com/","en-US,en;q=0.9","67d7fa657f5ac0292a291a38","683db6dfa200031b80f2a654","686507588104868c306feaef","67d7fa657f5ac0292a291a38","2025-07-02T10:49:54.459Z","","","","","","ControlQ","","","","","","","","","","","","","","","","","","","","","","","","","","","","","","","","","","","","","","50",""
"3480","","<div style=""width:500px;"">
  <p>How would you describe your current emotional state?</p>
  </div>","1","html-slider-response","86","1658214","0.0-10.0-3.8","161","1","2025-07-02 10:22:13","80fe4187154257d5fb01684ea91b68b9","102.209.191.19","Mozilla/5.0 (Windows NT 10.0; Win64; x64) AppleWebKit/537.36 (KHTML, like Gecko) Chrome/138.0.0.0 Safari/537.36","WebKit","Chrome","138.0.0.0","Windows","10.0","https://app.prolific.com/","en-US,en;q=0.9","67d7fa657f5ac0292a291a38","683db6dfa200031b80f2a654","686507588104868c306feaef","67d7fa657f5ac0292a291a38","2025-07-02T10:49:57.942Z","","","","","","StressQ","","","","","","","","","","","","","","","","","","","","","","","","","","","","","","","","","","","","","","50",""
"3713","","<div style=""width:500px;"">
  <p>What best describes how you currently feel?</p>
  </div>","100","html-slider-response","87","1661932","0.0-10.0-4.8","161","1","2025-07-02 10:22:13","80fe4187154257d5fb01684ea91b68b9","102.209.191.19","Mozilla/5.0 (Windows NT 10.0; Win64; x64) AppleWebKit/537.36 (KHTML, like Gecko) Chrome/138.0.0.0 Safari/537.36","WebKit","Chrome","138.0.0.0","Windows","10.0","https://app.prolific.com/","en-US,en;q=0.9","67d7fa657f5ac0292a291a38","683db6dfa200031b80f2a654","686507588104868c306feaef","67d7fa657f5ac0292a291a38","2025-07-02T10:50:01.660Z","","","","","","MotivationQ","","","","","","","","","","","","","","","","","","","","","","","","","","","","","","","","","","","","","","50",""
