"rt","response_timestamp","stimulus","response","trial_type","trial_index","time_elapsed","internal_node_id","run_id","condition","recorded_at","source_code_version","ip","user_agent","device","browser","browser_version","platform","platform_version","referer","accept_language","PROLIFIC_PID","STUDY_ID","SESSION_ID","prolific_id","realtime","view_history","question_order","consent","success","question_id","eventType","responses","item_order","radio_event_ids","radio_event_times","key_event_times","mouse_event_times","straightlining","zigzagging","honeypot","which_type","canvas_config","goals_layout","control_level","trial_number","tutorial_trial_number","trial_start_time","phase1_start_time","phase2_start_time","phase3_start_time","goal_1_value","goal_1_distance","goal_2_value","goal_2_distance","goal_selected","outcome","outcome_total","participant_final_score","participant_initial_score","participant_final_score_prop","goal_choice_rt","allocated_time","allocated_time_remaining","goal_direction","counts","mouse_movements","key_presses","correct","slider_start"
"39486","1751451680204","<p style='font-size:40px;line-height:1.25'><strong>Welcome to the experiment!</strong></p><p style='font-size:1.1em;line-height:1.25'>Thank you for your interest in our experiment! Before you begin, it is important that we obtain your informed consent to participate in the study.</p><p style='font-size:1.1em;line-height:1.25'>On the next screen will be an <strong>information sheet</strong> for you to read. To participate in the study we need you to read this information sheet and the following consent form carefully. If you agree with all the statements, please click the <strong>I agree</strong> button.</p><p style='font-size:1.1em;line-height:1.25'>Press <strong>Next</strong> to read the information sheet.</p>","0","custom-html-button-response","0","39489","0.0-0.0","138","1","2025-07-02 10:20:39","80fe4187154257d5fb01684ea91b68b9","41.116.152.218","Mozilla/5.0 (iPhone; CPU iPhone OS 17_6_1 like Mac OS X) AppleWebKit/605.1.15 (KHTML, like Gecko) FxiOS/140.1  Mobile/15E148 Safari/605.1.15","iPhone","Firefox","140.1","iOS","17_6_1","https://app.prolific.com/","en-GB,en;q=0.9","67d97d854178939ca2f319a0","683db6dfa200031b80f2a654","68650786ab3dd72c3f54a381","67d97d854178939ca2f319a0","2025-07-02T10:21:20.206Z","","","","","","","","","","","","","","","","","","","","","","","","","","","","","","","","","","","","","","","","","","","",""
"60783","","","","instructions","1","100273","0.0-1.0","138","1","2025-07-02 10:20:39","80fe4187154257d5fb01684ea91b68b9","41.116.152.218","Mozilla/5.0 (iPhone; CPU iPhone OS 17_6_1 like Mac OS X) AppleWebKit/605.1.15 (KHTML, like Gecko) FxiOS/140.1  Mobile/15E148 Safari/605.1.15","iPhone","Firefox","140.1","iOS","17_6_1","https://app.prolific.com/","en-GB,en;q=0.9","67d97d854178939ca2f319a0","683db6dfa200031b80f2a654","68650786ab3dd72c3f54a381","67d97d854178939ca2f319a0","","[{""page_index"":0,""viewing_time"":53113},{""page_index"":1,""viewing_time"":7669}]","","","","","","","","","","","","","","","","","","","","","","","","","","","","","","","","","","","","","","","","","","",""
"11968","","","{""Q0"":"""",""Q1"":"""",""Q2"":"""",""Q3"":"""",""Q4"":"""",""Q5"":"""",""Q6"":""I agree""}","survey-multi-choice","2","112245","0.0-2.0","138","1","2025-07-02 10:20:39","80fe4187154257d5fb01684ea91b68b9","41.116.152.218","Mozilla/5.0 (iPhone; CPU iPhone OS 17_6_1 like Mac OS X) AppleWebKit/605.1.15 (KHTML, like Gecko) FxiOS/140.1  Mobile/15E148 Safari/605.1.15","iPhone","Firefox","140.1","iOS","17_6_1","https://app.prolific.com/","en-GB,en;q=0.9","67d97d854178939ca2f319a0","683db6dfa200031b80f2a654","68650786ab3dd72c3f54a381","67d97d854178939ca2f319a0","","","[0,1,2,3,4,5,6]","true","","","","","","","","","","","","","","","","","","","","","","","","","","","","","","","","","","","","","","","","",""
"10120","","","","fullscreen","3","123371","0.0-4.0","138","1","2025-07-02 10:20:39","80fe4187154257d5fb01684ea91b68b9","41.116.152.218","Mozilla/5.0 (iPhone; CPU iPhone OS 17_6_1 like Mac OS X) AppleWebKit/605.1.15 (KHTML, like Gecko) FxiOS/140.1  Mobile/15E148 Safari/605.1.15","iPhone","Firefox","140.1","iOS","17_6_1","https://app.prolific.com/","en-GB,en;q=0.9","67d97d854178939ca2f319a0","683db6dfa200031b80f2a654","68650786ab3dd72c3f54a381","67d97d854178939ca2f319a0","","","","","true","","","","","","","","","","","","","","","","","","","","","","","","","","","","","","","","","","","","","","","",""
"4298","1751451768385"," <p style='font-size:1.1em;line-height:1.25'>Thank you for completing the consent form and closing all other tabs.</p><p style='font-size:1.1em;line-height:1.25'>We will now invite you to fill in some demographic information and questionnaires, before starting the game.<br>This will take about 5 minutes.<br></p><p style='font-size:1.1em;line-height:1.25'>Press the <strong>Next</strong> button to continue.</p>","0","custom-html-button-response","4","127670","0.0-5.0","138","1","2025-07-02 10:20:39","80fe4187154257d5fb01684ea91b68b9","41.116.152.218","Mozilla/5.0 (iPhone; CPU iPhone OS 17_6_1 like Mac OS X) AppleWebKit/605.1.15 (KHTML, like Gecko) FxiOS/140.1  Mobile/15E148 Safari/605.1.15","iPhone","Firefox","140.1","iOS","17_6_1","https://app.prolific.com/","en-GB,en;q=0.9","67d97d854178939ca2f319a0","683db6dfa200031b80f2a654","68650786ab3dd72c3f54a381","67d97d854178939ca2f319a0","2025-07-02T10:22:48.386Z","","","","","","","","","","","","","","","","","","","","","","","","","","","","","","","","","","","","","","","","","","","",""
"5528","","","{""age"":""21""}","survey-text","5","133224","0.0-6.0-0.0","138","1","2025-07-02 10:20:39","80fe4187154257d5fb01684ea91b68b9","41.116.152.218","Mozilla/5.0 (iPhone; CPU iPhone OS 17_6_1 like Mac OS X) AppleWebKit/605.1.15 (KHTML, like Gecko) FxiOS/140.1  Mobile/15E148 Safari/605.1.15","iPhone","Firefox","140.1","iOS","17_6_1","https://app.prolific.com/","en-GB,en;q=0.9","67d97d854178939ca2f319a0","683db6dfa200031b80f2a654","68650786ab3dd72c3f54a381","67d97d854178939ca2f319a0","","","","","","0","demographics","","","","","","","","","","","","","","","","","","","","","","","","","","","","","","","","","","","","","",""
"7587","","","{""gender_identity"":""male/man""}","survey-multi-choice","6","140813","0.0-6.0-1.0","138","1","2025-07-02 10:20:39","80fe4187154257d5fb01684ea91b68b9","41.116.152.218","Mozilla/5.0 (iPhone; CPU iPhone OS 17_6_1 like Mac OS X) AppleWebKit/605.1.15 (KHTML, like Gecko) FxiOS/140.1  Mobile/15E148 Safari/605.1.15","iPhone","Firefox","140.1","iOS","17_6_1","https://app.prolific.com/","en-GB,en;q=0.9","67d97d854178939ca2f319a0","683db6dfa200031b80f2a654","68650786ab3dd72c3f54a381","67d97d854178939ca2f319a0","","","[0]","","","1","demographics","","","","","","","","","","","","","","","","","","","","","","","","","","","","","","","","","","","","","",""
"4059","","","{""assigned_sex"":""male""}","survey-multi-choice","7","144875","0.0-6.0-2.0","138","1","2025-07-02 10:20:39","80fe4187154257d5fb01684ea91b68b9","41.116.152.218","Mozilla/5.0 (iPhone; CPU iPhone OS 17_6_1 like Mac OS X) AppleWebKit/605.1.15 (KHTML, like Gecko) FxiOS/140.1  Mobile/15E148 Safari/605.1.15","iPhone","Firefox","140.1","iOS","17_6_1","https://app.prolific.com/","en-GB,en;q=0.9","67d97d854178939ca2f319a0","683db6dfa200031b80f2a654","68650786ab3dd72c3f54a381","67d97d854178939ca2f319a0","","","[0]","","","2","demographics","","","","","","","","","","","","","","","","","","","","","","","","","","","","","","","","","","","","","",""
"8766","","","{""menstrual_cycle"":""No""}","survey-multi-choice","8","153644","0.0-6.0-3.0","138","1","2025-07-02 10:20:39","80fe4187154257d5fb01684ea91b68b9","41.116.152.218","Mozilla/5.0 (iPhone; CPU iPhone OS 17_6_1 like Mac OS X) AppleWebKit/605.1.15 (KHTML, like Gecko) FxiOS/140.1  Mobile/15E148 Safari/605.1.15","iPhone","Firefox","140.1","iOS","17_6_1","https://app.prolific.com/","en-GB,en;q=0.9","67d97d854178939ca2f319a0","683db6dfa200031b80f2a654","68650786ab3dd72c3f54a381","67d97d854178939ca2f319a0","","","[0]","","","4","demographics","","","","","","","","","","","","","","","","","","","","","","","","","","","","","","","","","","","","","",""
"9500","","","{""education"":""Master's Degree (e.g., MSc)""}","survey-multi-choice","9","163146","0.0-6.0-4.0","138","1","2025-07-02 10:20:39","80fe4187154257d5fb01684ea91b68b9","41.116.152.218","Mozilla/5.0 (iPhone; CPU iPhone OS 17_6_1 like Mac OS X) AppleWebKit/605.1.15 (KHTML, like Gecko) FxiOS/140.1  Mobile/15E148 Safari/605.1.15","iPhone","Firefox","140.1","iOS","17_6_1","https://app.prolific.com/","en-GB,en;q=0.9","67d97d854178939ca2f319a0","683db6dfa200031b80f2a654","68650786ab3dd72c3f54a381","67d97d854178939ca2f319a0","","","[0]","","","5","demographics","","","","","","","","","","","","","","","","","","","","","","","","","","","","","","","","","","","","","",""
"5997","","","{""education"":""Doctoral Degree (e.g., PhD)""}","survey-multi-choice","10","169146","0.0-6.0-5.0","138","1","2025-07-02 10:20:39","80fe4187154257d5fb01684ea91b68b9","41.116.152.218","Mozilla/5.0 (iPhone; CPU iPhone OS 17_6_1 like Mac OS X) AppleWebKit/605.1.15 (KHTML, like Gecko) FxiOS/140.1  Mobile/15E148 Safari/605.1.15","iPhone","Firefox","140.1","iOS","17_6_1","https://app.prolific.com/","en-GB,en;q=0.9","67d97d854178939ca2f319a0","683db6dfa200031b80f2a654","68650786ab3dd72c3f54a381","67d97d854178939ca2f319a0","2025-07-02T10:23:29.862Z","","[0]","","","6","demographics","","","","","","","","","","","","","","","","","","","","","","","","","","","","","","","","","","","","","",""
"431763","","","{""mental_health_condition"":""anxiety disorder"",""mental_health_treatment"":""Im doing exposure therapy"",""psychiatric_medication"":""Anxiolytics""}","survey-text","11","600920","0.0-7.0-0.0","138","1","2025-07-02 10:20:39","80fe4187154257d5fb01684ea91b68b9","41.116.152.218","Mozilla/5.0 (iPhone; CPU iPhone OS 17_6_1 like Mac OS X) AppleWebKit/605.1.15 (KHTML, like Gecko) FxiOS/140.1  Mobile/15E148 Safari/605.1.15","iPhone","Firefox","140.1","iOS","17_6_1","https://app.prolific.com/","en-GB,en;q=0.9","67d97d854178939ca2f319a0","683db6dfa200031b80f2a654","68650786ab3dd72c3f54a381","67d97d854178939ca2f319a0","2025-07-02T10:30:41.637Z","","","","","1","mental_health","","","","","","","","","","","","","","","","","","","","","","","","","","","","","","","","","","","","","",""
"14955","","","{""depression_history"":[""Yes""]}","survey-multi-select","12","615880","0.0-7.0-1.0","138","1","2025-07-02 10:20:39","80fe4187154257d5fb01684ea91b68b9","41.116.152.218","Mozilla/5.0 (iPhone; CPU iPhone OS 17_6_1 like Mac OS X) AppleWebKit/605.1.15 (KHTML, like Gecko) FxiOS/140.1  Mobile/15E148 Safari/605.1.15","iPhone","Firefox","140.1","iOS","17_6_1","https://app.prolific.com/","en-GB,en;q=0.9","67d97d854178939ca2f319a0","683db6dfa200031b80f2a654","68650786ab3dd72c3f54a381","67d97d854178939ca2f319a0","","","[0]","","","","mental_health","","","","","","","","","","","","","","","","","","","","","","","","","","","","","","","","","","","","","",""
"73061","","","{""depression_episodes"":""3-5"",""depression_recent"":""Within the past year""}","survey-multi-choice","13","688945","0.0-7.0-2.0-0.0","138","1","2025-07-02 10:20:39","80fe4187154257d5fb01684ea91b68b9","41.116.152.218","Mozilla/5.0 (iPhone; CPU iPhone OS 17_6_1 like Mac OS X) AppleWebKit/605.1.15 (KHTML, like Gecko) FxiOS/140.1  Mobile/15E148 Safari/605.1.15","iPhone","Firefox","140.1","iOS","17_6_1","https://app.prolific.com/","en-GB,en;q=0.9","67d97d854178939ca2f319a0","683db6dfa200031b80f2a654","68650786ab3dd72c3f54a381","67d97d854178939ca2f319a0","2025-07-02T10:32:09.662Z","","[0,1]","","","3","mental_health","","","","","","","","","","","","","","","","","","","","","","","","","","","","","","","","","","","","","",""
"259788","","","","survey-template","14","948743","0.0-7.0-3.0","138","1","2025-07-02 10:20:39","80fe4187154257d5fb01684ea91b68b9","41.116.152.218","Mozilla/5.0 (iPhone; CPU iPhone OS 17_6_1 like Mac OS X) AppleWebKit/605.1.15 (KHTML, like Gecko) FxiOS/140.1  Mobile/15E148 Safari/605.1.15","iPhone","Firefox","140.1","iOS","17_6_1","https://app.prolific.com/","en-GB,en;q=0.9","67d97d854178939ca2f319a0","683db6dfa200031b80f2a654","68650786ab3dd72c3f54a381","67d97d854178939ca2f319a0","2025-07-02T10:36:29.460Z","","","","","","ius","{""Q01"":""2"",""Q02"":""3"",""Q03"":""4"",""Q04"":""4"",""Q05"":""0"",""Q06"":""0"",""Q07"":""1"",""Q08"":""0"",""Q09"":""4"",""Q10"":""2"",""Q11"":""2"",""Q12"":""3"",""Q13"":""4""}","[0,1,2,3,4,5,6,7,8,9,10,11,12]","[""Q01"",""Q02"",""Q02"",""Q03"",""Q05"",""Q06"",""Q07"",""Q08"",""Q09"",""Q10"",""Q11"",""Q12"",""Q13"",""Q04""]","[111001,116322,122748,131119,164286,169759,179713,190333,199040,206738,213893,221495,238055.00000000012,257052]","[]","[111001,116322,118577,120144,120959.00000000012,121595,122210,122748,123380,131119,164286,169759,178509,179713,186747.00000000012,187877.00000000012,188995,189811,190333,199040,206738,213893,221495,226710,228039,228935,230488,231714,233765,234617.00000000012,235350,236384,238055.00000000012,239622.00000000012,253402,254547,255284,255848.00000000012,257052,259787]","0.3076923076923077","0.6666666666666666","0","","","","","","","","","","","","","","","","","","","","","","","","","","","","",""
"3945","1751452593407","<p style='font-size:1.1em;line-height:1.25'>In the following, we will ask you a few questions relating to your experiences over the past month.<br></p><p style='font-size:1.1em;line-height:1.25'>Press the <strong>Next</strong> button to continue.</p>","0","custom-html-button-response","15","952693","0.0-7.0-4.0","138","1","2025-07-02 10:20:39","80fe4187154257d5fb01684ea91b68b9","41.116.152.218","Mozilla/5.0 (iPhone; CPU iPhone OS 17_6_1 like Mac OS X) AppleWebKit/605.1.15 (KHTML, like Gecko) FxiOS/140.1  Mobile/15E148 Safari/605.1.15","iPhone","Firefox","140.1","iOS","17_6_1","https://app.prolific.com/","en-GB,en;q=0.9","67d97d854178939ca2f319a0","683db6dfa200031b80f2a654","68650786ab3dd72c3f54a381","67d97d854178939ca2f319a0","2025-07-02T10:36:33.409Z","","","","","","","","","","","","","","","","","","","","","","","","","","","","","","","","","","","","","","","","","","","",""
"93857","","","","survey-template","16","1046552","0.0-7.0-5.0","138","1","2025-07-02 10:20:39","80fe4187154257d5fb01684ea91b68b9","41.116.152.218","Mozilla/5.0 (iPhone; CPU iPhone OS 17_6_1 like Mac OS X) AppleWebKit/605.1.15 (KHTML, like Gecko) FxiOS/140.1  Mobile/15E148 Safari/605.1.15","iPhone","Firefox","140.1","iOS","17_6_1","https://app.prolific.com/","en-GB,en;q=0.9","67d97d854178939ca2f319a0","683db6dfa200031b80f2a654","68650786ab3dd72c3f54a381","67d97d854178939ca2f319a0","2025-07-02T10:38:07.269Z","","","","","","pss","{""Q01"":""2"",""Q02"":""1"",""Q03"":""2"",""Q04"":""0"",""Q05"":""0"",""Q06"":""0"",""Q07"":""0"",""Q08"":""0"",""Q09"":""2"",""Q10"":""0""}","[0,1,2,3,4,5,6,7,8,9]","[""Q01"",""Q02"",""Q03"",""Q04"",""Q05"",""Q06"",""Q07"",""Q08"",""Q09"",""Q09"",""Q10""]","[13641,21026.000000000116,27756,34553,39223.00000000012,48921,56502.00000000012,63441,70806,77893,86128.99999999988]","[]","[0,13641,19873,21026.000000000116,27756,33668,34553,39223.00000000012,46885,47702,48921,55618,56502.00000000012,63441,70806,77893,86128.99999999988,93856]","0.4","0.4444444444444444","0","","","","","","","","","","","","","","","","","","","","","","","","","","","","",""
"5561","1751452692832","<p style='font-size:1.1em;line-height:1.25'>Thank you for your answers! Now we will ask you a few more questions relating to your feelings in the last 24 hours.<br></p><p style='font-size:1.1em;line-height:1.25'>Press the <strong>Next</strong> button to continue.</p>","0","custom-html-button-response","17","1052116","0.0-7.0-6.0","138","1","2025-07-02 10:20:39","80fe4187154257d5fb01684ea91b68b9","41.116.152.218","Mozilla/5.0 (iPhone; CPU iPhone OS 17_6_1 like Mac OS X) AppleWebKit/605.1.15 (KHTML, like Gecko) FxiOS/140.1  Mobile/15E148 Safari/605.1.15","iPhone","Firefox","140.1","iOS","17_6_1","https://app.prolific.com/","en-GB,en;q=0.9","67d97d854178939ca2f319a0","683db6dfa200031b80f2a654","68650786ab3dd72c3f54a381","67d97d854178939ca2f319a0","2025-07-02T10:38:12.833Z","","","","","","","","","","","","","","","","","","","","","","","","","","","","","","","","","","","","","","","","","","","",""
"193226","","","","survey-template","18","1245348","0.0-7.0-7.0","138","1","2025-07-02 10:20:39","80fe4187154257d5fb01684ea91b68b9","41.116.152.218","Mozilla/5.0 (iPhone; CPU iPhone OS 17_6_1 like Mac OS X) AppleWebKit/605.1.15 (KHTML, like Gecko) FxiOS/140.1  Mobile/15E148 Safari/605.1.15","iPhone","Firefox","140.1","iOS","17_6_1","https://app.prolific.com/","en-GB,en;q=0.9","67d97d854178939ca2f319a0","683db6dfa200031b80f2a654","68650786ab3dd72c3f54a381","67d97d854178939ca2f319a0","2025-07-02T10:41:26.065Z","","","","","","drsp","{""Q01"":""0"",""Q02"":""0"",""Q03"":""0"",""Q04"":""0"",""Q05"":""0"",""Q06"":""0"",""Q07"":""0"",""Q08"":""0"",""Q09"":""0"",""Q10"":""0"",""Q11"":""0"",""Q12"":""2"",""Q13"":""4"",""Q14"":""0"",""Q15"":""0"",""Q16"":""1"",""Q17"":""0"",""Q18"":""0"",""Q19"":""0"",""Q20"":""0"",""Q21"":""0""}","[0,1,2,3,4,5,6,7,8,9,10,11,12,13,14,15,16,17,18,19,20]","[""Q01"",""Q02"",""Q03"",""Q04"",""Q05"",""Q06"",""Q07"",""Q08"",""Q09"",""Q10"",""Q11"",""Q12"",""Q12"",""Q13"",""Q14"",""Q15"",""Q14"",""Q16"",""Q16"",""Q17"",""Q18"",""Q19"",""Q20"",""Q21""]","[9982,13067,17630,21348,25567,30382,33784,38248,42798,46447,52874,55738,67013,70041,83860,90748,103475,128199,128950,135825,141825,153593,186924,187658]","[]","[1,8478,9982,13067,17630,21348,24916,25567,30382,33784,38248,42131,42798,45863,46447,52874,55037,55738,65637,66493,67013,70041,82165,83175,83860,89746,90748,103475,128199,128950,134475,135825,141226,141825,153593,186238,186924,187658,193225]","0.8571428571428571","0.1","0","","","","","","","","","","","","","","","","","","","","","","","","","","","","",""
"22003","","","","survey-template","19","1267355","0.0-7.0-8.0","138","1","2025-07-02 10:20:39","80fe4187154257d5fb01684ea91b68b9","41.116.152.218","Mozilla/5.0 (iPhone; CPU iPhone OS 17_6_1 like Mac OS X) AppleWebKit/605.1.15 (KHTML, like Gecko) FxiOS/140.1  Mobile/15E148 Safari/605.1.15","iPhone","Firefox","140.1","iOS","17_6_1","https://app.prolific.com/","en-GB,en;q=0.9","67d97d854178939ca2f319a0","683db6dfa200031b80f2a654","68650786ab3dd72c3f54a381","67d97d854178939ca2f319a0","2025-07-02T10:41:48.071Z","","","","","","stress","{""Q01"":""1"",""Q02"":""0"",""Q03"":""0""}","[0,1,2]","[""Q01"",""Q02"",""Q03""]","[6866,15752,20115]","[]","[5206,6866,15752,20115,22002]","0.3333333333333333","0.5","0","","","","","","","","","","","","","","","","","","","","","","","","","","","","",""
"68101","","","","instructions","20","1335457","0.0-8.0-0.0","138","1","2025-07-02 10:20:39","80fe4187154257d5fb01684ea91b68b9","41.116.152.218","Mozilla/5.0 (iPhone; CPU iPhone OS 17_6_1 like Mac OS X) AppleWebKit/605.1.15 (KHTML, like Gecko) FxiOS/140.1  Mobile/15E148 Safari/605.1.15","iPhone","Firefox","140.1","iOS","17_6_1","https://app.prolific.com/","en-GB,en;q=0.9","67d97d854178939ca2f319a0","683db6dfa200031b80f2a654","68650786ab3dd72c3f54a381","67d97d854178939ca2f319a0","","[{""page_index"":0,""viewing_time"":30233},{""page_index"":1,""viewing_time"":16016},{""page_index"":2,""viewing_time"":11673},{""page_index"":3,""viewing_time"":10178}]","","","","","","","","","","","","","","","","","","","","","","","","","","","","","","","","","","","","","","","","","","",""
"","","","","ctl-task-cpt","21","1354122","0.0-8.0-1.0","138","1","2025-07-02 10:20:39","80fe4187154257d5fb01684ea91b68b9","41.116.152.218","Mozilla/5.0 (iPhone; CPU iPhone OS 17_6_1 like Mac OS X) AppleWebKit/605.1.15 (KHTML, like Gecko) FxiOS/140.1  Mobile/15E148 Safari/605.1.15","iPhone","Firefox","140.1","iOS","17_6_1","https://app.prolific.com/","en-GB,en;q=0.9","67d97d854178939ca2f319a0","683db6dfa200031b80f2a654","68650786ab3dd72c3f54a381","67d97d854178939ca2f319a0","","","","","","","","","","","","","","","","","win-only","0","g1:NW,g2:SE","1","0","1","1337631","3382","7383","15645","2","4","4","6","1","-2","-2","0","0","0","4001","4000","-2710","[""left"",""up""]","{""num_key_presses"":0,""num_perfect"":0,""num_errors"":0,""num_randdir"":0,""num_randdir_good_moves"":0,""num_whilered"":0,""num_whileblue"":0,""num_blue"":1,""num_good_moves"":0}","[892.1370535714286,866.1214285714286,0,892.1370535714286,866.1214285714286,120,892.1370535714286,866.1214285714286,222,892.1370535714286,866.1214285714286,326,892.1370535714286,866.1214285714286,430,892.1370535714286,866.1214285714286,531,892.1370535714286,866.1214285714286,632,892.1370535714286,866.1214285714286,732,892.1370535714286,866.1214285714286,833,892.1370535714286,866.1214285714286,937,892.1370535714286,866.1214285714286,1037,892.1370535714286,866.1214285714286,1137,892.1370535714286,866.1214285714286,1241,892.1370535714286,866.1214285714286,1346,892.1370535714286,866.1214285714286,1450,892.1370535714286,866.1214285714286,1554,892.1370535714286,866.1214285714286,1659,892.1370535714286,866.1214285714286,1759,892.1370535714286,866.1214285714286,1859,892.1370535714286,866.1214285714286,1963,892.1370535714286,866.1214285714286,2067,892.1370535714286,866.1214285714286,2172,892.1370535714286,866.1214285714286,2272,892.1370535714286,866.1214285714286,2372,892.1370535714286,866.1214285714286,2472,892.1370535714286,866.1214285714286,2577,892.1370535714286,866.1214285714286,2678,892.1370535714286,866.1214285714286,2778,892.1370535714286,866.1214285714286,2878,892.1370535714286,866.1214285714286,2978,892.1370535714286,866.1214285714286,3078,892.1370535714286,866.1214285714286,3183,892.1370535714286,866.1214285714286,3284,892.1370535714286,866.1214285714286,3384,892.1370535714286,866.1214285714286,3484,892.1370535714286,866.1214285714286,3584,1057.1370535714286,458.12142857142857,3684,1057.1370535714286,458.12142857142857,3784,1057.1370535714286,458.12142857142857,3884,1057.1370535714286,458.12142857142857,3984]","[]","",""
"11324","","","","instructions","22","1365447","0.0-8.0-2.0","138","1","2025-07-02 10:20:39","80fe4187154257d5fb01684ea91b68b9","41.116.152.218","Mozilla/5.0 (iPhone; CPU iPhone OS 17_6_1 like Mac OS X) AppleWebKit/605.1.15 (KHTML, like Gecko) FxiOS/140.1  Mobile/15E148 Safari/605.1.15","iPhone","Firefox","140.1","iOS","17_6_1","https://app.prolific.com/","en-GB,en;q=0.9","67d97d854178939ca2f319a0","683db6dfa200031b80f2a654","68650786ab3dd72c3f54a381","67d97d854178939ca2f319a0","","[{""page_index"":0,""viewing_time"":11322}]","","","","","","","","","","","","","","","","","","","","","","","","","","","","","","","","","","","","","","","","","","",""
"","","","","ctl-task-cpt","23","1377255","0.0-8.0-3.0","138","1","2025-07-02 10:20:39","80fe4187154257d5fb01684ea91b68b9","41.116.152.218","Mozilla/5.0 (iPhone; CPU iPhone OS 17_6_1 like Mac OS X) AppleWebKit/605.1.15 (KHTML, like Gecko) FxiOS/140.1  Mobile/15E148 Safari/605.1.15","iPhone","Firefox","140.1","iOS","17_6_1","https://app.prolific.com/","en-GB,en;q=0.9","67d97d854178939ca2f319a0","683db6dfa200031b80f2a654","68650786ab3dd72c3f54a381","67d97d854178939ca2f319a0","","","","","","","","","","","","","","","","","win-only","0","g1:NW,g2:SE","0.35","0","3","1367606","4798","-9999","8803","2","4","8","6","-9999","-4","-4","0","0","0","1701","4000","4000","[]","{""num_key_presses"":0,""num_perfect"":0,""num_errors"":0,""num_randdir"":0,""num_randdir_good_moves"":0,""num_whilered"":0,""num_whileblue"":0,""num_blue"":0,""num_good_moves"":0}","[886.1370535714286,854.1214285714286,0,886.1370535714286,854.1214285714286,105,886.1370535714286,854.1214285714286,210,886.1370535714286,854.1214285714286,315,886.1370535714286,854.1214285714286,415,886.1370535714286,854.1214285714286,515,886.1370535714286,854.1214285714286,615,886.1370535714286,854.1214285714286,715,886.1370535714286,854.1214285714286,820,886.1370535714286,854.1214285714286,920,886.1370535714286,854.1214285714286,1021,886.1370535714286,854.1214285714286,1125,886.1370535714286,854.1214285714286,1225,886.1370535714286,854.1214285714286,1330,886.1370535714286,854.1214285714286,1435,886.1370535714286,854.1214285714286,1538,886.1370535714286,854.1214285714286,1642,418.13705357142857,515.1214285714286,1742,418.13705357142857,515.1214285714286,1847,418.13705357142857,515.1214285714286,1951,418.13705357142857,515.1214285714286,2056,418.13705357142857,515.1214285714286,2159,418.13705357142857,515.1214285714286,2259,418.13705357142857,515.1214285714286,2360,418.13705357142857,515.1214285714286,2463,418.13705357142857,515.1214285714286,2566,418.13705357142857,515.1214285714286,2667,418.13705357142857,515.1214285714286,2772,418.13705357142857,515.1214285714286,2872,418.13705357142857,515.1214285714286,2972,418.13705357142857,515.1214285714286,3074,418.13705357142857,515.1214285714286,3178,418.13705357142857,515.1214285714286,3278,418.13705357142857,515.1214285714286,3378,418.13705357142857,515.1214285714286,3478,418.13705357142857,515.1214285714286,3578,418.13705357142857,515.1214285714286,3679,418.13705357142857,515.1214285714286,3784,418.13705357142857,515.1214285714286,3884,418.13705357142857,515.1214285714286,3984]","[]","",""
"27327","","","","instructions","24","1404583","0.0-8.0-4.0","138","1","2025-07-02 10:20:39","80fe4187154257d5fb01684ea91b68b9","41.116.152.218","Mozilla/5.0 (iPhone; CPU iPhone OS 17_6_1 like Mac OS X) AppleWebKit/605.1.15 (KHTML, like Gecko) FxiOS/140.1  Mobile/15E148 Safari/605.1.15","iPhone","Firefox","140.1","iOS","17_6_1","https://app.prolific.com/","en-GB,en;q=0.9","67d97d854178939ca2f319a0","683db6dfa200031b80f2a654","68650786ab3dd72c3f54a381","67d97d854178939ca2f319a0","","[{""page_index"":0,""viewing_time"":11151},{""page_index"":1,""viewing_time"":16176}]","","","","","","","","","","","","","","","","","","","","","","","","","","","","","","","","","","","","","","","","","","",""
"51244","","","{""green_ball"":[""Ball always moves in the direction I press""]}","survey-multi-select","25","1455830","0.0-8.0-5.0-0.0","138","1","2025-07-02 10:20:39","80fe4187154257d5fb01684ea91b68b9","41.116.152.218","Mozilla/5.0 (iPhone; CPU iPhone OS 17_6_1 like Mac OS X) AppleWebKit/605.1.15 (KHTML, like Gecko) FxiOS/140.1  Mobile/15E148 Safari/605.1.15","iPhone","Firefox","140.1","iOS","17_6_1","https://app.prolific.com/","en-GB,en;q=0.9","67d97d854178939ca2f319a0","683db6dfa200031b80f2a654","68650786ab3dd72c3f54a381","67d97d854178939ca2f319a0","","","[0]","","","","quiz","","","","","","","","","","","","","","","","","","","","","","","","","","","","","","","","","","","","","false",""
"7267","","<p align='center'><b>INCORRECT.</b> Usually the green ball moves in the indicated direction, but sometimes it shakes and moves randomly. </p>","0","html-button-response","26","1463101","0.0-8.0-5.0-1.0","138","1","2025-07-02 10:20:39","80fe4187154257d5fb01684ea91b68b9","41.116.152.218","Mozilla/5.0 (iPhone; CPU iPhone OS 17_6_1 like Mac OS X) AppleWebKit/605.1.15 (KHTML, like Gecko) FxiOS/140.1  Mobile/15E148 Safari/605.1.15","iPhone","Firefox","140.1","iOS","17_6_1","https://app.prolific.com/","en-GB,en;q=0.9","67d97d854178939ca2f319a0","683db6dfa200031b80f2a654","68650786ab3dd72c3f54a381","67d97d854178939ca2f319a0","","","","","","","","","","","","","","","","","","","","","","","","","","","","","","","","","","","","","","","","","","","","",""
"2948","","","{""green_ball"":[""Ball sometimes shakes and moves in a random direction""]}","survey-multi-select","27","1466053","0.0-8.0-5.1-0.1","138","1","2025-07-02 10:20:39","80fe4187154257d5fb01684ea91b68b9","41.116.152.218","Mozilla/5.0 (iPhone; CPU iPhone OS 17_6_1 like Mac OS X) AppleWebKit/605.1.15 (KHTML, like Gecko) FxiOS/140.1  Mobile/15E148 Safari/605.1.15","iPhone","Firefox","140.1","iOS","17_6_1","https://app.prolific.com/","en-GB,en;q=0.9","67d97d854178939ca2f319a0","683db6dfa200031b80f2a654","68650786ab3dd72c3f54a381","67d97d854178939ca2f319a0","","","[0]","","","","quiz","","","","","","","","","","","","","","","","","","","","","","","","","","","","","","","","","","","","","true",""
"4064","","<p align='center'><b>CORRECT!</b> Indeed, the green ball may sometimes shake and move in a random direction.</p>","0","html-button-response","28","1470119","0.0-8.0-5.1-1.1","138","1","2025-07-02 10:20:39","80fe4187154257d5fb01684ea91b68b9","41.116.152.218","Mozilla/5.0 (iPhone; CPU iPhone OS 17_6_1 like Mac OS X) AppleWebKit/605.1.15 (KHTML, like Gecko) FxiOS/140.1  Mobile/15E148 Safari/605.1.15","iPhone","Firefox","140.1","iOS","17_6_1","https://app.prolific.com/","en-GB,en;q=0.9","67d97d854178939ca2f319a0","683db6dfa200031b80f2a654","68650786ab3dd72c3f54a381","67d97d854178939ca2f319a0","","","","","","","","","","","","","","","","","","","","","","","","","","","","","","","","","","","","","","","","","","","","",""
"6051","","","{""yellow_ball"":[""Ball doesn‘t move and I get -1 penalty point""]}","survey-multi-select","29","1476174","0.0-8.0-6.0-0.0","138","1","2025-07-02 10:20:39","80fe4187154257d5fb01684ea91b68b9","41.116.152.218","Mozilla/5.0 (iPhone; CPU iPhone OS 17_6_1 like Mac OS X) AppleWebKit/605.1.15 (KHTML, like Gecko) FxiOS/140.1  Mobile/15E148 Safari/605.1.15","iPhone","Firefox","140.1","iOS","17_6_1","https://app.prolific.com/","en-GB,en;q=0.9","67d97d854178939ca2f319a0","683db6dfa200031b80f2a654","68650786ab3dd72c3f54a381","67d97d854178939ca2f319a0","","","[0]","","","","quiz","","","","","","","","","","","","","","","","","","","","","","","","","","","","","","","","","","","","","true",""
"2300","","<p align='center'><b>CORRECT!</b> Indeed, the yellow ball never moves and you receive a penalty.</p>","0","html-button-response","30","1478476","0.0-8.0-6.0-1.0","138","1","2025-07-02 10:20:39","80fe4187154257d5fb01684ea91b68b9","41.116.152.218","Mozilla/5.0 (iPhone; CPU iPhone OS 17_6_1 like Mac OS X) AppleWebKit/605.1.15 (KHTML, like Gecko) FxiOS/140.1  Mobile/15E148 Safari/605.1.15","iPhone","Firefox","140.1","iOS","17_6_1","https://app.prolific.com/","en-GB,en;q=0.9","67d97d854178939ca2f319a0","683db6dfa200031b80f2a654","68650786ab3dd72c3f54a381","67d97d854178939ca2f319a0","","","","","","","","","","","","","","","","","","","","","","","","","","","","","","","","","","","","","","","","","","","","",""
"4913","","","{""blue_ball"":[""Ball always moves in the direction I press""]}","survey-multi-select","31","1483392","0.0-8.0-7.0-0.0","138","1","2025-07-02 10:20:39","80fe4187154257d5fb01684ea91b68b9","41.116.152.218","Mozilla/5.0 (iPhone; CPU iPhone OS 17_6_1 like Mac OS X) AppleWebKit/605.1.15 (KHTML, like Gecko) FxiOS/140.1  Mobile/15E148 Safari/605.1.15","iPhone","Firefox","140.1","iOS","17_6_1","https://app.prolific.com/","en-GB,en;q=0.9","67d97d854178939ca2f319a0","683db6dfa200031b80f2a654","68650786ab3dd72c3f54a381","67d97d854178939ca2f319a0","","","[0]","","","","quiz","","","","","","","","","","","","","","","","","","","","","","","","","","","","","","","","","","","","","false",""
"2983","","<p align='center'><b>INCORRECT.</b> The blue ball always shakes and moves randomly.</p>","0","html-button-response","32","1486377","0.0-8.0-7.0-1.0","138","1","2025-07-02 10:20:39","80fe4187154257d5fb01684ea91b68b9","41.116.152.218","Mozilla/5.0 (iPhone; CPU iPhone OS 17_6_1 like Mac OS X) AppleWebKit/605.1.15 (KHTML, like Gecko) FxiOS/140.1  Mobile/15E148 Safari/605.1.15","iPhone","Firefox","140.1","iOS","17_6_1","https://app.prolific.com/","en-GB,en;q=0.9","67d97d854178939ca2f319a0","683db6dfa200031b80f2a654","68650786ab3dd72c3f54a381","67d97d854178939ca2f319a0","","","","","","","","","","","","","","","","","","","","","","","","","","","","","","","","","","","","","","","","","","","","",""
"8000","","","{""blue_ball"":[""Ball always shakes and moves in a random direction""]}","survey-multi-select","33","1494380","0.0-8.0-7.1-0.1","138","1","2025-07-02 10:20:39","80fe4187154257d5fb01684ea91b68b9","41.116.152.218","Mozilla/5.0 (iPhone; CPU iPhone OS 17_6_1 like Mac OS X) AppleWebKit/605.1.15 (KHTML, like Gecko) FxiOS/140.1  Mobile/15E148 Safari/605.1.15","iPhone","Firefox","140.1","iOS","17_6_1","https://app.prolific.com/","en-GB,en;q=0.9","67d97d854178939ca2f319a0","683db6dfa200031b80f2a654","68650786ab3dd72c3f54a381","67d97d854178939ca2f319a0","","","[0]","","","","quiz","","","","","","","","","","","","","","","","","","","","","","","","","","","","","","","","","","","","","true",""
"3898","","<p align='center'><b>CORRECT!</b> Indeed, the blue ball always shakes and moves in a random direction. Also there is a penalty of -1 point.</p>","0","html-button-response","34","1498280","0.0-8.0-7.1-1.1","138","1","2025-07-02 10:20:39","80fe4187154257d5fb01684ea91b68b9","41.116.152.218","Mozilla/5.0 (iPhone; CPU iPhone OS 17_6_1 like Mac OS X) AppleWebKit/605.1.15 (KHTML, like Gecko) FxiOS/140.1  Mobile/15E148 Safari/605.1.15","iPhone","Firefox","140.1","iOS","17_6_1","https://app.prolific.com/","en-GB,en;q=0.9","67d97d854178939ca2f319a0","683db6dfa200031b80f2a654","68650786ab3dd72c3f54a381","67d97d854178939ca2f319a0","","","","","","","","","","","","","","","","","","","","","","","","","","","","","","","","","","","","","","","","","","","","",""
"12197","","","{""bonus"":[""When I reach all possible points""]}","survey-multi-select","35","1510479","0.0-8.0-8.0-0.0","138","1","2025-07-02 10:20:39","80fe4187154257d5fb01684ea91b68b9","41.116.152.218","Mozilla/5.0 (iPhone; CPU iPhone OS 17_6_1 like Mac OS X) AppleWebKit/605.1.15 (KHTML, like Gecko) FxiOS/140.1  Mobile/15E148 Safari/605.1.15","iPhone","Firefox","140.1","iOS","17_6_1","https://app.prolific.com/","en-GB,en;q=0.9","67d97d854178939ca2f319a0","683db6dfa200031b80f2a654","68650786ab3dd72c3f54a381","67d97d854178939ca2f319a0","","","[0]","","","","quiz","","","","","","","","","","","","","","","","","","","","","","","","","","","","","","","","","","","","","false",""
"3084","","<p align='center'><b>INCORRECT.</b> You receive 2 pounds extra when you reach 50% of points </p>","0","html-button-response","36","1513566","0.0-8.0-8.0-1.0","138","1","2025-07-02 10:20:39","80fe4187154257d5fb01684ea91b68b9","41.116.152.218","Mozilla/5.0 (iPhone; CPU iPhone OS 17_6_1 like Mac OS X) AppleWebKit/605.1.15 (KHTML, like Gecko) FxiOS/140.1  Mobile/15E148 Safari/605.1.15","iPhone","Firefox","140.1","iOS","17_6_1","https://app.prolific.com/","en-GB,en;q=0.9","67d97d854178939ca2f319a0","683db6dfa200031b80f2a654","68650786ab3dd72c3f54a381","67d97d854178939ca2f319a0","","","","","","","","","","","","","","","","","","","","","","","","","","","","","","","","","","","","","","","","","","","","",""
"1948","","","{""bonus"":[""When I reach 50% of points""]}","survey-multi-select","37","1515516","0.0-8.0-8.1-0.1","138","1","2025-07-02 10:20:39","80fe4187154257d5fb01684ea91b68b9","41.116.152.218","Mozilla/5.0 (iPhone; CPU iPhone OS 17_6_1 like Mac OS X) AppleWebKit/605.1.15 (KHTML, like Gecko) FxiOS/140.1  Mobile/15E148 Safari/605.1.15","iPhone","Firefox","140.1","iOS","17_6_1","https://app.prolific.com/","en-GB,en;q=0.9","67d97d854178939ca2f319a0","683db6dfa200031b80f2a654","68650786ab3dd72c3f54a381","67d97d854178939ca2f319a0","","","[0]","","","","quiz","","","","","","","","","","","","","","","","","","","","","","","","","","","","","","","","","","","","","true",""
"3602","","<p align='center'><b>CORRECT!</b> Indeed, you receive 2 pounds extra when you reach 50% of points.</p>","0","html-button-response","38","1519120","0.0-8.0-8.1-1.1","138","1","2025-07-02 10:20:39","80fe4187154257d5fb01684ea91b68b9","41.116.152.218","Mozilla/5.0 (iPhone; CPU iPhone OS 17_6_1 like Mac OS X) AppleWebKit/605.1.15 (KHTML, like Gecko) FxiOS/140.1  Mobile/15E148 Safari/605.1.15","iPhone","Firefox","140.1","iOS","17_6_1","https://app.prolific.com/","en-GB,en;q=0.9","67d97d854178939ca2f319a0","683db6dfa200031b80f2a654","68650786ab3dd72c3f54a381","67d97d854178939ca2f319a0","","","","","","","","","","","","","","","","","","","","","","","","","","","","","","","","","","","","","","","","","","","","",""
"6003","","","","instructions","39","1525124","0.0-8.0-9.0","138","1","2025-07-02 10:20:39","80fe4187154257d5fb01684ea91b68b9","41.116.152.218","Mozilla/5.0 (iPhone; CPU iPhone OS 17_6_1 like Mac OS X) AppleWebKit/605.1.15 (KHTML, like Gecko) FxiOS/140.1  Mobile/15E148 Safari/605.1.15","iPhone","Firefox","140.1","iOS","17_6_1","https://app.prolific.com/","en-GB,en;q=0.9","67d97d854178939ca2f319a0","683db6dfa200031b80f2a654","68650786ab3dd72c3f54a381","67d97d854178939ca2f319a0","","[{""page_index"":0,""viewing_time"":6003}]","","","","","","","","","","","","","","","","","","","","","","","","","","","","","","","","","","","","","","","","","","",""
"9263","","<p>Before you start with this game please answer the following three questions yourself. </p>
  <p>Through this game, we measure several aspects of your cognitive performance, such as reaction times, multi-tasking capabilities </p>
  <p>and the ability to assess the situation you are in.</p>
  <p></p>
  <p><b>How good do you usually are in such tasks?</b></p>","100","html-slider-response","40","1534390","0.0-9.0-0.0","138","1","2025-07-02 10:20:39","80fe4187154257d5fb01684ea91b68b9","41.116.152.218","Mozilla/5.0 (iPhone; CPU iPhone OS 17_6_1 like Mac OS X) AppleWebKit/605.1.15 (KHTML, like Gecko) FxiOS/140.1  Mobile/15E148 Safari/605.1.15","iPhone","Firefox","140.1","iOS","17_6_1","https://app.prolific.com/","en-GB,en;q=0.9","67d97d854178939ca2f319a0","683db6dfa200031b80f2a654","68650786ab3dd72c3f54a381","67d97d854178939ca2f319a0","2025-07-02T10:46:15.106Z","","","","","","PreSkillQ","","","","","","","","","","","","","","","","","","","","","","","","","","","","","","","","","","","","","","50"
"5436","","<div style=""width:500px;"">
  <p>How well do you think you will perform in this task compared to other participants?</p>
  </div>","100","html-slider-response","41","1539828","0.0-9.0-1.0","138","1","2025-07-02 10:20:39","80fe4187154257d5fb01684ea91b68b9","41.116.152.218","Mozilla/5.0 (iPhone; CPU iPhone OS 17_6_1 like Mac OS X) AppleWebKit/605.1.15 (KHTML, like Gecko) FxiOS/140.1  Mobile/15E148 Safari/605.1.15","iPhone","Firefox","140.1","iOS","17_6_1","https://app.prolific.com/","en-GB,en;q=0.9","67d97d854178939ca2f319a0","683db6dfa200031b80f2a654","68650786ab3dd72c3f54a381","67d97d854178939ca2f319a0","2025-07-02T10:46:20.544Z","","","","","","PrePerfQ","","","","","","","","","","","","","","","","","","","","","","","","","","","","","","","","","","","","","","50"
"4301","","<div style=""width:500px;"">
  <p>What best describes how you currently feel?</p>
  </div>","100","html-slider-response","42","1544130","0.0-9.0-2.0","138","1","2025-07-02 10:20:39","80fe4187154257d5fb01684ea91b68b9","41.116.152.218","Mozilla/5.0 (iPhone; CPU iPhone OS 17_6_1 like Mac OS X) AppleWebKit/605.1.15 (KHTML, like Gecko) FxiOS/140.1  Mobile/15E148 Safari/605.1.15","iPhone","Firefox","140.1","iOS","17_6_1","https://app.prolific.com/","en-GB,en;q=0.9","67d97d854178939ca2f319a0","683db6dfa200031b80f2a654","68650786ab3dd72c3f54a381","67d97d854178939ca2f319a0","2025-07-02T10:46:24.847Z","","","","","","PreMotivationQ","","","","","","","","","","","","","","","","","","","","","","","","","","","","","","","","","","","","","","50"
"","","","","ctl-task-cpt","43","1561205","0.0-10.0-0.0","138","1","2025-07-02 10:20:39","80fe4187154257d5fb01684ea91b68b9","41.116.152.218","Mozilla/5.0 (iPhone; CPU iPhone OS 17_6_1 like Mac OS X) AppleWebKit/605.1.15 (KHTML, like Gecko) FxiOS/140.1  Mobile/15E148 Safari/605.1.15","iPhone","Firefox","140.1","iOS","17_6_1","https://app.prolific.com/","en-GB,en;q=0.9","67d97d854178939ca2f319a0","683db6dfa200031b80f2a654","68650786ab3dd72c3f54a381","67d97d854178939ca2f319a0","2025-07-02T10:46:41.922Z","","","","","","","","","","","","","","","","win-only","3","g1:SW,g2:NE","1","1","0","1546292","4749","9750","14070","1","4","8","6","2","-8","-8","0","0","0","5001","3000","-2710","[""up"",""right""]","{""num_key_presses"":0,""num_perfect"":0,""num_errors"":0,""num_randdir"":0,""num_randdir_good_moves"":0,""num_whilered"":0,""num_whileblue"":0,""num_blue"":0,""num_good_moves"":0}","[874.1370535714286,860.1214285714286,0,874.1370535714286,860.1214285714286,102,874.1370535714286,860.1214285714286,202,874.1370535714286,860.1214285714286,302,874.1370535714286,860.1214285714286,406,874.1370535714286,860.1214285714286,507,874.1370535714286,860.1214285714286,607,874.1370535714286,860.1214285714286,713,874.1370535714286,860.1214285714286,818,874.1370535714286,860.1214285714286,921,874.1370535714286,860.1214285714286,1025,874.1370535714286,860.1214285714286,1129,874.1370535714286,860.1214285714286,1229,874.1370535714286,860.1214285714286,1333,415.13705357142857,710.1214285714286,1436,415.13705357142857,710.1214285714286,1541,415.13705357142857,710.1214285714286,1641,415.13705357142857,710.1214285714286,1741,415.13705357142857,710.1214285714286,1841,415.13705357142857,710.1214285714286,1941,415.13705357142857,710.1214285714286,2096,415.13705357142857,710.1214285714286,2200,415.13705357142857,710.1214285714286,2303,415.13705357142857,710.1214285714286,2404,415.13705357142857,710.1214285714286,2504,415.13705357142857,710.1214285714286,2604,415.13705357142857,710.1214285714286,2708,415.13705357142857,710.1214285714286,2811,415.13705357142857,710.1214285714286,2915,415.13705357142857,710.1214285714286,3090,415.13705357142857,710.1214285714286,3194,415.13705357142857,710.1214285714286,3299,415.13705357142857,710.1214285714286,3404,415.13705357142857,710.1214285714286,3504,415.13705357142857,710.1214285714286,3604,415.13705357142857,710.1214285714286,3704,415.13705357142857,710.1214285714286,3810,415.13705357142857,710.1214285714286,3910,415.13705357142857,710.1214285714286,4015,415.13705357142857,710.1214285714286,4120,415.13705357142857,710.1214285714286,4222,415.13705357142857,710.1214285714286,4323,415.13705357142857,710.1214285714286,4428,415.13705357142857,710.1214285714286,4528,415.13705357142857,710.1214285714286,4628,415.13705357142857,710.1214285714286,4728,415.13705357142857,710.1214285714286,4828,415.13705357142857,710.1214285714286,4934]","[]","",""
"91974","","<div style=""width:500px;"">
  <p>What determined the result of this run?</p>
  </div>","100","html-slider-response","44","1653181","0.0-10.0-1.0","138","1","2025-07-02 10:20:39","80fe4187154257d5fb01684ea91b68b9","41.116.152.218","Mozilla/5.0 (iPhone; CPU iPhone OS 17_6_1 like Mac OS X) AppleWebKit/605.1.15 (KHTML, like Gecko) FxiOS/140.1  Mobile/15E148 Safari/605.1.15","iPhone","Firefox","140.1","iOS","17_6_1","https://app.prolific.com/","en-GB,en;q=0.9","67d97d854178939ca2f319a0","683db6dfa200031b80f2a654","68650786ab3dd72c3f54a381","67d97d854178939ca2f319a0","2025-07-02T10:48:13.897Z","","","","","","AttribQ","","","","","","","","","","","","","","","","","","","","","","","","","","","","","","","","","","","","","","50"
"4185","","<div style=""width:500px;"">
  <p>How much control did you have over the ball?</p>
  </div>","100","html-slider-response","45","1657367","0.0-10.0-2.0","138","1","2025-07-02 10:20:39","80fe4187154257d5fb01684ea91b68b9","41.116.152.218","Mozilla/5.0 (iPhone; CPU iPhone OS 17_6_1 like Mac OS X) AppleWebKit/605.1.15 (KHTML, like Gecko) FxiOS/140.1  Mobile/15E148 Safari/605.1.15","iPhone","Firefox","140.1","iOS","17_6_1","https://app.prolific.com/","en-GB,en;q=0.9","67d97d854178939ca2f319a0","683db6dfa200031b80f2a654","68650786ab3dd72c3f54a381","67d97d854178939ca2f319a0","2025-07-02T10:48:18.084Z","","","","","","ControlQ","","","","","","","","","","","","","","","","","","","","","","","","","","","","","","","","","","","","","","50"
"8016","","<div style=""width:500px;"">
  <p>How would you describe your current emotional state?</p>
  </div>","0","html-slider-response","46","1665386","0.0-10.0-3.0","138","1","2025-07-02 10:20:39","80fe4187154257d5fb01684ea91b68b9","41.116.152.218","Mozilla/5.0 (iPhone; CPU iPhone OS 17_6_1 like Mac OS X) AppleWebKit/605.1.15 (KHTML, like Gecko) FxiOS/140.1  Mobile/15E148 Safari/605.1.15","iPhone","Firefox","140.1","iOS","17_6_1","https://app.prolific.com/","en-GB,en;q=0.9","67d97d854178939ca2f319a0","683db6dfa200031b80f2a654","68650786ab3dd72c3f54a381","67d97d854178939ca2f319a0","2025-07-02T10:48:26.103Z","","","","","","StressQ","","","","","","","","","","","","","","","","","","","","","","","","","","","","","","","","","","","","","","50"
"5319","","<div style=""width:500px;"">
  <p>What best describes how you currently feel?</p>
  </div>","100","html-slider-response","47","1670708","0.0-10.0-4.0","138","1","2025-07-02 10:20:39","80fe4187154257d5fb01684ea91b68b9","41.116.152.218","Mozilla/5.0 (iPhone; CPU iPhone OS 17_6_1 like Mac OS X) AppleWebKit/605.1.15 (KHTML, like Gecko) FxiOS/140.1  Mobile/15E148 Safari/605.1.15","iPhone","Firefox","140.1","iOS","17_6_1","https://app.prolific.com/","en-GB,en;q=0.9","67d97d854178939ca2f319a0","683db6dfa200031b80f2a654","68650786ab3dd72c3f54a381","67d97d854178939ca2f319a0","2025-07-02T10:48:31.424Z","","","","","","MotivationQ","","","","","","","","","","","","","","","","","","","","","","","","","","","","","","","","","","","","","","50"
"","","","","ctl-task-cpt","48","1689587","0.0-10.0-0.1","138","1","2025-07-02 10:20:39","80fe4187154257d5fb01684ea91b68b9","41.116.152.218","Mozilla/5.0 (iPhone; CPU iPhone OS 17_6_1 like Mac OS X) AppleWebKit/605.1.15 (KHTML, like Gecko) FxiOS/140.1  Mobile/15E148 Safari/605.1.15","iPhone","Firefox","140.1","iOS","17_6_1","https://app.prolific.com/","en-GB,en;q=0.9","67d97d854178939ca2f319a0","683db6dfa200031b80f2a654","68650786ab3dd72c3f54a381","67d97d854178939ca2f319a0","2025-07-02T10:48:50.303Z","","","","","","","","","","","","","","","","win-only","0","g1:NW,g2:SE","0.9","2","0","1672869","6568","11570","15876","1","4","4","6","1","-1","-1","0","0","0","5002","3000","-2755","[""left"",""up""]","{""num_key_presses"":0,""num_perfect"":0,""num_errors"":0,""num_randdir"":0,""num_randdir_good_moves"":0,""num_whilered"":0,""num_whileblue"":0,""num_blue"":0,""num_good_moves"":0}","[711.7513392857143,712.7357142857143,0,711.7513392857143,712.7357142857143,101,711.7513392857143,712.7357142857143,201,711.7513392857143,712.7357142857143,306,711.7513392857143,712.7357142857143,406,711.7513392857143,712.7357142857143,510,711.7513392857143,712.7357142857143,614,711.7513392857143,712.7357142857143,718,711.7513392857143,712.7357142857143,822,711.7513392857143,712.7357142857143,925,711.7513392857143,712.7357142857143,1029,711.7513392857143,712.7357142857143,1132,711.7513392857143,712.7357142857143,1237,711.7513392857143,712.7357142857143,1341,711.7513392857143,712.7357142857143,1442,711.7513392857143,712.7357142857143,1548,711.7513392857143,712.7357142857143,1651,711.7513392857143,712.7357142857143,1755,711.7513392857143,712.7357142857143,1859,711.7513392857143,712.7357142857143,1963,711.7513392857143,712.7357142857143,2088,711.7513392857143,712.7357142857143,2192,711.7513392857143,712.7357142857143,2297,711.7513392857143,712.7357142857143,2397,711.7513392857143,712.7357142857143,2497,711.7513392857143,712.7357142857143,2599,711.7513392857143,712.7357142857143,2699,711.7513392857143,712.7357142857143,2803,711.7513392857143,712.7357142857143,2903,606.7513392857143,607.7357142857143,3007,606.7513392857143,607.7357142857143,3108,606.7513392857143,607.7357142857143,3211,606.7513392857143,607.7357142857143,3314,606.7513392857143,607.7357142857143,3417,606.7513392857143,607.7357142857143,3517,606.7513392857143,607.7357142857143,3621,366.75133928571427,787.7357142857143,3725,366.75133928571427,787.7357142857143,3828,366.75133928571427,787.7357142857143,3928,366.75133928571427,787.7357142857143,4076,366.75133928571427,787.7357142857143,4178,366.75133928571427,787.7357142857143,4278,480.75133928571427,355.73571428571427,4382,480.75133928571427,355.73571428571427,4486,480.75133928571427,355.73571428571427,4590,480.75133928571427,355.73571428571427,4695,480.75133928571427,355.73571428571427,4795,582.7513392857143,565.7357142857143,4896,582.7513392857143,565.7357142857143,4996]","[]","",""
"2871","","<div style=""width:500px;"">
  <p>What determined the result of this run?</p>
  </div>","100","html-slider-response","49","1692459","0.0-10.0-1.1","138","1","2025-07-02 10:20:39","80fe4187154257d5fb01684ea91b68b9","41.116.152.218","Mozilla/5.0 (iPhone; CPU iPhone OS 17_6_1 like Mac OS X) AppleWebKit/605.1.15 (KHTML, like Gecko) FxiOS/140.1  Mobile/15E148 Safari/605.1.15","iPhone","Firefox","140.1","iOS","17_6_1","https://app.prolific.com/","en-GB,en;q=0.9","67d97d854178939ca2f319a0","683db6dfa200031b80f2a654","68650786ab3dd72c3f54a381","67d97d854178939ca2f319a0","2025-07-02T10:48:53.175Z","","","","","","AttribQ","","","","","","","","","","","","","","","","","","","","","","","","","","","","","","","","","","","","","","50"
"2014","","<div style=""width:500px;"">
  <p>How much control did you have over the ball?</p>
  </div>","100","html-slider-response","50","1694476","0.0-10.0-2.1","138","1","2025-07-02 10:20:39","80fe4187154257d5fb01684ea91b68b9","41.116.152.218","Mozilla/5.0 (iPhone; CPU iPhone OS 17_6_1 like Mac OS X) AppleWebKit/605.1.15 (KHTML, like Gecko) FxiOS/140.1  Mobile/15E148 Safari/605.1.15","iPhone","Firefox","140.1","iOS","17_6_1","https://app.prolific.com/","en-GB,en;q=0.9","67d97d854178939ca2f319a0","683db6dfa200031b80f2a654","68650786ab3dd72c3f54a381","67d97d854178939ca2f319a0","2025-07-02T10:48:55.192Z","","","","","","ControlQ","","","","","","","","","","","","","","","","","","","","","","","","","","","","","","","","","","","","","","50"
"2969","","<div style=""width:500px;"">
  <p>How would you describe your current emotional state?</p>
  </div>","0","html-slider-response","51","1697446","0.0-10.0-3.1","138","1","2025-07-02 10:20:39","80fe4187154257d5fb01684ea91b68b9","41.116.152.218","Mozilla/5.0 (iPhone; CPU iPhone OS 17_6_1 like Mac OS X) AppleWebKit/605.1.15 (KHTML, like Gecko) FxiOS/140.1  Mobile/15E148 Safari/605.1.15","iPhone","Firefox","140.1","iOS","17_6_1","https://app.prolific.com/","en-GB,en;q=0.9","67d97d854178939ca2f319a0","683db6dfa200031b80f2a654","68650786ab3dd72c3f54a381","67d97d854178939ca2f319a0","2025-07-02T10:48:58.163Z","","","","","","StressQ","","","","","","","","","","","","","","","","","","","","","","","","","","","","","","","","","","","","","","50"
"3266","","<div style=""width:500px;"">
  <p>What best describes how you currently feel?</p>
  </div>","100","html-slider-response","52","1700714","0.0-10.0-4.1","138","1","2025-07-02 10:20:39","80fe4187154257d5fb01684ea91b68b9","41.116.152.218","Mozilla/5.0 (iPhone; CPU iPhone OS 17_6_1 like Mac OS X) AppleWebKit/605.1.15 (KHTML, like Gecko) FxiOS/140.1  Mobile/15E148 Safari/605.1.15","iPhone","Firefox","140.1","iOS","17_6_1","https://app.prolific.com/","en-GB,en;q=0.9","67d97d854178939ca2f319a0","683db6dfa200031b80f2a654","68650786ab3dd72c3f54a381","67d97d854178939ca2f319a0","2025-07-02T10:49:01.431Z","","","","","","MotivationQ","","","","","","","","","","","","","","","","","","","","","","","","","","","","","","","","","","","","","","50"
"","","","","ctl-task-cpt","53","1715112","0.0-10.0-0.2","138","1","2025-07-02 10:20:39","80fe4187154257d5fb01684ea91b68b9","41.116.152.218","Mozilla/5.0 (iPhone; CPU iPhone OS 17_6_1 like Mac OS X) AppleWebKit/605.1.15 (KHTML, like Gecko) FxiOS/140.1  Mobile/15E148 Safari/605.1.15","iPhone","Firefox","140.1","iOS","17_6_1","https://app.prolific.com/","en-GB,en;q=0.9","67d97d854178939ca2f319a0","683db6dfa200031b80f2a654","68650786ab3dd72c3f54a381","67d97d854178939ca2f319a0","2025-07-02T10:49:15.828Z","","","","","","","","","","","","","","","","win-only","1","g1:NE,g2:SW","0.8","3","0","1702876","2131","7136","11394","1","4","4","6","2","-4","-4","0","0","0","3036","3000","-2765","[""down"",""left""]","{""num_key_presses"":0,""num_perfect"":0,""num_errors"":0,""num_randdir"":0,""num_randdir_good_moves"":0,""num_whilered"":0,""num_whileblue"":0,""num_blue"":0,""num_good_moves"":0}","[768.1941964285714,764.6785714285714,0,768.1941964285714,764.6785714285714,104,768.1941964285714,764.6785714285714,207,768.1941964285714,764.6785714285714,310,768.1941964285714,764.6785714285714,413,768.1941964285714,764.6785714285714,513,768.1941964285714,764.6785714285714,614,768.1941964285714,764.6785714285714,714,768.1941964285714,764.6785714285714,818,768.1941964285714,764.6785714285714,921,768.1941964285714,764.6785714285714,1024,768.1941964285714,764.6785714285714,1129,768.1941964285714,764.6785714285714,1231,768.1941964285714,764.6785714285714,1335,768.1941964285714,764.6785714285714,1438,768.1941964285714,764.6785714285714,1542,939.1941964285714,842.6785714285714,1645,939.1941964285714,842.6785714285714,1748,939.1941964285714,842.6785714285714,1851,939.1941964285714,842.6785714285714,1954,939.1941964285714,842.6785714285714,2056,939.1941964285714,842.6785714285714,2160,939.1941964285714,842.6785714285714,2264,924.1941964285714,1073.6785714285713,2366,924.1941964285714,1073.6785714285713,2471,924.1941964285714,1073.6785714285713,2575,924.1941964285714,1073.6785714285713,2679,924.1941964285714,1073.6785714285713,2782,924.1941964285714,1073.6785714285713,2886,924.1941964285714,1073.6785714285713,2989,108.19419642857142,1391.6785714285713,3092,108.19419642857142,1391.6785714285713,3197,108.19419642857142,1391.6785714285713,3297,108.19419642857142,1391.6785714285713,3401,108.19419642857142,1391.6785714285713,3505,108.19419642857142,1391.6785714285713,3605,108.19419642857142,1391.6785714285713,3708,108.19419642857142,1391.6785714285713,3811,108.19419642857142,1391.6785714285713,3915,108.19419642857142,1391.6785714285713,4020,108.19419642857142,1391.6785714285713,4124,108.19419642857142,1391.6785714285713,4228,108.19419642857142,1391.6785714285713,4331,108.19419642857142,1391.6785714285713,4434,108.19419642857142,1391.6785714285713,4539,108.19419642857142,1391.6785714285713,4642,108.19419642857142,1391.6785714285713,4745,108.19419642857142,1391.6785714285713,4847,108.19419642857142,1391.6785714285713,4951]","[]","",""
"7301","","<div style=""width:500px;"">
  <p>What determined the result of this run?</p>
  </div>","100","html-slider-response","54","1722415","0.0-10.0-1.2","138","1","2025-07-02 10:20:39","80fe4187154257d5fb01684ea91b68b9","41.116.152.218","Mozilla/5.0 (iPhone; CPU iPhone OS 17_6_1 like Mac OS X) AppleWebKit/605.1.15 (KHTML, like Gecko) FxiOS/140.1  Mobile/15E148 Safari/605.1.15","iPhone","Firefox","140.1","iOS","17_6_1","https://app.prolific.com/","en-GB,en;q=0.9","67d97d854178939ca2f319a0","683db6dfa200031b80f2a654","68650786ab3dd72c3f54a381","67d97d854178939ca2f319a0","2025-07-02T10:49:23.131Z","","","","","","AttribQ","","","","","","","","","","","","","","","","","","","","","","","","","","","","","","","","","","","","","","50"
"2967","","<div style=""width:500px;"">
  <p>How much control did you have over the ball?</p>
  </div>","100","html-slider-response","55","1725384","0.0-10.0-2.2","138","1","2025-07-02 10:20:39","80fe4187154257d5fb01684ea91b68b9","41.116.152.218","Mozilla/5.0 (iPhone; CPU iPhone OS 17_6_1 like Mac OS X) AppleWebKit/605.1.15 (KHTML, like Gecko) FxiOS/140.1  Mobile/15E148 Safari/605.1.15","iPhone","Firefox","140.1","iOS","17_6_1","https://app.prolific.com/","en-GB,en;q=0.9","67d97d854178939ca2f319a0","683db6dfa200031b80f2a654","68650786ab3dd72c3f54a381","67d97d854178939ca2f319a0","2025-07-02T10:49:26.100Z","","","","","","ControlQ","","","","","","","","","","","","","","","","","","","","","","","","","","","","","","","","","","","","","","50"
"2316","","<div style=""width:500px;"">
  <p>How would you describe your current emotional state?</p>
  </div>","0","html-slider-response","56","1727702","0.0-10.0-3.2","138","1","2025-07-02 10:20:39","80fe4187154257d5fb01684ea91b68b9","41.116.152.218","Mozilla/5.0 (iPhone; CPU iPhone OS 17_6_1 like Mac OS X) AppleWebKit/605.1.15 (KHTML, like Gecko) FxiOS/140.1  Mobile/15E148 Safari/605.1.15","iPhone","Firefox","140.1","iOS","17_6_1","https://app.prolific.com/","en-GB,en;q=0.9","67d97d854178939ca2f319a0","683db6dfa200031b80f2a654","68650786ab3dd72c3f54a381","67d97d854178939ca2f319a0","2025-07-02T10:49:28.418Z","","","","","","StressQ","","","","","","","","","","","","","","","","","","","","","","","","","","","","","","","","","","","","","","50"
"4301","","<div style=""width:500px;"">
  <p>What best describes how you currently feel?</p>
  </div>","100","html-slider-response","57","1732005","0.0-10.0-4.2","138","1","2025-07-02 10:20:39","80fe4187154257d5fb01684ea91b68b9","41.116.152.218","Mozilla/5.0 (iPhone; CPU iPhone OS 17_6_1 like Mac OS X) AppleWebKit/605.1.15 (KHTML, like Gecko) FxiOS/140.1  Mobile/15E148 Safari/605.1.15","iPhone","Firefox","140.1","iOS","17_6_1","https://app.prolific.com/","en-GB,en;q=0.9","67d97d854178939ca2f319a0","683db6dfa200031b80f2a654","68650786ab3dd72c3f54a381","67d97d854178939ca2f319a0","2025-07-02T10:49:32.721Z","","","","","","MotivationQ","","","","","","","","","","","","","","","","","","","","","","","","","","","","","","","","","","","","","","50"
"","","","","ctl-task-cpt","58","1754759","0.0-10.0-0.3","138","1","2025-07-02 10:20:39","80fe4187154257d5fb01684ea91b68b9","41.116.152.218","Mozilla/5.0 (iPhone; CPU iPhone OS 17_6_1 like Mac OS X) AppleWebKit/605.1.15 (KHTML, like Gecko) FxiOS/140.1  Mobile/15E148 Safari/605.1.15","iPhone","Firefox","140.1","iOS","17_6_1","https://app.prolific.com/","en-GB,en;q=0.9","67d97d854178939ca2f319a0","683db6dfa200031b80f2a654","68650786ab3dd72c3f54a381","67d97d854178939ca2f319a0","2025-07-02T10:49:55.475Z","","","","","","","","","","","","","","","","win-only","2","g1:SE,g2:NW","0.7","4","0","1734168","2381","7384","19750","1","4","8","6","2","-8","-8","0","0","0","2852","3000","-2760","[""left"",""up""]","{""num_key_presses"":0,""num_perfect"":0,""num_errors"":0,""num_randdir"":0,""num_randdir_good_moves"":0,""num_whilered"":0,""num_whileblue"":0,""num_blue"":2,""num_good_moves"":0}","[765.1941964285714,740.6785714285714,0,765.1941964285714,740.6785714285714,102,765.1941964285714,740.6785714285714,206,765.1941964285714,740.6785714285714,306,765.1941964285714,740.6785714285714,406,765.1941964285714,740.6785714285714,506,765.1941964285714,740.6785714285714,610,765.1941964285714,740.6785714285714,713,765.1941964285714,740.6785714285714,818,765.1941964285714,740.6785714285714,920,765.1941964285714,740.6785714285714,1023,765.1941964285714,740.6785714285714,1127,765.1941964285714,740.6785714285714,1230,105.19419642857142,824.6785714285714,1333,105.19419642857142,824.6785714285714,1436,105.19419642857142,824.6785714285714,1540,105.19419642857142,824.6785714285714,1642,105.19419642857142,824.6785714285714,1745,105.19419642857142,824.6785714285714,1848,105.19419642857142,824.6785714285714,1952,105.19419642857142,917.6785714285714,2052,105.19419642857142,917.6785714285714,2156,105.19419642857142,917.6785714285714,2256,105.19419642857142,917.6785714285714,2358,105.19419642857142,917.6785714285714,2463,105.19419642857142,917.6785714285714,2566,105.19419642857142,917.6785714285714,2670,105.19419642857142,917.6785714285714,2774,72.19419642857142,149.67857142857142,2879,72.19419642857142,149.67857142857142,2982,72.19419642857142,149.67857142857142,3085,72.19419642857142,149.67857142857142,3190,72.19419642857142,149.67857142857142,3294,72.19419642857142,149.67857142857142,3398,72.19419642857142,149.67857142857142,3499,72.19419642857142,149.67857142857142,3599,72.19419642857142,149.67857142857142,3705,72.19419642857142,149.67857142857142,3808,72.19419642857142,149.67857142857142,3912,72.19419642857142,149.67857142857142,4018,72.19419642857142,149.67857142857142,4119,72.19419642857142,149.67857142857142,4222,72.19419642857142,149.67857142857142,4322,72.19419642857142,149.67857142857142,4422,72.19419642857142,149.67857142857142,4525,72.19419642857142,149.67857142857142,4628,66.19419642857142,362.67857142857144,4731,66.19419642857142,362.67857142857144,4834,66.19419642857142,362.67857142857144,4938]","[]","",""
"3115","","<div style=""width:500px;"">
  <p>What determined the result of this run?</p>
  </div>","100","html-slider-response","59","1757876","0.0-10.0-1.3","138","1","2025-07-02 10:20:39","80fe4187154257d5fb01684ea91b68b9","41.116.152.218","Mozilla/5.0 (iPhone; CPU iPhone OS 17_6_1 like Mac OS X) AppleWebKit/605.1.15 (KHTML, like Gecko) FxiOS/140.1  Mobile/15E148 Safari/605.1.15","iPhone","Firefox","140.1","iOS","17_6_1","https://app.prolific.com/","en-GB,en;q=0.9","67d97d854178939ca2f319a0","683db6dfa200031b80f2a654","68650786ab3dd72c3f54a381","67d97d854178939ca2f319a0","2025-07-02T10:49:58.592Z","","","","","","AttribQ","","","","","","","","","","","","","","","","","","","","","","","","","","","","","","","","","","","","","","50"
"2232","","<div style=""width:500px;"">
  <p>How much control did you have over the ball?</p>
  </div>","100","html-slider-response","60","1760110","0.0-10.0-2.3","138","1","2025-07-02 10:20:39","80fe4187154257d5fb01684ea91b68b9","41.116.152.218","Mozilla/5.0 (iPhone; CPU iPhone OS 17_6_1 like Mac OS X) AppleWebKit/605.1.15 (KHTML, like Gecko) FxiOS/140.1  Mobile/15E148 Safari/605.1.15","iPhone","Firefox","140.1","iOS","17_6_1","https://app.prolific.com/","en-GB,en;q=0.9","67d97d854178939ca2f319a0","683db6dfa200031b80f2a654","68650786ab3dd72c3f54a381","67d97d854178939ca2f319a0","2025-07-02T10:50:00.826Z","","","","","","ControlQ","","","","","","","","","","","","","","","","","","","","","","","","","","","","","","","","","","","","","","50"
"2217","","<div style=""width:500px;"">
  <p>How would you describe your current emotional state?</p>
  </div>","0","html-slider-response","61","1762328","0.0-10.0-3.3","138","1","2025-07-02 10:20:39","80fe4187154257d5fb01684ea91b68b9","41.116.152.218","Mozilla/5.0 (iPhone; CPU iPhone OS 17_6_1 like Mac OS X) AppleWebKit/605.1.15 (KHTML, like Gecko) FxiOS/140.1  Mobile/15E148 Safari/605.1.15","iPhone","Firefox","140.1","iOS","17_6_1","https://app.prolific.com/","en-GB,en;q=0.9","67d97d854178939ca2f319a0","683db6dfa200031b80f2a654","68650786ab3dd72c3f54a381","67d97d854178939ca2f319a0","2025-07-02T10:50:03.044Z","","","","","","StressQ","","","","","","","","","","","","","","","","","","","","","","","","","","","","","","","","","","","","","","50"
"2351","","<div style=""width:500px;"">
  <p>What best describes how you currently feel?</p>
  </div>","100","html-slider-response","62","1764681","0.0-10.0-4.3","138","1","2025-07-02 10:20:39","80fe4187154257d5fb01684ea91b68b9","41.116.152.218","Mozilla/5.0 (iPhone; CPU iPhone OS 17_6_1 like Mac OS X) AppleWebKit/605.1.15 (KHTML, like Gecko) FxiOS/140.1  Mobile/15E148 Safari/605.1.15","iPhone","Firefox","140.1","iOS","17_6_1","https://app.prolific.com/","en-GB,en;q=0.9","67d97d854178939ca2f319a0","683db6dfa200031b80f2a654","68650786ab3dd72c3f54a381","67d97d854178939ca2f319a0","2025-07-02T10:50:05.398Z","","","","","","MotivationQ","","","","","","","","","","","","","","","","","","","","","","","","","","","","","","","","","","","","","","50"
"","","","","ctl-task-cpt","63","1782234","0.0-10.0-0.4","138","1","2025-07-02 10:20:39","80fe4187154257d5fb01684ea91b68b9","41.116.152.218","Mozilla/5.0 (iPhone; CPU iPhone OS 17_6_1 like Mac OS X) AppleWebKit/605.1.15 (KHTML, like Gecko) FxiOS/140.1  Mobile/15E148 Safari/605.1.15","iPhone","Firefox","140.1","iOS","17_6_1","https://app.prolific.com/","en-GB,en;q=0.9","67d97d854178939ca2f319a0","683db6dfa200031b80f2a654","68650786ab3dd72c3f54a381","67d97d854178939ca2f319a0","2025-07-02T10:50:22.950Z","","","","","","","","","","","","","","","","win-only","1","g1:NE,g2:SW","0.6","5","0","1766844","1330","6332","14547","1","4","4","6","2","-4","-4","0","0","0","2067","3000","-2770","[""down"",""left""]","{""num_key_presses"":0,""num_perfect"":0,""num_errors"":0,""num_randdir"":0,""num_randdir_good_moves"":0,""num_whilered"":0,""num_whileblue"":0,""num_blue"":1,""num_good_moves"":0}","[771.1941964285714,761.6785714285714,0,771.1941964285714,761.6785714285714,105,771.1941964285714,761.6785714285714,207,771.1941964285714,761.6785714285714,310,771.1941964285714,761.6785714285714,414,771.1941964285714,761.6785714285714,518,771.1941964285714,761.6785714285714,619,771.1941964285714,761.6785714285714,723,771.1941964285714,761.6785714285714,826,771.1941964285714,761.6785714285714,929,771.1941964285714,761.6785714285714,1033,771.1941964285714,761.6785714285714,1136,771.1941964285714,761.6785714285714,1240,771.1941964285714,761.6785714285714,1343,87.19419642857142,1181.6785714285713,1446,87.19419642857142,1181.6785714285713,1549,87.19419642857142,1181.6785714285713,1652,87.19419642857142,1181.6785714285713,1754,87.19419642857142,1181.6785714285713,1857,87.19419642857142,1181.6785714285713,1959,117.19419642857142,1397.6785714285713,2060,117.19419642857142,1397.6785714285713,2161,117.19419642857142,1397.6785714285713,2265,117.19419642857142,1397.6785714285713,2365,117.19419642857142,1397.6785714285713,2465,117.19419642857142,1397.6785714285713,2570,117.19419642857142,1397.6785714285713,2671,117.19419642857142,1397.6785714285713,2771,117.19419642857142,1397.6785714285713,2871,117.19419642857142,1397.6785714285713,2975,117.19419642857142,1397.6785714285713,3075,117.19419642857142,1397.6785714285713,3175,117.19419642857142,1397.6785714285713,3278,117.19419642857142,1397.6785714285713,3382,117.19419642857142,1397.6785714285713,3482,117.19419642857142,1397.6785714285713,3582,117.19419642857142,1397.6785714285713,3682,117.19419642857142,1397.6785714285713,3785,117.19419642857142,1397.6785714285713,3888,57.194196428571416,1097.6785714285713,3991,57.194196428571416,1097.6785714285713,4095,57.194196428571416,1097.6785714285713,4199,57.194196428571416,1097.6785714285713,4301,57.194196428571416,1097.6785714285713,4405,57.194196428571416,1097.6785714285713,4508,57.194196428571416,1097.6785714285713,4611,330.19419642857144,1400.6785714285713,4714,330.19419642857144,1400.6785714285713,4817,330.19419642857144,1400.6785714285713,4921]","[]","",""
"5596","","<div style=""width:500px;"">
  <p>What determined the result of this run?</p>
  </div>","100","html-slider-response","64","1787831","0.0-10.0-1.4","138","1","2025-07-02 10:20:39","80fe4187154257d5fb01684ea91b68b9","41.116.152.218","Mozilla/5.0 (iPhone; CPU iPhone OS 17_6_1 like Mac OS X) AppleWebKit/605.1.15 (KHTML, like Gecko) FxiOS/140.1  Mobile/15E148 Safari/605.1.15","iPhone","Firefox","140.1","iOS","17_6_1","https://app.prolific.com/","en-GB,en;q=0.9","67d97d854178939ca2f319a0","683db6dfa200031b80f2a654","68650786ab3dd72c3f54a381","67d97d854178939ca2f319a0","2025-07-02T10:50:28.547Z","","","","","","AttribQ","","","","","","","","","","","","","","","","","","","","","","","","","","","","","","","","","","","","","","50"
"2418","","<div style=""width:500px;"">
  <p>How much control did you have over the ball?</p>
  </div>","100","html-slider-response","65","1790250","0.0-10.0-2.4","138","1","2025-07-02 10:20:39","80fe4187154257d5fb01684ea91b68b9","41.116.152.218","Mozilla/5.0 (iPhone; CPU iPhone OS 17_6_1 like Mac OS X) AppleWebKit/605.1.15 (KHTML, like Gecko) FxiOS/140.1  Mobile/15E148 Safari/605.1.15","iPhone","Firefox","140.1","iOS","17_6_1","https://app.prolific.com/","en-GB,en;q=0.9","67d97d854178939ca2f319a0","683db6dfa200031b80f2a654","68650786ab3dd72c3f54a381","67d97d854178939ca2f319a0","2025-07-02T10:50:30.967Z","","","","","","ControlQ","","","","","","","","","","","","","","","","","","","","","","","","","","","","","","","","","","","","","","50"
"8163","","<div style=""width:500px;"">
  <p>How would you describe your current emotional state?</p>
  </div>","0","html-slider-response","66","1798415","0.0-10.0-3.4","138","1","2025-07-02 10:20:39","80fe4187154257d5fb01684ea91b68b9","41.116.152.218","Mozilla/5.0 (iPhone; CPU iPhone OS 17_6_1 like Mac OS X) AppleWebKit/605.1.15 (KHTML, like Gecko) FxiOS/140.1  Mobile/15E148 Safari/605.1.15","iPhone","Firefox","140.1","iOS","17_6_1","https://app.prolific.com/","en-GB,en;q=0.9","67d97d854178939ca2f319a0","683db6dfa200031b80f2a654","68650786ab3dd72c3f54a381","67d97d854178939ca2f319a0","2025-07-02T10:50:39.131Z","","","","","","StressQ","","","","","","","","","","","","","","","","","","","","","","","","","","","","","","","","","","","","","","50"
"2568","","<div style=""width:500px;"">
  <p>What best describes how you currently feel?</p>
  </div>","100","html-slider-response","67","1800984","0.0-10.0-4.4","138","1","2025-07-02 10:20:39","80fe4187154257d5fb01684ea91b68b9","41.116.152.218","Mozilla/5.0 (iPhone; CPU iPhone OS 17_6_1 like Mac OS X) AppleWebKit/605.1.15 (KHTML, like Gecko) FxiOS/140.1  Mobile/15E148 Safari/605.1.15","iPhone","Firefox","140.1","iOS","17_6_1","https://app.prolific.com/","en-GB,en;q=0.9","67d97d854178939ca2f319a0","683db6dfa200031b80f2a654","68650786ab3dd72c3f54a381","67d97d854178939ca2f319a0","2025-07-02T10:50:41.700Z","","","","","","MotivationQ","","","","","","","","","","","","","","","","","","","","","","","","","","","","","","","","","","","","","","50"
"","","","","ctl-task-cpt","68","1814353","0.0-10.0-0.5","138","1","2025-07-02 10:20:39","80fe4187154257d5fb01684ea91b68b9","41.116.152.218","Mozilla/5.0 (iPhone; CPU iPhone OS 17_6_1 like Mac OS X) AppleWebKit/605.1.15 (KHTML, like Gecko) FxiOS/140.1  Mobile/15E148 Safari/605.1.15","iPhone","Firefox","140.1","iOS","17_6_1","https://app.prolific.com/","en-GB,en;q=0.9","67d97d854178939ca2f319a0","683db6dfa200031b80f2a654","68650786ab3dd72c3f54a381","67d97d854178939ca2f319a0","2025-07-02T10:50:55.069Z","","","","","","","","","","","","","","","","win-only","3","g1:SW,g2:NE","0.5","6","0","1803147","1094","6098","10365","1","4","8","6","1","-1","-1","0","0","0","3837","3000","-2750","[""down"",""left""]","{""num_key_presses"":0,""num_perfect"":0,""num_errors"":0,""num_randdir"":0,""num_randdir_good_moves"":0,""num_whilered"":0,""num_whileblue"":0,""num_blue"":0,""num_good_moves"":0}","[768.1941964285714,740.6785714285714,1,768.1941964285714,740.6785714285714,103,768.1941964285714,740.6785714285714,208,768.1941964285714,740.6785714285714,313,768.1941964285714,740.6785714285714,413,768.1941964285714,740.6785714285714,517,768.1941964285714,740.6785714285714,622,768.1941964285714,740.6785714285714,726,768.1941964285714,740.6785714285714,830,768.1941964285714,740.6785714285714,932,768.1941964285714,740.6785714285714,1036,768.1941964285714,740.6785714285714,1139,768.1941964285714,740.6785714285714,1242,768.1941964285714,740.6785714285714,1344,768.1941964285714,740.6785714285714,1449,768.1941964285714,740.6785714285714,1553,681.1941964285714,1124.6785714285713,1656,681.1941964285714,1124.6785714285713,1756,681.1941964285714,1124.6785714285713,1859,681.1941964285714,1124.6785714285713,1963,681.1941964285714,1124.6785714285713,2068,681.1941964285714,1124.6785714285713,2172,681.1941964285714,1124.6785714285713,2272,681.1941964285714,1124.6785714285713,2373,681.1941964285714,1124.6785714285713,2478,681.1941964285714,1124.6785714285713,2582,657.1941964285714,1166.6785714285713,2686,657.1941964285714,1166.6785714285713,2790,657.1941964285714,1166.6785714285713,2893,657.1941964285714,1166.6785714285713,2995,657.1941964285714,1166.6785714285713,3097,657.1941964285714,1166.6785714285713,3201,657.1941964285714,1166.6785714285713,3308,657.1941964285714,1166.6785714285713,3408,657.1941964285714,1166.6785714285713,3512,657.1941964285714,1166.6785714285713,3617,657.1941964285714,1166.6785714285713,3719,87.19419642857142,1397.6785714285713,3823,87.19419642857142,1397.6785714285713,3924,87.19419642857142,1397.6785714285713,4029,87.19419642857142,1397.6785714285713,4134,87.19419642857142,1397.6785714285713,4235,87.19419642857142,1397.6785714285713,4337,87.19419642857142,1397.6785714285713,4441,87.19419642857142,1397.6785714285713,4541,87.19419642857142,1397.6785714285713,4646,87.19419642857142,1397.6785714285713,4750,87.19419642857142,1397.6785714285713,4850,87.19419642857142,1397.6785714285713,4953]","[]","",""
"2407","","<div style=""width:500px;"">
  <p>What determined the result of this run?</p>
  </div>","100","html-slider-response","69","1816762","0.0-10.0-1.5","138","1","2025-07-02 10:20:39","80fe4187154257d5fb01684ea91b68b9","41.116.152.218","Mozilla/5.0 (iPhone; CPU iPhone OS 17_6_1 like Mac OS X) AppleWebKit/605.1.15 (KHTML, like Gecko) FxiOS/140.1  Mobile/15E148 Safari/605.1.15","iPhone","Firefox","140.1","iOS","17_6_1","https://app.prolific.com/","en-GB,en;q=0.9","67d97d854178939ca2f319a0","683db6dfa200031b80f2a654","68650786ab3dd72c3f54a381","67d97d854178939ca2f319a0","2025-07-02T10:50:57.478Z","","","","","","AttribQ","","","","","","","","","","","","","","","","","","","","","","","","","","","","","","","","","","","","","","50"
"2300","","<div style=""width:500px;"">
  <p>How much control did you have over the ball?</p>
  </div>","100","html-slider-response","70","1819064","0.0-10.0-2.5","138","1","2025-07-02 10:20:39","80fe4187154257d5fb01684ea91b68b9","41.116.152.218","Mozilla/5.0 (iPhone; CPU iPhone OS 17_6_1 like Mac OS X) AppleWebKit/605.1.15 (KHTML, like Gecko) FxiOS/140.1  Mobile/15E148 Safari/605.1.15","iPhone","Firefox","140.1","iOS","17_6_1","https://app.prolific.com/","en-GB,en;q=0.9","67d97d854178939ca2f319a0","683db6dfa200031b80f2a654","68650786ab3dd72c3f54a381","67d97d854178939ca2f319a0","2025-07-02T10:50:59.780Z","","","","","","ControlQ","","","","","","","","","","","","","","","","","","","","","","","","","","","","","","","","","","","","","","50"
"2517","","<div style=""width:500px;"">
  <p>How would you describe your current emotional state?</p>
  </div>","0","html-slider-response","71","1821582","0.0-10.0-3.5","138","1","2025-07-02 10:20:39","80fe4187154257d5fb01684ea91b68b9","41.116.152.218","Mozilla/5.0 (iPhone; CPU iPhone OS 17_6_1 like Mac OS X) AppleWebKit/605.1.15 (KHTML, like Gecko) FxiOS/140.1  Mobile/15E148 Safari/605.1.15","iPhone","Firefox","140.1","iOS","17_6_1","https://app.prolific.com/","en-GB,en;q=0.9","67d97d854178939ca2f319a0","683db6dfa200031b80f2a654","68650786ab3dd72c3f54a381","67d97d854178939ca2f319a0","2025-07-02T10:51:02.298Z","","","","","","StressQ","","","","","","","","","","","","","","","","","","","","","","","","","","","","","","","","","","","","","","50"
"4493","","<div style=""width:500px;"">
  <p>What best describes how you currently feel?</p>
  </div>","100","html-slider-response","72","1826077","0.0-10.0-4.5","138","1","2025-07-02 10:20:39","80fe4187154257d5fb01684ea91b68b9","41.116.152.218","Mozilla/5.0 (iPhone; CPU iPhone OS 17_6_1 like Mac OS X) AppleWebKit/605.1.15 (KHTML, like Gecko) FxiOS/140.1  Mobile/15E148 Safari/605.1.15","iPhone","Firefox","140.1","iOS","17_6_1","https://app.prolific.com/","en-GB,en;q=0.9","67d97d854178939ca2f319a0","683db6dfa200031b80f2a654","68650786ab3dd72c3f54a381","67d97d854178939ca2f319a0","2025-07-02T10:51:06.793Z","","","","","","MotivationQ","","","","","","","","","","","","","","","","","","","","","","","","","","","","","","","","","","","","","","50"
"","","","","ctl-task-cpt","73","1839564","0.0-10.0-0.6","138","1","2025-07-02 10:20:39","80fe4187154257d5fb01684ea91b68b9","41.116.152.218","Mozilla/5.0 (iPhone; CPU iPhone OS 17_6_1 like Mac OS X) AppleWebKit/605.1.15 (KHTML, like Gecko) FxiOS/140.1  Mobile/15E148 Safari/605.1.15","iPhone","Firefox","140.1","iOS","17_6_1","https://app.prolific.com/","en-GB,en;q=0.9","67d97d854178939ca2f319a0","683db6dfa200031b80f2a654","68650786ab3dd72c3f54a381","67d97d854178939ca2f319a0","2025-07-02T10:51:20.280Z","","","","","","","","","","","","","","","","win-only","1","g1:NE,g2:SW","0.4","7","0","1828239","1213","6217","10485","1","4","4","6","2","-4","-4","0","0","0","1085","3000","-2755","[""down"",""left""]","{""num_key_presses"":0,""num_perfect"":0,""num_errors"":0,""num_randdir"":0,""num_randdir_good_moves"":0,""num_whilered"":0,""num_whileblue"":0,""num_blue"":0,""num_good_moves"":0}","[768.1941964285714,761.6785714285714,1,768.1941964285714,761.6785714285714,105,768.1941964285714,761.6785714285714,205,768.1941964285714,761.6785714285714,305,768.1941964285714,761.6785714285714,405,768.1941964285714,761.6785714285714,509,768.1941964285714,761.6785714285714,610,768.1941964285714,761.6785714285714,715,768.1941964285714,761.6785714285714,820,768.1941964285714,761.6785714285714,923,768.1941964285714,761.6785714285714,1027,108.19419642857142,1379.6785714285713,1128,108.19419642857142,1379.6785714285713,1233,108.19419642857142,1379.6785714285713,1336,108.19419642857142,1379.6785714285713,1436,108.19419642857142,1379.6785714285713,1539,108.19419642857142,1379.6785714285713,1639,108.19419642857142,1379.6785714285713,1740,108.19419642857142,1379.6785714285713,1840,108.19419642857142,1379.6785714285713,1944,108.19419642857142,1379.6785714285713,2049,108.19419642857142,1379.6785714285713,2152,93.19419642857142,1100.6785714285713,2256,93.19419642857142,1100.6785714285713,2367,93.19419642857142,1100.6785714285713,2470,93.19419642857142,1100.6785714285713,2573,93.19419642857142,1100.6785714285713,2678,93.19419642857142,1100.6785714285713,2778,93.19419642857142,1100.6785714285713,2882,93.19419642857142,1100.6785714285713,2985,93.19419642857142,1100.6785714285713,3086,93.19419642857142,1100.6785714285713,3189,93.19419642857142,1100.6785714285713,3289,93.19419642857142,1100.6785714285713,3391,93.19419642857142,1100.6785714285713,3495,918.1941964285714,632.6785714285714,3600,918.1941964285714,632.6785714285714,3702,918.1941964285714,632.6785714285714,3806,918.1941964285714,632.6785714285714,3911,918.1941964285714,632.6785714285714,4013,918.1941964285714,632.6785714285714,4116,918.1941964285714,632.6785714285714,4220,918.1941964285714,632.6785714285714,4325,894.1941964285714,815.6785714285714,4426,894.1941964285714,815.6785714285714,4529,894.1941964285714,815.6785714285714,4633,894.1941964285714,815.6785714285714,4736,894.1941964285714,815.6785714285714,4840,111.19419642857142,1445.6785714285713,4943]","[]","",""
"3492","","<div style=""width:500px;"">
  <p>What determined the result of this run?</p>
  </div>","100","html-slider-response","74","1843058","0.0-10.0-1.6","138","1","2025-07-02 10:20:39","80fe4187154257d5fb01684ea91b68b9","41.116.152.218","Mozilla/5.0 (iPhone; CPU iPhone OS 17_6_1 like Mac OS X) AppleWebKit/605.1.15 (KHTML, like Gecko) FxiOS/140.1  Mobile/15E148 Safari/605.1.15","iPhone","Firefox","140.1","iOS","17_6_1","https://app.prolific.com/","en-GB,en;q=0.9","67d97d854178939ca2f319a0","683db6dfa200031b80f2a654","68650786ab3dd72c3f54a381","67d97d854178939ca2f319a0","2025-07-02T10:51:23.774Z","","","","","","AttribQ","","","","","","","","","","","","","","","","","","","","","","","","","","","","","","","","","","","","","","50"
"2600","","<div style=""width:500px;"">
  <p>How much control did you have over the ball?</p>
  </div>","100","html-slider-response","75","1845659","0.0-10.0-2.6","138","1","2025-07-02 10:20:39","80fe4187154257d5fb01684ea91b68b9","41.116.152.218","Mozilla/5.0 (iPhone; CPU iPhone OS 17_6_1 like Mac OS X) AppleWebKit/605.1.15 (KHTML, like Gecko) FxiOS/140.1  Mobile/15E148 Safari/605.1.15","iPhone","Firefox","140.1","iOS","17_6_1","https://app.prolific.com/","en-GB,en;q=0.9","67d97d854178939ca2f319a0","683db6dfa200031b80f2a654","68650786ab3dd72c3f54a381","67d97d854178939ca2f319a0","2025-07-02T10:51:26.375Z","","","","","","ControlQ","","","","","","","","","","","","","","","","","","","","","","","","","","","","","","","","","","","","","","50"
"2167","","<div style=""width:500px;"">
  <p>How would you describe your current emotional state?</p>
  </div>","0","html-slider-response","76","1847827","0.0-10.0-3.6","138","1","2025-07-02 10:20:39","80fe4187154257d5fb01684ea91b68b9","41.116.152.218","Mozilla/5.0 (iPhone; CPU iPhone OS 17_6_1 like Mac OS X) AppleWebKit/605.1.15 (KHTML, like Gecko) FxiOS/140.1  Mobile/15E148 Safari/605.1.15","iPhone","Firefox","140.1","iOS","17_6_1","https://app.prolific.com/","en-GB,en;q=0.9","67d97d854178939ca2f319a0","683db6dfa200031b80f2a654","68650786ab3dd72c3f54a381","67d97d854178939ca2f319a0","2025-07-02T10:51:28.543Z","","","","","","StressQ","","","","","","","","","","","","","","","","","","","","","","","","","","","","","","","","","","","","","","50"
"2867","","<div style=""width:500px;"">
  <p>What best describes how you currently feel?</p>
  </div>","100","html-slider-response","77","1850696","0.0-10.0-4.6","138","1","2025-07-02 10:20:39","80fe4187154257d5fb01684ea91b68b9","41.116.152.218","Mozilla/5.0 (iPhone; CPU iPhone OS 17_6_1 like Mac OS X) AppleWebKit/605.1.15 (KHTML, like Gecko) FxiOS/140.1  Mobile/15E148 Safari/605.1.15","iPhone","Firefox","140.1","iOS","17_6_1","https://app.prolific.com/","en-GB,en;q=0.9","67d97d854178939ca2f319a0","683db6dfa200031b80f2a654","68650786ab3dd72c3f54a381","67d97d854178939ca2f319a0","2025-07-02T10:51:31.412Z","","","","","","MotivationQ","","","","","","","","","","","","","","","","","","","","","","","","","","","","","","","","","","","","","","50"
"","","","","ctl-task-cpt","78","1864056","0.0-10.0-0.7","138","1","2025-07-02 10:20:39","80fe4187154257d5fb01684ea91b68b9","41.116.152.218","Mozilla/5.0 (iPhone; CPU iPhone OS 17_6_1 like Mac OS X) AppleWebKit/605.1.15 (KHTML, like Gecko) FxiOS/140.1  Mobile/15E148 Safari/605.1.15","iPhone","Firefox","140.1","iOS","17_6_1","https://app.prolific.com/","en-GB,en;q=0.9","67d97d854178939ca2f319a0","683db6dfa200031b80f2a654","68650786ab3dd72c3f54a381","67d97d854178939ca2f319a0","2025-07-02T10:51:44.772Z","","","","","","","","","","","","","","","","win-only","0","g1:NW,g2:SE","0.3","8","0","1852859","1079","6081","10357","1","4","8","6","1","-1","-1","0","0","0","1184","3000","-2680","[""left"",""up""]","{""num_key_presses"":0,""num_perfect"":0,""num_errors"":0,""num_randdir"":0,""num_randdir_good_moves"":0,""num_whilered"":0,""num_whileblue"":0,""num_blue"":0,""num_good_moves"":0}","[759.1941964285714,749.6785714285714,0,759.1941964285714,749.6785714285714,103,759.1941964285714,749.6785714285714,205,759.1941964285714,749.6785714285714,305,759.1941964285714,749.6785714285714,409,759.1941964285714,749.6785714285714,513,759.1941964285714,749.6785714285714,616,759.1941964285714,749.6785714285714,716,759.1941964285714,749.6785714285714,816,759.1941964285714,749.6785714285714,922,759.1941964285714,749.6785714285714,1028,759.1941964285714,749.6785714285714,1133,99.19419642857142,176.67857142857142,1237,99.19419642857142,176.67857142857142,1341,99.19419642857142,176.67857142857142,1444,99.19419642857142,176.67857142857142,1544,99.19419642857142,176.67857142857142,1644,99.19419642857142,176.67857142857142,1748,99.19419642857142,176.67857142857142,1853,99.19419642857142,176.67857142857142,1957,99.19419642857142,176.67857142857142,2059,99.19419642857142,176.67857142857142,2163,99.19419642857142,176.67857142857142,2268,99.19419642857142,176.67857142857142,2374,99.19419642857142,176.67857142857142,2479,99.19419642857142,176.67857142857142,2582,99.19419642857142,176.67857142857142,2686,99.19419642857142,176.67857142857142,2791,99.19419642857142,176.67857142857142,2894,99.19419642857142,176.67857142857142,2999,99.19419642857142,176.67857142857142,3102,99.19419642857142,176.67857142857142,3202,99.19419642857142,176.67857142857142,3304,99.19419642857142,176.67857142857142,3409,99.19419642857142,176.67857142857142,3512,99.19419642857142,176.67857142857142,3612,99.19419642857142,176.67857142857142,3712,99.19419642857142,176.67857142857142,3817,123.19419642857142,203.67857142857142,3920,123.19419642857142,203.67857142857142,4022,123.19419642857142,203.67857142857142,4124,123.19419642857142,203.67857142857142,4229,123.19419642857142,203.67857142857142,4332,123.19419642857142,203.67857142857142,4436,123.19419642857142,203.67857142857142,4540,123.19419642857142,203.67857142857142,4642,123.19419642857142,203.67857142857142,4746,123.19419642857142,203.67857142857142,4846,123.19419642857142,203.67857142857142,4946]","[]","",""
"4653","","<div style=""width:500px;"">
  <p>What determined the result of this run?</p>
  </div>","100","html-slider-response","79","1868710","0.0-10.0-1.7","138","1","2025-07-02 10:20:39","80fe4187154257d5fb01684ea91b68b9","41.116.152.218","Mozilla/5.0 (iPhone; CPU iPhone OS 17_6_1 like Mac OS X) AppleWebKit/605.1.15 (KHTML, like Gecko) FxiOS/140.1  Mobile/15E148 Safari/605.1.15","iPhone","Firefox","140.1","iOS","17_6_1","https://app.prolific.com/","en-GB,en;q=0.9","67d97d854178939ca2f319a0","683db6dfa200031b80f2a654","68650786ab3dd72c3f54a381","67d97d854178939ca2f319a0","2025-07-02T10:51:49.426Z","","","","","","AttribQ","","","","","","","","","","","","","","","","","","","","","","","","","","","","","","","","","","","","","","50"
"185919","","<div style=""width:500px;"">
  <p>How much control did you have over the ball?</p>
  </div>","100","html-slider-response","80","2054629","0.0-10.0-2.7","138","1","2025-07-02 10:20:39","80fe4187154257d5fb01684ea91b68b9","41.116.152.218","Mozilla/5.0 (iPhone; CPU iPhone OS 17_6_1 like Mac OS X) AppleWebKit/605.1.15 (KHTML, like Gecko) FxiOS/140.1  Mobile/15E148 Safari/605.1.15","iPhone","Firefox","140.1","iOS","17_6_1","https://app.prolific.com/","en-GB,en;q=0.9","67d97d854178939ca2f319a0","683db6dfa200031b80f2a654","68650786ab3dd72c3f54a381","67d97d854178939ca2f319a0","2025-07-02T10:54:55.345Z","","","","","","ControlQ","","","","","","","","","","","","","","","","","","","","","","","","","","","","","","","","","","","","","","50"
"2818","","<div style=""width:500px;"">
  <p>How would you describe your current emotional state?</p>
  </div>","0","html-slider-response","81","2057448","0.0-10.0-3.7","138","1","2025-07-02 10:20:39","80fe4187154257d5fb01684ea91b68b9","41.116.152.218","Mozilla/5.0 (iPhone; CPU iPhone OS 17_6_1 like Mac OS X) AppleWebKit/605.1.15 (KHTML, like Gecko) FxiOS/140.1  Mobile/15E148 Safari/605.1.15","iPhone","Firefox","140.1","iOS","17_6_1","https://app.prolific.com/","en-GB,en;q=0.9","67d97d854178939ca2f319a0","683db6dfa200031b80f2a654","68650786ab3dd72c3f54a381","67d97d854178939ca2f319a0","2025-07-02T10:54:58.164Z","","","","","","StressQ","","","","","","","","","","","","","","","","","","","","","","","","","","","","","","","","","","","","","","50"
"4219","","<div style=""width:500px;"">
  <p>What best describes how you currently feel?</p>
  </div>","100","html-slider-response","82","2061668","0.0-10.0-4.7","138","1","2025-07-02 10:20:39","80fe4187154257d5fb01684ea91b68b9","41.116.152.218","Mozilla/5.0 (iPhone; CPU iPhone OS 17_6_1 like Mac OS X) AppleWebKit/605.1.15 (KHTML, like Gecko) FxiOS/140.1  Mobile/15E148 Safari/605.1.15","iPhone","Firefox","140.1","iOS","17_6_1","https://app.prolific.com/","en-GB,en;q=0.9","67d97d854178939ca2f319a0","683db6dfa200031b80f2a654","68650786ab3dd72c3f54a381","67d97d854178939ca2f319a0","2025-07-02T10:55:02.384Z","","","","","","MotivationQ","","","","","","","","","","","","","","","","","","","","","","","","","","","","","","","","","","","","","","50"
"","","","","ctl-task-cpt","83","2078926","0.0-10.0-0.8","138","1","2025-07-02 10:20:39","80fe4187154257d5fb01684ea91b68b9","41.116.152.218","Mozilla/5.0 (iPhone; CPU iPhone OS 17_6_1 like Mac OS X) AppleWebKit/605.1.15 (KHTML, like Gecko) FxiOS/140.1  Mobile/15E148 Safari/605.1.15","iPhone","Firefox","140.1","iOS","17_6_1","https://app.prolific.com/","en-GB,en;q=0.9","67d97d854178939ca2f319a0","683db6dfa200031b80f2a654","68650786ab3dd72c3f54a381","67d97d854178939ca2f319a0","2025-07-02T10:55:19.642Z","","","","","","","","","","","","","","","","win-only","0","g1:NW,g2:SE","0.4","9","0","2063834","4966","9968","14253","1","4","8","6","1","-1","-1","0","0","0","1198","3000","-2740","[""left"",""up""]","{""num_key_presses"":0,""num_perfect"":0,""num_errors"":0,""num_randdir"":0,""num_randdir_good_moves"":0,""num_whilered"":0,""num_whileblue"":0,""num_blue"":0,""num_good_moves"":0}","[762.1941964285714,758.6785714285714,0,762.1941964285714,758.6785714285714,102,762.1941964285714,758.6785714285714,206,762.1941964285714,758.6785714285714,310,762.1941964285714,758.6785714285714,414,762.1941964285714,758.6785714285714,520,762.1941964285714,758.6785714285714,625,762.1941964285714,758.6785714285714,726,762.1941964285714,758.6785714285714,828,762.1941964285714,758.6785714285714,933,762.1941964285714,758.6785714285714,1037,762.1941964285714,758.6785714285714,1142,153.19419642857142,107.67857142857142,1242,153.19419642857142,107.67857142857142,1347,153.19419642857142,107.67857142857142,1451,153.19419642857142,107.67857142857142,1555,153.19419642857142,107.67857142857142,1658,153.19419642857142,107.67857142857142,1760,153.19419642857142,107.67857142857142,1863,153.19419642857142,107.67857142857142,1967,153.19419642857142,107.67857142857142,2067,153.19419642857142,107.67857142857142,2171,153.19419642857142,107.67857142857142,2271,153.19419642857142,107.67857142857142,2373,153.19419642857142,107.67857142857142,2477,153.19419642857142,107.67857142857142,2577,153.19419642857142,107.67857142857142,2683,153.19419642857142,107.67857142857142,2786,153.19419642857142,107.67857142857142,2888,153.19419642857142,107.67857142857142,2988,153.19419642857142,107.67857142857142,3089,153.19419642857142,107.67857142857142,3194,153.19419642857142,107.67857142857142,3299,153.19419642857142,107.67857142857142,3405,153.19419642857142,107.67857142857142,3511,153.19419642857142,107.67857142857142,3617,153.19419642857142,107.67857142857142,3721,153.19419642857142,107.67857142857142,3826,153.19419642857142,107.67857142857142,3930,153.19419642857142,107.67857142857142,4048,153.19419642857142,107.67857142857142,4152,153.19419642857142,107.67857142857142,4254,153.19419642857142,107.67857142857142,4356,153.19419642857142,107.67857142857142,4460,153.19419642857142,107.67857142857142,4564,153.19419642857142,107.67857142857142,4667,153.19419642857142,107.67857142857142,4770,153.19419642857142,107.67857142857142,4873,153.19419642857142,107.67857142857142,4973]","[]","",""
"17733","","<div style=""width:500px;"">
  <p>What determined the result of this run?</p>
  </div>","100","html-slider-response","84","2096661","0.0-10.0-1.8","138","1","2025-07-02 10:20:39","80fe4187154257d5fb01684ea91b68b9","41.116.152.218","Mozilla/5.0 (iPhone; CPU iPhone OS 17_6_1 like Mac OS X) AppleWebKit/605.1.15 (KHTML, like Gecko) FxiOS/140.1  Mobile/15E148 Safari/605.1.15","iPhone","Firefox","140.1","iOS","17_6_1","https://app.prolific.com/","en-GB,en;q=0.9","67d97d854178939ca2f319a0","683db6dfa200031b80f2a654","68650786ab3dd72c3f54a381","67d97d854178939ca2f319a0","2025-07-02T10:55:37.377Z","","","","","","AttribQ","","","","","","","","","","","","","","","","","","","","","","","","","","","","","","","","","","","","","","50"
"2851","","<div style=""width:500px;"">
  <p>How much control did you have over the ball?</p>
  </div>","100","html-slider-response","85","2099512","0.0-10.0-2.8","138","1","2025-07-02 10:20:39","80fe4187154257d5fb01684ea91b68b9","41.116.152.218","Mozilla/5.0 (iPhone; CPU iPhone OS 17_6_1 like Mac OS X) AppleWebKit/605.1.15 (KHTML, like Gecko) FxiOS/140.1  Mobile/15E148 Safari/605.1.15","iPhone","Firefox","140.1","iOS","17_6_1","https://app.prolific.com/","en-GB,en;q=0.9","67d97d854178939ca2f319a0","683db6dfa200031b80f2a654","68650786ab3dd72c3f54a381","67d97d854178939ca2f319a0","2025-07-02T10:55:40.229Z","","","","","","ControlQ","","","","","","","","","","","","","","","","","","","","","","","","","","","","","","","","","","","","","","50"
"73003","","<div style=""width:500px;"">
  <p>How would you describe your current emotional state?</p>
  </div>","2","html-slider-response","86","2172516","0.0-10.0-3.8","138","1","2025-07-02 10:20:39","80fe4187154257d5fb01684ea91b68b9","41.116.152.218","Mozilla/5.0 (iPhone; CPU iPhone OS 17_6_1 like Mac OS X) AppleWebKit/605.1.15 (KHTML, like Gecko) FxiOS/140.1  Mobile/15E148 Safari/605.1.15","iPhone","Firefox","140.1","iOS","17_6_1","https://app.prolific.com/","en-GB,en;q=0.9","67d97d854178939ca2f319a0","683db6dfa200031b80f2a654","68650786ab3dd72c3f54a381","67d97d854178939ca2f319a0","2025-07-02T10:56:53.232Z","","","","","","StressQ","","","","","","","","","","","","","","","","","","","","","","","","","","","","","","","","","","","","","","50"
"10455","","<div style=""width:500px;"">
  <p>What best describes how you currently feel?</p>
  </div>","100","html-slider-response","87","2182972","0.0-10.0-4.8","138","1","2025-07-02 10:20:39","80fe4187154257d5fb01684ea91b68b9","41.116.152.218","Mozilla/5.0 (iPhone; CPU iPhone OS 17_6_1 like Mac OS X) AppleWebKit/605.1.15 (KHTML, like Gecko) FxiOS/140.1  Mobile/15E148 Safari/605.1.15","iPhone","Firefox","140.1","iOS","17_6_1","https://app.prolific.com/","en-GB,en;q=0.9","67d97d854178939ca2f319a0","683db6dfa200031b80f2a654","68650786ab3dd72c3f54a381","67d97d854178939ca2f319a0","2025-07-02T10:57:03.688Z","","","","","","MotivationQ","","","","","","","","","","","","","","","","","","","","","","","","","","","","","","","","","","","","","","50"
"","","","","ctl-task-cpt","88","2201812","0.0-10.0-0.9","138","1","2025-07-02 10:20:39","80fe4187154257d5fb01684ea91b68b9","41.116.152.218","Mozilla/5.0 (iPhone; CPU iPhone OS 17_6_1 like Mac OS X) AppleWebKit/605.1.15 (KHTML, like Gecko) FxiOS/140.1  Mobile/15E148 Safari/605.1.15","iPhone","Firefox","140.1","iOS","17_6_1","https://app.prolific.com/","en-GB,en;q=0.9","67d97d854178939ca2f319a0","683db6dfa200031b80f2a654","68650786ab3dd72c3f54a381","67d97d854178939ca2f319a0","2025-07-02T10:57:22.528Z","","","","","","","","","","","","","","","","win-only","2","g1:SE,g2:NW","0.5","10","0","2185139","6537","11542","15837","1","4","4","6","1","-1","-1","0","0","0","5005","3000","-2740","[""down"",""right""]","{""num_key_presses"":0,""num_perfect"":0,""num_errors"":0,""num_randdir"":0,""num_randdir_good_moves"":0,""num_whilered"":0,""num_whileblue"":0,""num_blue"":0,""num_good_moves"":0}","[771.1941964285714,752.6785714285714,1,771.1941964285714,752.6785714285714,103,771.1941964285714,752.6785714285714,207,771.1941964285714,752.6785714285714,311,771.1941964285714,752.6785714285714,412,771.1941964285714,752.6785714285714,516,771.1941964285714,752.6785714285714,620,771.1941964285714,752.6785714285714,724,771.1941964285714,752.6785714285714,829,771.1941964285714,752.6785714285714,931,771.1941964285714,752.6785714285714,1035,771.1941964285714,752.6785714285714,1139,771.1941964285714,752.6785714285714,1244,771.1941964285714,752.6785714285714,1347,771.1941964285714,752.6785714285714,1450,771.1941964285714,752.6785714285714,1553,771.1941964285714,752.6785714285714,1658,771.1941964285714,752.6785714285714,1758,771.1941964285714,752.6785714285714,1863,771.1941964285714,752.6785714285714,1965,771.1941964285714,752.6785714285714,2066,771.1941964285714,752.6785714285714,2170,771.1941964285714,752.6785714285714,2274,771.1941964285714,752.6785714285714,2379,771.1941964285714,752.6785714285714,2482,771.1941964285714,752.6785714285714,2585,771.1941964285714,752.6785714285714,2689,771.1941964285714,752.6785714285714,2793,771.1941964285714,752.6785714285714,2898,771.1941964285714,752.6785714285714,2998,771.1941964285714,752.6785714285714,3099,771.1941964285714,752.6785714285714,3202,771.1941964285714,752.6785714285714,3306,771.1941964285714,752.6785714285714,3410,771.1941964285714,752.6785714285714,3514,771.1941964285714,752.6785714285714,3614,771.1941964285714,752.6785714285714,3717,771.1941964285714,752.6785714285714,3821,771.1941964285714,752.6785714285714,3925,771.1941964285714,752.6785714285714,4026,771.1941964285714,752.6785714285714,4130,771.1941964285714,752.6785714285714,4234,771.1941964285714,752.6785714285714,4336,771.1941964285714,752.6785714285714,4439,771.1941964285714,752.6785714285714,4542,771.1941964285714,752.6785714285714,4647,771.1941964285714,752.6785714285714,4750,771.1941964285714,752.6785714285714,4853,771.1941964285714,752.6785714285714,4955]","[]","",""
"4779","","<div style=""width:500px;"">
  <p>What determined the result of this run?</p>
  </div>","100","html-slider-response","89","2206593","0.0-10.0-1.9","138","1","2025-07-02 10:20:39","80fe4187154257d5fb01684ea91b68b9","41.116.152.218","Mozilla/5.0 (iPhone; CPU iPhone OS 17_6_1 like Mac OS X) AppleWebKit/605.1.15 (KHTML, like Gecko) FxiOS/140.1  Mobile/15E148 Safari/605.1.15","iPhone","Firefox","140.1","iOS","17_6_1","https://app.prolific.com/","en-GB,en;q=0.9","67d97d854178939ca2f319a0","683db6dfa200031b80f2a654","68650786ab3dd72c3f54a381","67d97d854178939ca2f319a0","2025-07-02T10:57:27.309Z","","","","","","AttribQ","","","","","","","","","","","","","","","","","","","","","","","","","","","","","","","","","","","","","","50"
"2465","","<div style=""width:500px;"">
  <p>How much control did you have over the ball?</p>
  </div>","100","html-slider-response","90","2209060","0.0-10.0-2.9","138","1","2025-07-02 10:20:39","80fe4187154257d5fb01684ea91b68b9","41.116.152.218","Mozilla/5.0 (iPhone; CPU iPhone OS 17_6_1 like Mac OS X) AppleWebKit/605.1.15 (KHTML, like Gecko) FxiOS/140.1  Mobile/15E148 Safari/605.1.15","iPhone","Firefox","140.1","iOS","17_6_1","https://app.prolific.com/","en-GB,en;q=0.9","67d97d854178939ca2f319a0","683db6dfa200031b80f2a654","68650786ab3dd72c3f54a381","67d97d854178939ca2f319a0","2025-07-02T10:57:29.776Z","","","","","","ControlQ","","","","","","","","","","","","","","","","","","","","","","","","","","","","","","","","","","","","","","50"
"2368","","<div style=""width:500px;"">
  <p>How would you describe your current emotional state?</p>
  </div>","0","html-slider-response","91","2211430","0.0-10.0-3.9","138","1","2025-07-02 10:20:39","80fe4187154257d5fb01684ea91b68b9","41.116.152.218","Mozilla/5.0 (iPhone; CPU iPhone OS 17_6_1 like Mac OS X) AppleWebKit/605.1.15 (KHTML, like Gecko) FxiOS/140.1  Mobile/15E148 Safari/605.1.15","iPhone","Firefox","140.1","iOS","17_6_1","https://app.prolific.com/","en-GB,en;q=0.9","67d97d854178939ca2f319a0","683db6dfa200031b80f2a654","68650786ab3dd72c3f54a381","67d97d854178939ca2f319a0","2025-07-02T10:57:32.146Z","","","","","","StressQ","","","","","","","","","","","","","","","","","","","","","","","","","","","","","","","","","","","","","","50"
"2016","","<div style=""width:500px;"">
  <p>What best describes how you currently feel?</p>
  </div>","99","html-slider-response","92","2213447","0.0-10.0-4.9","138","1","2025-07-02 10:20:39","80fe4187154257d5fb01684ea91b68b9","41.116.152.218","Mozilla/5.0 (iPhone; CPU iPhone OS 17_6_1 like Mac OS X) AppleWebKit/605.1.15 (KHTML, like Gecko) FxiOS/140.1  Mobile/15E148 Safari/605.1.15","iPhone","Firefox","140.1","iOS","17_6_1","https://app.prolific.com/","en-GB,en;q=0.9","67d97d854178939ca2f319a0","683db6dfa200031b80f2a654","68650786ab3dd72c3f54a381","67d97d854178939ca2f319a0","2025-07-02T10:57:34.163Z","","","","","","MotivationQ","","","","","","","","","","","","","","","","","","","","","","","","","","","","","","","","","","","","","","50"
