"rt","response_timestamp","stimulus","response","trial_type","trial_index","time_elapsed","internal_node_id","run_id","condition","recorded_at","source_code_version","ip","user_agent","device","browser","browser_version","platform","platform_version","referer","accept_language","PROLIFIC_PID","STUDY_ID","SESSION_ID","prolific_id","realtime","view_history","question_order","consent","success","question_id","eventType","responses","item_order","radio_event_ids","radio_event_times","key_event_times","mouse_event_times","straightlining","zigzagging","honeypot","which_type","canvas_config","goals_layout","control_level","trial_number","tutorial_trial_number","trial_start_time","phase1_start_time","phase2_start_time","phase3_start_time","goal_1_value","goal_1_distance","goal_2_value","goal_2_distance","goal_selected","outcome","outcome_total","participant_final_score","participant_initial_score","participant_final_score_prop","goal_choice_rt","allocated_time","allocated_time_remaining","goal_direction","counts","mouse_movements","key_presses","correct","slider_start","sub_question"
"3726","1751451536331","<p style='font-size:40px;line-height:1.25'><strong>Welcome to the experiment!</strong></p><p style='font-size:1.1em;line-height:1.25'>Thank you for your interest in our experiment! Before you begin, it is important that we obtain your informed consent to participate in the study.</p><p style='font-size:1.1em;line-height:1.25'>On the next screen will be an <strong>information sheet</strong> for you to read. To participate in the study we need you to read this information sheet and the following consent form carefully. If you agree with all the statements, please click the <strong>I agree</strong> button.</p><p style='font-size:1.1em;line-height:1.25'>Press <strong>Next</strong> to read the information sheet.</p>","0","custom-html-button-response","0","3727","0.0-0.0","48","1","2025-07-02 10:18:47","80fe4187154257d5fb01684ea91b68b9","41.145.195.47","Mozilla/5.0 (Windows NT 10.0; Win64; x64) AppleWebKit/537.36 (KHTML, like Gecko) Chrome/138.0.0.0 Safari/537.36 Edg/138.0.0.0","WebKit","Edge","138.0.0.0","Windows","10.0","https://app.prolific.com/","en-US,en;q=0.9","67dabf62d73b99009d24a016","683db6dfa200031b80f2a654","6865077daffac681a93e28ec","67dabf62d73b99009d24a016","2025-07-02T10:18:56.333Z","","","","","","","","","","","","","","","","","","","","","","","","","","","","","","","","","","","","","","","","","","","","",""
"13646","","","","instructions","1","17375","0.0-1.0","48","1","2025-07-02 10:18:47","80fe4187154257d5fb01684ea91b68b9","41.145.195.47","Mozilla/5.0 (Windows NT 10.0; Win64; x64) AppleWebKit/537.36 (KHTML, like Gecko) Chrome/138.0.0.0 Safari/537.36 Edg/138.0.0.0","WebKit","Edge","138.0.0.0","Windows","10.0","https://app.prolific.com/","en-US,en;q=0.9","67dabf62d73b99009d24a016","683db6dfa200031b80f2a654","6865077daffac681a93e28ec","67dabf62d73b99009d24a016","","[{""page_index"":0,""viewing_time"":9196},{""page_index"":1,""viewing_time"":4450}]","","","","","","","","","","","","","","","","","","","","","","","","","","","","","","","","","","","","","","","","","","","",""
"9415","","","{""Q0"":"""",""Q1"":"""",""Q2"":"""",""Q3"":"""",""Q4"":"""",""Q5"":"""",""Q6"":""I agree""}","survey-multi-choice","2","26792","0.0-2.0","48","1","2025-07-02 10:18:47","80fe4187154257d5fb01684ea91b68b9","41.145.195.47","Mozilla/5.0 (Windows NT 10.0; Win64; x64) AppleWebKit/537.36 (KHTML, like Gecko) Chrome/138.0.0.0 Safari/537.36 Edg/138.0.0.0","WebKit","Edge","138.0.0.0","Windows","10.0","https://app.prolific.com/","en-US,en;q=0.9","67dabf62d73b99009d24a016","683db6dfa200031b80f2a654","6865077daffac681a93e28ec","67dabf62d73b99009d24a016","","","[0,1,2,3,4,5,6]","true","","","","","","","","","","","","","","","","","","","","","","","","","","","","","","","","","","","","","","","","","",""
"15679","","","","fullscreen","3","43474","0.0-4.0","48","1","2025-07-02 10:18:47","80fe4187154257d5fb01684ea91b68b9","41.145.195.47","Mozilla/5.0 (Windows NT 10.0; Win64; x64) AppleWebKit/537.36 (KHTML, like Gecko) Chrome/138.0.0.0 Safari/537.36 Edg/138.0.0.0","WebKit","Edge","138.0.0.0","Windows","10.0","https://app.prolific.com/","en-US,en;q=0.9","67dabf62d73b99009d24a016","683db6dfa200031b80f2a654","6865077daffac681a93e28ec","67dabf62d73b99009d24a016","","","","","true","","","","","","","","","","","","","","","","","","","","","","","","","","","","","","","","","","","","","","","","",""
"6979","1751451583060"," <p style='font-size:1.1em;line-height:1.25'>Thank you for completing the consent form and closing all other tabs.</p><p style='font-size:1.1em;line-height:1.25'>We will now invite you to fill in some demographic information and questionnaires, before starting the game.<br>This will take about 5 minutes.<br></p><p style='font-size:1.1em;line-height:1.25'>Press the <strong>Next</strong> button to continue.</p>","0","custom-html-button-response","4","50456","0.0-5.0","48","1","2025-07-02 10:18:47","80fe4187154257d5fb01684ea91b68b9","41.145.195.47","Mozilla/5.0 (Windows NT 10.0; Win64; x64) AppleWebKit/537.36 (KHTML, like Gecko) Chrome/138.0.0.0 Safari/537.36 Edg/138.0.0.0","WebKit","Edge","138.0.0.0","Windows","10.0","https://app.prolific.com/","en-US,en;q=0.9","67dabf62d73b99009d24a016","683db6dfa200031b80f2a654","6865077daffac681a93e28ec","67dabf62d73b99009d24a016","2025-07-02T10:19:43.061Z","","","","","","","","","","","","","","","","","","","","","","","","","","","","","","","","","","","","","","","","","","","","",""
"4778","","","{""age"":""29""}","survey-text","5","55240","0.0-6.0-0.0","48","1","2025-07-02 10:18:47","80fe4187154257d5fb01684ea91b68b9","41.145.195.47","Mozilla/5.0 (Windows NT 10.0; Win64; x64) AppleWebKit/537.36 (KHTML, like Gecko) Chrome/138.0.0.0 Safari/537.36 Edg/138.0.0.0","WebKit","Edge","138.0.0.0","Windows","10.0","https://app.prolific.com/","en-US,en;q=0.9","67dabf62d73b99009d24a016","683db6dfa200031b80f2a654","6865077daffac681a93e28ec","67dabf62d73b99009d24a016","","","","","","0","demographics","","","","","","","","","","","","","","","","","","","","","","","","","","","","","","","","","","","","","","",""
"4162","","","{""gender_identity"":""female/woman""}","survey-multi-choice","6","59405","0.0-6.0-1.0","48","1","2025-07-02 10:18:47","80fe4187154257d5fb01684ea91b68b9","41.145.195.47","Mozilla/5.0 (Windows NT 10.0; Win64; x64) AppleWebKit/537.36 (KHTML, like Gecko) Chrome/138.0.0.0 Safari/537.36 Edg/138.0.0.0","WebKit","Edge","138.0.0.0","Windows","10.0","https://app.prolific.com/","en-US,en;q=0.9","67dabf62d73b99009d24a016","683db6dfa200031b80f2a654","6865077daffac681a93e28ec","67dabf62d73b99009d24a016","","","[0]","","","1","demographics","","","","","","","","","","","","","","","","","","","","","","","","","","","","","","","","","","","","","","",""
"6499","","","{""assigned_sex"":""female""}","survey-multi-choice","7","65906","0.0-6.0-2.0","48","1","2025-07-02 10:18:47","80fe4187154257d5fb01684ea91b68b9","41.145.195.47","Mozilla/5.0 (Windows NT 10.0; Win64; x64) AppleWebKit/537.36 (KHTML, like Gecko) Chrome/138.0.0.0 Safari/537.36 Edg/138.0.0.0","WebKit","Edge","138.0.0.0","Windows","10.0","https://app.prolific.com/","en-US,en;q=0.9","67dabf62d73b99009d24a016","683db6dfa200031b80f2a654","6865077daffac681a93e28ec","67dabf62d73b99009d24a016","","","[0]","","","2","demographics","","","","","","","","","","","","","","","","","","","","","","","","","","","","","","","","","","","","","","",""
"4831","","","{""menstrual_cycle"":""Yes""}","survey-multi-choice","8","70738","0.0-6.0-3.0","48","1","2025-07-02 10:18:47","80fe4187154257d5fb01684ea91b68b9","41.145.195.47","Mozilla/5.0 (Windows NT 10.0; Win64; x64) AppleWebKit/537.36 (KHTML, like Gecko) Chrome/138.0.0.0 Safari/537.36 Edg/138.0.0.0","WebKit","Edge","138.0.0.0","Windows","10.0","https://app.prolific.com/","en-US,en;q=0.9","67dabf62d73b99009d24a016","683db6dfa200031b80f2a654","6865077daffac681a93e28ec","67dabf62d73b99009d24a016","","","[0]","","","4","demographics","","","","","","","","","","","","","","","","","","","","","","","","","","","","","","","","","","","","","","",""
"5282","","","{""education"":""Doctoral Degree (e.g., PhD)""}","survey-multi-choice","9","76022","0.0-6.0-4.0","48","1","2025-07-02 10:18:47","80fe4187154257d5fb01684ea91b68b9","41.145.195.47","Mozilla/5.0 (Windows NT 10.0; Win64; x64) AppleWebKit/537.36 (KHTML, like Gecko) Chrome/138.0.0.0 Safari/537.36 Edg/138.0.0.0","WebKit","Edge","138.0.0.0","Windows","10.0","https://app.prolific.com/","en-US,en;q=0.9","67dabf62d73b99009d24a016","683db6dfa200031b80f2a654","6865077daffac681a93e28ec","67dabf62d73b99009d24a016","","","[0]","","","5","demographics","","","","","","","","","","","","","","","","","","","","","","","","","","","","","","","","","","","","","","",""
"6980","","","{""education"":""Master's Degree (e.g., MSc)""}","survey-multi-choice","10","83004","0.0-6.0-5.0","48","1","2025-07-02 10:18:47","80fe4187154257d5fb01684ea91b68b9","41.145.195.47","Mozilla/5.0 (Windows NT 10.0; Win64; x64) AppleWebKit/537.36 (KHTML, like Gecko) Chrome/138.0.0.0 Safari/537.36 Edg/138.0.0.0","WebKit","Edge","138.0.0.0","Windows","10.0","https://app.prolific.com/","en-US,en;q=0.9","67dabf62d73b99009d24a016","683db6dfa200031b80f2a654","6865077daffac681a93e28ec","67dabf62d73b99009d24a016","2025-07-02T10:20:15.609Z","","[0]","","","6","demographics","","","","","","","","","","","","","","","","","","","","","","","","","","","","","","","","","","","","","","",""
"30443","","","{""mental_health_condition"":""none"",""mental_health_treatment"":""none"",""psychiatric_medication"":""none""}","survey-text","11","113452","0.0-7.0-0.0","48","1","2025-07-02 10:18:47","80fe4187154257d5fb01684ea91b68b9","41.145.195.47","Mozilla/5.0 (Windows NT 10.0; Win64; x64) AppleWebKit/537.36 (KHTML, like Gecko) Chrome/138.0.0.0 Safari/537.36 Edg/138.0.0.0","WebKit","Edge","138.0.0.0","Windows","10.0","https://app.prolific.com/","en-US,en;q=0.9","67dabf62d73b99009d24a016","683db6dfa200031b80f2a654","6865077daffac681a93e28ec","67dabf62d73b99009d24a016","2025-07-02T10:20:46.057Z","","","","","1","mental_health","","","","","","","","","","","","","","","","","","","","","","","","","","","","","","","","","","","","","","",""
"7612","","","{""depression_history"":[""Yes""]}","survey-multi-select","12","121068","0.0-7.0-1.0","48","1","2025-07-02 10:18:47","80fe4187154257d5fb01684ea91b68b9","41.145.195.47","Mozilla/5.0 (Windows NT 10.0; Win64; x64) AppleWebKit/537.36 (KHTML, like Gecko) Chrome/138.0.0.0 Safari/537.36 Edg/138.0.0.0","WebKit","Edge","138.0.0.0","Windows","10.0","https://app.prolific.com/","en-US,en;q=0.9","67dabf62d73b99009d24a016","683db6dfa200031b80f2a654","6865077daffac681a93e28ec","67dabf62d73b99009d24a016","","","[0]","","","","mental_health","","","","","","","","","","","","","","","","","","","","","","","","","","","","","","","","","","","","","","",""
"12652","","","{""depression_episodes"":""more than 5"",""depression_recent"":""Currently experiencing an episode""}","survey-multi-choice","13","133722","0.0-7.0-2.0-0.0","48","1","2025-07-02 10:18:47","80fe4187154257d5fb01684ea91b68b9","41.145.195.47","Mozilla/5.0 (Windows NT 10.0; Win64; x64) AppleWebKit/537.36 (KHTML, like Gecko) Chrome/138.0.0.0 Safari/537.36 Edg/138.0.0.0","WebKit","Edge","138.0.0.0","Windows","10.0","https://app.prolific.com/","en-US,en;q=0.9","67dabf62d73b99009d24a016","683db6dfa200031b80f2a654","6865077daffac681a93e28ec","67dabf62d73b99009d24a016","2025-07-02T10:21:06.327Z","","[0,1]","","","3","mental_health","","","","","","","","","","","","","","","","","","","","","","","","","","","","","","","","","","","","","","",""
"74420.20000000298","","","","survey-template","14","208151","0.0-7.0-3.0","48","1","2025-07-02 10:18:47","80fe4187154257d5fb01684ea91b68b9","41.145.195.47","Mozilla/5.0 (Windows NT 10.0; Win64; x64) AppleWebKit/537.36 (KHTML, like Gecko) Chrome/138.0.0.0 Safari/537.36 Edg/138.0.0.0","WebKit","Edge","138.0.0.0","Windows","10.0","https://app.prolific.com/","en-US,en;q=0.9","67dabf62d73b99009d24a016","683db6dfa200031b80f2a654","6865077daffac681a93e28ec","67dabf62d73b99009d24a016","2025-07-02T10:22:20.756Z","","","","","","ius","{""Q01"":""2"",""Q02"":""2"",""Q03"":""1"",""Q04"":""3"",""Q05"":""1"",""Q06"":""3"",""Q07"":""1"",""Q08"":""2"",""Q09"":""3"",""Q10"":""3"",""Q11"":""2"",""Q12"":""2"",""Q13"":""3""}","[0,1,2,3,4,5,6,7,8,9,10,11,12]","[""Q01"",""Q02"",""Q03"",""Q04"",""Q05"",""Q06"",""Q07"",""Q08"",""Q09"",""Q10"",""Q11"",""Q12"",""Q13""]","[24423.70000000298,25964.09999999404,35698,37773.20000000298,42939.20000000298,44664.39999999106,54343,55701.59999999404,59711.59999999404,63330.59999999404,67543.59999999404,71664.09999999404,73327.29999999702]","[]","[19918.59999999404,22895.39999999106,24423.70000000298,25964.09999999404,32935.70000000298,35698,37773.20000000298,42939.20000000298,44664.39999999106,54343,55701.59999999404,59711.59999999404,63330.59999999404,66332.39999999106,67543.59999999404,71664.09999999404,73327.29999999702,74417.79999999702]","0.38461538461538464","0.4166666666666667","0","","","","","","","","","","","","","","","","","","","","","","","","","","","","","",""
"5325","1751451746082","<p style='font-size:1.1em;line-height:1.25'>In the following, we will ask you a few questions relating to your experiences over the past month.<br></p><p style='font-size:1.1em;line-height:1.25'>Press the <strong>Next</strong> button to continue.</p>","0","custom-html-button-response","15","213478","0.0-7.0-4.0","48","1","2025-07-02 10:18:47","80fe4187154257d5fb01684ea91b68b9","41.145.195.47","Mozilla/5.0 (Windows NT 10.0; Win64; x64) AppleWebKit/537.36 (KHTML, like Gecko) Chrome/138.0.0.0 Safari/537.36 Edg/138.0.0.0","WebKit","Edge","138.0.0.0","Windows","10.0","https://app.prolific.com/","en-US,en;q=0.9","67dabf62d73b99009d24a016","683db6dfa200031b80f2a654","6865077daffac681a93e28ec","67dabf62d73b99009d24a016","2025-07-02T10:22:26.083Z","","","","","","","","","","","","","","","","","","","","","","","","","","","","","","","","","","","","","","","","","","","","",""
"133747.09999999404","","","","survey-template","16","347228","0.0-7.0-5.0","48","1","2025-07-02 10:18:47","80fe4187154257d5fb01684ea91b68b9","41.145.195.47","Mozilla/5.0 (Windows NT 10.0; Win64; x64) AppleWebKit/537.36 (KHTML, like Gecko) Chrome/138.0.0.0 Safari/537.36 Edg/138.0.0.0","WebKit","Edge","138.0.0.0","Windows","10.0","https://app.prolific.com/","en-US,en;q=0.9","67dabf62d73b99009d24a016","683db6dfa200031b80f2a654","6865077daffac681a93e28ec","67dabf62d73b99009d24a016","2025-07-02T10:24:39.833Z","","","","","","pss","{""Q01"":""3"",""Q02"":""3"",""Q03"":""3"",""Q04"":""2"",""Q05"":""2"",""Q06"":""2"",""Q07"":""2"",""Q08"":""1"",""Q09"":""2"",""Q10"":""2""}","[0,1,2,3,4,5,6,7,8,9]","[""Q01"",""Q02"",""Q03"",""Q04"",""Q05"",""Q06"",""Q07"",""Q08"",""Q10"",""Q09""]","[82641.29999999702,87196.70000000298,90121.40000000596,94001.70000000298,100144,108467,115784.29999999702,121086.40000000596,131307.70000000298,132303.09999999404]","[]","[0.09999999403953552,7864.29999999702,82641.29999999702,87196.70000000298,90121.40000000596,94001.70000000298,97556.09999999404,100144,108467,115784.29999999702,121086.40000000596,125554.20000000298,129453.40000000596,131307.70000000298,132303.09999999404,133745.20000000298]","0.6","0.3333333333333333","0","","","","","","","","","","","","","","","","","","","","","","","","","","","","","",""
"6286","1751451886121","<p style='font-size:1.1em;line-height:1.25'>Thank you for your answers! Now we will ask you a few more questions relating to your feelings in the last 24 hours.<br></p><p style='font-size:1.1em;line-height:1.25'>Press the <strong>Next</strong> button to continue.</p>","0","custom-html-button-response","17","353516","0.0-7.0-6.0","48","1","2025-07-02 10:18:47","80fe4187154257d5fb01684ea91b68b9","41.145.195.47","Mozilla/5.0 (Windows NT 10.0; Win64; x64) AppleWebKit/537.36 (KHTML, like Gecko) Chrome/138.0.0.0 Safari/537.36 Edg/138.0.0.0","WebKit","Edge","138.0.0.0","Windows","10.0","https://app.prolific.com/","en-US,en;q=0.9","67dabf62d73b99009d24a016","683db6dfa200031b80f2a654","6865077daffac681a93e28ec","67dabf62d73b99009d24a016","2025-07-02T10:24:46.121Z","","","","","","","","","","","","","","","","","","","","","","","","","","","","","","","","","","","","","","","","","","","","",""
"103453.70000000298","","","","survey-template","18","456975","0.0-7.0-7.0","48","1","2025-07-02 10:18:47","80fe4187154257d5fb01684ea91b68b9","41.145.195.47","Mozilla/5.0 (Windows NT 10.0; Win64; x64) AppleWebKit/537.36 (KHTML, like Gecko) Chrome/138.0.0.0 Safari/537.36 Edg/138.0.0.0","WebKit","Edge","138.0.0.0","Windows","10.0","https://app.prolific.com/","en-US,en;q=0.9","67dabf62d73b99009d24a016","683db6dfa200031b80f2a654","6865077daffac681a93e28ec","67dabf62d73b99009d24a016","2025-07-02T10:26:29.581Z","","","","","","drsp","{""Q01"":""2"",""Q02"":""1"",""Q03"":""3"",""Q04"":""3"",""Q05"":""4"",""Q06"":""3"",""Q07"":""2"",""Q08"":""0"",""Q09"":""1"",""Q10"":""2"",""Q11"":""2"",""Q12"":""3"",""Q13"":""5"",""Q14"":""4"",""Q15"":""3"",""Q16"":""2"",""Q17"":""3"",""Q18"":""1"",""Q19"":""2"",""Q20"":""3"",""Q21"":""3""}","[0,1,2,3,4,5,6,7,8,9,10,11,12,13,14,15,16,17,18,19,20]","[""Q01"",""Q02"",""Q03"",""Q04"",""Q05"",""Q07"",""Q06"",""Q08"",""Q09"",""Q10"",""Q11"",""Q12"",""Q13"",""Q14"",""Q15"",""Q16"",""Q17"",""Q18"",""Q19"",""Q20"",""Q21""]","[8248.40000000596,9336.79999999702,11936.29999999702,15371,17325.20000000298,24518.60000000894,25860.20000000298,35839.5,38884.70000000298,41259,43719.29999999702,53161.10000000894,54947.10000000894,57631.60000000894,64007.10000000894,68018.60000000894,69906.79999999702,83490.60000000894,88423.20000000298,97268.79999999702,101995.70000000298]","[]","[0,8248.40000000596,9336.79999999702,11936.29999999702,13563.79999999702,15371,17325.20000000298,20213.70000000298,23381.20000000298,24518.60000000894,25860.20000000298,35839.5,38884.70000000298,41259,43719.29999999702,50778.5,53161.10000000894,54947.10000000894,57631.60000000894,64007.10000000894,68018.60000000894,69906.79999999702,80042.70000000298,81590.20000000298,83490.60000000894,88423.20000000298,97268.79999999702,100907.20000000298,101995.70000000298,103450.90000000596]","0.38095238095238093","0.65","0","","","","","","","","","","","","","","","","","","","","","","","","","","","","","",""
"17480.59999999404","","","","survey-template","19","474458","0.0-7.0-8.0","48","1","2025-07-02 10:18:47","80fe4187154257d5fb01684ea91b68b9","41.145.195.47","Mozilla/5.0 (Windows NT 10.0; Win64; x64) AppleWebKit/537.36 (KHTML, like Gecko) Chrome/138.0.0.0 Safari/537.36 Edg/138.0.0.0","WebKit","Edge","138.0.0.0","Windows","10.0","https://app.prolific.com/","en-US,en;q=0.9","67dabf62d73b99009d24a016","683db6dfa200031b80f2a654","6865077daffac681a93e28ec","67dabf62d73b99009d24a016","2025-07-02T10:26:47.063Z","","","","","","stress","{""Q01"":""2"",""Q02"":""2"",""Q03"":""1""}","[0,1,2]","[""Q01"",""Q02"",""Q03"",""Q03""]","[7614.899999991059,11497,14313.09999999404,16079.39999999106]","[]","[7614.899999991059,11497,14313.09999999404,16079.39999999106,17479.70000000298]","0.3333333333333333","0.5","0","","","","","","","","","","","","","","","","","","","","","","","","","","","","","",""
"105325","","","","instructions","20","579784","0.0-8.0-0.0","48","1","2025-07-02 10:18:47","80fe4187154257d5fb01684ea91b68b9","41.145.195.47","Mozilla/5.0 (Windows NT 10.0; Win64; x64) AppleWebKit/537.36 (KHTML, like Gecko) Chrome/138.0.0.0 Safari/537.36 Edg/138.0.0.0","WebKit","Edge","138.0.0.0","Windows","10.0","https://app.prolific.com/","en-US,en;q=0.9","67dabf62d73b99009d24a016","683db6dfa200031b80f2a654","6865077daffac681a93e28ec","67dabf62d73b99009d24a016","","[{""page_index"":0,""viewing_time"":52211},{""page_index"":1,""viewing_time"":19182},{""page_index"":2,""viewing_time"":12082},{""page_index"":3,""viewing_time"":21850}]","","","","","","","","","","","","","","","","","","","","","","","","","","","","","","","","","","","","","","","","","","","",""
"","","","","ctl-task-cpt","21","601319","0.0-8.0-1.0","48","1","2025-07-02 10:18:47","80fe4187154257d5fb01684ea91b68b9","41.145.195.47","Mozilla/5.0 (Windows NT 10.0; Win64; x64) AppleWebKit/537.36 (KHTML, like Gecko) Chrome/138.0.0.0 Safari/537.36 Edg/138.0.0.0","WebKit","Edge","138.0.0.0","Windows","10.0","https://app.prolific.com/","en-US,en;q=0.9","67dabf62d73b99009d24a016","683db6dfa200031b80f2a654","6865077daffac681a93e28ec","67dabf62d73b99009d24a016","","","","","","","","","","","","","","","","","win-only","0","g1:NW,g2:SE","1","0","1","585206.1","7508.6","11514.5","18528.1","2","4","4","6","1","-2","-2","0","0","0","4005.8","4000","-2175","[""left"",""up""]","{""num_key_presses"":0,""num_perfect"":0,""num_errors"":0,""num_randdir"":0,""num_randdir_good_moves"":0,""num_whilered"":0,""num_whileblue"":0,""num_blue"":0,""num_good_moves"":0}","[254.71428571428572,251.62053571428572,0.8,254.71428571428572,251.62053571428572,103.4,254.71428571428572,251.62053571428572,204.1,254.71428571428572,251.62053571428572,308.5,254.71428571428572,251.62053571428572,417,254.71428571428572,251.62053571428572,517.2,254.71428571428572,251.62053571428572,617.6,254.71428571428572,251.62053571428572,722.6,254.71428571428572,251.62053571428572,827.2,254.71428571428572,251.62053571428572,937.8,254.71428571428572,251.62053571428572,1040.3,254.71428571428572,251.62053571428572,1146.4,254.71428571428572,251.62053571428572,1247.5,254.71428571428572,251.62053571428572,1347.5,254.71428571428572,251.62053571428572,1454.6,254.71428571428572,251.62053571428572,1557.6,254.71428571428572,251.62053571428572,1667.4,254.71428571428572,251.62053571428572,1772.9,254.71428571428572,251.62053571428572,1873.1,254.71428571428572,251.62053571428572,1973.2,254.71428571428572,251.62053571428572,2077.5,254.71428571428572,251.62053571428572,2187.3,254.71428571428572,251.62053571428572,2287.4,254.71428571428572,251.62053571428572,2387.7,254.71428571428572,251.62053571428572,2487.5,254.71428571428572,251.62053571428572,2617.6,254.71428571428572,251.62053571428572,2722.7,254.71428571428572,251.62053571428572,2822.8,254.71428571428572,251.62053571428572,2923,254.71428571428572,251.62053571428572,3024,254.71428571428572,251.62053571428572,3127.2,254.71428571428572,251.62053571428572,3227.5,254.71428571428572,251.62053571428572,3337.5,254.71428571428572,251.62053571428572,3438.1,254.71428571428572,251.62053571428572,3538.4,254.71428571428572,251.62053571428572,3647.7,254.71428571428572,251.62053571428572,3753.3,254.71428571428572,251.62053571428572,3854,254.71428571428572,251.62053571428572,3957.7]","[]","","",""
"10275","","","","instructions","22","611595","0.0-8.0-2.0","48","1","2025-07-02 10:18:47","80fe4187154257d5fb01684ea91b68b9","41.145.195.47","Mozilla/5.0 (Windows NT 10.0; Win64; x64) AppleWebKit/537.36 (KHTML, like Gecko) Chrome/138.0.0.0 Safari/537.36 Edg/138.0.0.0","WebKit","Edge","138.0.0.0","Windows","10.0","https://app.prolific.com/","en-US,en;q=0.9","67dabf62d73b99009d24a016","683db6dfa200031b80f2a654","6865077daffac681a93e28ec","67dabf62d73b99009d24a016","","[{""page_index"":0,""viewing_time"":10274}]","","","","","","","","","","","","","","","","","","","","","","","","","","","","","","","","","","","","","","","","","","","",""
"","","","","ctl-task-cpt","23","626785","0.0-8.0-3.0","48","1","2025-07-02 10:18:47","80fe4187154257d5fb01684ea91b68b9","41.145.195.47","Mozilla/5.0 (Windows NT 10.0; Win64; x64) AppleWebKit/537.36 (KHTML, like Gecko) Chrome/138.0.0.0 Safari/537.36 Edg/138.0.0.0","WebKit","Edge","138.0.0.0","Windows","10.0","https://app.prolific.com/","en-US,en;q=0.9","67dabf62d73b99009d24a016","683db6dfa200031b80f2a654","6865077daffac681a93e28ec","67dabf62d73b99009d24a016","","","","","","","","","","","","","","","","","win-only","0","g1:NW,g2:SE","0.35","0","3","617017.6","1777.8","5779.4","12175.6","2","4","8","6","2","-8","-8","0","0","0","4001.5","4000","-2320","[""down"",""right""]","{""num_key_presses"":0,""num_perfect"":0,""num_errors"":0,""num_randdir"":0,""num_randdir_good_moves"":0,""num_whilered"":0,""num_whileblue"":0,""num_blue"":0,""num_good_moves"":0}","[249.71428571428572,255.62053571428572,0.2,249.71428571428572,255.62053571428572,100.3,249.71428571428572,255.62053571428572,205,249.71428571428572,255.62053571428572,311,249.71428571428572,255.62053571428572,421.2,249.71428571428572,255.62053571428572,522.4,249.71428571428572,255.62053571428572,623.3,249.71428571428572,255.62053571428572,730.6,249.71428571428572,255.62053571428572,831.8,249.71428571428572,255.62053571428572,937.7,247.71428571428572,250.62053571428572,1039.7,242.71428571428572,241.62053571428572,1142.2,236.71428571428572,233.62053571428572,1243.1,236.71428571428572,232.62053571428572,1350.1,236.71428571428572,232.62053571428572,1450.7,236.71428571428572,232.62053571428572,1551.1,236.71428571428572,232.62053571428572,1654.3,236.71428571428572,232.62053571428572,1754.4,236.71428571428572,232.62053571428572,1858.4,236.71428571428572,232.62053571428572,1971.1,236.71428571428572,232.62053571428572,2071.1,236.71428571428572,232.62053571428572,2174.9,236.71428571428572,232.62053571428572,2281.3,236.71428571428572,232.62053571428572,2387.2,236.71428571428572,232.62053571428572,2487.2,236.71428571428572,232.62053571428572,2587.5,236.71428571428572,232.62053571428572,2687.7,236.71428571428572,232.62053571428572,2788.5,229.71428571428572,227.62053571428572,2893.1,226.71428571428572,225.62053571428572,3000.5,226.71428571428572,225.62053571428572,3100.6,226.71428571428572,225.62053571428572,3200.7,226.71428571428572,225.62053571428572,3301,226.71428571428572,225.62053571428572,3405.2,226.71428571428572,225.62053571428572,3510.7,226.71428571428572,225.62053571428572,3611,226.71428571428572,225.62053571428572,3721.2,226.71428571428572,225.62053571428572,3824.8,226.71428571428572,225.62053571428572,3930.8]","[]","","",""
"18641","","","","instructions","24","645428","0.0-8.0-4.0","48","1","2025-07-02 10:18:47","80fe4187154257d5fb01684ea91b68b9","41.145.195.47","Mozilla/5.0 (Windows NT 10.0; Win64; x64) AppleWebKit/537.36 (KHTML, like Gecko) Chrome/138.0.0.0 Safari/537.36 Edg/138.0.0.0","WebKit","Edge","138.0.0.0","Windows","10.0","https://app.prolific.com/","en-US,en;q=0.9","67dabf62d73b99009d24a016","683db6dfa200031b80f2a654","6865077daffac681a93e28ec","67dabf62d73b99009d24a016","","[{""page_index"":0,""viewing_time"":9684},{""page_index"":1,""viewing_time"":8957}]","","","","","","","","","","","","","","","","","","","","","","","","","","","","","","","","","","","","","","","","","","","",""
"16283","","","{""green_ball"":[""Ball always moves in the direction I press""]}","survey-multi-select","25","661715","0.0-8.0-5.0-0.0","48","1","2025-07-02 10:18:47","80fe4187154257d5fb01684ea91b68b9","41.145.195.47","Mozilla/5.0 (Windows NT 10.0; Win64; x64) AppleWebKit/537.36 (KHTML, like Gecko) Chrome/138.0.0.0 Safari/537.36 Edg/138.0.0.0","WebKit","Edge","138.0.0.0","Windows","10.0","https://app.prolific.com/","en-US,en;q=0.9","67dabf62d73b99009d24a016","683db6dfa200031b80f2a654","6865077daffac681a93e28ec","67dabf62d73b99009d24a016","","","[0]","","","","quiz","","","","","","","","","","","","","","","","","","","","","","","","","","","","","","","","","","","","","false","",""
"3617","","<p align='center'><b>INCORRECT.</b> Usually the green ball moves in the indicated direction, but sometimes it shakes and moves randomly. </p>","0","html-button-response","26","665336","0.0-8.0-5.0-1.0","48","1","2025-07-02 10:18:47","80fe4187154257d5fb01684ea91b68b9","41.145.195.47","Mozilla/5.0 (Windows NT 10.0; Win64; x64) AppleWebKit/537.36 (KHTML, like Gecko) Chrome/138.0.0.0 Safari/537.36 Edg/138.0.0.0","WebKit","Edge","138.0.0.0","Windows","10.0","https://app.prolific.com/","en-US,en;q=0.9","67dabf62d73b99009d24a016","683db6dfa200031b80f2a654","6865077daffac681a93e28ec","67dabf62d73b99009d24a016","","","","","","","","","","","","","","","","","","","","","","","","","","","","","","","","","","","","","","","","","","","","","",""
"5792","","","{""green_ball"":[""Ball always shakes and moves in a random direction""]}","survey-multi-select","27","671130","0.0-8.0-5.1-0.1","48","1","2025-07-02 10:18:47","80fe4187154257d5fb01684ea91b68b9","41.145.195.47","Mozilla/5.0 (Windows NT 10.0; Win64; x64) AppleWebKit/537.36 (KHTML, like Gecko) Chrome/138.0.0.0 Safari/537.36 Edg/138.0.0.0","WebKit","Edge","138.0.0.0","Windows","10.0","https://app.prolific.com/","en-US,en;q=0.9","67dabf62d73b99009d24a016","683db6dfa200031b80f2a654","6865077daffac681a93e28ec","67dabf62d73b99009d24a016","","","[0]","","","","quiz","","","","","","","","","","","","","","","","","","","","","","","","","","","","","","","","","","","","","false","",""
"16739","","<p align='center'><b>INCORRECT.</b> Usually the green ball moves in the indicated direction, but sometimes it shakes and moves randomly. </p>","0","html-button-response","28","687871","0.0-8.0-5.1-1.1","48","1","2025-07-02 10:18:47","80fe4187154257d5fb01684ea91b68b9","41.145.195.47","Mozilla/5.0 (Windows NT 10.0; Win64; x64) AppleWebKit/537.36 (KHTML, like Gecko) Chrome/138.0.0.0 Safari/537.36 Edg/138.0.0.0","WebKit","Edge","138.0.0.0","Windows","10.0","https://app.prolific.com/","en-US,en;q=0.9","67dabf62d73b99009d24a016","683db6dfa200031b80f2a654","6865077daffac681a93e28ec","67dabf62d73b99009d24a016","","","","","","","","","","","","","","","","","","","","","","","","","","","","","","","","","","","","","","","","","","","","","",""
"5449","","","{""green_ball"":[""Ball sometimes shakes and moves in a random direction""]}","survey-multi-select","29","693323","0.0-8.0-5.2-0.2","48","1","2025-07-02 10:18:47","80fe4187154257d5fb01684ea91b68b9","41.145.195.47","Mozilla/5.0 (Windows NT 10.0; Win64; x64) AppleWebKit/537.36 (KHTML, like Gecko) Chrome/138.0.0.0 Safari/537.36 Edg/138.0.0.0","WebKit","Edge","138.0.0.0","Windows","10.0","https://app.prolific.com/","en-US,en;q=0.9","67dabf62d73b99009d24a016","683db6dfa200031b80f2a654","6865077daffac681a93e28ec","67dabf62d73b99009d24a016","","","[0]","","","","quiz","","","","","","","","","","","","","","","","","","","","","","","","","","","","","","","","","","","","","true","",""
"3398","","<p align='center'><b>CORRECT!</b> Indeed, the green ball may sometimes shake and move in a random direction.</p>","0","html-button-response","30","696723","0.0-8.0-5.2-1.2","48","1","2025-07-02 10:18:47","80fe4187154257d5fb01684ea91b68b9","41.145.195.47","Mozilla/5.0 (Windows NT 10.0; Win64; x64) AppleWebKit/537.36 (KHTML, like Gecko) Chrome/138.0.0.0 Safari/537.36 Edg/138.0.0.0","WebKit","Edge","138.0.0.0","Windows","10.0","https://app.prolific.com/","en-US,en;q=0.9","67dabf62d73b99009d24a016","683db6dfa200031b80f2a654","6865077daffac681a93e28ec","67dabf62d73b99009d24a016","","","","","","","","","","","","","","","","","","","","","","","","","","","","","","","","","","","","","","","","","","","","","",""
"8476","","","{""yellow_ball"":[""Ball doesn‘t move and I get -1 penalty point""]}","survey-multi-select","31","705203","0.0-8.0-6.0-0.0","48","1","2025-07-02 10:18:47","80fe4187154257d5fb01684ea91b68b9","41.145.195.47","Mozilla/5.0 (Windows NT 10.0; Win64; x64) AppleWebKit/537.36 (KHTML, like Gecko) Chrome/138.0.0.0 Safari/537.36 Edg/138.0.0.0","WebKit","Edge","138.0.0.0","Windows","10.0","https://app.prolific.com/","en-US,en;q=0.9","67dabf62d73b99009d24a016","683db6dfa200031b80f2a654","6865077daffac681a93e28ec","67dabf62d73b99009d24a016","","","[0]","","","","quiz","","","","","","","","","","","","","","","","","","","","","","","","","","","","","","","","","","","","","true","",""
"2195","","<p align='center'><b>CORRECT!</b> Indeed, the yellow ball never moves and you receive a penalty.</p>","0","html-button-response","32","707399","0.0-8.0-6.0-1.0","48","1","2025-07-02 10:18:47","80fe4187154257d5fb01684ea91b68b9","41.145.195.47","Mozilla/5.0 (Windows NT 10.0; Win64; x64) AppleWebKit/537.36 (KHTML, like Gecko) Chrome/138.0.0.0 Safari/537.36 Edg/138.0.0.0","WebKit","Edge","138.0.0.0","Windows","10.0","https://app.prolific.com/","en-US,en;q=0.9","67dabf62d73b99009d24a016","683db6dfa200031b80f2a654","6865077daffac681a93e28ec","67dabf62d73b99009d24a016","","","","","","","","","","","","","","","","","","","","","","","","","","","","","","","","","","","","","","","","","","","","","",""
"13260","","","{""blue_ball"":[""Ball always shakes and moves in a random direction""]}","survey-multi-select","33","720661","0.0-8.0-7.0-0.0","48","1","2025-07-02 10:18:47","80fe4187154257d5fb01684ea91b68b9","41.145.195.47","Mozilla/5.0 (Windows NT 10.0; Win64; x64) AppleWebKit/537.36 (KHTML, like Gecko) Chrome/138.0.0.0 Safari/537.36 Edg/138.0.0.0","WebKit","Edge","138.0.0.0","Windows","10.0","https://app.prolific.com/","en-US,en;q=0.9","67dabf62d73b99009d24a016","683db6dfa200031b80f2a654","6865077daffac681a93e28ec","67dabf62d73b99009d24a016","","","[0]","","","","quiz","","","","","","","","","","","","","","","","","","","","","","","","","","","","","","","","","","","","","true","",""
"1775","","<p align='center'><b>CORRECT!</b> Indeed, the blue ball always shakes and moves in a random direction. Also there is a penalty of -1 point.</p>","0","html-button-response","34","722439","0.0-8.0-7.0-1.0","48","1","2025-07-02 10:18:47","80fe4187154257d5fb01684ea91b68b9","41.145.195.47","Mozilla/5.0 (Windows NT 10.0; Win64; x64) AppleWebKit/537.36 (KHTML, like Gecko) Chrome/138.0.0.0 Safari/537.36 Edg/138.0.0.0","WebKit","Edge","138.0.0.0","Windows","10.0","https://app.prolific.com/","en-US,en;q=0.9","67dabf62d73b99009d24a016","683db6dfa200031b80f2a654","6865077daffac681a93e28ec","67dabf62d73b99009d24a016","","","","","","","","","","","","","","","","","","","","","","","","","","","","","","","","","","","","","","","","","","","","","",""
"8240","","","{""bonus"":[""When I reach 80% of points""]}","survey-multi-select","35","730681","0.0-8.0-8.0-0.0","48","1","2025-07-02 10:18:47","80fe4187154257d5fb01684ea91b68b9","41.145.195.47","Mozilla/5.0 (Windows NT 10.0; Win64; x64) AppleWebKit/537.36 (KHTML, like Gecko) Chrome/138.0.0.0 Safari/537.36 Edg/138.0.0.0","WebKit","Edge","138.0.0.0","Windows","10.0","https://app.prolific.com/","en-US,en;q=0.9","67dabf62d73b99009d24a016","683db6dfa200031b80f2a654","6865077daffac681a93e28ec","67dabf62d73b99009d24a016","","","[0]","","","","quiz","","","","","","","","","","","","","","","","","","","","","","","","","","","","","","","","","","","","","false","",""
"4273","","<p align='center'><b>INCORRECT.</b> You receive 2 pounds extra when you reach 50% of points </p>","0","html-button-response","36","734955","0.0-8.0-8.0-1.0","48","1","2025-07-02 10:18:47","80fe4187154257d5fb01684ea91b68b9","41.145.195.47","Mozilla/5.0 (Windows NT 10.0; Win64; x64) AppleWebKit/537.36 (KHTML, like Gecko) Chrome/138.0.0.0 Safari/537.36 Edg/138.0.0.0","WebKit","Edge","138.0.0.0","Windows","10.0","https://app.prolific.com/","en-US,en;q=0.9","67dabf62d73b99009d24a016","683db6dfa200031b80f2a654","6865077daffac681a93e28ec","67dabf62d73b99009d24a016","","","","","","","","","","","","","","","","","","","","","","","","","","","","","","","","","","","","","","","","","","","","","",""
"2862","","","{""bonus"":[""When I reach 50% of points""]}","survey-multi-select","37","737818","0.0-8.0-8.1-0.1","48","1","2025-07-02 10:18:47","80fe4187154257d5fb01684ea91b68b9","41.145.195.47","Mozilla/5.0 (Windows NT 10.0; Win64; x64) AppleWebKit/537.36 (KHTML, like Gecko) Chrome/138.0.0.0 Safari/537.36 Edg/138.0.0.0","WebKit","Edge","138.0.0.0","Windows","10.0","https://app.prolific.com/","en-US,en;q=0.9","67dabf62d73b99009d24a016","683db6dfa200031b80f2a654","6865077daffac681a93e28ec","67dabf62d73b99009d24a016","","","[0]","","","","quiz","","","","","","","","","","","","","","","","","","","","","","","","","","","","","","","","","","","","","true","",""
"1944","","<p align='center'><b>CORRECT!</b> Indeed, you receive 2 pounds extra when you reach 50% of points.</p>","0","html-button-response","38","739763","0.0-8.0-8.1-1.1","48","1","2025-07-02 10:18:47","80fe4187154257d5fb01684ea91b68b9","41.145.195.47","Mozilla/5.0 (Windows NT 10.0; Win64; x64) AppleWebKit/537.36 (KHTML, like Gecko) Chrome/138.0.0.0 Safari/537.36 Edg/138.0.0.0","WebKit","Edge","138.0.0.0","Windows","10.0","https://app.prolific.com/","en-US,en;q=0.9","67dabf62d73b99009d24a016","683db6dfa200031b80f2a654","6865077daffac681a93e28ec","67dabf62d73b99009d24a016","","","","","","","","","","","","","","","","","","","","","","","","","","","","","","","","","","","","","","","","","","","","","",""
"3957","","","","instructions","39","743721","0.0-8.0-9.0","48","1","2025-07-02 10:18:47","80fe4187154257d5fb01684ea91b68b9","41.145.195.47","Mozilla/5.0 (Windows NT 10.0; Win64; x64) AppleWebKit/537.36 (KHTML, like Gecko) Chrome/138.0.0.0 Safari/537.36 Edg/138.0.0.0","WebKit","Edge","138.0.0.0","Windows","10.0","https://app.prolific.com/","en-US,en;q=0.9","67dabf62d73b99009d24a016","683db6dfa200031b80f2a654","6865077daffac681a93e28ec","67dabf62d73b99009d24a016","","[{""page_index"":0,""viewing_time"":3957}]","","","","","","","","","","","","","","","","","","","","","","","","","","","","","","","","","","","","","","","","","","","",""
"11067","","<p>Before you start with this game please answer the following three questions yourself. </p>
  <p>Through this game, we measure several aspects of your cognitive performance, such as reaction times, multi-tasking capabilities </p>
  <p>and the ability to assess the situation you are in.</p>
  <p></p>
  <p><b>How good do you usually are in such tasks?</b></p>","39","html-slider-response","40","754790","0.0-9.0-0.0","48","1","2025-07-02 10:18:47","80fe4187154257d5fb01684ea91b68b9","41.145.195.47","Mozilla/5.0 (Windows NT 10.0; Win64; x64) AppleWebKit/537.36 (KHTML, like Gecko) Chrome/138.0.0.0 Safari/537.36 Edg/138.0.0.0","WebKit","Edge","138.0.0.0","Windows","10.0","https://app.prolific.com/","en-US,en;q=0.9","67dabf62d73b99009d24a016","683db6dfa200031b80f2a654","6865077daffac681a93e28ec","67dabf62d73b99009d24a016","2025-07-02T10:31:27.395Z","","","","","","PreSkillQ","","","","","","","","","","","","","","","","","","","","","","","","","","","","","","","","","","","","","","50",""
"8710","","<div style=""width:500px;"">
  <p>How well do you think you will perform in this task compared to other participants?</p>
  </div>","52","html-slider-response","41","763502","0.0-9.0-1.0","48","1","2025-07-02 10:18:47","80fe4187154257d5fb01684ea91b68b9","41.145.195.47","Mozilla/5.0 (Windows NT 10.0; Win64; x64) AppleWebKit/537.36 (KHTML, like Gecko) Chrome/138.0.0.0 Safari/537.36 Edg/138.0.0.0","WebKit","Edge","138.0.0.0","Windows","10.0","https://app.prolific.com/","en-US,en;q=0.9","67dabf62d73b99009d24a016","683db6dfa200031b80f2a654","6865077daffac681a93e28ec","67dabf62d73b99009d24a016","2025-07-02T10:31:36.107Z","","","","","","PrePerfQ","","","","","","","","","","","","","","","","","","","","","","","","","","","","","","","","","","","","","","50",""
"9007","","<div style=""width:500px;"">
  <p>What best describes how you currently feel?</p>
  </div>","30","html-slider-response","42","772513","0.0-9.0-2.0","48","1","2025-07-02 10:18:47","80fe4187154257d5fb01684ea91b68b9","41.145.195.47","Mozilla/5.0 (Windows NT 10.0; Win64; x64) AppleWebKit/537.36 (KHTML, like Gecko) Chrome/138.0.0.0 Safari/537.36 Edg/138.0.0.0","WebKit","Edge","138.0.0.0","Windows","10.0","https://app.prolific.com/","en-US,en;q=0.9","67dabf62d73b99009d24a016","683db6dfa200031b80f2a654","6865077daffac681a93e28ec","67dabf62d73b99009d24a016","2025-07-02T10:31:45.118Z","","","","","","PreMotivationQ","","","","","","","","","","","","","","","","","","","","","","","","","","","","","","","","","","","","","","50",""
"","","","","ctl-task-cpt","43","789971","0.0-10.0-0.0","48","1","2025-07-02 10:18:47","80fe4187154257d5fb01684ea91b68b9","41.145.195.47","Mozilla/5.0 (Windows NT 10.0; Win64; x64) AppleWebKit/537.36 (KHTML, like Gecko) Chrome/138.0.0.0 Safari/537.36 Edg/138.0.0.0","WebKit","Edge","138.0.0.0","Windows","10.0","https://app.prolific.com/","en-US,en;q=0.9","67dabf62d73b99009d24a016","683db6dfa200031b80f2a654","6865077daffac681a93e28ec","67dabf62d73b99009d24a016","2025-07-02T10:32:02.576Z","","","","","","","","","","","","","","","","win-only","1","g1:NE,g2:SW","1","1","0","777936.7","4317.2","9322.4","14435.8","1","4","4","6","2","-4","-4","0","0","0","2553.9","3000","-2205","[""down"",""left""]","{""num_key_presses"":0,""num_perfect"":0,""num_errors"":0,""num_randdir"":0,""num_randdir_good_moves"":0,""num_whilered"":0,""num_whileblue"":0,""num_blue"":0,""num_good_moves"":0}","[251.71428571428572,251.62053571428572,1,251.71428571428572,251.62053571428572,108.4,251.71428571428572,251.62053571428572,214.7,251.71428571428572,251.62053571428572,314.7,251.71428571428572,251.62053571428572,415.4,251.71428571428572,251.62053571428572,515.5,251.71428571428572,251.62053571428572,617.2,251.71428571428572,251.62053571428572,718.9,251.71428571428572,251.62053571428572,829.2,251.71428571428572,251.62053571428572,929.9,251.71428571428572,251.62053571428572,1034.1,251.71428571428572,251.62053571428572,1140.8,251.71428571428572,251.62053571428572,1249,251.71428571428572,251.62053571428572,1349,251.71428571428572,251.62053571428572,1449.8,251.71428571428572,251.62053571428572,1555.9,251.71428571428572,251.62053571428572,1659.4,251.71428571428572,251.62053571428572,1759.8,251.71428571428572,251.62053571428572,1867.9,113.71428571428572,414.6205357142857,1970.8,56.714285714285715,452.6205357142857,2079.6,39.714285714285715,454.6205357142857,2183.8,26.714285714285715,457.6205357142857,2285.1,27.714285714285715,457.6205357142857,2399.5,27.714285714285715,457.6205357142857,2500.4,27.714285714285715,457.6205357142857,2609,27.714285714285715,457.6205357142857,2717.6,27.714285714285715,457.6205357142857,2818.1,27.714285714285715,457.6205357142857,2919.8,27.714285714285715,457.6205357142857,3022.5,27.714285714285715,457.6205357142857,3129.2,27.714285714285715,457.6205357142857,3234.3,27.714285714285715,457.6205357142857,3334.6,27.714285714285715,457.6205357142857,3438.6,27.714285714285715,457.6205357142857,3540.6,62.714285714285715,423.6205357142857,3648.5,77.71428571428572,398.6205357142857,3754.1,177.71428571428572,321.6205357142857,3859,265.7142857142857,248.62053571428572,3959.3,291.7142857142857,205.62053571428572,4059.3,291.7142857142857,206.62053571428572,4159.4,287.7142857142857,217.62053571428572,4259.6,287.7142857142857,217.62053571428572,4367.1,287.7142857142857,217.62053571428572,4473.7,287.7142857142857,217.62053571428572,4585.3,287.7142857142857,217.62053571428572,4685.4,287.7142857142857,217.62053571428572,4799.8,287.7142857142857,217.62053571428572,4904.3]","[]","","",""
"10085","","<div style=""width:500px;"">
  <p>What determined the result of this run?</p>
  </div>","9","html-slider-response","44","800059","0.0-10.0-1.0","48","1","2025-07-02 10:18:47","80fe4187154257d5fb01684ea91b68b9","41.145.195.47","Mozilla/5.0 (Windows NT 10.0; Win64; x64) AppleWebKit/537.36 (KHTML, like Gecko) Chrome/138.0.0.0 Safari/537.36 Edg/138.0.0.0","WebKit","Edge","138.0.0.0","Windows","10.0","https://app.prolific.com/","en-US,en;q=0.9","67dabf62d73b99009d24a016","683db6dfa200031b80f2a654","6865077daffac681a93e28ec","67dabf62d73b99009d24a016","2025-07-02T10:32:12.665Z","","","","","","AttribQ","","","","","","","","","","","","","","","","","","","","","","","","","","","","","","","","","","","","","","50",""
"6196","","<div style=""width:500px;"">
  <p>How much control did you have over the ball?</p>
  </div>","10","html-slider-response","45","806258","0.0-10.0-2.0","48","1","2025-07-02 10:18:47","80fe4187154257d5fb01684ea91b68b9","41.145.195.47","Mozilla/5.0 (Windows NT 10.0; Win64; x64) AppleWebKit/537.36 (KHTML, like Gecko) Chrome/138.0.0.0 Safari/537.36 Edg/138.0.0.0","WebKit","Edge","138.0.0.0","Windows","10.0","https://app.prolific.com/","en-US,en;q=0.9","67dabf62d73b99009d24a016","683db6dfa200031b80f2a654","6865077daffac681a93e28ec","67dabf62d73b99009d24a016","2025-07-02T10:32:18.863Z","","","","","","ControlQ","","","","","","","","","","","","","","","","","","","","","","","","","","","","","","","","","","","","","","50",""
"8429","","<div style=""width:500px;"">
  <p>How would you describe your current emotional state?</p>
  </div>","78","html-slider-response","46","814690","0.0-10.0-3.0","48","1","2025-07-02 10:18:47","80fe4187154257d5fb01684ea91b68b9","41.145.195.47","Mozilla/5.0 (Windows NT 10.0; Win64; x64) AppleWebKit/537.36 (KHTML, like Gecko) Chrome/138.0.0.0 Safari/537.36 Edg/138.0.0.0","WebKit","Edge","138.0.0.0","Windows","10.0","https://app.prolific.com/","en-US,en;q=0.9","67dabf62d73b99009d24a016","683db6dfa200031b80f2a654","6865077daffac681a93e28ec","67dabf62d73b99009d24a016","2025-07-02T10:32:27.295Z","","","","","","StressQ","","","","","","","","","","","","","","","","","","","","","","","","","","","","","","","","","","","","","","50",""
"7154","","<div style=""width:500px;"">
  <p>What best describes how you currently feel?</p>
  </div>","27","html-slider-response","47","821846","0.0-10.0-4.0","48","1","2025-07-02 10:18:47","80fe4187154257d5fb01684ea91b68b9","41.145.195.47","Mozilla/5.0 (Windows NT 10.0; Win64; x64) AppleWebKit/537.36 (KHTML, like Gecko) Chrome/138.0.0.0 Safari/537.36 Edg/138.0.0.0","WebKit","Edge","138.0.0.0","Windows","10.0","https://app.prolific.com/","en-US,en;q=0.9","67dabf62d73b99009d24a016","683db6dfa200031b80f2a654","6865077daffac681a93e28ec","67dabf62d73b99009d24a016","2025-07-02T10:32:34.451Z","","","","","","MotivationQ","","","","","","","","","","","","","","","","","","","","","","","","","","","","","","","","","","","","","","50",""
"","","","","ctl-task-cpt","48","837067","0.0-10.0-0.1","48","1","2025-07-02 10:18:47","80fe4187154257d5fb01684ea91b68b9","41.145.195.47","Mozilla/5.0 (Windows NT 10.0; Win64; x64) AppleWebKit/537.36 (KHTML, like Gecko) Chrome/138.0.0.0 Safari/537.36 Edg/138.0.0.0","WebKit","Edge","138.0.0.0","Windows","10.0","https://app.prolific.com/","en-US,en;q=0.9","67dabf62d73b99009d24a016","683db6dfa200031b80f2a654","6865077daffac681a93e28ec","67dabf62d73b99009d24a016","2025-07-02T10:32:49.672Z","","","","","","","","","","","","","","","","win-only","3","g1:SW,g2:NE","0.9","2","0","827269.5","2148.7","7150.9","12206.7","1","4","8","6","1","-1","-1","0","0","0","2279.9","3000","-2230","[""down"",""left""]","{""num_key_presses"":0,""num_perfect"":0,""num_errors"":0,""num_randdir"":0,""num_randdir_good_moves"":0,""num_whilered"":0,""num_whileblue"":0,""num_blue"":0,""num_good_moves"":0}","[245.71428571428572,248.62053571428572,0.3,245.71428571428572,248.62053571428572,100.1,245.71428571428572,248.62053571428572,201.5,245.71428571428572,248.62053571428572,308.6,245.71428571428572,248.62053571428572,409.8,245.71428571428572,248.62053571428572,516.3,245.71428571428572,248.62053571428572,618,245.71428571428572,248.62053571428572,721.7,245.71428571428572,248.62053571428572,828.6,245.71428571428572,248.62053571428572,933.6,245.71428571428572,248.62053571428572,1038.8,245.71428571428572,248.62053571428572,1148.6,245.71428571428572,248.62053571428572,1258.2,245.71428571428572,248.62053571428572,1359.8,226.71428571428572,271.6205357142857,1466.8,180.71428571428572,334.6205357142857,1572.1,141.71428571428572,387.6205357142857,1679.3,89.71428571428572,421.6205357142857,1779.8,75.71428571428572,423.6205357142857,1882.2,70.71428571428572,425.6205357142857,1982.2,70.71428571428572,424.6205357142857,2084.2,70.71428571428572,424.6205357142857,2187.5,70.71428571428572,424.6205357142857,2288.2,70.71428571428572,424.6205357142857,2399.3,70.71428571428572,424.6205357142857,2499.8,70.71428571428572,424.6205357142857,2603.6,70.71428571428572,424.6205357142857,2708.3,70.71428571428572,424.6205357142857,2815.8,70.71428571428572,424.6205357142857,2915.8,70.71428571428572,424.6205357142857,3015.9,79.71428571428572,409.6205357142857,3120.4,147.71428571428572,315.6205357142857,3221.5,188.71428571428572,269.6205357142857,3325.2,192.71428571428572,265.6205357142857,3428.7,194.71428571428572,265.6205357142857,3528.7,194.71428571428572,272.6205357142857,3631.9,193.71428571428572,280.6205357142857,3732.6,195.71428571428572,283.6205357142857,3837.7,197.71428571428572,286.6205357142857,3950.1,197.71428571428572,286.6205357142857,4058.6,197.71428571428572,286.6205357142857,4165.6,197.71428571428572,286.6205357142857,4267,197.71428571428572,286.6205357142857,4367,197.71428571428572,286.6205357142857,4470,197.71428571428572,286.6205357142857,4579.5,197.71428571428572,286.6205357142857,4682.7,197.71428571428572,286.6205357142857,4798.7,197.71428571428572,286.6205357142857,4899.9]","[]","","",""
"3753","","<div style=""width:500px;"">
  <p>What determined the result of this run?</p>
  </div>","19","html-slider-response","49","840823","0.0-10.0-1.1","48","1","2025-07-02 10:18:47","80fe4187154257d5fb01684ea91b68b9","41.145.195.47","Mozilla/5.0 (Windows NT 10.0; Win64; x64) AppleWebKit/537.36 (KHTML, like Gecko) Chrome/138.0.0.0 Safari/537.36 Edg/138.0.0.0","WebKit","Edge","138.0.0.0","Windows","10.0","https://app.prolific.com/","en-US,en;q=0.9","67dabf62d73b99009d24a016","683db6dfa200031b80f2a654","6865077daffac681a93e28ec","67dabf62d73b99009d24a016","2025-07-02T10:32:53.428Z","","","","","","AttribQ","","","","","","","","","","","","","","","","","","","","","","","","","","","","","","","","","","","","","","50",""
"5109","","<div style=""width:500px;"">
  <p>How much control did you have over the ball?</p>
  </div>","0","html-slider-response","50","845933","0.0-10.0-2.1","48","1","2025-07-02 10:18:47","80fe4187154257d5fb01684ea91b68b9","41.145.195.47","Mozilla/5.0 (Windows NT 10.0; Win64; x64) AppleWebKit/537.36 (KHTML, like Gecko) Chrome/138.0.0.0 Safari/537.36 Edg/138.0.0.0","WebKit","Edge","138.0.0.0","Windows","10.0","https://app.prolific.com/","en-US,en;q=0.9","67dabf62d73b99009d24a016","683db6dfa200031b80f2a654","6865077daffac681a93e28ec","67dabf62d73b99009d24a016","2025-07-02T10:32:58.538Z","","","","","","ControlQ","","","","","","","","","","","","","","","","","","","","","","","","","","","","","","","","","","","","","","50",""
"6544","","<div style=""width:500px;"">
  <p>How would you describe your current emotional state?</p>
  </div>","72","html-slider-response","51","852477","0.0-10.0-3.1","48","1","2025-07-02 10:18:47","80fe4187154257d5fb01684ea91b68b9","41.145.195.47","Mozilla/5.0 (Windows NT 10.0; Win64; x64) AppleWebKit/537.36 (KHTML, like Gecko) Chrome/138.0.0.0 Safari/537.36 Edg/138.0.0.0","WebKit","Edge","138.0.0.0","Windows","10.0","https://app.prolific.com/","en-US,en;q=0.9","67dabf62d73b99009d24a016","683db6dfa200031b80f2a654","6865077daffac681a93e28ec","67dabf62d73b99009d24a016","2025-07-02T10:33:05.082Z","","","","","","StressQ","","","","","","","","","","","","","","","","","","","","","","","","","","","","","","","","","","","","","","50",""
"4725","","<div style=""width:500px;"">
  <p>What best describes how you currently feel?</p>
  </div>","5","html-slider-response","52","857203","0.0-10.0-4.1","48","1","2025-07-02 10:18:47","80fe4187154257d5fb01684ea91b68b9","41.145.195.47","Mozilla/5.0 (Windows NT 10.0; Win64; x64) AppleWebKit/537.36 (KHTML, like Gecko) Chrome/138.0.0.0 Safari/537.36 Edg/138.0.0.0","WebKit","Edge","138.0.0.0","Windows","10.0","https://app.prolific.com/","en-US,en;q=0.9","67dabf62d73b99009d24a016","683db6dfa200031b80f2a654","6865077daffac681a93e28ec","67dabf62d73b99009d24a016","2025-07-02T10:33:09.808Z","","","","","","MotivationQ","","","","","","","","","","","","","","","","","","","","","","","","","","","","","","","","","","","","","","50",""
"","","","","ctl-task-cpt","53","880826","0.0-10.0-0.2","48","1","2025-07-02 10:18:47","80fe4187154257d5fb01684ea91b68b9","41.145.195.47","Mozilla/5.0 (Windows NT 10.0; Win64; x64) AppleWebKit/537.36 (KHTML, like Gecko) Chrome/138.0.0.0 Safari/537.36 Edg/138.0.0.0","WebKit","Edge","138.0.0.0","Windows","10.0","https://app.prolific.com/","en-US,en;q=0.9","67dabf62d73b99009d24a016","683db6dfa200031b80f2a654","6865077daffac681a93e28ec","67dabf62d73b99009d24a016","2025-07-02T10:33:33.431Z","","","","","","","","","","","","","","","","win-only","0","g1:NW,g2:SE","0.8","3","0","862624.1","7760.1","12763","20606.7","1","4","4","6","1","-1","-1","0","0","0","2142","3000","-2355","[""left"",""up""]","{""num_key_presses"":0,""num_perfect"":0,""num_errors"":0,""num_randdir"":0,""num_randdir_good_moves"":0,""num_whilered"":0,""num_whileblue"":0,""num_blue"":1,""num_good_moves"":0}","[248.71428571428572,248.62053571428572,0.7,248.71428571428572,248.62053571428572,102.6,248.71428571428572,248.62053571428572,213.4,248.71428571428572,248.62053571428572,315.6,248.71428571428572,248.62053571428572,423.8,248.71428571428572,248.62053571428572,530.2,248.71428571428572,248.62053571428572,635,248.71428571428572,248.62053571428572,735.2,248.71428571428572,248.62053571428572,842.5,248.71428571428572,248.62053571428572,942.8,111.71428571428572,154.62053571428572,1046.3,61.714285714285715,110.62053571428572,1148.4,61.714285714285715,110.62053571428572,1252.7,53.714285714285715,101.62053571428572,1362.9,42.714285714285715,94.62053571428572,1463.3,42.714285714285715,94.62053571428572,1568.3,42.714285714285715,94.62053571428572,1681.7,36.714285714285715,60.620535714285715,1782.5,34.714285714285715,56.620535714285715,1892.4,34.714285714285715,57.620535714285715,1993.7,34.714285714285715,57.620535714285715,2094.2,34.714285714285715,57.620535714285715,2197,34.714285714285715,57.620535714285715,2297.8,34.714285714285715,57.620535714285715,2403.7,34.714285714285715,57.620535714285715,2505.3,34.714285714285715,57.620535714285715,2612.2,104.71428571428572,78.62053571428572,2714.1,188.71428571428572,139.62053571428572,2818.9,193.71428571428572,156.62053571428572,2920.4,195.71428571428572,163.62053571428572,3021,196.71428571428572,165.62053571428572,3122.9,198.71428571428572,167.62053571428572,3224.1,201.71428571428572,168.62053571428572,3326.4,206.71428571428572,169.62053571428572,3429.7,213.71428571428572,176.62053571428572,3530.9,221.71428571428572,186.62053571428572,3635.2,224.71428571428572,199.62053571428572,3742.2,224.71428571428572,203.62053571428572,3842.3,224.71428571428572,205.62053571428572,3943.6,224.71428571428572,205.62053571428572,4046.6,224.71428571428572,205.62053571428572,4146.6,224.71428571428572,205.62053571428572,4247.2,224.71428571428572,205.62053571428572,4353.1,224.71428571428572,205.62053571428572,4453.1,224.71428571428572,205.62053571428572,4562.6,224.71428571428572,205.62053571428572,4662.8,224.71428571428572,205.62053571428572,4763,224.71428571428572,205.62053571428572,4865.5,224.71428571428572,206.62053571428572,4973.7]","[]","","",""
"4533","","<div style=""width:500px;"">
  <p>What determined the result of this run?</p>
  </div>","1","html-slider-response","54","885361","0.0-10.0-1.2","48","1","2025-07-02 10:18:47","80fe4187154257d5fb01684ea91b68b9","41.145.195.47","Mozilla/5.0 (Windows NT 10.0; Win64; x64) AppleWebKit/537.36 (KHTML, like Gecko) Chrome/138.0.0.0 Safari/537.36 Edg/138.0.0.0","WebKit","Edge","138.0.0.0","Windows","10.0","https://app.prolific.com/","en-US,en;q=0.9","67dabf62d73b99009d24a016","683db6dfa200031b80f2a654","6865077daffac681a93e28ec","67dabf62d73b99009d24a016","2025-07-02T10:33:37.966Z","","","","","","AttribQ","","","","","","","","","","","","","","","","","","","","","","","","","","","","","","","","","","","","","","50",""
"3538","","<div style=""width:500px;"">
  <p>How much control did you have over the ball?</p>
  </div>","23","html-slider-response","55","888900","0.0-10.0-2.2","48","1","2025-07-02 10:18:47","80fe4187154257d5fb01684ea91b68b9","41.145.195.47","Mozilla/5.0 (Windows NT 10.0; Win64; x64) AppleWebKit/537.36 (KHTML, like Gecko) Chrome/138.0.0.0 Safari/537.36 Edg/138.0.0.0","WebKit","Edge","138.0.0.0","Windows","10.0","https://app.prolific.com/","en-US,en;q=0.9","67dabf62d73b99009d24a016","683db6dfa200031b80f2a654","6865077daffac681a93e28ec","67dabf62d73b99009d24a016","2025-07-02T10:33:41.505Z","","","","","","ControlQ","","","","","","","","","","","","","","","","","","","","","","","","","","","","","","","","","","","","","","50",""
"3773","","<div style=""width:500px;"">
  <p>How would you describe your current emotional state?</p>
  </div>","78","html-slider-response","56","892674","0.0-10.0-3.2","48","1","2025-07-02 10:18:47","80fe4187154257d5fb01684ea91b68b9","41.145.195.47","Mozilla/5.0 (Windows NT 10.0; Win64; x64) AppleWebKit/537.36 (KHTML, like Gecko) Chrome/138.0.0.0 Safari/537.36 Edg/138.0.0.0","WebKit","Edge","138.0.0.0","Windows","10.0","https://app.prolific.com/","en-US,en;q=0.9","67dabf62d73b99009d24a016","683db6dfa200031b80f2a654","6865077daffac681a93e28ec","67dabf62d73b99009d24a016","2025-07-02T10:33:45.279Z","","","","","","StressQ","","","","","","","","","","","","","","","","","","","","","","","","","","","","","","","","","","","","","","50",""
"3591","","<div style=""width:500px;"">
  <p>What best describes how you currently feel?</p>
  </div>","17","html-slider-response","57","896267","0.0-10.0-4.2","48","1","2025-07-02 10:18:47","80fe4187154257d5fb01684ea91b68b9","41.145.195.47","Mozilla/5.0 (Windows NT 10.0; Win64; x64) AppleWebKit/537.36 (KHTML, like Gecko) Chrome/138.0.0.0 Safari/537.36 Edg/138.0.0.0","WebKit","Edge","138.0.0.0","Windows","10.0","https://app.prolific.com/","en-US,en;q=0.9","67dabf62d73b99009d24a016","683db6dfa200031b80f2a654","6865077daffac681a93e28ec","67dabf62d73b99009d24a016","2025-07-02T10:33:48.872Z","","","","","","MotivationQ","","","","","","","","","","","","","","","","","","","","","","","","","","","","","","","","","","","","","","50",""
"","","","","ctl-task-cpt","58","912682","0.0-10.0-0.3","48","1","2025-07-02 10:18:47","80fe4187154257d5fb01684ea91b68b9","41.145.195.47","Mozilla/5.0 (Windows NT 10.0; Win64; x64) AppleWebKit/537.36 (KHTML, like Gecko) Chrome/138.0.0.0 Safari/537.36 Edg/138.0.0.0","WebKit","Edge","138.0.0.0","Windows","10.0","https://app.prolific.com/","en-US,en;q=0.9","67dabf62d73b99009d24a016","683db6dfa200031b80f2a654","6865077daffac681a93e28ec","67dabf62d73b99009d24a016","2025-07-02T10:34:05.287Z","","","","","","","","","","","","","","","","win-only","3","g1:SW,g2:NE","0.7","4","0","901687.6","3208.5","8213.6","13399.1","1","4","8","6","2","-8","-8","0","0","0","2741.6","3000","-2270","[""up"",""right""]","{""num_key_presses"":0,""num_perfect"":0,""num_errors"":0,""num_randdir"":0,""num_randdir_good_moves"":0,""num_whilered"":0,""num_whileblue"":0,""num_blue"":0,""num_good_moves"":0}","[250.71428571428572,251.62053571428572,0.3,250.71428571428572,251.62053571428572,101.1,250.71428571428572,251.62053571428572,202.1,250.71428571428572,251.62053571428572,304.7,250.71428571428572,251.62053571428572,410.1,250.71428571428572,251.62053571428572,515.7,250.71428571428572,251.62053571428572,620.7,250.71428571428572,251.62053571428572,729.5,250.71428571428572,251.62053571428572,833.2,238.71428571428572,265.6205357142857,940.3,224.71428571428572,281.6205357142857,1049,223.71428571428572,282.6205357142857,1158.5,223.71428571428572,281.6205357142857,1267.4,223.71428571428572,280.6205357142857,1371.3,223.71428571428572,280.6205357142857,1478.8,223.71428571428572,280.6205357142857,1579.3,223.71428571428572,280.6205357142857,1684.7,223.71428571428572,280.6205357142857,1789.1,223.71428571428572,280.6205357142857,1899.4,223.71428571428572,280.6205357142857,2005.6,412.7142857142857,42.620535714285715,2108.4,466.7142857142857,-7.379464285714285,2209.3,467.7142857142857,-3.3794642857142847,2314.3,471.7142857142857,8.620535714285715,2416,481.7142857142857,35.620535714285715,2518.1,481.7142857142857,35.620535714285715,2618.4,481.7142857142857,35.620535714285715,2721.5,481.7142857142857,35.620535714285715,2829.8,481.7142857142857,35.620535714285715,2932.7,481.7142857142857,35.620535714285715,3038.8,481.7142857142857,35.620535714285715,3139.6,481.7142857142857,35.620535714285715,3249,406.7142857142857,102.62053571428572,3352.1,309.7142857142857,183.62053571428572,3454.4,267.7142857142857,224.62053571428572,3559.6,240.71428571428572,248.62053571428572,3664.9,240.71428571428572,249.62053571428572,3765.8,240.71428571428572,249.62053571428572,3865.8,240.71428571428572,249.62053571428572,3967.4,240.71428571428572,249.62053571428572,4067.6,236.71428571428572,256.6205357142857,4170.7,234.71428571428572,260.6205357142857,4279.1,232.71428571428572,266.6205357142857,4383.3,230.71428571428572,272.6205357142857,4488.9,226.71428571428572,281.6205357142857,4591.4,224.71428571428572,288.6205357142857,4699.1,224.71428571428572,289.6205357142857,4808.4,224.71428571428572,289.6205357142857,4915]","[]","","",""
"30103","","<div style=""width:500px;"">
  <p>What determined the result of this run?</p>
  </div>","0","html-slider-response","59","942787","0.0-10.0-1.3","48","1","2025-07-02 10:18:47","80fe4187154257d5fb01684ea91b68b9","41.145.195.47","Mozilla/5.0 (Windows NT 10.0; Win64; x64) AppleWebKit/537.36 (KHTML, like Gecko) Chrome/138.0.0.0 Safari/537.36 Edg/138.0.0.0","WebKit","Edge","138.0.0.0","Windows","10.0","https://app.prolific.com/","en-US,en;q=0.9","67dabf62d73b99009d24a016","683db6dfa200031b80f2a654","6865077daffac681a93e28ec","67dabf62d73b99009d24a016","2025-07-02T10:34:35.392Z","","","","","","AttribQ","","","","","","","","","","","","","","","","","","","","","","","","","","","","","","","","","","","","","","50",""
"6711","","<div style=""width:500px;"">
  <p>How much control did you have over the ball?</p>
  </div>","0","html-slider-response","60","949500","0.0-10.0-2.3","48","1","2025-07-02 10:18:47","80fe4187154257d5fb01684ea91b68b9","41.145.195.47","Mozilla/5.0 (Windows NT 10.0; Win64; x64) AppleWebKit/537.36 (KHTML, like Gecko) Chrome/138.0.0.0 Safari/537.36 Edg/138.0.0.0","WebKit","Edge","138.0.0.0","Windows","10.0","https://app.prolific.com/","en-US,en;q=0.9","67dabf62d73b99009d24a016","683db6dfa200031b80f2a654","6865077daffac681a93e28ec","67dabf62d73b99009d24a016","2025-07-02T10:34:42.105Z","","","","","","ControlQ","","","","","","","","","","","","","","","","","","","","","","","","","","","","","","","","","","","","","","50",""
"7269","","<div style=""width:500px;"">
  <p>How would you describe your current emotional state?</p>
  </div>","96","html-slider-response","61","956770","0.0-10.0-3.3","48","1","2025-07-02 10:18:47","80fe4187154257d5fb01684ea91b68b9","41.145.195.47","Mozilla/5.0 (Windows NT 10.0; Win64; x64) AppleWebKit/537.36 (KHTML, like Gecko) Chrome/138.0.0.0 Safari/537.36 Edg/138.0.0.0","WebKit","Edge","138.0.0.0","Windows","10.0","https://app.prolific.com/","en-US,en;q=0.9","67dabf62d73b99009d24a016","683db6dfa200031b80f2a654","6865077daffac681a93e28ec","67dabf62d73b99009d24a016","2025-07-02T10:34:49.375Z","","","","","","StressQ","","","","","","","","","","","","","","","","","","","","","","","","","","","","","","","","","","","","","","50",""
"13120","","<div style=""width:500px;"">
  <p>What best describes how you currently feel?</p>
  </div>","4","html-slider-response","62","969891","0.0-10.0-4.3","48","1","2025-07-02 10:18:47","80fe4187154257d5fb01684ea91b68b9","41.145.195.47","Mozilla/5.0 (Windows NT 10.0; Win64; x64) AppleWebKit/537.36 (KHTML, like Gecko) Chrome/138.0.0.0 Safari/537.36 Edg/138.0.0.0","WebKit","Edge","138.0.0.0","Windows","10.0","https://app.prolific.com/","en-US,en;q=0.9","67dabf62d73b99009d24a016","683db6dfa200031b80f2a654","6865077daffac681a93e28ec","67dabf62d73b99009d24a016","2025-07-02T10:35:02.496Z","","","","","","MotivationQ","","","","","","","","","","","","","","","","","","","","","","","","","","","","","","","","","","","","","","50",""
"","","","","ctl-task-cpt","63","992451","0.0-10.0-0.4","48","1","2025-07-02 10:18:47","80fe4187154257d5fb01684ea91b68b9","41.145.195.47","Mozilla/5.0 (Windows NT 10.0; Win64; x64) AppleWebKit/537.36 (KHTML, like Gecko) Chrome/138.0.0.0 Safari/537.36 Edg/138.0.0.0","WebKit","Edge","138.0.0.0","Windows","10.0","https://app.prolific.com/","en-US,en;q=0.9","67dabf62d73b99009d24a016","683db6dfa200031b80f2a654","6865077daffac681a93e28ec","67dabf62d73b99009d24a016","2025-07-02T10:35:25.056Z","","","","","","","","","","","","","","","","win-only","2","g1:SE,g2:NW","0.6","5","0","975312.7","8795.9","13797.5","19547.6","1","4","8","6","1","-1","-1","0","0","0","2491.5","3000","-1905","[""down"",""right""]","{""num_key_presses"":0,""num_perfect"":0,""num_errors"":0,""num_randdir"":0,""num_randdir_good_moves"":0,""num_whilered"":0,""num_whileblue"":0,""num_blue"":0,""num_good_moves"":0}","[248.71428571428572,250.62053571428572,0.7,248.71428571428572,250.62053571428572,101.9,248.71428571428572,250.62053571428572,216.1,248.71428571428572,250.62053571428572,316.1,248.71428571428572,250.62053571428572,416.7,248.71428571428572,250.62053571428572,521.6,248.71428571428572,250.62053571428572,630.3,248.71428571428572,250.62053571428572,731.4,248.71428571428572,250.62053571428572,833.1,248.71428571428572,250.62053571428572,933.3,196.71428571428572,211.62053571428572,1040.5,249.71428571428572,255.62053571428572,1150.5,260.7142857142857,277.6205357142857,1259.7,260.7142857142857,277.6205357142857,1365.8,260.7142857142857,277.6205357142857,1470.8,312.7142857142857,313.6205357142857,1571.2,393.7142857142857,380.6205357142857,1679,433.7142857142857,426.6205357142857,1780.3,433.7142857142857,428.6205357142857,1881.4,433.7142857142857,428.6205357142857,1988,433.7142857142857,428.6205357142857,2090.9,441.7142857142857,435.6205357142857,2199.4,445.7142857142857,439.6205357142857,2301.5,445.7142857142857,439.6205357142857,2416.2,445.7142857142857,439.6205357142857,2520.4,445.7142857142857,439.6205357142857,2630.9,445.7142857142857,439.6205357142857,2730.9,445.7142857142857,439.6205357142857,2832.3,445.7142857142857,439.6205357142857,2932.4,445.7142857142857,439.6205357142857,3035.8,445.7142857142857,439.6205357142857,3140.8,445.7142857142857,439.6205357142857,3241.1,445.7142857142857,439.6205357142857,3346.8,445.7142857142857,439.6205357142857,3449.2,445.7142857142857,439.6205357142857,3549.8,445.7142857142857,439.6205357142857,3649.8,445.7142857142857,439.6205357142857,3760.6,445.7142857142857,439.6205357142857,3860.8,445.7142857142857,439.6205357142857,3965.6,445.7142857142857,439.6205357142857,4066.3,445.7142857142857,439.6205357142857,4166.5,445.7142857142857,439.6205357142857,4281.6,445.7142857142857,439.6205357142857,4390.6,445.7142857142857,439.6205357142857,4500.6,445.7142857142857,439.6205357142857,4600.6,445.7142857142857,439.6205357142857,4701.5,445.7142857142857,439.6205357142857,4802.4,445.7142857142857,439.6205357142857,4905.9]","[]","","",""
"10723","","<div style=""width:500px;"">
  <p>What determined the result of this run?</p>
  </div>","0","html-slider-response","64","1003175","0.0-10.0-1.4","48","1","2025-07-02 10:18:47","80fe4187154257d5fb01684ea91b68b9","41.145.195.47","Mozilla/5.0 (Windows NT 10.0; Win64; x64) AppleWebKit/537.36 (KHTML, like Gecko) Chrome/138.0.0.0 Safari/537.36 Edg/138.0.0.0","WebKit","Edge","138.0.0.0","Windows","10.0","https://app.prolific.com/","en-US,en;q=0.9","67dabf62d73b99009d24a016","683db6dfa200031b80f2a654","6865077daffac681a93e28ec","67dabf62d73b99009d24a016","2025-07-02T10:35:35.780Z","","","","","","AttribQ","","","","","","","","","","","","","","","","","","","","","","","","","","","","","","","","","","","","","","50",""
"10329","","<div style=""width:500px;"">
  <p>How much control did you have over the ball?</p>
  </div>","4","html-slider-response","65","1013506","0.0-10.0-2.4","48","1","2025-07-02 10:18:47","80fe4187154257d5fb01684ea91b68b9","41.145.195.47","Mozilla/5.0 (Windows NT 10.0; Win64; x64) AppleWebKit/537.36 (KHTML, like Gecko) Chrome/138.0.0.0 Safari/537.36 Edg/138.0.0.0","WebKit","Edge","138.0.0.0","Windows","10.0","https://app.prolific.com/","en-US,en;q=0.9","67dabf62d73b99009d24a016","683db6dfa200031b80f2a654","6865077daffac681a93e28ec","67dabf62d73b99009d24a016","2025-07-02T10:35:46.111Z","","","","","","ControlQ","","","","","","","","","","","","","","","","","","","","","","","","","","","","","","","","","","","","","","50",""
"4991","","<div style=""width:500px;"">
  <p>How would you describe your current emotional state?</p>
  </div>","100","html-slider-response","66","1018499","0.0-10.0-3.4","48","1","2025-07-02 10:18:47","80fe4187154257d5fb01684ea91b68b9","41.145.195.47","Mozilla/5.0 (Windows NT 10.0; Win64; x64) AppleWebKit/537.36 (KHTML, like Gecko) Chrome/138.0.0.0 Safari/537.36 Edg/138.0.0.0","WebKit","Edge","138.0.0.0","Windows","10.0","https://app.prolific.com/","en-US,en;q=0.9","67dabf62d73b99009d24a016","683db6dfa200031b80f2a654","6865077daffac681a93e28ec","67dabf62d73b99009d24a016","2025-07-02T10:35:51.104Z","","","","","","StressQ","","","","","","","","","","","","","","","","","","","","","","","","","","","","","","","","","","","","","","50",""
"7177","","<div style=""width:500px;"">
  <p>What best describes how you currently feel?</p>
  </div>","6","html-slider-response","67","1025676","0.0-10.0-4.4","48","1","2025-07-02 10:18:47","80fe4187154257d5fb01684ea91b68b9","41.145.195.47","Mozilla/5.0 (Windows NT 10.0; Win64; x64) AppleWebKit/537.36 (KHTML, like Gecko) Chrome/138.0.0.0 Safari/537.36 Edg/138.0.0.0","WebKit","Edge","138.0.0.0","Windows","10.0","https://app.prolific.com/","en-US,en;q=0.9","67dabf62d73b99009d24a016","683db6dfa200031b80f2a654","6865077daffac681a93e28ec","67dabf62d73b99009d24a016","2025-07-02T10:35:58.281Z","","","","","","MotivationQ","","","","","","","","","","","","","","","","","","","","","","","","","","","","","","","","","","","","","","50",""
"","","","","ctl-task-cpt","68","1045122","0.0-10.0-0.5","48","1","2025-07-02 10:18:47","80fe4187154257d5fb01684ea91b68b9","41.145.195.47","Mozilla/5.0 (Windows NT 10.0; Win64; x64) AppleWebKit/537.36 (KHTML, like Gecko) Chrome/138.0.0.0 Safari/537.36 Edg/138.0.0.0","WebKit","Edge","138.0.0.0","Windows","10.0","https://app.prolific.com/","en-US,en;q=0.9","67dabf62d73b99009d24a016","683db6dfa200031b80f2a654","6865077daffac681a93e28ec","67dabf62d73b99009d24a016","2025-07-02T10:36:17.727Z","","","","","","","","","","","","","","","","win-only","1","g1:NE,g2:SW","0.5","6","0","1031097.1","2060.3","7065.3","16440.7","1","4","4","6","1","-1","-1","0","0","0","5005","3000","-2060","[""up"",""right""]","{""num_key_presses"":0,""num_perfect"":0,""num_errors"":0,""num_randdir"":0,""num_randdir_good_moves"":0,""num_whilered"":0,""num_whileblue"":0,""num_blue"":1,""num_good_moves"":0}","[252.71428571428572,249.62053571428572,0.4,252.71428571428572,249.62053571428572,100.9,252.71428571428572,249.62053571428572,209.1,252.71428571428572,249.62053571428572,313.5,252.71428571428572,249.62053571428572,423.9,252.71428571428572,249.62053571428572,524.1,252.71428571428572,249.62053571428572,624.6,252.71428571428572,249.62053571428572,724.8,251.71428571428572,241.62053571428572,825.7,243.71428571428572,243.62053571428572,927.9,147.71428571428572,370.6205357142857,1030.4,95.71428571428572,439.6205357142857,1132,73.71428571428572,456.6205357142857,1239.3,71.71428571428572,456.6205357142857,1343.7,71.71428571428572,456.6205357142857,1445.5,71.71428571428572,456.6205357142857,1546,71.71428571428572,456.6205357142857,1653.3,66.71428571428572,454.6205357142857,1762.4,66.71428571428572,454.6205357142857,1874.2,66.71428571428572,454.6205357142857,1979.2,66.71428571428572,454.6205357142857,2080.1,66.71428571428572,454.6205357142857,2180.5,66.71428571428572,454.6205357142857,2280.7,66.71428571428572,454.6205357142857,2383.1,66.71428571428572,454.6205357142857,2485.4,66.71428571428572,454.6205357142857,2589.8,66.71428571428572,454.6205357142857,2691.1,66.71428571428572,454.6205357142857,2793.7,66.71428571428572,454.6205357142857,2896.1,66.71428571428572,454.6205357142857,3004.3,66.71428571428572,454.6205357142857,3112.2,66.71428571428572,454.6205357142857,3223.5,66.71428571428572,454.6205357142857,3323.5,66.71428571428572,454.6205357142857,3423.7,66.71428571428572,454.6205357142857,3523.8,66.71428571428572,454.6205357142857,3623.8,66.71428571428572,454.6205357142857,3723.9,66.71428571428572,454.6205357142857,3830.2,66.71428571428572,454.6205357142857,3932.3,66.71428571428572,454.6205357142857,4043.8,66.71428571428572,454.6205357142857,4145.3,66.71428571428572,454.6205357142857,4245.7,66.71428571428572,454.6205357142857,4345.7,66.71428571428572,454.6205357142857,4447.4,66.71428571428572,454.6205357142857,4554.7,66.71428571428572,454.6205357142857,4654.9,66.71428571428572,454.6205357142857,4755.8,66.71428571428572,454.6205357142857,4856,66.71428571428572,454.6205357142857,4962.6]","[]","","",""
"8189","","<div style=""width:500px;"">
  <p>What determined the result of this run?</p>
  </div>","2","html-slider-response","69","1053312","0.0-10.0-1.5","48","1","2025-07-02 10:18:47","80fe4187154257d5fb01684ea91b68b9","41.145.195.47","Mozilla/5.0 (Windows NT 10.0; Win64; x64) AppleWebKit/537.36 (KHTML, like Gecko) Chrome/138.0.0.0 Safari/537.36 Edg/138.0.0.0","WebKit","Edge","138.0.0.0","Windows","10.0","https://app.prolific.com/","en-US,en;q=0.9","67dabf62d73b99009d24a016","683db6dfa200031b80f2a654","6865077daffac681a93e28ec","67dabf62d73b99009d24a016","2025-07-02T10:36:25.917Z","","","","","","AttribQ","","","","","","","","","","","","","","","","","","","","","","","","","","","","","","","","","","","","","","50",""
"7073","","<div style=""width:500px;"">
  <p>How much control did you have over the ball?</p>
  </div>","0","html-slider-response","70","1060386","0.0-10.0-2.5","48","1","2025-07-02 10:18:47","80fe4187154257d5fb01684ea91b68b9","41.145.195.47","Mozilla/5.0 (Windows NT 10.0; Win64; x64) AppleWebKit/537.36 (KHTML, like Gecko) Chrome/138.0.0.0 Safari/537.36 Edg/138.0.0.0","WebKit","Edge","138.0.0.0","Windows","10.0","https://app.prolific.com/","en-US,en;q=0.9","67dabf62d73b99009d24a016","683db6dfa200031b80f2a654","6865077daffac681a93e28ec","67dabf62d73b99009d24a016","2025-07-02T10:36:32.992Z","","","","","","ControlQ","","","","","","","","","","","","","","","","","","","","","","","","","","","","","","","","","","","","","","50",""
"3349","","<div style=""width:500px;"">
  <p>How would you describe your current emotional state?</p>
  </div>","22","html-slider-response","71","1063736","0.0-10.0-3.5","48","1","2025-07-02 10:18:47","80fe4187154257d5fb01684ea91b68b9","41.145.195.47","Mozilla/5.0 (Windows NT 10.0; Win64; x64) AppleWebKit/537.36 (KHTML, like Gecko) Chrome/138.0.0.0 Safari/537.36 Edg/138.0.0.0","WebKit","Edge","138.0.0.0","Windows","10.0","https://app.prolific.com/","en-US,en;q=0.9","67dabf62d73b99009d24a016","683db6dfa200031b80f2a654","6865077daffac681a93e28ec","67dabf62d73b99009d24a016","2025-07-02T10:36:36.341Z","","","","","","StressQ","","","","","","","","","","","","","","","","","","","","","","","","","","","","","","","","","","","","","","50",""
"21212","","<div style=""width:500px;"">
  <p>What best describes how you currently feel?</p>
  </div>","19","html-slider-response","72","1084950","0.0-10.0-4.5","48","1","2025-07-02 10:18:47","80fe4187154257d5fb01684ea91b68b9","41.145.195.47","Mozilla/5.0 (Windows NT 10.0; Win64; x64) AppleWebKit/537.36 (KHTML, like Gecko) Chrome/138.0.0.0 Safari/537.36 Edg/138.0.0.0","WebKit","Edge","138.0.0.0","Windows","10.0","https://app.prolific.com/","en-US,en;q=0.9","67dabf62d73b99009d24a016","683db6dfa200031b80f2a654","6865077daffac681a93e28ec","67dabf62d73b99009d24a016","2025-07-02T10:36:57.555Z","","","","","","MotivationQ","","","","","","","","","","","","","","","","","","","","","","","","","","","","","","","","","","","","","","50",""
"","","","","ctl-task-cpt","73","1102311","0.0-10.0-0.6","48","1","2025-07-02 10:18:47","80fe4187154257d5fb01684ea91b68b9","41.145.195.47","Mozilla/5.0 (Windows NT 10.0; Win64; x64) AppleWebKit/537.36 (KHTML, like Gecko) Chrome/138.0.0.0 Safari/537.36 Edg/138.0.0.0","WebKit","Edge","138.0.0.0","Windows","10.0","https://app.prolific.com/","en-US,en;q=0.9","67dabf62d73b99009d24a016","683db6dfa200031b80f2a654","6865077daffac681a93e28ec","67dabf62d73b99009d24a016","2025-07-02T10:37:14.916Z","","","","","","","","","","","","","","","","win-only","1","g1:NE,g2:SW","0.4","7","0","1090370.7","4400.2","9401.8","14342.4","1","4","4","6","1","-1","-1","0","0","0","4469.5","3000","-2230","[""up"",""right""]","{""num_key_presses"":0,""num_perfect"":0,""num_errors"":0,""num_randdir"":0,""num_randdir_good_moves"":0,""num_whilered"":0,""num_whileblue"":0,""num_blue"":0,""num_good_moves"":0}","[250.71428571428572,248.62053571428572,0.4,250.71428571428572,248.62053571428572,107.9,250.71428571428572,248.62053571428572,208.8,250.71428571428572,248.62053571428572,313,250.71428571428572,248.62053571428572,417.6,250.71428571428572,248.62053571428572,527.3,250.71428571428572,248.62053571428572,637.4,250.71428571428572,248.62053571428572,737.6,250.71428571428572,248.62053571428572,838.5,250.71428571428572,248.62053571428572,946.2,250.71428571428572,248.62053571428572,1047.6,250.71428571428572,248.62053571428572,1150.6,250.71428571428572,248.62053571428572,1250.6,250.71428571428572,248.62053571428572,1350.6,250.71428571428572,248.62053571428572,1457.7,250.71428571428572,248.62053571428572,1560.3,250.71428571428572,248.62053571428572,1660.4,250.71428571428572,248.62053571428572,1768,250.71428571428572,248.62053571428572,1868.1,250.71428571428572,248.62053571428572,1968.4,250.71428571428572,248.62053571428572,2078.4,250.71428571428572,248.62053571428572,2180.3,250.71428571428572,248.62053571428572,2281.7,250.71428571428572,248.62053571428572,2388.6,250.71428571428572,248.62053571428572,2492.7,250.71428571428572,248.62053571428572,2592.7,250.71428571428572,248.62053571428572,2692.8,250.71428571428572,248.62053571428572,2798.9,250.71428571428572,232.62053571428572,2900.4,268.7142857142857,199.62053571428572,3007.2,310.7142857142857,164.62053571428572,3107.7,323.7142857142857,148.62053571428572,3211,323.7142857142857,148.62053571428572,3312.9,323.7142857142857,148.62053571428572,3415.9,345.7142857142857,135.62053571428572,3517.6,401.7142857142857,102.62053571428572,3627.1,425.7142857142857,82.62053571428572,3730.6,433.7142857142857,72.62053571428572,3831.8,433.7142857142857,70.62053571428572,3932.9,436.7142857142857,66.62053571428572,4037.6,436.7142857142857,66.62053571428572,4142.7,436.7142857142857,66.62053571428572,4242.7,436.7142857142857,66.62053571428572,4342.7,436.7142857142857,66.62053571428572,4444.8,436.7142857142857,66.62053571428572,4546.4,436.7142857142857,66.62053571428572,4657.9,436.7142857142857,66.62053571428572,4761.5,436.7142857142857,66.62053571428572,4868.1,436.7142857142857,66.62053571428572,4977.8]","[]","","",""
"4935","","<div style=""width:500px;"">
  <p>What determined the result of this run?</p>
  </div>","1","html-slider-response","74","1107247","0.0-10.0-1.6","48","1","2025-07-02 10:18:47","80fe4187154257d5fb01684ea91b68b9","41.145.195.47","Mozilla/5.0 (Windows NT 10.0; Win64; x64) AppleWebKit/537.36 (KHTML, like Gecko) Chrome/138.0.0.0 Safari/537.36 Edg/138.0.0.0","WebKit","Edge","138.0.0.0","Windows","10.0","https://app.prolific.com/","en-US,en;q=0.9","67dabf62d73b99009d24a016","683db6dfa200031b80f2a654","6865077daffac681a93e28ec","67dabf62d73b99009d24a016","2025-07-02T10:37:19.852Z","","","","","","AttribQ","","","","","","","","","","","","","","","","","","","","","","","","","","","","","","","","","","","","","","50",""
"11424","","<div style=""width:500px;"">
  <p>How much control did you have over the ball?</p>
  </div>","3","html-slider-response","75","1118672","0.0-10.0-2.6","48","1","2025-07-02 10:18:47","80fe4187154257d5fb01684ea91b68b9","41.145.195.47","Mozilla/5.0 (Windows NT 10.0; Win64; x64) AppleWebKit/537.36 (KHTML, like Gecko) Chrome/138.0.0.0 Safari/537.36 Edg/138.0.0.0","WebKit","Edge","138.0.0.0","Windows","10.0","https://app.prolific.com/","en-US,en;q=0.9","67dabf62d73b99009d24a016","683db6dfa200031b80f2a654","6865077daffac681a93e28ec","67dabf62d73b99009d24a016","2025-07-02T10:37:31.277Z","","","","","","ControlQ","","","","","","","","","","","","","","","","","","","","","","","","","","","","","","","","","","","","","","50",""
"4786","","<div style=""width:500px;"">
  <p>How would you describe your current emotional state?</p>
  </div>","13","html-slider-response","76","1123460","0.0-10.0-3.6","48","1","2025-07-02 10:18:47","80fe4187154257d5fb01684ea91b68b9","41.145.195.47","Mozilla/5.0 (Windows NT 10.0; Win64; x64) AppleWebKit/537.36 (KHTML, like Gecko) Chrome/138.0.0.0 Safari/537.36 Edg/138.0.0.0","WebKit","Edge","138.0.0.0","Windows","10.0","https://app.prolific.com/","en-US,en;q=0.9","67dabf62d73b99009d24a016","683db6dfa200031b80f2a654","6865077daffac681a93e28ec","67dabf62d73b99009d24a016","2025-07-02T10:37:36.065Z","","","","","","StressQ","","","","","","","","","","","","","","","","","","","","","","","","","","","","","","","","","","","","","","50",""
"3940","","<div style=""width:500px;"">
  <p>What best describes how you currently feel?</p>
  </div>","14","html-slider-response","77","1127401","0.0-10.0-4.6","48","1","2025-07-02 10:18:47","80fe4187154257d5fb01684ea91b68b9","41.145.195.47","Mozilla/5.0 (Windows NT 10.0; Win64; x64) AppleWebKit/537.36 (KHTML, like Gecko) Chrome/138.0.0.0 Safari/537.36 Edg/138.0.0.0","WebKit","Edge","138.0.0.0","Windows","10.0","https://app.prolific.com/","en-US,en;q=0.9","67dabf62d73b99009d24a016","683db6dfa200031b80f2a654","6865077daffac681a93e28ec","67dabf62d73b99009d24a016","2025-07-02T10:37:40.006Z","","","","","","MotivationQ","","","","","","","","","","","","","","","","","","","","","","","","","","","","","","","","","","","","","","50",""
"","","","","ctl-task-cpt","78","1142678","0.0-10.0-0.7","48","1","2025-07-02 10:18:47","80fe4187154257d5fb01684ea91b68b9","41.145.195.47","Mozilla/5.0 (Windows NT 10.0; Win64; x64) AppleWebKit/537.36 (KHTML, like Gecko) Chrome/138.0.0.0 Safari/537.36 Edg/138.0.0.0","WebKit","Edge","138.0.0.0","Windows","10.0","https://app.prolific.com/","en-US,en;q=0.9","67dabf62d73b99009d24a016","683db6dfa200031b80f2a654","6865077daffac681a93e28ec","67dabf62d73b99009d24a016","2025-07-02T10:37:55.283Z","","","","","","","","","","","","","","","","win-only","2","g1:SE,g2:NW","0.3","8","0","1132822.1","2258","7262.9","12251.8","1","4","8","6","2","-8","-8","0","0","0","1644.1","3000","-2290","[""left"",""up""]","{""num_key_presses"":0,""num_perfect"":0,""num_errors"":0,""num_randdir"":0,""num_randdir_good_moves"":0,""num_whilered"":0,""num_whileblue"":0,""num_blue"":0,""num_good_moves"":0}","[252.71428571428572,253.62053571428572,0.3,252.71428571428572,253.62053571428572,103.1,252.71428571428572,253.62053571428572,216.9,252.71428571428572,253.62053571428572,318,252.71428571428572,253.62053571428572,418.9,252.71428571428572,253.62053571428572,518.9,252.71428571428572,253.62053571428572,623.8,252.71428571428572,253.62053571428572,731.8,252.71428571428572,253.62053571428572,832.1,252.71428571428572,253.62053571428572,933.3,110.71428571428572,142.62053571428572,1035.3,15.714285714285715,48.620535714285715,1138.2,8.714285714285715,40.620535714285715,1244.1,20.714285714285715,42.620535714285715,1351.3,43.714285714285715,56.620535714285715,1463.5,43.714285714285715,56.620535714285715,1563.8,43.714285714285715,56.620535714285715,1665.1,43.714285714285715,56.620535714285715,1769,43.714285714285715,56.620535714285715,1869,43.714285714285715,56.620535714285715,1970.4,43.714285714285715,56.620535714285715,2073.6,43.714285714285715,56.620535714285715,2174.3,43.714285714285715,56.620535714285715,2281.3,166.71428571428572,154.62053571428572,2383.7,200.71428571428572,197.62053571428572,2484.3,200.71428571428572,197.62053571428572,2587.6,200.71428571428572,197.62053571428572,2699.3,200.71428571428572,197.62053571428572,2800.3,200.71428571428572,197.62053571428572,2903.3,228.71428571428572,206.62053571428572,3016.1,281.7142857142857,228.62053571428572,3118.9,294.7142857142857,235.62053571428572,3224.4,294.7142857142857,235.62053571428572,3324.6,294.7142857142857,235.62053571428572,3430.5,294.7142857142857,235.62053571428572,3538.4,294.7142857142857,235.62053571428572,3644.2,294.7142857142857,235.62053571428572,3748.8,294.7142857142857,235.62053571428572,3850.9,294.7142857142857,235.62053571428572,3952.7,294.7142857142857,235.62053571428572,4064,294.7142857142857,235.62053571428572,4164.8,294.7142857142857,235.62053571428572,4266.7,294.7142857142857,235.62053571428572,4368.6,294.7142857142857,235.62053571428572,4469.1,294.7142857142857,235.62053571428572,4572.5,294.7142857142857,235.62053571428572,4674.9,294.7142857142857,235.62053571428572,4775,294.7142857142857,235.62053571428572,4875,294.7142857142857,235.62053571428572,4977.1]","[]","","",""
"4842","","<div style=""width:500px;"">
  <p>What determined the result of this run?</p>
  </div>","0","html-slider-response","79","1147521","0.0-10.0-1.7","48","1","2025-07-02 10:18:47","80fe4187154257d5fb01684ea91b68b9","41.145.195.47","Mozilla/5.0 (Windows NT 10.0; Win64; x64) AppleWebKit/537.36 (KHTML, like Gecko) Chrome/138.0.0.0 Safari/537.36 Edg/138.0.0.0","WebKit","Edge","138.0.0.0","Windows","10.0","https://app.prolific.com/","en-US,en;q=0.9","67dabf62d73b99009d24a016","683db6dfa200031b80f2a654","6865077daffac681a93e28ec","67dabf62d73b99009d24a016","2025-07-02T10:38:00.126Z","","","","","","AttribQ","","","","","","","","","","","","","","","","","","","","","","","","","","","","","","","","","","","","","","50",""
"3470","","<div style=""width:500px;"">
  <p>How much control did you have over the ball?</p>
  </div>","1","html-slider-response","80","1150992","0.0-10.0-2.7","48","1","2025-07-02 10:18:47","80fe4187154257d5fb01684ea91b68b9","41.145.195.47","Mozilla/5.0 (Windows NT 10.0; Win64; x64) AppleWebKit/537.36 (KHTML, like Gecko) Chrome/138.0.0.0 Safari/537.36 Edg/138.0.0.0","WebKit","Edge","138.0.0.0","Windows","10.0","https://app.prolific.com/","en-US,en;q=0.9","67dabf62d73b99009d24a016","683db6dfa200031b80f2a654","6865077daffac681a93e28ec","67dabf62d73b99009d24a016","2025-07-02T10:38:03.597Z","","","","","","ControlQ","","","","","","","","","","","","","","","","","","","","","","","","","","","","","","","","","","","","","","50",""
"3618","","<div style=""width:500px;"">
  <p>How would you describe your current emotional state?</p>
  </div>","1","html-slider-response","81","1154611","0.0-10.0-3.7","48","1","2025-07-02 10:18:47","80fe4187154257d5fb01684ea91b68b9","41.145.195.47","Mozilla/5.0 (Windows NT 10.0; Win64; x64) AppleWebKit/537.36 (KHTML, like Gecko) Chrome/138.0.0.0 Safari/537.36 Edg/138.0.0.0","WebKit","Edge","138.0.0.0","Windows","10.0","https://app.prolific.com/","en-US,en;q=0.9","67dabf62d73b99009d24a016","683db6dfa200031b80f2a654","6865077daffac681a93e28ec","67dabf62d73b99009d24a016","2025-07-02T10:38:07.216Z","","","","","","StressQ","","","","","","","","","","","","","","","","","","","","","","","","","","","","","","","","","","","","","","50",""
"2909","","<div style=""width:500px;"">
  <p>What best describes how you currently feel?</p>
  </div>","6","html-slider-response","82","1157521","0.0-10.0-4.7","48","1","2025-07-02 10:18:47","80fe4187154257d5fb01684ea91b68b9","41.145.195.47","Mozilla/5.0 (Windows NT 10.0; Win64; x64) AppleWebKit/537.36 (KHTML, like Gecko) Chrome/138.0.0.0 Safari/537.36 Edg/138.0.0.0","WebKit","Edge","138.0.0.0","Windows","10.0","https://app.prolific.com/","en-US,en;q=0.9","67dabf62d73b99009d24a016","683db6dfa200031b80f2a654","6865077daffac681a93e28ec","67dabf62d73b99009d24a016","2025-07-02T10:38:10.126Z","","","","","","MotivationQ","","","","","","","","","","","","","","","","","","","","","","","","","","","","","","","","","","","","","","50",""
"","","","","ctl-task-cpt","83","1174136","0.0-10.0-0.8","48","1","2025-07-02 10:18:47","80fe4187154257d5fb01684ea91b68b9","41.145.195.47","Mozilla/5.0 (Windows NT 10.0; Win64; x64) AppleWebKit/537.36 (KHTML, like Gecko) Chrome/138.0.0.0 Safari/537.36 Edg/138.0.0.0","WebKit","Edge","138.0.0.0","Windows","10.0","https://app.prolific.com/","en-US,en;q=0.9","67dabf62d73b99009d24a016","683db6dfa200031b80f2a654","6865077daffac681a93e28ec","67dabf62d73b99009d24a016","2025-07-02T10:38:26.741Z","","","","","","","","","","","","","","","","win-only","2","g1:SE,g2:NW","0.4","9","0","1162942.2","3092.7","8103.3","13602.2","1","4","8","6","1","-1","-1","0","0","0","2259.9","3000","-2030","[""down"",""right""]","{""num_key_presses"":0,""num_perfect"":0,""num_errors"":0,""num_randdir"":0,""num_randdir_good_moves"":0,""num_whilered"":0,""num_whileblue"":0,""num_blue"":0,""num_good_moves"":0}","[245.71428571428572,246.62053571428572,0.2,245.71428571428572,246.62053571428572,108.1,245.71428571428572,246.62053571428572,208.2,245.71428571428572,246.62053571428572,311.6,245.71428571428572,246.62053571428572,413.5,245.71428571428572,246.62053571428572,513.9,245.71428571428572,246.62053571428572,614.1,245.71428571428572,246.62053571428572,717.4,245.71428571428572,246.62053571428572,817.8,217.71428571428572,208.62053571428572,926.9,245.71428571428572,216.62053571428572,1031.7,327.7142857142857,311.6205357142857,1134.4,352.7142857142857,364.6205357142857,1242.3,352.7142857142857,364.6205357142857,1343.8,352.7142857142857,364.6205357142857,1443.9,381.7142857142857,381.6205357142857,1545.9,419.7142857142857,419.6205357142857,1646.7,431.7142857142857,436.6205357142857,1748.5,436.7142857142857,444.6205357142857,1858.1,442.7142857142857,450.6205357142857,1959.3,442.7142857142857,450.6205357142857,2068.1,442.7142857142857,450.6205357142857,2172.6,442.7142857142857,450.6205357142857,2276.5,442.7142857142857,450.6205357142857,2380.5,442.7142857142857,450.6205357142857,2493.7,442.7142857142857,450.6205357142857,2608,442.7142857142857,450.6205357142857,2710.3,442.7142857142857,450.6205357142857,2813.5,442.7142857142857,450.6205357142857,2917.6,442.7142857142857,450.6205357142857,3025.5,442.7142857142857,450.6205357142857,3125.9,442.7142857142857,450.6205357142857,3230.2,442.7142857142857,450.6205357142857,3338.1,442.7142857142857,450.6205357142857,3445.9,442.7142857142857,450.6205357142857,3557.5,442.7142857142857,450.6205357142857,3658.1,442.7142857142857,450.6205357142857,3758.9,442.7142857142857,450.6205357142857,3859.6,442.7142857142857,450.6205357142857,3968.4,442.7142857142857,450.6205357142857,4076,442.7142857142857,450.6205357142857,4178.5,442.7142857142857,450.6205357142857,4280.1,442.7142857142857,450.6205357142857,4388.2,442.7142857142857,450.6205357142857,4492.7,442.7142857142857,450.6205357142857,4594,442.7142857142857,450.6205357142857,4709.8,442.7142857142857,450.6205357142857,4815.2,402.7142857142857,412.6205357142857,4918.9]","[]","","",""
"6793","","<div style=""width:500px;"">
  <p>What determined the result of this run?</p>
  </div>","0","html-slider-response","84","1180931","0.0-10.0-1.8","48","1","2025-07-02 10:18:47","80fe4187154257d5fb01684ea91b68b9","41.145.195.47","Mozilla/5.0 (Windows NT 10.0; Win64; x64) AppleWebKit/537.36 (KHTML, like Gecko) Chrome/138.0.0.0 Safari/537.36 Edg/138.0.0.0","WebKit","Edge","138.0.0.0","Windows","10.0","https://app.prolific.com/","en-US,en;q=0.9","67dabf62d73b99009d24a016","683db6dfa200031b80f2a654","6865077daffac681a93e28ec","67dabf62d73b99009d24a016","2025-07-02T10:38:33.536Z","","","","","","AttribQ","","","","","","","","","","","","","","","","","","","","","","","","","","","","","","","","","","","","","","50",""
"5029","","<div style=""width:500px;"">
  <p>How much control did you have over the ball?</p>
  </div>","0","html-slider-response","85","1185961","0.0-10.0-2.8","48","1","2025-07-02 10:18:47","80fe4187154257d5fb01684ea91b68b9","41.145.195.47","Mozilla/5.0 (Windows NT 10.0; Win64; x64) AppleWebKit/537.36 (KHTML, like Gecko) Chrome/138.0.0.0 Safari/537.36 Edg/138.0.0.0","WebKit","Edge","138.0.0.0","Windows","10.0","https://app.prolific.com/","en-US,en;q=0.9","67dabf62d73b99009d24a016","683db6dfa200031b80f2a654","6865077daffac681a93e28ec","67dabf62d73b99009d24a016","2025-07-02T10:38:38.566Z","","","","","","ControlQ","","","","","","","","","","","","","","","","","","","","","","","","","","","","","","","","","","","","","","50",""
"5001","","<div style=""width:500px;"">
  <p>How would you describe your current emotional state?</p>
  </div>","96","html-slider-response","86","1190963","0.0-10.0-3.8","48","1","2025-07-02 10:18:47","80fe4187154257d5fb01684ea91b68b9","41.145.195.47","Mozilla/5.0 (Windows NT 10.0; Win64; x64) AppleWebKit/537.36 (KHTML, like Gecko) Chrome/138.0.0.0 Safari/537.36 Edg/138.0.0.0","WebKit","Edge","138.0.0.0","Windows","10.0","https://app.prolific.com/","en-US,en;q=0.9","67dabf62d73b99009d24a016","683db6dfa200031b80f2a654","6865077daffac681a93e28ec","67dabf62d73b99009d24a016","2025-07-02T10:38:43.568Z","","","","","","StressQ","","","","","","","","","","","","","","","","","","","","","","","","","","","","","","","","","","","","","","50",""
"3265","","<div style=""width:500px;"">
  <p>What best describes how you currently feel?</p>
  </div>","35","html-slider-response","87","1194230","0.0-10.0-4.8","48","1","2025-07-02 10:18:47","80fe4187154257d5fb01684ea91b68b9","41.145.195.47","Mozilla/5.0 (Windows NT 10.0; Win64; x64) AppleWebKit/537.36 (KHTML, like Gecko) Chrome/138.0.0.0 Safari/537.36 Edg/138.0.0.0","WebKit","Edge","138.0.0.0","Windows","10.0","https://app.prolific.com/","en-US,en;q=0.9","67dabf62d73b99009d24a016","683db6dfa200031b80f2a654","6865077daffac681a93e28ec","67dabf62d73b99009d24a016","2025-07-02T10:38:46.835Z","","","","","","MotivationQ","","","","","","","","","","","","","","","","","","","","","","","","","","","","","","","","","","","","","","50",""
"","","","","ctl-task-cpt","88","1213656","0.0-10.0-0.9","48","1","2025-07-02 10:18:47","80fe4187154257d5fb01684ea91b68b9","41.145.195.47","Mozilla/5.0 (Windows NT 10.0; Win64; x64) AppleWebKit/537.36 (KHTML, like Gecko) Chrome/138.0.0.0 Safari/537.36 Edg/138.0.0.0","WebKit","Edge","138.0.0.0","Windows","10.0","https://app.prolific.com/","en-US,en;q=0.9","67dabf62d73b99009d24a016","683db6dfa200031b80f2a654","6865077daffac681a93e28ec","67dabf62d73b99009d24a016","2025-07-02T10:39:06.261Z","","","","","","","","","","","","","","","","win-only","2","g1:SE,g2:NW","0.5","10","0","1199650.4","6471.8","11476.2","16410.7","1","4","4","6","1","-1","-1","0","0","0","5004.4","3000","-2210","[""down"",""right""]","{""num_key_presses"":0,""num_perfect"":0,""num_errors"":0,""num_randdir"":0,""num_randdir_good_moves"":0,""num_whilered"":0,""num_whileblue"":0,""num_blue"":0,""num_good_moves"":0}","[251.71428571428572,247.62053571428572,0.8,251.71428571428572,247.62053571428572,101.4,251.71428571428572,247.62053571428572,203.6,251.71428571428572,247.62053571428572,309.7,251.71428571428572,247.62053571428572,417.5,251.71428571428572,247.62053571428572,520.4,251.71428571428572,247.62053571428572,621.3,251.71428571428572,247.62053571428572,723.9,251.71428571428572,247.62053571428572,831.3,251.71428571428572,247.62053571428572,934.8,251.71428571428572,247.62053571428572,1035,251.71428571428572,247.62053571428572,1136.4,251.71428571428572,247.62053571428572,1248.3,251.71428571428572,247.62053571428572,1353.7,251.71428571428572,247.62053571428572,1455.2,251.71428571428572,247.62053571428572,1559,251.71428571428572,247.62053571428572,1666.5,251.71428571428572,247.62053571428572,1771.3,251.71428571428572,247.62053571428572,1874.4,251.71428571428572,247.62053571428572,1974.6,251.71428571428572,247.62053571428572,2075.7,251.71428571428572,247.62053571428572,2179.2,251.71428571428572,247.62053571428572,2287.2,251.71428571428572,247.62053571428572,2389.5,251.71428571428572,247.62053571428572,2498.6,251.71428571428572,247.62053571428572,2599.1,251.71428571428572,247.62053571428572,2708.8,251.71428571428572,247.62053571428572,2808.8,251.71428571428572,247.62053571428572,2910.3,251.71428571428572,247.62053571428572,3020.5,251.71428571428572,247.62053571428572,3134,251.71428571428572,247.62053571428572,3237.1,251.71428571428572,247.62053571428572,3340.2,251.71428571428572,247.62053571428572,3450.6,251.71428571428572,247.62053571428572,3550.7,251.71428571428572,247.62053571428572,3653.2,251.71428571428572,247.62053571428572,3755.8,251.71428571428572,247.62053571428572,3866.3,251.71428571428572,247.62053571428572,3970.5,251.71428571428572,247.62053571428572,4073.5,251.71428571428572,247.62053571428572,4174.8,251.71428571428572,247.62053571428572,4286.9,251.71428571428572,247.62053571428572,4390.3,251.71428571428572,247.62053571428572,4498,251.71428571428572,247.62053571428572,4598.1,251.71428571428572,247.62053571428572,4699.7,251.71428571428572,247.62053571428572,4801.8,251.71428571428572,247.62053571428572,4905.5]","[]","","",""
"21440","","<div style=""width:500px;"">
  <p>What determined the result of this run?</p>
  </div>","63","html-slider-response","89","1235098","0.0-10.0-1.9","48","1","2025-07-02 10:18:47","80fe4187154257d5fb01684ea91b68b9","41.145.195.47","Mozilla/5.0 (Windows NT 10.0; Win64; x64) AppleWebKit/537.36 (KHTML, like Gecko) Chrome/138.0.0.0 Safari/537.36 Edg/138.0.0.0","WebKit","Edge","138.0.0.0","Windows","10.0","https://app.prolific.com/","en-US,en;q=0.9","67dabf62d73b99009d24a016","683db6dfa200031b80f2a654","6865077daffac681a93e28ec","67dabf62d73b99009d24a016","2025-07-02T10:39:27.703Z","","","","","","AttribQ","","","","","","","","","","","","","","","","","","","","","","","","","","","","","","","","","","","","","","50",""
"4409","","<div style=""width:500px;"">
  <p>How much control did you have over the ball?</p>
  </div>","45","html-slider-response","90","1239509","0.0-10.0-2.9","48","1","2025-07-02 10:18:47","80fe4187154257d5fb01684ea91b68b9","41.145.195.47","Mozilla/5.0 (Windows NT 10.0; Win64; x64) AppleWebKit/537.36 (KHTML, like Gecko) Chrome/138.0.0.0 Safari/537.36 Edg/138.0.0.0","WebKit","Edge","138.0.0.0","Windows","10.0","https://app.prolific.com/","en-US,en;q=0.9","67dabf62d73b99009d24a016","683db6dfa200031b80f2a654","6865077daffac681a93e28ec","67dabf62d73b99009d24a016","2025-07-02T10:39:32.114Z","","","","","","ControlQ","","","","","","","","","","","","","","","","","","","","","","","","","","","","","","","","","","","","","","50",""
"4234","","<div style=""width:500px;"">
  <p>How would you describe your current emotional state?</p>
  </div>","62","html-slider-response","91","1243744","0.0-10.0-3.9","48","1","2025-07-02 10:18:47","80fe4187154257d5fb01684ea91b68b9","41.145.195.47","Mozilla/5.0 (Windows NT 10.0; Win64; x64) AppleWebKit/537.36 (KHTML, like Gecko) Chrome/138.0.0.0 Safari/537.36 Edg/138.0.0.0","WebKit","Edge","138.0.0.0","Windows","10.0","https://app.prolific.com/","en-US,en;q=0.9","67dabf62d73b99009d24a016","683db6dfa200031b80f2a654","6865077daffac681a93e28ec","67dabf62d73b99009d24a016","2025-07-02T10:39:36.350Z","","","","","","StressQ","","","","","","","","","","","","","","","","","","","","","","","","","","","","","","","","","","","","","","50",""
"6980","","<div style=""width:500px;"">
  <p>What best describes how you currently feel?</p>
  </div>","55","html-slider-response","92","1250726","0.0-10.0-4.9","48","1","2025-07-02 10:18:47","80fe4187154257d5fb01684ea91b68b9","41.145.195.47","Mozilla/5.0 (Windows NT 10.0; Win64; x64) AppleWebKit/537.36 (KHTML, like Gecko) Chrome/138.0.0.0 Safari/537.36 Edg/138.0.0.0","WebKit","Edge","138.0.0.0","Windows","10.0","https://app.prolific.com/","en-US,en;q=0.9","67dabf62d73b99009d24a016","683db6dfa200031b80f2a654","6865077daffac681a93e28ec","67dabf62d73b99009d24a016","2025-07-02T10:39:43.331Z","","","","","","MotivationQ","","","","","","","","","","","","","","","","","","","","","","","","","","","","","","","","","","","","","","50",""
