"rt","response_timestamp","stimulus","response","trial_type","trial_index","time_elapsed","internal_node_id","run_id","condition","recorded_at","source_code_version","ip","user_agent","device","browser","browser_version","platform","platform_version","referer","accept_language","PROLIFIC_PID","STUDY_ID","SESSION_ID","prolific_id","realtime","view_history","question_order","consent","success","question_id","eventType","responses","item_order","radio_event_ids","radio_event_times","key_event_times","mouse_event_times","straightlining","zigzagging","honeypot","which_type","canvas_config","goals_layout","control_level","trial_number","tutorial_trial_number","trial_start_time","phase1_start_time","phase2_start_time","phase3_start_time","goal_1_value","goal_1_distance","goal_2_value","goal_2_distance","goal_selected","outcome","outcome_total","participant_final_score","participant_initial_score","participant_final_score_prop","goal_choice_rt","allocated_time","allocated_time_remaining","goal_direction","counts","mouse_movements","key_presses","correct","slider_start","sub_question"
"16571","1751451623202","<p style='font-size:40px;line-height:1.25'><strong>Welcome to the experiment!</strong></p><p style='font-size:1.1em;line-height:1.25'>Thank you for your interest in our experiment! Before you begin, it is important that we obtain your informed consent to participate in the study.</p><p style='font-size:1.1em;line-height:1.25'>On the next screen will be an <strong>information sheet</strong> for you to read. To participate in the study we need you to read this information sheet and the following consent form carefully. If you agree with all the statements, please click the <strong>I agree</strong> button.</p><p style='font-size:1.1em;line-height:1.25'>Press <strong>Next</strong> to read the information sheet.</p>","0","custom-html-button-response","0","16575","0.0-0.0","125","1","2025-07-02 10:20:05","80fe4187154257d5fb01684ea91b68b9","41.150.226.136","Mozilla/5.0 (Windows NT 10.0; Win64; x64) AppleWebKit/537.36 (KHTML, like Gecko) Chrome/138.0.0.0 Safari/537.36","WebKit","Chrome","138.0.0.0","Windows","10.0","https://app.prolific.com/","en-US,en;q=0.9","67f133dcba790167d0027963","683db6dfa200031b80f2a654","6865078bee1b354595560cc3","67f133dcba790167d0027963","2025-07-02T10:20:23.203Z","","","","","","","","","","","","","","","","","","","","","","","","","","","","","","","","","","","","","","","","","","","","",""
"19532","","","","instructions","1","36109","0.0-1.0","125","1","2025-07-02 10:20:05","80fe4187154257d5fb01684ea91b68b9","41.150.226.136","Mozilla/5.0 (Windows NT 10.0; Win64; x64) AppleWebKit/537.36 (KHTML, like Gecko) Chrome/138.0.0.0 Safari/537.36","WebKit","Chrome","138.0.0.0","Windows","10.0","https://app.prolific.com/","en-US,en;q=0.9","67f133dcba790167d0027963","683db6dfa200031b80f2a654","6865078bee1b354595560cc3","67f133dcba790167d0027963","","[{""page_index"":0,""viewing_time"":17613},{""page_index"":1,""viewing_time"":1919}]","","","","","","","","","","","","","","","","","","","","","","","","","","","","","","","","","","","","","","","","","","","",""
"6914","","","{""Q0"":"""",""Q1"":"""",""Q2"":"""",""Q3"":"""",""Q4"":"""",""Q5"":"""",""Q6"":""I agree""}","survey-multi-choice","2","43025","0.0-2.0","125","1","2025-07-02 10:20:05","80fe4187154257d5fb01684ea91b68b9","41.150.226.136","Mozilla/5.0 (Windows NT 10.0; Win64; x64) AppleWebKit/537.36 (KHTML, like Gecko) Chrome/138.0.0.0 Safari/537.36","WebKit","Chrome","138.0.0.0","Windows","10.0","https://app.prolific.com/","en-US,en;q=0.9","67f133dcba790167d0027963","683db6dfa200031b80f2a654","6865078bee1b354595560cc3","67f133dcba790167d0027963","","","[0,1,2,3,4,5,6]","true","","","","","","","","","","","","","","","","","","","","","","","","","","","","","","","","","","","","","","","","","",""
"37720","","","","fullscreen","3","81751","0.0-4.0","125","1","2025-07-02 10:20:05","80fe4187154257d5fb01684ea91b68b9","41.150.226.136","Mozilla/5.0 (Windows NT 10.0; Win64; x64) AppleWebKit/537.36 (KHTML, like Gecko) Chrome/138.0.0.0 Safari/537.36","WebKit","Chrome","138.0.0.0","Windows","10.0","https://app.prolific.com/","en-US,en;q=0.9","67f133dcba790167d0027963","683db6dfa200031b80f2a654","6865078bee1b354595560cc3","67f133dcba790167d0027963","","","","","true","","","","","","","","","","","","","","","","","","","","","","","","","","","","","","","","","","","","","","","","",""
"21126","1751451709505"," <p style='font-size:1.1em;line-height:1.25'>Thank you for completing the consent form and closing all other tabs.</p><p style='font-size:1.1em;line-height:1.25'>We will now invite you to fill in some demographic information and questionnaires, before starting the game.<br>This will take about 5 minutes.<br></p><p style='font-size:1.1em;line-height:1.25'>Press the <strong>Next</strong> button to continue.</p>","0","custom-html-button-response","4","102878","0.0-5.0","125","1","2025-07-02 10:20:05","80fe4187154257d5fb01684ea91b68b9","41.150.226.136","Mozilla/5.0 (Windows NT 10.0; Win64; x64) AppleWebKit/537.36 (KHTML, like Gecko) Chrome/138.0.0.0 Safari/537.36","WebKit","Chrome","138.0.0.0","Windows","10.0","https://app.prolific.com/","en-US,en;q=0.9","67f133dcba790167d0027963","683db6dfa200031b80f2a654","6865078bee1b354595560cc3","67f133dcba790167d0027963","2025-07-02T10:21:49.506Z","","","","","","","","","","","","","","","","","","","","","","","","","","","","","","","","","","","","","","","","","","","","",""
"5296","","","{""age"":""32""}","survey-text","5","108177","0.0-6.0-0.0","125","1","2025-07-02 10:20:05","80fe4187154257d5fb01684ea91b68b9","41.150.226.136","Mozilla/5.0 (Windows NT 10.0; Win64; x64) AppleWebKit/537.36 (KHTML, like Gecko) Chrome/138.0.0.0 Safari/537.36","WebKit","Chrome","138.0.0.0","Windows","10.0","https://app.prolific.com/","en-US,en;q=0.9","67f133dcba790167d0027963","683db6dfa200031b80f2a654","6865078bee1b354595560cc3","67f133dcba790167d0027963","","","","","","0","demographics","","","","","","","","","","","","","","","","","","","","","","","","","","","","","","","","","","","","","","",""
"3976","","","{""gender_identity"":""female/woman""}","survey-multi-choice","6","112155","0.0-6.0-1.0","125","1","2025-07-02 10:20:05","80fe4187154257d5fb01684ea91b68b9","41.150.226.136","Mozilla/5.0 (Windows NT 10.0; Win64; x64) AppleWebKit/537.36 (KHTML, like Gecko) Chrome/138.0.0.0 Safari/537.36","WebKit","Chrome","138.0.0.0","Windows","10.0","https://app.prolific.com/","en-US,en;q=0.9","67f133dcba790167d0027963","683db6dfa200031b80f2a654","6865078bee1b354595560cc3","67f133dcba790167d0027963","","","[0]","","","1","demographics","","","","","","","","","","","","","","","","","","","","","","","","","","","","","","","","","","","","","","",""
"6159","","","{""assigned_sex"":""female""}","survey-multi-choice","7","118315","0.0-6.0-2.0","125","1","2025-07-02 10:20:05","80fe4187154257d5fb01684ea91b68b9","41.150.226.136","Mozilla/5.0 (Windows NT 10.0; Win64; x64) AppleWebKit/537.36 (KHTML, like Gecko) Chrome/138.0.0.0 Safari/537.36","WebKit","Chrome","138.0.0.0","Windows","10.0","https://app.prolific.com/","en-US,en;q=0.9","67f133dcba790167d0027963","683db6dfa200031b80f2a654","6865078bee1b354595560cc3","67f133dcba790167d0027963","","","[0]","","","2","demographics","","","","","","","","","","","","","","","","","","","","","","","","","","","","","","","","","","","","","","",""
"11196","","","{""menstrual_cycle"":""Yes""}","survey-multi-choice","8","129512","0.0-6.0-3.0","125","1","2025-07-02 10:20:05","80fe4187154257d5fb01684ea91b68b9","41.150.226.136","Mozilla/5.0 (Windows NT 10.0; Win64; x64) AppleWebKit/537.36 (KHTML, like Gecko) Chrome/138.0.0.0 Safari/537.36","WebKit","Chrome","138.0.0.0","Windows","10.0","https://app.prolific.com/","en-US,en;q=0.9","67f133dcba790167d0027963","683db6dfa200031b80f2a654","6865078bee1b354595560cc3","67f133dcba790167d0027963","","","[0]","","","4","demographics","","","","","","","","","","","","","","","","","","","","","","","","","","","","","","","","","","","","","","",""
"17782","","","{""education"":""Master's Degree (e.g., MSc)""}","survey-multi-choice","9","147295","0.0-6.0-4.0","125","1","2025-07-02 10:20:05","80fe4187154257d5fb01684ea91b68b9","41.150.226.136","Mozilla/5.0 (Windows NT 10.0; Win64; x64) AppleWebKit/537.36 (KHTML, like Gecko) Chrome/138.0.0.0 Safari/537.36","WebKit","Chrome","138.0.0.0","Windows","10.0","https://app.prolific.com/","en-US,en;q=0.9","67f133dcba790167d0027963","683db6dfa200031b80f2a654","6865078bee1b354595560cc3","67f133dcba790167d0027963","","","[0]","","","5","demographics","","","","","","","","","","","","","","","","","","","","","","","","","","","","","","","","","","","","","","",""
"9599","","","{""education"":""Doctoral Degree (e.g., PhD)""}","survey-multi-choice","10","156895","0.0-6.0-5.0","125","1","2025-07-02 10:20:05","80fe4187154257d5fb01684ea91b68b9","41.150.226.136","Mozilla/5.0 (Windows NT 10.0; Win64; x64) AppleWebKit/537.36 (KHTML, like Gecko) Chrome/138.0.0.0 Safari/537.36","WebKit","Chrome","138.0.0.0","Windows","10.0","https://app.prolific.com/","en-US,en;q=0.9","67f133dcba790167d0027963","683db6dfa200031b80f2a654","6865078bee1b354595560cc3","67f133dcba790167d0027963","2025-07-02T10:22:43.524Z","","[0]","","","6","demographics","","","","","","","","","","","","","","","","","","","","","","","","","","","","","","","","","","","","","","",""
"18603","","","{""mental_health_condition"":""no"",""mental_health_treatment"":""no"",""psychiatric_medication"":""no""}","survey-text","11","175501","0.0-7.0-0.0","125","1","2025-07-02 10:20:05","80fe4187154257d5fb01684ea91b68b9","41.150.226.136","Mozilla/5.0 (Windows NT 10.0; Win64; x64) AppleWebKit/537.36 (KHTML, like Gecko) Chrome/138.0.0.0 Safari/537.36","WebKit","Chrome","138.0.0.0","Windows","10.0","https://app.prolific.com/","en-US,en;q=0.9","67f133dcba790167d0027963","683db6dfa200031b80f2a654","6865078bee1b354595560cc3","67f133dcba790167d0027963","2025-07-02T10:23:02.130Z","","","","","1","mental_health","","","","","","","","","","","","","","","","","","","","","","","","","","","","","","","","","","","","","","",""
"13139","","","{""depression_history"":[""No""]}","survey-multi-select","12","188645","0.0-7.0-1.0","125","1","2025-07-02 10:20:05","80fe4187154257d5fb01684ea91b68b9","41.150.226.136","Mozilla/5.0 (Windows NT 10.0; Win64; x64) AppleWebKit/537.36 (KHTML, like Gecko) Chrome/138.0.0.0 Safari/537.36","WebKit","Chrome","138.0.0.0","Windows","10.0","https://app.prolific.com/","en-US,en;q=0.9","67f133dcba790167d0027963","683db6dfa200031b80f2a654","6865078bee1b354595560cc3","67f133dcba790167d0027963","","","[0]","","","","mental_health","","","","","","","","","","","","","","","","","","","","","","","","","","","","","","","","","","","","","","",""
"101841.69999998808","","","","survey-template","13","290489","0.0-7.0-3.0","125","1","2025-07-02 10:20:05","80fe4187154257d5fb01684ea91b68b9","41.150.226.136","Mozilla/5.0 (Windows NT 10.0; Win64; x64) AppleWebKit/537.36 (KHTML, like Gecko) Chrome/138.0.0.0 Safari/537.36","WebKit","Chrome","138.0.0.0","Windows","10.0","https://app.prolific.com/","en-US,en;q=0.9","67f133dcba790167d0027963","683db6dfa200031b80f2a654","6865078bee1b354595560cc3","67f133dcba790167d0027963","2025-07-02T10:24:57.117Z","","","","","","ius","{""Q01"":""2"",""Q02"":""4"",""Q03"":""2"",""Q04"":""3"",""Q05"":""2"",""Q06"":""2"",""Q07"":""2"",""Q08"":""0"",""Q09"":""4"",""Q10"":""3"",""Q11"":""3"",""Q12"":""3"",""Q13"":""2""}","[0,1,2,3,4,5,6,7,8,9,10,11,12]","[""Q01"",""Q02"",""Q03"",""Q04"",""Q05"",""Q06"",""Q06"",""Q07"",""Q08"",""Q09"",""Q10"",""Q11"",""Q12"",""Q13""]","[12348.600000023842,18254.899999976158,23136.899999976158,28008.5,32444.5,37550.10000002384,37571,52044.19999998808,60244.69999998808,77183.69999998808,83102.19999998808,86390,96449.89999997616,100520]","[]","[12348.600000023842,18254.899999976158,23136.899999976158,28008.5,31368.600000023842,32444.5,37550.10000002384,37571,52044.19999998808,60244.69999998808,75996.10000002384,77183.69999998808,83102.19999998808,86390,96449.89999997616,100520,101840]","0.46153846153846156","0.4166666666666667","0","","","","","","","","","","","","","","","","","","","","","","","","","","","","","",""
"8735","1751451905853","<p style='font-size:1.1em;line-height:1.25'>In the following, we will ask you a few questions relating to your experiences over the past month.<br></p><p style='font-size:1.1em;line-height:1.25'>Press the <strong>Next</strong> button to continue.</p>","0","custom-html-button-response","14","299225","0.0-7.0-4.0","125","1","2025-07-02 10:20:05","80fe4187154257d5fb01684ea91b68b9","41.150.226.136","Mozilla/5.0 (Windows NT 10.0; Win64; x64) AppleWebKit/537.36 (KHTML, like Gecko) Chrome/138.0.0.0 Safari/537.36","WebKit","Chrome","138.0.0.0","Windows","10.0","https://app.prolific.com/","en-US,en;q=0.9","67f133dcba790167d0027963","683db6dfa200031b80f2a654","6865078bee1b354595560cc3","67f133dcba790167d0027963","2025-07-02T10:25:05.854Z","","","","","","","","","","","","","","","","","","","","","","","","","","","","","","","","","","","","","","","","","","","","",""
"235691.20000004768","","","","survey-template","15","534921","0.0-7.0-5.0","125","1","2025-07-02 10:20:05","80fe4187154257d5fb01684ea91b68b9","41.150.226.136","Mozilla/5.0 (Windows NT 10.0; Win64; x64) AppleWebKit/537.36 (KHTML, like Gecko) Chrome/138.0.0.0 Safari/537.36","WebKit","Chrome","138.0.0.0","Windows","10.0","https://app.prolific.com/","en-US,en;q=0.9","67f133dcba790167d0027963","683db6dfa200031b80f2a654","6865078bee1b354595560cc3","67f133dcba790167d0027963","2025-07-02T10:29:01.549Z","","","","","","pss","{""Q01"":""2"",""Q02"":""2"",""Q03"":""2"",""Q04"":""0"",""Q05"":""1"",""Q06"":""2"",""Q07"":""2"",""Q08"":""2"",""Q09"":""2"",""Q10"":""3""}","[0,1,2,3,4,5,6,7,8,9]","[""Q01"",""Q01"",""Q02"",""Q03"",""Q04"",""Q03"",""Q02"",""Q05"",""Q06"",""Q07"",""Q08"",""Q09"",""Q10""]","[168931.60000002384,170545.60000002384,177123.30000001192,180015.40000003576,186825.80000001192,187905.10000002384,190053.60000002384,194925.30000001192,199431.90000003576,204485.90000003576,212971.20000004768,229202.20000004768,234583.30000001192]","[]","[0.10000002384185791,168931.60000002384,170545.60000002384,177123.30000001192,180015.40000003576,185719.70000004768,186825.80000001192,187905.10000002384,190053.60000002384,194925.30000001192,199431.90000003576,202831.60000002384,204485.90000003576,212971.20000004768,229202.20000004768,234583.30000001192,235689.40000003576]","0.7","0.3333333333333333","0","","","","","","","","","","","","","","","","","","","","","","","","","","","","","",""
"4351","1751452145901","<p style='font-size:1.1em;line-height:1.25'>Thank you for your answers! Now we will ask you a few more questions relating to your feelings in the last 24 hours.<br></p><p style='font-size:1.1em;line-height:1.25'>Press the <strong>Next</strong> button to continue.</p>","0","custom-html-button-response","16","539273","0.0-7.0-6.0","125","1","2025-07-02 10:20:05","80fe4187154257d5fb01684ea91b68b9","41.150.226.136","Mozilla/5.0 (Windows NT 10.0; Win64; x64) AppleWebKit/537.36 (KHTML, like Gecko) Chrome/138.0.0.0 Safari/537.36","WebKit","Chrome","138.0.0.0","Windows","10.0","https://app.prolific.com/","en-US,en;q=0.9","67f133dcba790167d0027963","683db6dfa200031b80f2a654","6865078bee1b354595560cc3","67f133dcba790167d0027963","2025-07-02T10:29:05.901Z","","","","","","","","","","","","","","","","","","","","","","","","","","","","","","","","","","","","","","","","","","","","",""
"88229.5","","","","survey-template","17","627505","0.0-7.0-7.0","125","1","2025-07-02 10:20:05","80fe4187154257d5fb01684ea91b68b9","41.150.226.136","Mozilla/5.0 (Windows NT 10.0; Win64; x64) AppleWebKit/537.36 (KHTML, like Gecko) Chrome/138.0.0.0 Safari/537.36","WebKit","Chrome","138.0.0.0","Windows","10.0","https://app.prolific.com/","en-US,en;q=0.9","67f133dcba790167d0027963","683db6dfa200031b80f2a654","6865078bee1b354595560cc3","67f133dcba790167d0027963","2025-07-02T10:30:34.134Z","","","","","","drsp","{""Q01"":""0"",""Q02"":""0"",""Q03"":""0"",""Q04"":""0"",""Q05"":""3"",""Q06"":""0"",""Q07"":""2"",""Q08"":""0"",""Q09"":""2"",""Q10"":""1"",""Q11"":""1"",""Q12"":""0"",""Q13"":""3"",""Q14"":""0"",""Q15"":""0"",""Q16"":""1"",""Q17"":""2"",""Q18"":""0"",""Q19"":""0"",""Q20"":""0"",""Q21"":""0""}","[0,1,2,3,4,5,6,7,8,9,10,11,12,13,14,15,16,17,18,19,20]","[""Q01"",""Q02"",""Q03"",""Q04"",""Q05"",""Q06"",""Q07"",""Q08"",""Q09"",""Q10"",""Q11"",""Q12"",""Q13"",""Q14"",""Q15"",""Q16"",""Q17"",""Q17"",""Q18"",""Q19"",""Q20"",""Q21""]","[7246.099999964237,8626.300000011921,10006.899999976158,11560.300000011921,14371.5,17163.19999998808,19873.5,23273.80000001192,30144.5,34600.19999998808,38132.5,42682.80000001192,47682.5,51437.30000001192,55791.39999997616,57050,65138,66244.30000001192,70486.30000001192,75266.80000001192,82898.30000001192,86064.69999998808]","[]","[0.09999996423721313,7246.099999964237,8626.300000011921,10006.899999976158,11560.300000011921,14371.5,17163.19999998808,19873.5,23273.80000001192,30144.5,33869.69999998808,34600.19999998808,38132.5,42682.80000001192,47682.5,51437.30000001192,53822.19999998808,55791.39999997616,57050,65138,66244.30000001192,70486.30000001192,74180.69999998808,75266.80000001192,82898.30000001192,86064.69999998808,88227.09999996424]","0.6190476190476191","0.2","0","","","","","","","","","","","","","","","","","","","","","","","","","","","","","",""
"11992.399999976158","","","","survey-template","18","639500","0.0-7.0-8.0","125","1","2025-07-02 10:20:05","80fe4187154257d5fb01684ea91b68b9","41.150.226.136","Mozilla/5.0 (Windows NT 10.0; Win64; x64) AppleWebKit/537.36 (KHTML, like Gecko) Chrome/138.0.0.0 Safari/537.36","WebKit","Chrome","138.0.0.0","Windows","10.0","https://app.prolific.com/","en-US,en;q=0.9","67f133dcba790167d0027963","683db6dfa200031b80f2a654","6865078bee1b354595560cc3","67f133dcba790167d0027963","2025-07-02T10:30:46.128Z","","","","","","stress","{""Q01"":""0"",""Q02"":""5"",""Q03"":""0""}","[0,1,2]","[""Q01"",""Q02"",""Q03""]","[4429.899999976158,7302.599999964237,10631.5]","[]","[4429.899999976158,7302.599999964237,9921,10631.5,11991.599999964237]","1","0","0","","","","","","","","","","","","","","","","","","","","","","","","","","","","","",""
"204769","","","","instructions","19","844270","0.0-8.0-0.0","125","1","2025-07-02 10:20:05","80fe4187154257d5fb01684ea91b68b9","41.150.226.136","Mozilla/5.0 (Windows NT 10.0; Win64; x64) AppleWebKit/537.36 (KHTML, like Gecko) Chrome/138.0.0.0 Safari/537.36","WebKit","Chrome","138.0.0.0","Windows","10.0","https://app.prolific.com/","en-US,en;q=0.9","67f133dcba790167d0027963","683db6dfa200031b80f2a654","6865078bee1b354595560cc3","67f133dcba790167d0027963","","[{""page_index"":0,""viewing_time"":42068},{""page_index"":1,""viewing_time"":27725},{""page_index"":2,""viewing_time"":91016},{""page_index"":3,""viewing_time"":8500},{""page_index"":2,""viewing_time"":1318},{""page_index"":1,""viewing_time"":1207},{""page_index"":0,""viewing_time"":25209},{""page_index"":1,""viewing_time"":3218},{""page_index"":2,""viewing_time"":1848},{""page_index"":3,""viewing_time"":2660}]","","","","","","","","","","","","","","","","","","","","","","","","","","","","","","","","","","","","","","","","","","","",""
"","","","","ctl-task-cpt","20","861099","0.0-8.0-1.0","125","1","2025-07-02 10:20:05","80fe4187154257d5fb01684ea91b68b9","41.150.226.136","Mozilla/5.0 (Windows NT 10.0; Win64; x64) AppleWebKit/537.36 (KHTML, like Gecko) Chrome/138.0.0.0 Safari/537.36","WebKit","Chrome","138.0.0.0","Windows","10.0","https://app.prolific.com/","en-US,en;q=0.9","67f133dcba790167d0027963","683db6dfa200031b80f2a654","6865078bee1b354595560cc3","67f133dcba790167d0027963","","","","","","","","","","","","","","","","","win-only","2","g1:SE,g2:NW","1","0","1","846843.9","4730.4","8731.1","13814.9","2","4","4","6","1","-2","-2","0","0","0","4000.7","4000","-2685","[""down"",""right""]","{""num_key_presses"":0,""num_perfect"":0,""num_errors"":0,""num_randdir"":0,""num_randdir_good_moves"":0,""num_whilered"":0,""num_whileblue"":0,""num_blue"":0,""num_good_moves"":0}","[295.22232142857143,300.12857142857143,0.4,295.22232142857143,300.12857142857143,100.5,295.22232142857143,300.12857142857143,202.1,295.22232142857143,300.12857142857143,306.9,295.22232142857143,300.12857142857143,410.2,295.22232142857143,300.12857142857143,511.7,295.22232142857143,300.12857142857143,612.1,295.22232142857143,300.12857142857143,715.7,295.22232142857143,300.12857142857143,820,295.22232142857143,300.12857142857143,920.5,295.22232142857143,300.12857142857143,1020.9,295.22232142857143,300.12857142857143,1125.7,295.22232142857143,300.12857142857143,1231.6,295.22232142857143,300.12857142857143,1331.9,295.22232142857143,300.12857142857143,1432,295.22232142857143,300.12857142857143,1535.4,295.22232142857143,300.12857142857143,1635.6,295.22232142857143,300.12857142857143,1735.7,295.22232142857143,300.12857142857143,1835.9,295.22232142857143,300.12857142857143,1940,295.22232142857143,300.12857142857143,2040.5,295.22232142857143,300.12857142857143,2140.8,295.22232142857143,300.12857142857143,2240.9,295.22232142857143,300.12857142857143,2345.4,295.22232142857143,300.12857142857143,2450.3,295.22232142857143,300.12857142857143,2550.6,295.22232142857143,300.12857142857143,2650.8,295.22232142857143,300.12857142857143,2755.5,295.22232142857143,300.12857142857143,2855.5,295.22232142857143,300.12857142857143,2955.6,295.22232142857143,300.12857142857143,3055.8,295.22232142857143,300.12857142857143,3160.9,295.22232142857143,300.12857142857143,3261.5,295.22232142857143,300.12857142857143,3365.6,291.22232142857143,298.12857142857143,3469.8,83.22232142857143,72.12857142857143,3571.8,41.222321428571426,39.128571428571426,3676.7,41.222321428571426,39.128571428571426,3782.8,41.222321428571426,39.128571428571426,3886.2,57.222321428571426,53.128571428571426,3991.3]","[]","","",""
"21119","","","","instructions","21","882219","0.0-8.0-2.0","125","1","2025-07-02 10:20:05","80fe4187154257d5fb01684ea91b68b9","41.150.226.136","Mozilla/5.0 (Windows NT 10.0; Win64; x64) AppleWebKit/537.36 (KHTML, like Gecko) Chrome/138.0.0.0 Safari/537.36","WebKit","Chrome","138.0.0.0","Windows","10.0","https://app.prolific.com/","en-US,en;q=0.9","67f133dcba790167d0027963","683db6dfa200031b80f2a654","6865078bee1b354595560cc3","67f133dcba790167d0027963","","[{""page_index"":0,""viewing_time"":21118}]","","","","","","","","","","","","","","","","","","","","","","","","","","","","","","","","","","","","","","","","","","","",""
"","","","","ctl-task-cpt","22","897361","0.0-8.0-3.0","125","1","2025-07-02 10:20:05","80fe4187154257d5fb01684ea91b68b9","41.150.226.136","Mozilla/5.0 (Windows NT 10.0; Win64; x64) AppleWebKit/537.36 (KHTML, like Gecko) Chrome/138.0.0.0 Safari/537.36","WebKit","Chrome","138.0.0.0","Windows","10.0","https://app.prolific.com/","en-US,en;q=0.9","67f133dcba790167d0027963","683db6dfa200031b80f2a654","6865078bee1b354595560cc3","67f133dcba790167d0027963","","","","","","","","","","","","","","","","","win-only","2","g1:SE,g2:NW","0.35","0","3","884790.6","2510","6512.2","12127","2","4","8","6","2","-8","-8","0","0","0","1118.1","4000","-2505","[""left"",""up""]","{""num_key_presses"":0,""num_perfect"":0,""num_errors"":0,""num_randdir"":0,""num_randdir_good_moves"":0,""num_whilered"":0,""num_whileblue"":0,""num_blue"":0,""num_good_moves"":0}","[297.22232142857143,291.12857142857143,0.6,297.22232142857143,291.12857142857143,100.3,297.22232142857143,291.12857142857143,201.1,297.22232142857143,291.12857142857143,306.5,259.22232142857143,263.12857142857143,416.2,119.22232142857143,113.12857142857143,516.7,117.22232142857143,110.12857142857143,620.3,117.22232142857143,110.12857142857143,720.6,80.22232142857143,62.128571428571426,822.2,70.22232142857143,51.128571428571426,934.2,70.22232142857143,51.128571428571426,1035.4,70.22232142857143,51.128571428571426,1135.7,70.22232142857143,51.128571428571426,1236.2,70.22232142857143,51.128571428571426,1340.7,70.22232142857143,51.128571428571426,1441.4,70.22232142857143,51.128571428571426,1548.6,70.22232142857143,51.128571428571426,1650.7,70.22232142857143,51.128571428571426,1755.7,70.22232142857143,51.128571428571426,1865.2,70.22232142857143,51.128571428571426,1965.2,70.22232142857143,51.128571428571426,2065.9,70.22232142857143,51.128571428571426,2170.7,70.22232142857143,51.128571428571426,2271.1,70.22232142857143,51.128571428571426,2371.6,70.22232142857143,51.128571428571426,2483.1,70.22232142857143,51.128571428571426,2583.2,70.22232142857143,51.128571428571426,2686.2,70.22232142857143,51.128571428571426,2790.6,70.22232142857143,51.128571428571426,2891.8,70.22232142857143,51.128571428571426,2998.2,70.22232142857143,51.128571428571426,3098.2,70.22232142857143,51.128571428571426,3201.2,70.22232142857143,51.128571428571426,3305.5,70.22232142857143,51.128571428571426,3410.7,70.22232142857143,51.128571428571426,3515.3,70.22232142857143,51.128571428571426,3617.1,70.22232142857143,51.128571428571426,3720.9,70.22232142857143,51.128571428571426,3822.1,70.22232142857143,51.128571428571426,3931.8]","[]","","",""
"56343","","","","instructions","23","953705","0.0-8.0-4.0","125","1","2025-07-02 10:20:05","80fe4187154257d5fb01684ea91b68b9","41.150.226.136","Mozilla/5.0 (Windows NT 10.0; Win64; x64) AppleWebKit/537.36 (KHTML, like Gecko) Chrome/138.0.0.0 Safari/537.36","WebKit","Chrome","138.0.0.0","Windows","10.0","https://app.prolific.com/","en-US,en;q=0.9","67f133dcba790167d0027963","683db6dfa200031b80f2a654","6865078bee1b354595560cc3","67f133dcba790167d0027963","","[{""page_index"":0,""viewing_time"":21454},{""page_index"":1,""viewing_time"":34889}]","","","","","","","","","","","","","","","","","","","","","","","","","","","","","","","","","","","","","","","","","","","",""
"166617","","","{""green_ball"":[""Ball always moves in the direction I press""]}","survey-multi-select","24","1120324","0.0-8.0-5.0-0.0","125","1","2025-07-02 10:20:05","80fe4187154257d5fb01684ea91b68b9","41.150.226.136","Mozilla/5.0 (Windows NT 10.0; Win64; x64) AppleWebKit/537.36 (KHTML, like Gecko) Chrome/138.0.0.0 Safari/537.36","WebKit","Chrome","138.0.0.0","Windows","10.0","https://app.prolific.com/","en-US,en;q=0.9","67f133dcba790167d0027963","683db6dfa200031b80f2a654","6865078bee1b354595560cc3","67f133dcba790167d0027963","","","[0]","","","","quiz","","","","","","","","","","","","","","","","","","","","","","","","","","","","","","","","","","","","","false","",""
"6737","","<p align='center'><b>INCORRECT.</b> Usually the green ball moves in the indicated direction, but sometimes it shakes and moves randomly. </p>","0","html-button-response","25","1127063","0.0-8.0-5.0-1.0","125","1","2025-07-02 10:20:05","80fe4187154257d5fb01684ea91b68b9","41.150.226.136","Mozilla/5.0 (Windows NT 10.0; Win64; x64) AppleWebKit/537.36 (KHTML, like Gecko) Chrome/138.0.0.0 Safari/537.36","WebKit","Chrome","138.0.0.0","Windows","10.0","https://app.prolific.com/","en-US,en;q=0.9","67f133dcba790167d0027963","683db6dfa200031b80f2a654","6865078bee1b354595560cc3","67f133dcba790167d0027963","","","","","","","","","","","","","","","","","","","","","","","","","","","","","","","","","","","","","","","","","","","","","",""
"9649","","","{""green_ball"":[""Ball always shakes and moves in a random direction""]}","survey-multi-select","26","1136715","0.0-8.0-5.1-0.1","125","1","2025-07-02 10:20:05","80fe4187154257d5fb01684ea91b68b9","41.150.226.136","Mozilla/5.0 (Windows NT 10.0; Win64; x64) AppleWebKit/537.36 (KHTML, like Gecko) Chrome/138.0.0.0 Safari/537.36","WebKit","Chrome","138.0.0.0","Windows","10.0","https://app.prolific.com/","en-US,en;q=0.9","67f133dcba790167d0027963","683db6dfa200031b80f2a654","6865078bee1b354595560cc3","67f133dcba790167d0027963","","","[0]","","","","quiz","","","","","","","","","","","","","","","","","","","","","","","","","","","","","","","","","","","","","false","",""
"7580","","<p align='center'><b>INCORRECT.</b> Usually the green ball moves in the indicated direction, but sometimes it shakes and moves randomly. </p>","0","html-button-response","27","1144296","0.0-8.0-5.1-1.1","125","1","2025-07-02 10:20:05","80fe4187154257d5fb01684ea91b68b9","41.150.226.136","Mozilla/5.0 (Windows NT 10.0; Win64; x64) AppleWebKit/537.36 (KHTML, like Gecko) Chrome/138.0.0.0 Safari/537.36","WebKit","Chrome","138.0.0.0","Windows","10.0","https://app.prolific.com/","en-US,en;q=0.9","67f133dcba790167d0027963","683db6dfa200031b80f2a654","6865078bee1b354595560cc3","67f133dcba790167d0027963","","","","","","","","","","","","","","","","","","","","","","","","","","","","","","","","","","","","","","","","","","","","","",""
"3025","","","{""green_ball"":[""Ball sometimes shakes and moves in a random direction""]}","survey-multi-select","28","1147322","0.0-8.0-5.2-0.2","125","1","2025-07-02 10:20:05","80fe4187154257d5fb01684ea91b68b9","41.150.226.136","Mozilla/5.0 (Windows NT 10.0; Win64; x64) AppleWebKit/537.36 (KHTML, like Gecko) Chrome/138.0.0.0 Safari/537.36","WebKit","Chrome","138.0.0.0","Windows","10.0","https://app.prolific.com/","en-US,en;q=0.9","67f133dcba790167d0027963","683db6dfa200031b80f2a654","6865078bee1b354595560cc3","67f133dcba790167d0027963","","","[0]","","","","quiz","","","","","","","","","","","","","","","","","","","","","","","","","","","","","","","","","","","","","true","",""
"1542","","<p align='center'><b>CORRECT!</b> Indeed, the green ball may sometimes shake and move in a random direction.</p>","0","html-button-response","29","1148865","0.0-8.0-5.2-1.2","125","1","2025-07-02 10:20:05","80fe4187154257d5fb01684ea91b68b9","41.150.226.136","Mozilla/5.0 (Windows NT 10.0; Win64; x64) AppleWebKit/537.36 (KHTML, like Gecko) Chrome/138.0.0.0 Safari/537.36","WebKit","Chrome","138.0.0.0","Windows","10.0","https://app.prolific.com/","en-US,en;q=0.9","67f133dcba790167d0027963","683db6dfa200031b80f2a654","6865078bee1b354595560cc3","67f133dcba790167d0027963","","","","","","","","","","","","","","","","","","","","","","","","","","","","","","","","","","","","","","","","","","","","","",""
"6996","","","{""yellow_ball"":[""Ball doesn‘t move and I get -1 penalty point""]}","survey-multi-select","30","1155862","0.0-8.0-6.0-0.0","125","1","2025-07-02 10:20:05","80fe4187154257d5fb01684ea91b68b9","41.150.226.136","Mozilla/5.0 (Windows NT 10.0; Win64; x64) AppleWebKit/537.36 (KHTML, like Gecko) Chrome/138.0.0.0 Safari/537.36","WebKit","Chrome","138.0.0.0","Windows","10.0","https://app.prolific.com/","en-US,en;q=0.9","67f133dcba790167d0027963","683db6dfa200031b80f2a654","6865078bee1b354595560cc3","67f133dcba790167d0027963","","","[0]","","","","quiz","","","","","","","","","","","","","","","","","","","","","","","","","","","","","","","","","","","","","true","",""
"1865","","<p align='center'><b>CORRECT!</b> Indeed, the yellow ball never moves and you receive a penalty.</p>","0","html-button-response","31","1157729","0.0-8.0-6.0-1.0","125","1","2025-07-02 10:20:05","80fe4187154257d5fb01684ea91b68b9","41.150.226.136","Mozilla/5.0 (Windows NT 10.0; Win64; x64) AppleWebKit/537.36 (KHTML, like Gecko) Chrome/138.0.0.0 Safari/537.36","WebKit","Chrome","138.0.0.0","Windows","10.0","https://app.prolific.com/","en-US,en;q=0.9","67f133dcba790167d0027963","683db6dfa200031b80f2a654","6865078bee1b354595560cc3","67f133dcba790167d0027963","","","","","","","","","","","","","","","","","","","","","","","","","","","","","","","","","","","","","","","","","","","","","",""
"47049","","","{""blue_ball"":[""Ball always shakes and moves in a random direction""]}","survey-multi-select","32","1204781","0.0-8.0-7.0-0.0","125","1","2025-07-02 10:20:05","80fe4187154257d5fb01684ea91b68b9","41.150.226.136","Mozilla/5.0 (Windows NT 10.0; Win64; x64) AppleWebKit/537.36 (KHTML, like Gecko) Chrome/138.0.0.0 Safari/537.36","WebKit","Chrome","138.0.0.0","Windows","10.0","https://app.prolific.com/","en-US,en;q=0.9","67f133dcba790167d0027963","683db6dfa200031b80f2a654","6865078bee1b354595560cc3","67f133dcba790167d0027963","","","[0]","","","","quiz","","","","","","","","","","","","","","","","","","","","","","","","","","","","","","","","","","","","","true","",""
"1490","","<p align='center'><b>CORRECT!</b> Indeed, the blue ball always shakes and moves in a random direction. Also there is a penalty of -1 point.</p>","0","html-button-response","33","1206273","0.0-8.0-7.0-1.0","125","1","2025-07-02 10:20:05","80fe4187154257d5fb01684ea91b68b9","41.150.226.136","Mozilla/5.0 (Windows NT 10.0; Win64; x64) AppleWebKit/537.36 (KHTML, like Gecko) Chrome/138.0.0.0 Safari/537.36","WebKit","Chrome","138.0.0.0","Windows","10.0","https://app.prolific.com/","en-US,en;q=0.9","67f133dcba790167d0027963","683db6dfa200031b80f2a654","6865078bee1b354595560cc3","67f133dcba790167d0027963","","","","","","","","","","","","","","","","","","","","","","","","","","","","","","","","","","","","","","","","","","","","","",""
"10769","","","{""bonus"":[""When I reach 80% of points""]}","survey-multi-select","34","1217044","0.0-8.0-8.0-0.0","125","1","2025-07-02 10:20:05","80fe4187154257d5fb01684ea91b68b9","41.150.226.136","Mozilla/5.0 (Windows NT 10.0; Win64; x64) AppleWebKit/537.36 (KHTML, like Gecko) Chrome/138.0.0.0 Safari/537.36","WebKit","Chrome","138.0.0.0","Windows","10.0","https://app.prolific.com/","en-US,en;q=0.9","67f133dcba790167d0027963","683db6dfa200031b80f2a654","6865078bee1b354595560cc3","67f133dcba790167d0027963","","","[0]","","","","quiz","","","","","","","","","","","","","","","","","","","","","","","","","","","","","","","","","","","","","false","",""
"3207","","<p align='center'><b>INCORRECT.</b> You receive 2 pounds extra when you reach 50% of points </p>","0","html-button-response","35","1220252","0.0-8.0-8.0-1.0","125","1","2025-07-02 10:20:05","80fe4187154257d5fb01684ea91b68b9","41.150.226.136","Mozilla/5.0 (Windows NT 10.0; Win64; x64) AppleWebKit/537.36 (KHTML, like Gecko) Chrome/138.0.0.0 Safari/537.36","WebKit","Chrome","138.0.0.0","Windows","10.0","https://app.prolific.com/","en-US,en;q=0.9","67f133dcba790167d0027963","683db6dfa200031b80f2a654","6865078bee1b354595560cc3","67f133dcba790167d0027963","","","","","","","","","","","","","","","","","","","","","","","","","","","","","","","","","","","","","","","","","","","","","",""
"1957","","","{""bonus"":[""When I reach 50% of points""]}","survey-multi-select","36","1222212","0.0-8.0-8.1-0.1","125","1","2025-07-02 10:20:05","80fe4187154257d5fb01684ea91b68b9","41.150.226.136","Mozilla/5.0 (Windows NT 10.0; Win64; x64) AppleWebKit/537.36 (KHTML, like Gecko) Chrome/138.0.0.0 Safari/537.36","WebKit","Chrome","138.0.0.0","Windows","10.0","https://app.prolific.com/","en-US,en;q=0.9","67f133dcba790167d0027963","683db6dfa200031b80f2a654","6865078bee1b354595560cc3","67f133dcba790167d0027963","","","[0]","","","","quiz","","","","","","","","","","","","","","","","","","","","","","","","","","","","","","","","","","","","","true","",""
"1176","","<p align='center'><b>CORRECT!</b> Indeed, you receive 2 pounds extra when you reach 50% of points.</p>","0","html-button-response","37","1223390","0.0-8.0-8.1-1.1","125","1","2025-07-02 10:20:05","80fe4187154257d5fb01684ea91b68b9","41.150.226.136","Mozilla/5.0 (Windows NT 10.0; Win64; x64) AppleWebKit/537.36 (KHTML, like Gecko) Chrome/138.0.0.0 Safari/537.36","WebKit","Chrome","138.0.0.0","Windows","10.0","https://app.prolific.com/","en-US,en;q=0.9","67f133dcba790167d0027963","683db6dfa200031b80f2a654","6865078bee1b354595560cc3","67f133dcba790167d0027963","","","","","","","","","","","","","","","","","","","","","","","","","","","","","","","","","","","","","","","","","","","","","",""
"2841","","","","instructions","38","1226232","0.0-8.0-9.0","125","1","2025-07-02 10:20:05","80fe4187154257d5fb01684ea91b68b9","41.150.226.136","Mozilla/5.0 (Windows NT 10.0; Win64; x64) AppleWebKit/537.36 (KHTML, like Gecko) Chrome/138.0.0.0 Safari/537.36","WebKit","Chrome","138.0.0.0","Windows","10.0","https://app.prolific.com/","en-US,en;q=0.9","67f133dcba790167d0027963","683db6dfa200031b80f2a654","6865078bee1b354595560cc3","67f133dcba790167d0027963","","[{""page_index"":0,""viewing_time"":2840}]","","","","","","","","","","","","","","","","","","","","","","","","","","","","","","","","","","","","","","","","","","","",""
"9217","","<p>Before you start with this game please answer the following three questions yourself. </p>
  <p>Through this game, we measure several aspects of your cognitive performance, such as reaction times, multi-tasking capabilities </p>
  <p>and the ability to assess the situation you are in.</p>
  <p></p>
  <p><b>How good do you usually are in such tasks?</b></p>","67","html-slider-response","39","1235451","0.0-9.0-0.0","125","1","2025-07-02 10:20:05","80fe4187154257d5fb01684ea91b68b9","41.150.226.136","Mozilla/5.0 (Windows NT 10.0; Win64; x64) AppleWebKit/537.36 (KHTML, like Gecko) Chrome/138.0.0.0 Safari/537.36","WebKit","Chrome","138.0.0.0","Windows","10.0","https://app.prolific.com/","en-US,en;q=0.9","67f133dcba790167d0027963","683db6dfa200031b80f2a654","6865078bee1b354595560cc3","67f133dcba790167d0027963","2025-07-02T10:40:42.079Z","","","","","","PreSkillQ","","","","","","","","","","","","","","","","","","","","","","","","","","","","","","","","","","","","","","50",""
"5084","","<div style=""width:500px;"">
  <p>How well do you think you will perform in this task compared to other participants?</p>
  </div>","70","html-slider-response","40","1240537","0.0-9.0-1.0","125","1","2025-07-02 10:20:05","80fe4187154257d5fb01684ea91b68b9","41.150.226.136","Mozilla/5.0 (Windows NT 10.0; Win64; x64) AppleWebKit/537.36 (KHTML, like Gecko) Chrome/138.0.0.0 Safari/537.36","WebKit","Chrome","138.0.0.0","Windows","10.0","https://app.prolific.com/","en-US,en;q=0.9","67f133dcba790167d0027963","683db6dfa200031b80f2a654","6865078bee1b354595560cc3","67f133dcba790167d0027963","2025-07-02T10:40:47.165Z","","","","","","PrePerfQ","","","","","","","","","","","","","","","","","","","","","","","","","","","","","","","","","","","","","","50",""
"7053","","<div style=""width:500px;"">
  <p>What best describes how you currently feel?</p>
  </div>","96","html-slider-response","41","1247591","0.0-9.0-2.0","125","1","2025-07-02 10:20:05","80fe4187154257d5fb01684ea91b68b9","41.150.226.136","Mozilla/5.0 (Windows NT 10.0; Win64; x64) AppleWebKit/537.36 (KHTML, like Gecko) Chrome/138.0.0.0 Safari/537.36","WebKit","Chrome","138.0.0.0","Windows","10.0","https://app.prolific.com/","en-US,en;q=0.9","67f133dcba790167d0027963","683db6dfa200031b80f2a654","6865078bee1b354595560cc3","67f133dcba790167d0027963","2025-07-02T10:40:54.219Z","","","","","","PreMotivationQ","","","","","","","","","","","","","","","","","","","","","","","","","","","","","","","","","","","","","","50",""
"","","","","ctl-task-cpt","42","1269169","0.0-10.0-0.0","125","1","2025-07-02 10:20:05","80fe4187154257d5fb01684ea91b68b9","41.150.226.136","Mozilla/5.0 (Windows NT 10.0; Win64; x64) AppleWebKit/537.36 (KHTML, like Gecko) Chrome/138.0.0.0 Safari/537.36","WebKit","Chrome","138.0.0.0","Windows","10.0","https://app.prolific.com/","en-US,en;q=0.9","67f133dcba790167d0027963","683db6dfa200031b80f2a654","6865078bee1b354595560cc3","67f133dcba790167d0027963","2025-07-02T10:41:15.797Z","","","","","","","","","","","","","","","","win-only","0","g1:NW,g2:SE","1","1","0","1250165.1","1677.1","6679.7","18567.2","1","4","4","6","1","1","1","1","0","0.007575757575757576","5002.5","3000","15","[""left"",""up""]","{""num_key_presses"":4,""num_perfect"":4,""num_errors"":0,""num_randdir"":0,""num_randdir_good_moves"":0,""num_whilered"":0,""num_whileblue"":0,""num_blue"":0,""num_good_moves"":4}","[297.22232142857143,291.12857142857143,0.5,297.22232142857143,291.12857142857143,102.1,297.22232142857143,291.12857142857143,203.3,297.22232142857143,291.12857142857143,305,297.22232142857143,291.12857142857143,408.6,297.22232142857143,291.12857142857143,509,297.22232142857143,291.12857142857143,609.2,297.22232142857143,291.12857142857143,716.6,297.22232142857143,291.12857142857143,819.8,297.22232142857143,291.12857142857143,923.3,297.22232142857143,291.12857142857143,1024.7,297.22232142857143,291.12857142857143,1137,297.22232142857143,291.12857142857143,1238.2,297.22232142857143,291.12857142857143,1339.2,297.22232142857143,291.12857142857143,1444,297.22232142857143,291.12857142857143,1544.8,297.22232142857143,291.12857142857143,1650.4,297.22232142857143,291.12857142857143,1752.2,297.22232142857143,291.12857142857143,1853.5,297.22232142857143,291.12857142857143,1954.2,297.22232142857143,291.12857142857143,2058.6,297.22232142857143,291.12857142857143,2163.4,297.22232142857143,291.12857142857143,2267.6,297.22232142857143,291.12857142857143,2368.3,297.22232142857143,291.12857142857143,2468.4,296.22232142857143,291.12857142857143,2568.8,296.22232142857143,291.12857142857143,2669.4,296.22232142857143,291.12857142857143,2770.6,296.22232142857143,291.12857142857143,2873.6,296.22232142857143,291.12857142857143,2973.6,296.22232142857143,291.12857142857143,3075.1,296.22232142857143,291.12857142857143,3178.9,296.22232142857143,291.12857142857143,3278.9,296.22232142857143,291.12857142857143,3379.7,296.22232142857143,291.12857142857143,3484.3,296.22232142857143,291.12857142857143,3584.9,294.22232142857143,290.12857142857143,3688.3,272.22232142857143,261.12857142857143,3788.6,257.22232142857143,243.12857142857143,3889.5,248.22232142857143,234.12857142857143,4000.8,248.22232142857143,234.12857142857143,4103.3,248.22232142857143,234.12857142857143,4203.6,248.22232142857143,234.12857142857143,4303.7,248.22232142857143,234.12857142857143,4404.8,248.22232142857143,234.12857142857143,4508.8,248.22232142857143,234.12857142857143,4618.1,248.22232142857143,234.12857142857143,4719.2,248.22232142857143,234.12857142857143,4824.7,248.22232142857143,234.12857142857143,4928.6]","[3166.1,3166.1,1000,0.1,2166,""smooth"",""up"",""up"",""good_move"",6160.8,2993.7,2428.5,3167.1,565.2,""smooth"",""up"",""up"",""good_move"",8932.1,2770.5,2360.4,6161.6,410.1,""smooth"",""left"",""left"",""good_move"",11776.6,2843.8,2553.3,8933,290.4,""smooth"",""left"",""left"",""good_move""]","","",""
"7506","","<div style=""width:500px;"">
  <p>What determined the result of this run?</p>
  </div>","96","html-slider-response","43","1276676","0.0-10.0-1.0","125","1","2025-07-02 10:20:05","80fe4187154257d5fb01684ea91b68b9","41.150.226.136","Mozilla/5.0 (Windows NT 10.0; Win64; x64) AppleWebKit/537.36 (KHTML, like Gecko) Chrome/138.0.0.0 Safari/537.36","WebKit","Chrome","138.0.0.0","Windows","10.0","https://app.prolific.com/","en-US,en;q=0.9","67f133dcba790167d0027963","683db6dfa200031b80f2a654","6865078bee1b354595560cc3","67f133dcba790167d0027963","2025-07-02T10:41:23.304Z","","","","","","AttribQ","","","","","","","","","","","","","","","","","","","","","","","","","","","","","","","","","","","","","","50",""
"6090","","<div style=""width:500px;"">
  <p>How much control did you have over the ball?</p>
  </div>","94","html-slider-response","44","1282767","0.0-10.0-2.0","125","1","2025-07-02 10:20:05","80fe4187154257d5fb01684ea91b68b9","41.150.226.136","Mozilla/5.0 (Windows NT 10.0; Win64; x64) AppleWebKit/537.36 (KHTML, like Gecko) Chrome/138.0.0.0 Safari/537.36","WebKit","Chrome","138.0.0.0","Windows","10.0","https://app.prolific.com/","en-US,en;q=0.9","67f133dcba790167d0027963","683db6dfa200031b80f2a654","6865078bee1b354595560cc3","67f133dcba790167d0027963","2025-07-02T10:41:29.395Z","","","","","","ControlQ","","","","","","","","","","","","","","","","","","","","","","","","","","","","","","","","","","","","","","50",""
"6747","","<div style=""width:500px;"">
  <p>How would you describe your current emotional state?</p>
  </div>","28","html-slider-response","45","1289517","0.0-10.0-3.0","125","1","2025-07-02 10:20:05","80fe4187154257d5fb01684ea91b68b9","41.150.226.136","Mozilla/5.0 (Windows NT 10.0; Win64; x64) AppleWebKit/537.36 (KHTML, like Gecko) Chrome/138.0.0.0 Safari/537.36","WebKit","Chrome","138.0.0.0","Windows","10.0","https://app.prolific.com/","en-US,en;q=0.9","67f133dcba790167d0027963","683db6dfa200031b80f2a654","6865078bee1b354595560cc3","67f133dcba790167d0027963","2025-07-02T10:41:36.145Z","","","","","","StressQ","","","","","","","","","","","","","","","","","","","","","","","","","","","","","","","","","","","","","","50",""
"6599","","<div style=""width:500px;"">
  <p>What best describes how you currently feel?</p>
  </div>","86","html-slider-response","46","1296118","0.0-10.0-4.0","125","1","2025-07-02 10:20:05","80fe4187154257d5fb01684ea91b68b9","41.150.226.136","Mozilla/5.0 (Windows NT 10.0; Win64; x64) AppleWebKit/537.36 (KHTML, like Gecko) Chrome/138.0.0.0 Safari/537.36","WebKit","Chrome","138.0.0.0","Windows","10.0","https://app.prolific.com/","en-US,en;q=0.9","67f133dcba790167d0027963","683db6dfa200031b80f2a654","6865078bee1b354595560cc3","67f133dcba790167d0027963","2025-07-02T10:41:42.746Z","","","","","","MotivationQ","","","","","","","","","","","","","","","","","","","","","","","","","","","","","","","","","","","","","","50",""
"","","","","ctl-task-cpt","47","1320266","0.0-10.0-0.1","125","1","2025-07-02 10:20:05","80fe4187154257d5fb01684ea91b68b9","41.150.226.136","Mozilla/5.0 (Windows NT 10.0; Win64; x64) AppleWebKit/537.36 (KHTML, like Gecko) Chrome/138.0.0.0 Safari/537.36","WebKit","Chrome","138.0.0.0","Windows","10.0","https://app.prolific.com/","en-US,en;q=0.9","67f133dcba790167d0027963","683db6dfa200031b80f2a654","6865078bee1b354595560cc3","67f133dcba790167d0027963","2025-07-02T10:42:06.895Z","","","","","","","","","","","","","","","","win-only","0","g1:NW,g2:SE","0.9","2","0","1298692.3","1833.4","6847.1","21116.8","1","4","8","6","2","-8","-10","0","1","0","5013.6","3000","-2395","[""down"",""right""]","{""num_key_presses"":4,""num_perfect"":2,""num_errors"":2,""num_randdir"":0,""num_randdir_good_moves"":0,""num_whilered"":0,""num_whileblue"":1,""num_blue"":1,""num_good_moves"":3}","[292.22232142857143,300.12857142857143,0.6,292.22232142857143,300.12857142857143,105.1,292.22232142857143,300.12857142857143,213.5,292.22232142857143,300.12857142857143,317.1,292.22232142857143,300.12857142857143,418.2,292.22232142857143,300.12857142857143,532.6,292.22232142857143,300.12857142857143,633,292.22232142857143,300.12857142857143,737.3,292.22232142857143,300.12857142857143,840.9,292.22232142857143,300.12857142857143,941.6,292.22232142857143,300.12857142857143,1043.3,292.22232142857143,300.12857142857143,1153.9,292.22232142857143,300.12857142857143,1265,292.22232142857143,300.12857142857143,1375.6,292.22232142857143,300.12857142857143,1477.8,292.22232142857143,300.12857142857143,1587,292.22232142857143,300.12857142857143,1700.9,292.22232142857143,300.12857142857143,1814.8,292.22232142857143,300.12857142857143,1925.2,292.22232142857143,300.12857142857143,2027.1,292.22232142857143,300.12857142857143,2128.8,292.22232142857143,300.12857142857143,2232,292.22232142857143,300.12857142857143,2332.2,292.22232142857143,300.12857142857143,2432.2,292.22232142857143,300.12857142857143,2533.2,275.22232142857143,296.12857142857143,2638.6,255.22232142857143,275.12857142857143,2742.8,254.22232142857143,264.12857142857143,2848.3,253.22232142857143,257.12857142857143,2962.8,250.22232142857143,251.12857142857143,3064.5,247.22232142857143,246.12857142857143,3167.2,245.22232142857143,244.12857142857143,3268.5,245.22232142857143,244.12857142857143,3374.7,245.22232142857143,244.12857142857143,3480.8,245.22232142857143,244.12857142857143,3583,245.22232142857143,244.12857142857143,3683.2,245.22232142857143,244.12857142857143,3794.1,245.22232142857143,244.12857142857143,3897.1,245.22232142857143,244.12857142857143,3998.2,245.22232142857143,244.12857142857143,4112.1,245.22232142857143,244.12857142857143,4217,245.22232142857143,244.12857142857143,4326.9,245.22232142857143,244.12857142857143,4427.5,245.22232142857143,244.12857142857143,4528,245.22232142857143,244.12857142857143,4632.8,245.22232142857143,244.12857142857143,4733.6,245.22232142857143,244.12857142857143,4841.9,245.22232142857143,244.12857142857143,4944]","[3979.2,3979.2,1000,0,2979.2,""smooth"",""down"",""down"",""good_move"",4686.2,706.3,2250.2,3980.1,-1544,""error"",""-"",""-"",""no_move"",8777.9,4091.1,2510.8,5697.5,569.6,""smooth"",""down"",""down"",""good_move"",11489.1,2710.5,2314.7,8778.6,395.8,""while_blue"",""right"",""down"",""good_move""]","","",""
"6434","","<div style=""width:500px;"">
  <p>What determined the result of this run?</p>
  </div>","8","html-slider-response","48","1326703","0.0-10.0-1.1","125","1","2025-07-02 10:20:05","80fe4187154257d5fb01684ea91b68b9","41.150.226.136","Mozilla/5.0 (Windows NT 10.0; Win64; x64) AppleWebKit/537.36 (KHTML, like Gecko) Chrome/138.0.0.0 Safari/537.36","WebKit","Chrome","138.0.0.0","Windows","10.0","https://app.prolific.com/","en-US,en;q=0.9","67f133dcba790167d0027963","683db6dfa200031b80f2a654","6865078bee1b354595560cc3","67f133dcba790167d0027963","2025-07-02T10:42:13.331Z","","","","","","AttribQ","","","","","","","","","","","","","","","","","","","","","","","","","","","","","","","","","","","","","","50",""
"4432","","<div style=""width:500px;"">
  <p>How much control did you have over the ball?</p>
  </div>","41","html-slider-response","49","1331137","0.0-10.0-2.1","125","1","2025-07-02 10:20:05","80fe4187154257d5fb01684ea91b68b9","41.150.226.136","Mozilla/5.0 (Windows NT 10.0; Win64; x64) AppleWebKit/537.36 (KHTML, like Gecko) Chrome/138.0.0.0 Safari/537.36","WebKit","Chrome","138.0.0.0","Windows","10.0","https://app.prolific.com/","en-US,en;q=0.9","67f133dcba790167d0027963","683db6dfa200031b80f2a654","6865078bee1b354595560cc3","67f133dcba790167d0027963","2025-07-02T10:42:17.765Z","","","","","","ControlQ","","","","","","","","","","","","","","","","","","","","","","","","","","","","","","","","","","","","","","50",""
"8060","","<div style=""width:500px;"">
  <p>How would you describe your current emotional state?</p>
  </div>","76","html-slider-response","50","1339200","0.0-10.0-3.1","125","1","2025-07-02 10:20:05","80fe4187154257d5fb01684ea91b68b9","41.150.226.136","Mozilla/5.0 (Windows NT 10.0; Win64; x64) AppleWebKit/537.36 (KHTML, like Gecko) Chrome/138.0.0.0 Safari/537.36","WebKit","Chrome","138.0.0.0","Windows","10.0","https://app.prolific.com/","en-US,en;q=0.9","67f133dcba790167d0027963","683db6dfa200031b80f2a654","6865078bee1b354595560cc3","67f133dcba790167d0027963","2025-07-02T10:42:25.828Z","","","","","","StressQ","","","","","","","","","","","","","","","","","","","","","","","","","","","","","","","","","","","","","","50",""
"3674","","<div style=""width:500px;"">
  <p>What best describes how you currently feel?</p>
  </div>","72","html-slider-response","51","1342875","0.0-10.0-4.1","125","1","2025-07-02 10:20:05","80fe4187154257d5fb01684ea91b68b9","41.150.226.136","Mozilla/5.0 (Windows NT 10.0; Win64; x64) AppleWebKit/537.36 (KHTML, like Gecko) Chrome/138.0.0.0 Safari/537.36","WebKit","Chrome","138.0.0.0","Windows","10.0","https://app.prolific.com/","en-US,en;q=0.9","67f133dcba790167d0027963","683db6dfa200031b80f2a654","6865078bee1b354595560cc3","67f133dcba790167d0027963","2025-07-02T10:42:29.503Z","","","","","","MotivationQ","","","","","","","","","","","","","","","","","","","","","","","","","","","","","","","","","","","","","","50",""
"","","","","ctl-task-cpt","52","1374881","0.0-10.0-0.2","125","1","2025-07-02 10:20:05","80fe4187154257d5fb01684ea91b68b9","41.150.226.136","Mozilla/5.0 (Windows NT 10.0; Win64; x64) AppleWebKit/537.36 (KHTML, like Gecko) Chrome/138.0.0.0 Safari/537.36","WebKit","Chrome","138.0.0.0","Windows","10.0","https://app.prolific.com/","en-US,en;q=0.9","67f133dcba790167d0027963","683db6dfa200031b80f2a654","6865078bee1b354595560cc3","67f133dcba790167d0027963","2025-07-02T10:43:01.510Z","","","","","","","","","","","","","","","","win-only","3","g1:SW,g2:NE","0.8","3","0","1345448.9","2347.1","7348.8","28988","1","4","4","6","1","1","-2","0","0","0","5001.5","3000","935","[""down"",""left""]","{""num_key_presses"":8,""num_perfect"":4,""num_errors"":3,""num_randdir"":1,""num_randdir_good_moves"":1,""num_whilered"":0,""num_whileblue"":1,""num_blue"":1,""num_good_moves"":5}","[295.15708438284844,292.7008118228963,0.2,295.15708438284844,292.7008118228963,100.7,295.15708438284844,292.7008118228963,215.6,295.15708438284844,292.7008118228963,319.1,295.15708438284844,292.7008118228963,433.5,295.15708438284844,292.7008118228963,534.9,295.15708438284844,292.7008118228963,650.5,295.15708438284844,292.7008118228963,767.3,295.15708438284844,292.7008118228963,870.2,295.15708438284844,292.7008118228963,981.6,295.15708438284844,292.7008118228963,1086.5,295.15708438284844,292.7008118228963,1199.8,295.15708438284844,292.7008118228963,1300.8,295.15708438284844,292.7008118228963,1402.2,295.15708438284844,292.7008118228963,1515.4,295.15708438284844,292.7008118228963,1617.3,295.15708438284844,292.7008118228963,1719.5,295.15708438284844,292.7008118228963,1819.8,295.15708438284844,292.7008118228963,1920.3,295.15708438284844,292.7008118228963,2020.6,295.15708438284844,292.7008118228963,2124,295.15708438284844,292.7008118228963,2224.3,295.15708438284844,292.7008118228963,2324.7,295.15708438284844,292.7008118228963,2429.8,295.15708438284844,292.7008118228963,2531,290.757084287481,292.7008118228963,2634.8,275.357083953695,279.500811536794,2750.3,267.657083786802,278.40081151295215,2850.7,248.9570833814904,301.50081201363116,2957.1,225.8570828808114,341.10081287193805,3057.3,221.45708278544396,345.5008129673055,3162,221.45708278544396,345.5008129673055,3276.2,221.45708278544396,345.5008129673055,3376.2,221.45708278544396,345.5008129673055,3479.5,223.65708283312767,345.5008129673055,3593.4,226.95708290465325,344.4008129434636,3716.5,229.15708295233696,343.30081291962176,3823.1,229.15708295233696,343.30081291962176,3938.4,229.15708295233696,343.30081291962176,4053.4,229.15708295233696,343.30081291962176,4161.2,229.15708295233696,343.30081291962176,4270.8,229.15708295233696,343.30081291962176,4375.4,229.15708295233696,343.30081291962176,4485.3,229.15708295233696,343.30081291962176,4609,229.15708295233696,343.30081291962176,4716.5,229.15708295233696,343.30081291962176,4827.6,229.15708295233696,343.30081291962176,4931.3]","[1985.6,1985.6,1000,0,985.6,""smooth"",""right"",""right"",""bad_move"",2758.2,769.3,2323,1989,-1553.8,""error"",""-"",""-"",""no_move"",4600.9,1841.2,2527.8,3764,-1690.9,""error"",""-"",""-"",""no_move"",9091.7,4490.6,3083.2,5604.2,404.3,""smooth"",""down"",""down"",""good_move"",12576.6,3484,3106.1,9092.6,377.9,""oops"",""down"",""left"",""good_move"",15241.9,2664.4,1669.1,12577.6,995.2,""smooth"",""down"",""down"",""good_move"",17929.3,2686.3,2316.5,15243,369.8,""while_blue"",""left"",""left"",""good_move"",21518.6,3588.8,3200.1,17929.8,388.7,""smooth"",""left"",""left"",""good_move""]","","",""
"5683","","<div style=""width:500px;"">
  <p>What determined the result of this run?</p>
  </div>","41","html-slider-response","53","1380566","0.0-10.0-1.2","125","1","2025-07-02 10:20:05","80fe4187154257d5fb01684ea91b68b9","41.150.226.136","Mozilla/5.0 (Windows NT 10.0; Win64; x64) AppleWebKit/537.36 (KHTML, like Gecko) Chrome/138.0.0.0 Safari/537.36","WebKit","Chrome","138.0.0.0","Windows","10.0","https://app.prolific.com/","en-US,en;q=0.9","67f133dcba790167d0027963","683db6dfa200031b80f2a654","6865078bee1b354595560cc3","67f133dcba790167d0027963","2025-07-02T10:43:07.194Z","","","","","","AttribQ","","","","","","","","","","","","","","","","","","","","","","","","","","","","","","","","","","","","","","50",""
"4659","","<div style=""width:500px;"">
  <p>How much control did you have over the ball?</p>
  </div>","35","html-slider-response","54","1385227","0.0-10.0-2.2","125","1","2025-07-02 10:20:05","80fe4187154257d5fb01684ea91b68b9","41.150.226.136","Mozilla/5.0 (Windows NT 10.0; Win64; x64) AppleWebKit/537.36 (KHTML, like Gecko) Chrome/138.0.0.0 Safari/537.36","WebKit","Chrome","138.0.0.0","Windows","10.0","https://app.prolific.com/","en-US,en;q=0.9","67f133dcba790167d0027963","683db6dfa200031b80f2a654","6865078bee1b354595560cc3","67f133dcba790167d0027963","2025-07-02T10:43:11.855Z","","","","","","ControlQ","","","","","","","","","","","","","","","","","","","","","","","","","","","","","","","","","","","","","","50",""
"2199","","<div style=""width:500px;"">
  <p>How would you describe your current emotional state?</p>
  </div>","43","html-slider-response","55","1387428","0.0-10.0-3.2","125","1","2025-07-02 10:20:05","80fe4187154257d5fb01684ea91b68b9","41.150.226.136","Mozilla/5.0 (Windows NT 10.0; Win64; x64) AppleWebKit/537.36 (KHTML, like Gecko) Chrome/138.0.0.0 Safari/537.36","WebKit","Chrome","138.0.0.0","Windows","10.0","https://app.prolific.com/","en-US,en;q=0.9","67f133dcba790167d0027963","683db6dfa200031b80f2a654","6865078bee1b354595560cc3","67f133dcba790167d0027963","2025-07-02T10:43:14.056Z","","","","","","StressQ","","","","","","","","","","","","","","","","","","","","","","","","","","","","","","","","","","","","","","50",""
"3023","","<div style=""width:500px;"">
  <p>What best describes how you currently feel?</p>
  </div>","42","html-slider-response","56","1390453","0.0-10.0-4.2","125","1","2025-07-02 10:20:05","80fe4187154257d5fb01684ea91b68b9","41.150.226.136","Mozilla/5.0 (Windows NT 10.0; Win64; x64) AppleWebKit/537.36 (KHTML, like Gecko) Chrome/138.0.0.0 Safari/537.36","WebKit","Chrome","138.0.0.0","Windows","10.0","https://app.prolific.com/","en-US,en;q=0.9","67f133dcba790167d0027963","683db6dfa200031b80f2a654","6865078bee1b354595560cc3","67f133dcba790167d0027963","2025-07-02T10:43:17.082Z","","","","","","MotivationQ","","","","","","","","","","","","","","","","","","","","","","","","","","","","","","","","","","","","","","50",""
"","","","","ctl-task-cpt","57","1420941","0.0-10.0-0.3","125","1","2025-07-02 10:20:05","80fe4187154257d5fb01684ea91b68b9","41.150.226.136","Mozilla/5.0 (Windows NT 10.0; Win64; x64) AppleWebKit/537.36 (KHTML, like Gecko) Chrome/138.0.0.0 Safari/537.36","WebKit","Chrome","138.0.0.0","Windows","10.0","https://app.prolific.com/","en-US,en;q=0.9","67f133dcba790167d0027963","683db6dfa200031b80f2a654","6865078bee1b354595560cc3","67f133dcba790167d0027963","2025-07-02T10:43:47.571Z","","","","","","","","","","","","","","","","win-only","0","g1:NW,g2:SE","0.7","4","0","1393029.8","5634.2","10641.1","27465.6","1","4","8","6","1","1","0","0","0","0","5006.9","3000","1725","[""left"",""up""]","{""num_key_presses"":6,""num_perfect"":3,""num_errors"":1,""num_randdir"":2,""num_randdir_good_moves"":1,""num_whilered"":0,""num_whileblue"":1,""num_blue"":1,""num_good_moves"":5}","[295.15708438284844,293.80081184673816,0.8,295.15708438284844,293.80081184673816,102.3,295.15708438284844,293.80081184673816,207.1,295.15708438284844,293.80081184673816,321.9,295.15708438284844,293.80081184673816,432.7,295.15708438284844,293.80081184673816,537.2,295.15708438284844,293.80081184673816,642.1,295.15708438284844,293.80081184673816,742.1,295.15708438284844,293.80081184673816,847.9,295.15708438284844,293.80081184673816,952.7,295.15708438284844,293.80081184673816,1057.6,295.15708438284844,293.80081184673816,1163.7,295.15708438284844,293.80081184673816,1263.7,295.15708438284844,293.80081184673816,1378.7,295.15708438284844,293.80081184673816,1483.9,295.15708438284844,293.80081184673816,1605.5,295.15708438284844,293.80081184673816,1711,273.1570839060113,272.90081139374286,1813.4,243.45708326228112,247.60081084538012,1913.6,237.95708314307183,239.90081067848712,2018.9,233.5570830477044,236.60081060696155,2122.3,233.5570830477044,236.60081060696155,2231.2,233.5570830477044,236.60081060696155,2348.8,233.5570830477044,236.60081060696155,2450.9,233.5570830477044,236.60081060696155,2564,233.5570830477044,236.60081060696155,2677.7,233.5570830477044,236.60081060696155,2779.7,233.5570830477044,236.60081060696155,2882.2,233.5570830477044,236.60081060696155,2986.6,233.5570830477044,236.60081060696155,3092.6,233.5570830477044,236.60081060696155,3194.7,233.5570830477044,236.60081060696155,3296.7,233.5570830477044,236.60081060696155,3413.1,233.5570830477044,236.60081060696155,3518.2,233.5570830477044,236.60081060696155,3618.5,233.5570830477044,236.60081060696155,3722.2,233.5570830477044,236.60081060696155,3829.2,233.5570830477044,236.60081060696155,3932.7,233.5570830477044,236.60081060696155,4040,233.5570830477044,236.60081060696155,4141.8,233.5570830477044,236.60081060696155,4250.4,233.5570830477044,236.60081060696155,4365,233.5570830477044,236.60081060696155,4466.1,233.5570830477044,236.60081060696155,4572.9,233.5570830477044,236.60081060696155,4676.9,233.5570830477044,236.60081060696155,4798,233.5570830477044,236.60081060696155,4916.3]","[1330.2,1330.2,1000,0,330.2,""oops"",""up"",""left"",""good_move"",5269.6,3938.4,3209.5,1331.3,728.8,""while_blue"",""up"",""left"",""good_move"",8482.4,3212.3,2855.4,5270.2,356.8,""smooth"",""up"",""up"",""good_move"",11324.8,2841.8,2501.5,8483,340.3,""oops"",""up"",""down"",""bad_move"",14340.5,3014.4,2650.6,11326.1,363.8,""smooth"",""up"",""up"",""good_move"",16694.3,2353.4,1946,14341,407.3,""smooth"",""up"",""up"",""good_move""]","","",""
"4622","","<div style=""width:500px;"">
  <p>What determined the result of this run?</p>
  </div>","91","html-slider-response","58","1425567","0.0-10.0-1.3","125","1","2025-07-02 10:20:05","80fe4187154257d5fb01684ea91b68b9","41.150.226.136","Mozilla/5.0 (Windows NT 10.0; Win64; x64) AppleWebKit/537.36 (KHTML, like Gecko) Chrome/138.0.0.0 Safari/537.36","WebKit","Chrome","138.0.0.0","Windows","10.0","https://app.prolific.com/","en-US,en;q=0.9","67f133dcba790167d0027963","683db6dfa200031b80f2a654","6865078bee1b354595560cc3","67f133dcba790167d0027963","2025-07-02T10:43:52.196Z","","","","","","AttribQ","","","","","","","","","","","","","","","","","","","","","","","","","","","","","","","","","","","","","","50",""
"2292","","<div style=""width:500px;"">
  <p>How much control did you have over the ball?</p>
  </div>","84","html-slider-response","59","1427861","0.0-10.0-2.3","125","1","2025-07-02 10:20:05","80fe4187154257d5fb01684ea91b68b9","41.150.226.136","Mozilla/5.0 (Windows NT 10.0; Win64; x64) AppleWebKit/537.36 (KHTML, like Gecko) Chrome/138.0.0.0 Safari/537.36","WebKit","Chrome","138.0.0.0","Windows","10.0","https://app.prolific.com/","en-US,en;q=0.9","67f133dcba790167d0027963","683db6dfa200031b80f2a654","6865078bee1b354595560cc3","67f133dcba790167d0027963","2025-07-02T10:43:54.490Z","","","","","","ControlQ","","","","","","","","","","","","","","","","","","","","","","","","","","","","","","","","","","","","","","50",""
"3531","","<div style=""width:500px;"">
  <p>How would you describe your current emotional state?</p>
  </div>","91","html-slider-response","60","1431394","0.0-10.0-3.3","125","1","2025-07-02 10:20:05","80fe4187154257d5fb01684ea91b68b9","41.150.226.136","Mozilla/5.0 (Windows NT 10.0; Win64; x64) AppleWebKit/537.36 (KHTML, like Gecko) Chrome/138.0.0.0 Safari/537.36","WebKit","Chrome","138.0.0.0","Windows","10.0","https://app.prolific.com/","en-US,en;q=0.9","67f133dcba790167d0027963","683db6dfa200031b80f2a654","6865078bee1b354595560cc3","67f133dcba790167d0027963","2025-07-02T10:43:58.022Z","","","","","","StressQ","","","","","","","","","","","","","","","","","","","","","","","","","","","","","","","","","","","","","","50",""
"3929","","<div style=""width:500px;"">
  <p>What best describes how you currently feel?</p>
  </div>","83","html-slider-response","61","1435325","0.0-10.0-4.3","125","1","2025-07-02 10:20:05","80fe4187154257d5fb01684ea91b68b9","41.150.226.136","Mozilla/5.0 (Windows NT 10.0; Win64; x64) AppleWebKit/537.36 (KHTML, like Gecko) Chrome/138.0.0.0 Safari/537.36","WebKit","Chrome","138.0.0.0","Windows","10.0","https://app.prolific.com/","en-US,en;q=0.9","67f133dcba790167d0027963","683db6dfa200031b80f2a654","6865078bee1b354595560cc3","67f133dcba790167d0027963","2025-07-02T10:44:01.953Z","","","","","","MotivationQ","","","","","","","","","","","","","","","","","","","","","","","","","","","","","","","","","","","","","","50",""
"","","","","ctl-task-cpt","62","1466804","0.0-10.0-0.4","125","1","2025-07-02 10:20:05","80fe4187154257d5fb01684ea91b68b9","41.150.226.136","Mozilla/5.0 (Windows NT 10.0; Win64; x64) AppleWebKit/537.36 (KHTML, like Gecko) Chrome/138.0.0.0 Safari/537.36","WebKit","Chrome","138.0.0.0","Windows","10.0","https://app.prolific.com/","en-US,en;q=0.9","67f133dcba790167d0027963","683db6dfa200031b80f2a654","6865078bee1b354595560cc3","67f133dcba790167d0027963","2025-07-02T10:44:33.432Z","","","","","","","","","","","","","","","","win-only","1","g1:NE,g2:SW","0.6","5","0","1437901.2","5925.9","10926.7","28455.6","1","4","8","6","1","1","-2","0","0","0","5000.8","3000","2010","[""up"",""right""]","{""num_key_presses"":6,""num_perfect"":3,""num_errors"":3,""num_randdir"":0,""num_randdir_good_moves"":0,""num_whilered"":0,""num_whileblue"":3,""num_blue"":3,""num_good_moves"":5}","[296.2570844066903,291.60081179905444,0.6,296.2570844066903,291.60081179905444,100.6,296.2570844066903,291.60081179905444,201.1,296.2570844066903,291.60081179905444,309.3,296.2570844066903,291.60081179905444,411.4,296.2570844066903,291.60081179905444,535.1,296.2570844066903,291.60081179905444,635.7,296.2570844066903,291.60081179905444,736.1,296.2570844066903,291.60081179905444,845.1,296.2570844066903,291.60081179905444,964.8,296.2570844066903,291.60081179905444,1069.4,296.2570844066903,291.60081179905444,1172.7,296.2570844066903,291.60081179905444,1285.8,296.2570844066903,291.60081179905444,1391.3,328.1570850981042,256.400811036115,1495.4,346.85708550341576,226.70081039238482,1598.1,350.15708557494133,223.40081032085925,1701.5,350.15708557494133,223.40081032085925,1836.4,346.85708550341576,231.10081048775226,1946.3,344.65708545573204,236.60081060696155,2075.4,343.5570854318902,237.7008106308034,2185.4,343.5570854318902,237.7008106308034,2294.7,343.5570854318902,237.7008106308034,2398.4,343.5570854318902,237.7008106308034,2501.7,343.5570854318902,237.7008106308034,2602.4,343.5570854318902,237.7008106308034,2707.4,343.5570854318902,237.7008106308034,2811.5,343.5570854318902,237.7008106308034,2914.5,343.5570854318902,237.7008106308034,3016.6,343.5570854318902,237.7008106308034,3122.7,343.5570854318902,237.7008106308034,3226.1,343.5570854318902,237.7008106308034,3330.2,343.5570854318902,237.7008106308034,3430.4,343.5570854318902,237.7008106308034,3532.9,343.5570854318902,237.7008106308034,3635.7,343.5570854318902,237.7008106308034,3736.2,343.5570854318902,237.7008106308034,3844.5,343.5570854318902,237.7008106308034,3952.6,343.5570854318902,237.7008106308034,4053.9,343.5570854318902,237.7008106308034,4159.6,343.5570854318902,237.7008106308034,4261.3,343.5570854318902,237.7008106308034,4363.9,343.5570854318902,237.7008106308034,4464.4,343.5570854318902,237.7008106308034,4566.3,343.5570854318902,237.7008106308034,4685.6,343.5570854318902,237.7008106308034,4791,343.5570854318902,237.7008106308034,4892.4,343.5570854318902,237.7008106308034,4995.3]","[1400.6,1400.6,1000.4,0,400.2,""while_blue"",""up"",""down"",""bad_move"",4669.2,3268,2332.6,1401.3,935.3,""smooth"",""up"",""up"",""good_move"",8172.1,3502.1,2885.6,4670,616.5,""while_blue"",""up"",""up"",""good_move"",11445.2,3272.4,2942.4,8172.8,330,""while_blue"",""right"",""right"",""good_move"",14625.7,3177.9,2832.3,11447.8,345.6,""smooth"",""up"",""up"",""good_move"",17404.2,2777.8,2470.5,14626.5,307.3,""smooth"",""right"",""right"",""good_move""]","","",""
"7257","","<div style=""width:500px;"">
  <p>What determined the result of this run?</p>
  </div>","64","html-slider-response","63","1474064","0.0-10.0-1.4","125","1","2025-07-02 10:20:05","80fe4187154257d5fb01684ea91b68b9","41.150.226.136","Mozilla/5.0 (Windows NT 10.0; Win64; x64) AppleWebKit/537.36 (KHTML, like Gecko) Chrome/138.0.0.0 Safari/537.36","WebKit","Chrome","138.0.0.0","Windows","10.0","https://app.prolific.com/","en-US,en;q=0.9","67f133dcba790167d0027963","683db6dfa200031b80f2a654","6865078bee1b354595560cc3","67f133dcba790167d0027963","2025-07-02T10:44:40.693Z","","","","","","AttribQ","","","","","","","","","","","","","","","","","","","","","","","","","","","","","","","","","","","","","","50",""
"2016","","<div style=""width:500px;"">
  <p>How much control did you have over the ball?</p>
  </div>","64","html-slider-response","64","1476084","0.0-10.0-2.4","125","1","2025-07-02 10:20:05","80fe4187154257d5fb01684ea91b68b9","41.150.226.136","Mozilla/5.0 (Windows NT 10.0; Win64; x64) AppleWebKit/537.36 (KHTML, like Gecko) Chrome/138.0.0.0 Safari/537.36","WebKit","Chrome","138.0.0.0","Windows","10.0","https://app.prolific.com/","en-US,en;q=0.9","67f133dcba790167d0027963","683db6dfa200031b80f2a654","6865078bee1b354595560cc3","67f133dcba790167d0027963","2025-07-02T10:44:42.712Z","","","","","","ControlQ","","","","","","","","","","","","","","","","","","","","","","","","","","","","","","","","","","","","","","50",""
"2047","","<div style=""width:500px;"">
  <p>How would you describe your current emotional state?</p>
  </div>","66","html-slider-response","65","1478133","0.0-10.0-3.4","125","1","2025-07-02 10:20:05","80fe4187154257d5fb01684ea91b68b9","41.150.226.136","Mozilla/5.0 (Windows NT 10.0; Win64; x64) AppleWebKit/537.36 (KHTML, like Gecko) Chrome/138.0.0.0 Safari/537.36","WebKit","Chrome","138.0.0.0","Windows","10.0","https://app.prolific.com/","en-US,en;q=0.9","67f133dcba790167d0027963","683db6dfa200031b80f2a654","6865078bee1b354595560cc3","67f133dcba790167d0027963","2025-07-02T10:44:44.761Z","","","","","","StressQ","","","","","","","","","","","","","","","","","","","","","","","","","","","","","","","","","","","","","","50",""
"2412","","<div style=""width:500px;"">
  <p>What best describes how you currently feel?</p>
  </div>","67","html-slider-response","66","1480548","0.0-10.0-4.4","125","1","2025-07-02 10:20:05","80fe4187154257d5fb01684ea91b68b9","41.150.226.136","Mozilla/5.0 (Windows NT 10.0; Win64; x64) AppleWebKit/537.36 (KHTML, like Gecko) Chrome/138.0.0.0 Safari/537.36","WebKit","Chrome","138.0.0.0","Windows","10.0","https://app.prolific.com/","en-US,en;q=0.9","67f133dcba790167d0027963","683db6dfa200031b80f2a654","6865078bee1b354595560cc3","67f133dcba790167d0027963","2025-07-02T10:44:47.176Z","","","","","","MotivationQ","","","","","","","","","","","","","","","","","","","","","","","","","","","","","","","","","","","","","","50",""
"","","","","ctl-task-cpt","67","1522321","0.0-10.0-0.5","125","1","2025-07-02 10:20:05","80fe4187154257d5fb01684ea91b68b9","41.150.226.136","Mozilla/5.0 (Windows NT 10.0; Win64; x64) AppleWebKit/537.36 (KHTML, like Gecko) Chrome/138.0.0.0 Safari/537.36","WebKit","Chrome","138.0.0.0","Windows","10.0","https://app.prolific.com/","en-US,en;q=0.9","67f133dcba790167d0027963","683db6dfa200031b80f2a654","6865078bee1b354595560cc3","67f133dcba790167d0027963","2025-07-02T10:45:28.949Z","","","","","","","","","","","","","","","","win-only","1","g1:NE,g2:SW","0.5","6","0","1483122.5","3033.5","8042.2","38748.2","1","4","4","6","2","4","2","2","0","0.015151515151515152","5008.7","3000","1910","[""down"",""left""]","{""num_key_presses"":10,""num_perfect"":5,""num_errors"":2,""num_randdir"":3,""num_randdir_good_moves"":2,""num_whilered"":0,""num_whileblue"":0,""num_blue"":1,""num_good_moves"":7}","[296.2570844066903,290.5008117752126,0.6,296.2570844066903,290.5008117752126,105.2,296.2570844066903,290.5008117752126,213,296.2570844066903,290.5008117752126,316.8,296.2570844066903,290.5008117752126,428.4,296.2570844066903,290.5008117752126,537.4,296.2570844066903,290.5008117752126,639.8,296.2570844066903,290.5008117752126,740.3,296.2570844066903,290.5008117752126,848.1,296.2570844066903,290.5008117752126,948.9,296.2570844066903,290.5008117752126,1054.8,296.2570844066903,290.5008117752126,1158.9,296.2570844066903,290.5008117752126,1260.5,313.85708478816,281.7008115844777,1361.3,343.5570854318902,266.3008112506917,1476,371.05708602793663,247.60081084538012,1581.5,384.25708631403893,234.40081055927783,1690.8,394.15708652861565,222.3008102970174,1795.5,395.2570865524575,219.00081022549182,1898.7,391.95708648093193,217.90081020164996,2002.6,373.25708607562035,223.40081032085925,2116.3,351.2570855987832,243.2008107500127,2220.7,349.0570855510995,246.50081082153827,2324.1,347.9570855272576,246.50081082153827,2427.9,347.9570855272576,246.50081082153827,2531,347.9570855272576,246.50081082153827,2633.1,347.9570855272576,246.50081082153827,2742.7,347.9570855272576,246.50081082153827,2842.7,347.9570855272576,246.50081082153827,2944.7,347.9570855272576,246.50081082153827,3046.9,347.9570855272576,246.50081082153827,3153.8,347.9570855272576,246.50081082153827,3257.7,347.9570855272576,246.50081082153827,3358,347.9570855272576,246.50081082153827,3459.1,347.9570855272576,246.50081082153827,3563,347.9570855272576,246.50081082153827,3664.2,347.9570855272576,246.50081082153827,3778.8,347.9570855272576,246.50081082153827,3882.5,347.9570855272576,246.50081082153827,3986.4,347.9570855272576,246.50081082153827,4118.3,347.9570855272576,246.50081082153827,4224,347.9570855272576,246.50081082153827,4328.5,347.9570855272576,246.50081082153827,4434.3,347.9570855272576,246.50081082153827,4541.2,347.9570855272576,246.50081082153827,4652.9,347.9570855272576,246.50081082153827,4758.9,347.9570855272576,246.50081082153827,4881.8,347.9570855272576,246.50081082153827,4987.7]","[2108.9,2108.9,2164.8,2004.5,-2060.4,""error"",""-"",""-"",""no_move"",3891.4,1781.8,1967.3,3112.7,-1188.6,""error"",""-"",""-"",""no_move"",8914.6,5021,3557.1,4902,455.5,""oops"",""down"",""down"",""good_move"",11473.5,2558,2155.3,8915.5,402.7,""oops"",""down"",""left"",""good_move"",14880,3405.3,3044.7,11474.7,360.6,""smooth"",""down"",""down"",""good_move"",17633.9,2753.4,2069.3,14880.5,684.1,""smooth"",""down"",""down"",""good_move"",20727.4,3093.1,2735.6,17634.3,357.5,""oops"",""left"",""up"",""bad_move"",23844.8,3116.5,2476.5,20728.3,640,""smooth"",""left"",""left"",""good_move"",27255.6,3410,3092,23845.7,317.9,""smooth"",""left"",""left"",""good_move"",30365.5,3109.5,2628.7,27256,480.8,""smooth"",""down"",""down"",""good_move""]","","",""
"3504","","<div style=""width:500px;"">
  <p>What determined the result of this run?</p>
  </div>","79","html-slider-response","68","1525829","0.0-10.0-1.5","125","1","2025-07-02 10:20:05","80fe4187154257d5fb01684ea91b68b9","41.150.226.136","Mozilla/5.0 (Windows NT 10.0; Win64; x64) AppleWebKit/537.36 (KHTML, like Gecko) Chrome/138.0.0.0 Safari/537.36","WebKit","Chrome","138.0.0.0","Windows","10.0","https://app.prolific.com/","en-US,en;q=0.9","67f133dcba790167d0027963","683db6dfa200031b80f2a654","6865078bee1b354595560cc3","67f133dcba790167d0027963","2025-07-02T10:45:32.457Z","","","","","","AttribQ","","","","","","","","","","","","","","","","","","","","","","","","","","","","","","","","","","","","","","50",""
"2022","","<div style=""width:500px;"">
  <p>How much control did you have over the ball?</p>
  </div>","83","html-slider-response","69","1527858","0.0-10.0-2.5","125","1","2025-07-02 10:20:05","80fe4187154257d5fb01684ea91b68b9","41.150.226.136","Mozilla/5.0 (Windows NT 10.0; Win64; x64) AppleWebKit/537.36 (KHTML, like Gecko) Chrome/138.0.0.0 Safari/537.36","WebKit","Chrome","138.0.0.0","Windows","10.0","https://app.prolific.com/","en-US,en;q=0.9","67f133dcba790167d0027963","683db6dfa200031b80f2a654","6865078bee1b354595560cc3","67f133dcba790167d0027963","2025-07-02T10:45:34.487Z","","","","","","ControlQ","","","","","","","","","","","","","","","","","","","","","","","","","","","","","","","","","","","","","","50",""
"2207","","<div style=""width:500px;"">
  <p>How would you describe your current emotional state?</p>
  </div>","82","html-slider-response","70","1530070","0.0-10.0-3.5","125","1","2025-07-02 10:20:05","80fe4187154257d5fb01684ea91b68b9","41.150.226.136","Mozilla/5.0 (Windows NT 10.0; Win64; x64) AppleWebKit/537.36 (KHTML, like Gecko) Chrome/138.0.0.0 Safari/537.36","WebKit","Chrome","138.0.0.0","Windows","10.0","https://app.prolific.com/","en-US,en;q=0.9","67f133dcba790167d0027963","683db6dfa200031b80f2a654","6865078bee1b354595560cc3","67f133dcba790167d0027963","2025-07-02T10:45:36.698Z","","","","","","StressQ","","","","","","","","","","","","","","","","","","","","","","","","","","","","","","","","","","","","","","50",""
"2048","","<div style=""width:500px;"">
  <p>What best describes how you currently feel?</p>
  </div>","86","html-slider-response","71","1532121","0.0-10.0-4.5","125","1","2025-07-02 10:20:05","80fe4187154257d5fb01684ea91b68b9","41.150.226.136","Mozilla/5.0 (Windows NT 10.0; Win64; x64) AppleWebKit/537.36 (KHTML, like Gecko) Chrome/138.0.0.0 Safari/537.36","WebKit","Chrome","138.0.0.0","Windows","10.0","https://app.prolific.com/","en-US,en;q=0.9","67f133dcba790167d0027963","683db6dfa200031b80f2a654","6865078bee1b354595560cc3","67f133dcba790167d0027963","2025-07-02T10:45:38.749Z","","","","","","MotivationQ","","","","","","","","","","","","","","","","","","","","","","","","","","","","","","","","","","","","","","50",""
"","","","","ctl-task-cpt","72","1595919","0.0-10.0-0.6","125","1","2025-07-02 10:20:05","80fe4187154257d5fb01684ea91b68b9","41.150.226.136","Mozilla/5.0 (Windows NT 10.0; Win64; x64) AppleWebKit/537.36 (KHTML, like Gecko) Chrome/138.0.0.0 Safari/537.36","WebKit","Chrome","138.0.0.0","Windows","10.0","https://app.prolific.com/","en-US,en;q=0.9","67f133dcba790167d0027963","683db6dfa200031b80f2a654","6865078bee1b354595560cc3","67f133dcba790167d0027963","2025-07-02T10:46:42.547Z","","","","","","","","","","","","","","","","win-only","2","g1:SE,g2:NW","0.4","7","0","1534695.8","1846.9","6855.7","60717","1","4","8","6","1","1","-3","0","2","0","5008.8","3000","1875","[""down"",""right""]","{""num_key_presses"":15,""num_perfect"":5,""num_errors"":4,""num_randdir"":6,""num_randdir_good_moves"":2,""num_whilered"":0,""num_whileblue"":1,""num_blue"":1,""num_good_moves"":8}","[288.5570842397973,292.7008118228963,0.5,288.5570842397973,292.7008118228963,102.4,288.5570842397973,292.7008118228963,206.8,288.5570842397973,292.7008118228963,308.7,288.5570842397973,292.7008118228963,427.9,288.5570842397973,292.7008118228963,539.9,288.5570842397973,292.7008118228963,644.7,288.5570842397973,292.7008118228963,760.7,288.5570842397973,292.7008118228963,878.2,288.5570842397973,292.7008118228963,993.5,288.5570842397973,292.7008118228963,1111.1,288.5570842397973,292.7008118228963,1227.3,288.5570842397973,292.7008118228963,1327.7,288.5570842397973,292.7008118228963,1445,288.5570842397973,292.7008118228963,1564.3,288.5570842397973,292.7008118228963,1668,288.5570842397973,292.7008118228963,1793.6,288.5570842397973,292.7008118228963,1894.5,307.2570846451089,304.80081208515674,1998.7,376.5570861471459,342.2008128957799,2100.7,390.8570864570901,346.60081299114734,2207.7,390.8570864570901,346.60081299114734,2311.3,380.95708624251336,346.60081299114734,2418.9,362.25708583720177,346.60081299114734,2553.8,356.7570857179925,346.60081299114734,2659.7,352.35708562262505,347.7008130149892,2786.3,352.35708562262505,348.80081303883105,2891.5,351.2570855987832,348.80081303883105,2995.5,351.2570855987832,348.80081303883105,3122.4,351.2570855987832,348.80081303883105,3232.8,351.2570855987832,348.80081303883105,3355.5,351.2570855987832,348.80081303883105,3457.6,351.2570855987832,348.80081303883105,3564.3,351.2570855987832,348.80081303883105,3681.5,351.2570855987832,348.80081303883105,3784,351.2570855987832,348.80081303883105,3897.6,351.2570855987832,348.80081303883105,3999.7,351.2570855987832,348.80081303883105,4108.9,351.2570855987832,348.80081303883105,4214.6,351.2570855987832,348.80081303883105,4321.5,351.2570855987832,348.80081303883105,4426.9,351.2570855987832,348.80081303883105,4532.4,351.2570855987832,348.80081303883105,4639.8,351.2570855987832,348.80081303883105,4766.5,351.2570855987832,348.80081303883105,4887.5]","[2171,2171,1000,0,1171,""smooth"",""right"",""right"",""good_move"",5524.7,3353.1,2620.7,2171.6,732.4,""oops"",""down"",""left"",""bad_move"",10272.4,4747.2,2759.3,5525.2,1987.9,""smooth"",""right"",""right"",""good_move"",13277.7,3005,2643.5,10272.7,361.5,""smooth"",""down"",""down"",""good_move"",16169.5,2891.3,2441.5,13278.2,449.8,""oops"",""down"",""right"",""good_move"",18701.5,2531.6,1935.2,16169.9,596.4,""oops"",""down"",""up"",""bad_move"",22879.1,4174.8,2989.5,18704.3,1185.3,""error"",""-"",""-"",""no_move"",24416.1,1536.4,2395,23912.9,-1891.8,""error"",""-"",""-"",""no_move"",28457.7,4040.7,2584.6,25440.1,433,""oops"",""down"",""left"",""bad_move"",34836.3,6378.2,2771.9,28458.1,3606.3,""oops"",""down"",""left"",""bad_move"",40197.8,5361.2,2554.5,34836.6,2806.7,""error"",""-"",""-"",""no_move"",44055.9,3857.7,2401.5,41231.3,423.1,""smooth"",""down"",""down"",""good_move"",47135.9,3079.7,2072.2,44056.3,1007.4,""while_blue"",""down"",""right"",""good_move"",50222.2,3086,2337.1,47136.2,748.9,""oops"",""down"",""right"",""good_move"",53148,2925.5,1675.3,50222.5,1250.2,""smooth"",""down"",""down"",""good_move""]","","",""
"5206","","<div style=""width:500px;"">
  <p>What determined the result of this run?</p>
  </div>","42","html-slider-response","73","1601132","0.0-10.0-1.6","125","1","2025-07-02 10:20:05","80fe4187154257d5fb01684ea91b68b9","41.150.226.136","Mozilla/5.0 (Windows NT 10.0; Win64; x64) AppleWebKit/537.36 (KHTML, like Gecko) Chrome/138.0.0.0 Safari/537.36","WebKit","Chrome","138.0.0.0","Windows","10.0","https://app.prolific.com/","en-US,en;q=0.9","67f133dcba790167d0027963","683db6dfa200031b80f2a654","6865078bee1b354595560cc3","67f133dcba790167d0027963","2025-07-02T10:46:47.760Z","","","","","","AttribQ","","","","","","","","","","","","","","","","","","","","","","","","","","","","","","","","","","","","","","50",""
"2260","","<div style=""width:500px;"">
  <p>How much control did you have over the ball?</p>
  </div>","44","html-slider-response","74","1603395","0.0-10.0-2.6","125","1","2025-07-02 10:20:05","80fe4187154257d5fb01684ea91b68b9","41.150.226.136","Mozilla/5.0 (Windows NT 10.0; Win64; x64) AppleWebKit/537.36 (KHTML, like Gecko) Chrome/138.0.0.0 Safari/537.36","WebKit","Chrome","138.0.0.0","Windows","10.0","https://app.prolific.com/","en-US,en;q=0.9","67f133dcba790167d0027963","683db6dfa200031b80f2a654","6865078bee1b354595560cc3","67f133dcba790167d0027963","2025-07-02T10:46:50.024Z","","","","","","ControlQ","","","","","","","","","","","","","","","","","","","","","","","","","","","","","","","","","","","","","","50",""
"1818","","<div style=""width:500px;"">
  <p>How would you describe your current emotional state?</p>
  </div>","39","html-slider-response","75","1605219","0.0-10.0-3.6","125","1","2025-07-02 10:20:05","80fe4187154257d5fb01684ea91b68b9","41.150.226.136","Mozilla/5.0 (Windows NT 10.0; Win64; x64) AppleWebKit/537.36 (KHTML, like Gecko) Chrome/138.0.0.0 Safari/537.36","WebKit","Chrome","138.0.0.0","Windows","10.0","https://app.prolific.com/","en-US,en;q=0.9","67f133dcba790167d0027963","683db6dfa200031b80f2a654","6865078bee1b354595560cc3","67f133dcba790167d0027963","2025-07-02T10:46:51.847Z","","","","","","StressQ","","","","","","","","","","","","","","","","","","","","","","","","","","","","","","","","","","","","","","50",""
"2332","","<div style=""width:500px;"">
  <p>What best describes how you currently feel?</p>
  </div>","38","html-slider-response","76","1607555","0.0-10.0-4.6","125","1","2025-07-02 10:20:05","80fe4187154257d5fb01684ea91b68b9","41.150.226.136","Mozilla/5.0 (Windows NT 10.0; Win64; x64) AppleWebKit/537.36 (KHTML, like Gecko) Chrome/138.0.0.0 Safari/537.36","WebKit","Chrome","138.0.0.0","Windows","10.0","https://app.prolific.com/","en-US,en;q=0.9","67f133dcba790167d0027963","683db6dfa200031b80f2a654","6865078bee1b354595560cc3","67f133dcba790167d0027963","2025-07-02T10:46:54.183Z","","","","","","MotivationQ","","","","","","","","","","","","","","","","","","","","","","","","","","","","","","","","","","","","","","50",""
"","","","","ctl-task-cpt","77","1632156","0.0-10.0-0.7","125","1","2025-07-02 10:20:05","80fe4187154257d5fb01684ea91b68b9","41.150.226.136","Mozilla/5.0 (Windows NT 10.0; Win64; x64) AppleWebKit/537.36 (KHTML, like Gecko) Chrome/138.0.0.0 Safari/537.36","WebKit","Chrome","138.0.0.0","Windows","10.0","https://app.prolific.com/","en-US,en;q=0.9","67f133dcba790167d0027963","683db6dfa200031b80f2a654","6865078bee1b354595560cc3","67f133dcba790167d0027963","2025-07-02T10:47:18.784Z","","","","","","","","","","","","","","","","win-only","2","g1:SE,g2:NW","0.3","8","0","1610131.2","1641.4","6666.4","21537.3","1","4","4","6","1","1","0","0","0","0","5025","3000","2600","[""down"",""right""]","{""num_key_presses"":4,""num_perfect"":1,""num_errors"":1,""num_randdir"":2,""num_randdir_good_moves"":2,""num_whilered"":0,""num_whileblue"":1,""num_blue"":1,""num_good_moves"":4}","[298.457084454374,301.50081201363116,0.3,298.457084454374,301.50081201363116,145.6,298.457084454374,301.50081201363116,293.9,298.457084454374,301.50081201363116,436.8,298.457084454374,301.50081201363116,560.5,298.457084454374,301.50081201363116,693.3,298.457084454374,301.50081201363116,810.2,298.457084454374,301.50081201363116,913.8,298.457084454374,301.50081201363116,1029.8,298.457084454374,301.50081201363116,1133.2,298.457084454374,301.50081201363116,1239.1,298.457084454374,301.50081201363116,1348.9,298.457084454374,301.50081201363116,1504.5,298.457084454374,301.50081201363116,1672.4,308.35708466895073,314.70081229973346,1799.4,325.95708505042046,335.60081275272876,1911.2,338.0570853126809,348.80081303883105,2051.1,338.0570853126809,348.80081303883105,2185.5,340.2570853603646,351.00081308651477,2314.5,340.2570853603646,351.00081308651477,2433.8,340.2570853603646,351.00081308651477,2544.1,340.2570853603646,351.00081308651477,2656.8,340.2570853603646,351.00081308651477,2807,340.2570853603646,351.00081308651477,2911,340.2570853603646,351.00081308651477,3043,340.2570853603646,351.00081308651477,3179.3,340.2570853603646,351.00081308651477,3306.1,340.2570853603646,351.00081308651477,3445.9,340.2570853603646,351.00081308651477,3555.4,340.2570853603646,351.00081308651477,3659.8,340.2570853603646,351.00081308651477,3771.4,340.2570853603646,351.00081308651477,3873.2,340.2570853603646,351.00081308651477,3985.3,340.2570853603646,351.00081308651477,4093.9,340.2570853603646,351.00081308651477,4219.2,340.2570853603646,351.00081308651477,4340.4,340.2570853603646,351.00081308651477,4446.9,340.2570853603646,351.00081308651477,4578.6,340.2570853603646,351.00081308651477,4684.3,340.2570853603646,351.00081308651477,4795.8,340.2570853603646,351.00081308651477,4915.8]","[3669.5,3669.5,1000,0,2669.5,""oops"",""down"",""right"",""good_move"",7003.4,3333.6,2881.6,3669.8,452,""while_blue"",""down"",""down"",""good_move"",10443,3439.3,2932.5,7003.8,506.7,""oops"",""down"",""right"",""good_move"",13705.3,3261.7,2818.9,10443.6,442.8,""smooth"",""down"",""down"",""good_move""]","","",""
"3230","","<div style=""width:500px;"">
  <p>What determined the result of this run?</p>
  </div>","60","html-slider-response","78","1635392","0.0-10.0-1.7","125","1","2025-07-02 10:20:05","80fe4187154257d5fb01684ea91b68b9","41.150.226.136","Mozilla/5.0 (Windows NT 10.0; Win64; x64) AppleWebKit/537.36 (KHTML, like Gecko) Chrome/138.0.0.0 Safari/537.36","WebKit","Chrome","138.0.0.0","Windows","10.0","https://app.prolific.com/","en-US,en;q=0.9","67f133dcba790167d0027963","683db6dfa200031b80f2a654","6865078bee1b354595560cc3","67f133dcba790167d0027963","2025-07-02T10:47:22.020Z","","","","","","AttribQ","","","","","","","","","","","","","","","","","","","","","","","","","","","","","","","","","","","","","","50",""
"1923","","<div style=""width:500px;"">
  <p>How much control did you have over the ball?</p>
  </div>","63","html-slider-response","79","1637320","0.0-10.0-2.7","125","1","2025-07-02 10:20:05","80fe4187154257d5fb01684ea91b68b9","41.150.226.136","Mozilla/5.0 (Windows NT 10.0; Win64; x64) AppleWebKit/537.36 (KHTML, like Gecko) Chrome/138.0.0.0 Safari/537.36","WebKit","Chrome","138.0.0.0","Windows","10.0","https://app.prolific.com/","en-US,en;q=0.9","67f133dcba790167d0027963","683db6dfa200031b80f2a654","6865078bee1b354595560cc3","67f133dcba790167d0027963","2025-07-02T10:47:23.948Z","","","","","","ControlQ","","","","","","","","","","","","","","","","","","","","","","","","","","","","","","","","","","","","","","50",""
"2270","","<div style=""width:500px;"">
  <p>How would you describe your current emotional state?</p>
  </div>","67","html-slider-response","80","1639595","0.0-10.0-3.7","125","1","2025-07-02 10:20:05","80fe4187154257d5fb01684ea91b68b9","41.150.226.136","Mozilla/5.0 (Windows NT 10.0; Win64; x64) AppleWebKit/537.36 (KHTML, like Gecko) Chrome/138.0.0.0 Safari/537.36","WebKit","Chrome","138.0.0.0","Windows","10.0","https://app.prolific.com/","en-US,en;q=0.9","67f133dcba790167d0027963","683db6dfa200031b80f2a654","6865078bee1b354595560cc3","67f133dcba790167d0027963","2025-07-02T10:47:26.223Z","","","","","","StressQ","","","","","","","","","","","","","","","","","","","","","","","","","","","","","","","","","","","","","","50",""
"1990","","<div style=""width:500px;"">
  <p>What best describes how you currently feel?</p>
  </div>","64","html-slider-response","81","1641592","0.0-10.0-4.7","125","1","2025-07-02 10:20:05","80fe4187154257d5fb01684ea91b68b9","41.150.226.136","Mozilla/5.0 (Windows NT 10.0; Win64; x64) AppleWebKit/537.36 (KHTML, like Gecko) Chrome/138.0.0.0 Safari/537.36","WebKit","Chrome","138.0.0.0","Windows","10.0","https://app.prolific.com/","en-US,en;q=0.9","67f133dcba790167d0027963","683db6dfa200031b80f2a654","6865078bee1b354595560cc3","67f133dcba790167d0027963","2025-07-02T10:47:28.220Z","","","","","","MotivationQ","","","","","","","","","","","","","","","","","","","","","","","","","","","","","","","","","","","","","","50",""
"","","","","ctl-task-cpt","82","1814299","0.0-10.0-0.8","125","1","2025-07-02 10:20:05","80fe4187154257d5fb01684ea91b68b9","41.150.226.136","Mozilla/5.0 (Windows NT 10.0; Win64; x64) AppleWebKit/537.36 (KHTML, like Gecko) Chrome/138.0.0.0 Safari/537.36","WebKit","Chrome","138.0.0.0","Windows","10.0","https://app.prolific.com/","en-US,en;q=0.9","67f133dcba790167d0027963","683db6dfa200031b80f2a654","6865078bee1b354595560cc3","67f133dcba790167d0027963","2025-07-02T10:50:20.927Z","","","","","","","","","","","","","","","","win-only","2","g1:SE,g2:NW","0.4","9","0","1644169.3","1598.9","6638.1","169687.1","1","4","4","6","2","-4","-10","0","0","0","5039.2","3000","-1255","[""left"",""up""]","{""num_key_presses"":30,""num_perfect"":10,""num_errors"":6,""num_randdir"":14,""num_randdir_good_moves"":5,""num_whilered"":0,""num_whileblue"":3,""num_blue"":4,""num_good_moves"":14}","[294.0570843590066,290.5008117752126,0.3,294.0570843590066,290.5008117752126,113.5,294.0570843590066,290.5008117752126,221.1,294.0570843590066,290.5008117752126,329.5,294.0570843590066,290.5008117752126,444.4,294.0570843590066,290.5008117752126,553.4,294.0570843590066,290.5008117752126,680.4,294.0570843590066,290.5008117752126,801.3,294.0570843590066,290.5008117752126,924,294.0570843590066,290.5008117752126,1078.3,294.0570843590066,290.5008117752126,1202.4,294.0570843590066,290.5008117752126,1340.6,294.0570843590066,290.5008117752126,1481.3,294.0570843590066,290.5008117752126,1626.1,294.0570843590066,290.5008117752126,1753.6,294.0570843590066,290.5008117752126,1866.8,294.0570843590066,290.5008117752126,1987.2,294.0570843590066,290.5008117752126,2128.7,294.0570843590066,290.5008117752126,2232.9,294.0570843590066,290.5008117752126,2371.6,294.0570843590066,290.5008117752126,2493.4,294.0570843590066,290.5008117752126,2624.8,294.0570843590066,290.5008117752126,2770.5,294.0570843590066,290.5008117752126,2890.1,294.0570843590066,290.5008117752126,3077.9,294.0570843590066,290.5008117752126,3219.2,294.0570843590066,290.5008117752126,3348.1,294.0570843590066,290.5008117752126,3482.5,294.0570843590066,290.5008117752126,3607.4,294.0570843590066,290.5008117752126,3721.9,294.0570843590066,290.5008117752126,3832.5,294.0570843590066,290.5008117752126,3969.7,294.0570843590066,290.5008117752126,4112.5,294.0570843590066,290.5008117752126,4275.6,294.0570843590066,290.5008117752126,4395.5,294.0570843590066,290.5008117752126,4527.6,294.0570843590066,290.5008117752126,4658.3,294.0570843590066,290.5008117752126,4778.1,294.0570843590066,290.5008117752126,4889.4]","[1596.6,1596.6,1000,0,596.6,""smooth"",""down"",""down"",""bad_move"",6541.9,4944.7,2078.7,1597.2,2866,""oops"",""left"",""left"",""good_move"",11268.6,4726.4,2863.1,6542.3,1863.3,""error"",""-"",""-"",""no_move"",15167.1,3897.9,2355.7,12312.3,499.1,""oops"",""left"",""up"",""good_move"",25413.4,10245,2544.5,15168.4,7700.5,""smooth"",""left"",""left"",""good_move"",35274.5,9860.8,1914.9,25413.7,7945.9,""oops"",""left"",""left"",""good_move"",44241.9,8966.6,2442.6,35275.3,6524,""oops"",""up"",""down"",""bad_move"",47481.9,3239.7,2396.8,44242.2,842.9,""smooth"",""down"",""down"",""bad_move"",50681.6,3199.3,2602,47482.3,597.3,""oops"",""up"",""up"",""good_move"",60801.8,10119.6,2795.1,50682.2,7324.5,""smooth"",""up"",""up"",""good_move"",70862.3,10060.2,2199.6,60802.1,7860.6,""oops"",""up"",""right"",""bad_move"",74490.8,3627.8,2633.9,70863,993.9,""smooth"",""up"",""up"",""good_move"",82735.8,8244.5,2460.6,74491.3,5783.9,""oops"",""up"",""right"",""bad_move"",87089.4,4353.3,2969.4,82736.1,1383.9,""smooth"",""left"",""left"",""good_move"",99450.7,12361,2444.1,87089.7,9916.9,""oops"",""left"",""up"",""good_move"",114100.3,14649.4,2552.3,99451,12097,""oops"",""up"",""down"",""bad_move"",118554,4453.4,1556.6,118108.1,-1110.7,""error"",""-"",""-"",""no_move"",122218.5,3663.8,2308.9,119556,353.6,""while_blue"",""left"",""down"",""bad_move"",125209.6,2979.5,2363.2,122230.1,616.3,""smooth"",""up"",""up"",""good_move"",128119.2,2908.5,2514.7,125210.8,393.7,""while_blue"",""up"",""right"",""bad_move"",130862.5,2742.4,2254.2,128120.2,488.1,""oops"",""up"",""down"",""bad_move"",134344.1,3481,2779.6,130863.1,701.4,""oops"",""left"",""down"",""bad_move"",137550.3,3205.8,2735.8,134344.5,470,""smooth"",""left"",""left"",""good_move"",141748.6,4197.5,2723.5,137551.1,1474,""oops"",""left"",""right"",""bad_move"",144525.5,2775.7,2267.2,141749.9,508.4,""while_blue"",""left"",""left"",""good_move"",147833.1,3307.1,2967.3,144526,339.8,""smooth"",""left"",""left"",""good_move"",150062.3,2228.7,1332.4,147833.6,896.3,""smooth"",""up"",""up"",""good_move"",153160.3,3096.9,2759.5,150063.5,337.3,""oops"",""up"",""down"",""bad_move"",156355.7,3194.6,2504.6,153161.1,690,""oops"",""up"",""right"",""bad_move"",157738.4,1381.9,2091.9,156356.5,-710,""error"",""-"",""-"",""no_move""]","","",""
"3727","","<div style=""width:500px;"">
  <p>What determined the result of this run?</p>
  </div>","3","html-slider-response","83","1818028","0.0-10.0-1.8","125","1","2025-07-02 10:20:05","80fe4187154257d5fb01684ea91b68b9","41.150.226.136","Mozilla/5.0 (Windows NT 10.0; Win64; x64) AppleWebKit/537.36 (KHTML, like Gecko) Chrome/138.0.0.0 Safari/537.36","WebKit","Chrome","138.0.0.0","Windows","10.0","https://app.prolific.com/","en-US,en;q=0.9","67f133dcba790167d0027963","683db6dfa200031b80f2a654","6865078bee1b354595560cc3","67f133dcba790167d0027963","2025-07-02T10:50:24.656Z","","","","","","AttribQ","","","","","","","","","","","","","","","","","","","","","","","","","","","","","","","","","","","","","","50",""
"9162","","<div style=""width:500px;"">
  <p>How much control did you have over the ball?</p>
  </div>","0","html-slider-response","84","1827193","0.0-10.0-2.8","125","1","2025-07-02 10:20:05","80fe4187154257d5fb01684ea91b68b9","41.150.226.136","Mozilla/5.0 (Windows NT 10.0; Win64; x64) AppleWebKit/537.36 (KHTML, like Gecko) Chrome/138.0.0.0 Safari/537.36","WebKit","Chrome","138.0.0.0","Windows","10.0","https://app.prolific.com/","en-US,en;q=0.9","67f133dcba790167d0027963","683db6dfa200031b80f2a654","6865078bee1b354595560cc3","67f133dcba790167d0027963","2025-07-02T10:50:33.822Z","","","","","","ControlQ","","","","","","","","","","","","","","","","","","","","","","","","","","","","","","","","","","","","","","50",""
"4939","","<div style=""width:500px;"">
  <p>How would you describe your current emotional state?</p>
  </div>","100","html-slider-response","85","1832135","0.0-10.0-3.8","125","1","2025-07-02 10:20:05","80fe4187154257d5fb01684ea91b68b9","41.150.226.136","Mozilla/5.0 (Windows NT 10.0; Win64; x64) AppleWebKit/537.36 (KHTML, like Gecko) Chrome/138.0.0.0 Safari/537.36","WebKit","Chrome","138.0.0.0","Windows","10.0","https://app.prolific.com/","en-US,en;q=0.9","67f133dcba790167d0027963","683db6dfa200031b80f2a654","6865078bee1b354595560cc3","67f133dcba790167d0027963","2025-07-02T10:50:38.763Z","","","","","","StressQ","","","","","","","","","","","","","","","","","","","","","","","","","","","","","","","","","","","","","","50",""
"6606","","<div style=""width:500px;"">
  <p>What best describes how you currently feel?</p>
  </div>","24","html-slider-response","86","1838744","0.0-10.0-4.8","125","1","2025-07-02 10:20:05","80fe4187154257d5fb01684ea91b68b9","41.150.226.136","Mozilla/5.0 (Windows NT 10.0; Win64; x64) AppleWebKit/537.36 (KHTML, like Gecko) Chrome/138.0.0.0 Safari/537.36","WebKit","Chrome","138.0.0.0","Windows","10.0","https://app.prolific.com/","en-US,en;q=0.9","67f133dcba790167d0027963","683db6dfa200031b80f2a654","6865078bee1b354595560cc3","67f133dcba790167d0027963","2025-07-02T10:50:45.372Z","","","","","","MotivationQ","","","","","","","","","","","","","","","","","","","","","","","","","","","","","","","","","","","","","","50",""
