"rt","response_timestamp","stimulus","response","trial_type","trial_index","time_elapsed","internal_node_id","run_id","condition","recorded_at","source_code_version","ip","user_agent","device","browser","browser_version","platform","platform_version","referer","accept_language","PROLIFIC_PID","STUDY_ID","SESSION_ID","prolific_id","realtime","view_history","question_order","consent","success","question_id","eventType","responses","item_order","radio_event_ids","radio_event_times","key_event_times","mouse_event_times","straightlining","zigzagging","honeypot","which_type","canvas_config","goals_layout","control_level","trial_number","tutorial_trial_number","trial_start_time","phase1_start_time","phase2_start_time","phase3_start_time","goal_1_value","goal_1_distance","goal_2_value","goal_2_distance","goal_selected","outcome","outcome_total","participant_final_score","participant_initial_score","participant_final_score_prop","goal_choice_rt","allocated_time","allocated_time_remaining","goal_direction","counts","mouse_movements","key_presses","correct","slider_start"
"1942","1751451680198","<p style='font-size:40px;line-height:1.25'><strong>Welcome to the experiment!</strong></p><p style='font-size:1.1em;line-height:1.25'>Thank you for your interest in our experiment! Before you begin, it is important that we obtain your informed consent to participate in the study.</p><p style='font-size:1.1em;line-height:1.25'>On the next screen will be an <strong>information sheet</strong> for you to read. To participate in the study we need you to read this information sheet and the following consent form carefully. If you agree with all the statements, please click the <strong>I agree</strong> button.</p><p style='font-size:1.1em;line-height:1.25'>Press <strong>Next</strong> to read the information sheet.</p>","0","custom-html-button-response","0","1944","0.0-0.0","148","1","2025-07-02 10:21:14","80fe4187154257d5fb01684ea91b68b9","154.73.187.59","Mozilla/5.0 (Windows NT 10.0; Win64; x64) AppleWebKit/537.36 (KHTML, like Gecko) Chrome/137.0.0.0 Safari/537.36","WebKit","Chrome","137.0.0.0","Windows","10.0","https://app.prolific.com/","en-US,en;q=0.9","67f39b05e1bfb4295b1659ac","683db6dfa200031b80f2a654","68650760257f5267f4c5b20e","67f39b05e1bfb4295b1659ac","2025-07-02T10:21:20.199Z","","","","","","","","","","","","","","","","","","","","","","","","","","","","","","","","","","","","","","","","","","","",""
"56797","","","","instructions","1","58743","0.0-1.0","148","1","2025-07-02 10:21:14","80fe4187154257d5fb01684ea91b68b9","154.73.187.59","Mozilla/5.0 (Windows NT 10.0; Win64; x64) AppleWebKit/537.36 (KHTML, like Gecko) Chrome/137.0.0.0 Safari/537.36","WebKit","Chrome","137.0.0.0","Windows","10.0","https://app.prolific.com/","en-US,en;q=0.9","67f39b05e1bfb4295b1659ac","683db6dfa200031b80f2a654","68650760257f5267f4c5b20e","67f39b05e1bfb4295b1659ac","","[{""page_index"":0,""viewing_time"":41294},{""page_index"":1,""viewing_time"":15503}]","","","","","","","","","","","","","","","","","","","","","","","","","","","","","","","","","","","","","","","","","","",""
"7287","","","{""Q0"":"""",""Q1"":"""",""Q2"":"""",""Q3"":"""",""Q4"":"""",""Q5"":"""",""Q6"":""I agree""}","survey-multi-choice","2","66032","0.0-2.0","148","1","2025-07-02 10:21:14","80fe4187154257d5fb01684ea91b68b9","154.73.187.59","Mozilla/5.0 (Windows NT 10.0; Win64; x64) AppleWebKit/537.36 (KHTML, like Gecko) Chrome/137.0.0.0 Safari/537.36","WebKit","Chrome","137.0.0.0","Windows","10.0","https://app.prolific.com/","en-US,en;q=0.9","67f39b05e1bfb4295b1659ac","683db6dfa200031b80f2a654","68650760257f5267f4c5b20e","67f39b05e1bfb4295b1659ac","","","[0,1,2,3,4,5,6]","true","","","","","","","","","","","","","","","","","","","","","","","","","","","","","","","","","","","","","","","","",""
"12807","","","","fullscreen","3","79851","0.0-4.0","148","1","2025-07-02 10:21:14","80fe4187154257d5fb01684ea91b68b9","154.73.187.59","Mozilla/5.0 (Windows NT 10.0; Win64; x64) AppleWebKit/537.36 (KHTML, like Gecko) Chrome/137.0.0.0 Safari/537.36","WebKit","Chrome","137.0.0.0","Windows","10.0","https://app.prolific.com/","en-US,en;q=0.9","67f39b05e1bfb4295b1659ac","683db6dfa200031b80f2a654","68650760257f5267f4c5b20e","67f39b05e1bfb4295b1659ac","","","","","true","","","","","","","","","","","","","","","","","","","","","","","","","","","","","","","","","","","","","","","",""
"4522","1751451762629"," <p style='font-size:1.1em;line-height:1.25'>Thank you for completing the consent form and closing all other tabs.</p><p style='font-size:1.1em;line-height:1.25'>We will now invite you to fill in some demographic information and questionnaires, before starting the game.<br>This will take about 5 minutes.<br></p><p style='font-size:1.1em;line-height:1.25'>Press the <strong>Next</strong> button to continue.</p>","0","custom-html-button-response","4","84375","0.0-5.0","148","1","2025-07-02 10:21:14","80fe4187154257d5fb01684ea91b68b9","154.73.187.59","Mozilla/5.0 (Windows NT 10.0; Win64; x64) AppleWebKit/537.36 (KHTML, like Gecko) Chrome/137.0.0.0 Safari/537.36","WebKit","Chrome","137.0.0.0","Windows","10.0","https://app.prolific.com/","en-US,en;q=0.9","67f39b05e1bfb4295b1659ac","683db6dfa200031b80f2a654","68650760257f5267f4c5b20e","67f39b05e1bfb4295b1659ac","2025-07-02T10:22:42.630Z","","","","","","","","","","","","","","","","","","","","","","","","","","","","","","","","","","","","","","","","","","","",""
"2838","","","{""age"":""22""}","survey-text","5","87215","0.0-6.0-0.0","148","1","2025-07-02 10:21:14","80fe4187154257d5fb01684ea91b68b9","154.73.187.59","Mozilla/5.0 (Windows NT 10.0; Win64; x64) AppleWebKit/537.36 (KHTML, like Gecko) Chrome/137.0.0.0 Safari/537.36","WebKit","Chrome","137.0.0.0","Windows","10.0","https://app.prolific.com/","en-US,en;q=0.9","67f39b05e1bfb4295b1659ac","683db6dfa200031b80f2a654","68650760257f5267f4c5b20e","67f39b05e1bfb4295b1659ac","","","","","","0","demographics","","","","","","","","","","","","","","","","","","","","","","","","","","","","","","","","","","","","","",""
"5335","","","{""gender_identity"":""male/man""}","survey-multi-choice","6","92551","0.0-6.0-1.0","148","1","2025-07-02 10:21:14","80fe4187154257d5fb01684ea91b68b9","154.73.187.59","Mozilla/5.0 (Windows NT 10.0; Win64; x64) AppleWebKit/537.36 (KHTML, like Gecko) Chrome/137.0.0.0 Safari/537.36","WebKit","Chrome","137.0.0.0","Windows","10.0","https://app.prolific.com/","en-US,en;q=0.9","67f39b05e1bfb4295b1659ac","683db6dfa200031b80f2a654","68650760257f5267f4c5b20e","67f39b05e1bfb4295b1659ac","","","[0]","","","1","demographics","","","","","","","","","","","","","","","","","","","","","","","","","","","","","","","","","","","","","",""
"4567","","","{""assigned_sex"":""male""}","survey-multi-choice","7","97119","0.0-6.0-2.0","148","1","2025-07-02 10:21:14","80fe4187154257d5fb01684ea91b68b9","154.73.187.59","Mozilla/5.0 (Windows NT 10.0; Win64; x64) AppleWebKit/537.36 (KHTML, like Gecko) Chrome/137.0.0.0 Safari/537.36","WebKit","Chrome","137.0.0.0","Windows","10.0","https://app.prolific.com/","en-US,en;q=0.9","67f39b05e1bfb4295b1659ac","683db6dfa200031b80f2a654","68650760257f5267f4c5b20e","67f39b05e1bfb4295b1659ac","","","[0]","","","2","demographics","","","","","","","","","","","","","","","","","","","","","","","","","","","","","","","","","","","","","",""
"4696","","","{""menstrual_cycle"":""No""}","survey-multi-choice","8","101816","0.0-6.0-3.0","148","1","2025-07-02 10:21:14","80fe4187154257d5fb01684ea91b68b9","154.73.187.59","Mozilla/5.0 (Windows NT 10.0; Win64; x64) AppleWebKit/537.36 (KHTML, like Gecko) Chrome/137.0.0.0 Safari/537.36","WebKit","Chrome","137.0.0.0","Windows","10.0","https://app.prolific.com/","en-US,en;q=0.9","67f39b05e1bfb4295b1659ac","683db6dfa200031b80f2a654","68650760257f5267f4c5b20e","67f39b05e1bfb4295b1659ac","","","[0]","","","4","demographics","","","","","","","","","","","","","","","","","","","","","","","","","","","","","","","","","","","","","",""
"4658","","","{""education"":""Bachelor's Degree (e.g., BA)""}","survey-multi-choice","9","106475","0.0-6.0-4.0","148","1","2025-07-02 10:21:14","80fe4187154257d5fb01684ea91b68b9","154.73.187.59","Mozilla/5.0 (Windows NT 10.0; Win64; x64) AppleWebKit/537.36 (KHTML, like Gecko) Chrome/137.0.0.0 Safari/537.36","WebKit","Chrome","137.0.0.0","Windows","10.0","https://app.prolific.com/","en-US,en;q=0.9","67f39b05e1bfb4295b1659ac","683db6dfa200031b80f2a654","68650760257f5267f4c5b20e","67f39b05e1bfb4295b1659ac","","","[0]","","","5","demographics","","","","","","","","","","","","","","","","","","","","","","","","","","","","","","","","","","","","","",""
"7651","","","{""education"":""Master's Degree (e.g., MSc)""}","survey-multi-choice","10","114127","0.0-6.0-5.0","148","1","2025-07-02 10:21:14","80fe4187154257d5fb01684ea91b68b9","154.73.187.59","Mozilla/5.0 (Windows NT 10.0; Win64; x64) AppleWebKit/537.36 (KHTML, like Gecko) Chrome/137.0.0.0 Safari/537.36","WebKit","Chrome","137.0.0.0","Windows","10.0","https://app.prolific.com/","en-US,en;q=0.9","67f39b05e1bfb4295b1659ac","683db6dfa200031b80f2a654","68650760257f5267f4c5b20e","67f39b05e1bfb4295b1659ac","2025-07-02T10:23:12.382Z","","[0]","","","6","demographics","","","","","","","","","","","","","","","","","","","","","","","","","","","","","","","","","","","","","",""
"11650","","","{""mental_health_condition"":""no"",""mental_health_treatment"":""no"",""psychiatric_medication"":""no""}","survey-text","11","125779","0.0-7.0-0.0","148","1","2025-07-02 10:21:14","80fe4187154257d5fb01684ea91b68b9","154.73.187.59","Mozilla/5.0 (Windows NT 10.0; Win64; x64) AppleWebKit/537.36 (KHTML, like Gecko) Chrome/137.0.0.0 Safari/537.36","WebKit","Chrome","137.0.0.0","Windows","10.0","https://app.prolific.com/","en-US,en;q=0.9","67f39b05e1bfb4295b1659ac","683db6dfa200031b80f2a654","68650760257f5267f4c5b20e","67f39b05e1bfb4295b1659ac","2025-07-02T10:23:24.034Z","","","","","1","mental_health","","","","","","","","","","","","","","","","","","","","","","","","","","","","","","","","","","","","","",""
"9566","","","{""depression_history"":[""Yes""]}","survey-multi-select","12","135347","0.0-7.0-1.0","148","1","2025-07-02 10:21:14","80fe4187154257d5fb01684ea91b68b9","154.73.187.59","Mozilla/5.0 (Windows NT 10.0; Win64; x64) AppleWebKit/537.36 (KHTML, like Gecko) Chrome/137.0.0.0 Safari/537.36","WebKit","Chrome","137.0.0.0","Windows","10.0","https://app.prolific.com/","en-US,en;q=0.9","67f39b05e1bfb4295b1659ac","683db6dfa200031b80f2a654","68650760257f5267f4c5b20e","67f39b05e1bfb4295b1659ac","","","[0]","","","","mental_health","","","","","","","","","","","","","","","","","","","","","","","","","","","","","","","","","","","","","",""
"10111","","","{""depression_episodes"":""1-2"",""depression_recent"":""Within the past year""}","survey-multi-choice","13","145459","0.0-7.0-2.0-0.0","148","1","2025-07-02 10:21:14","80fe4187154257d5fb01684ea91b68b9","154.73.187.59","Mozilla/5.0 (Windows NT 10.0; Win64; x64) AppleWebKit/537.36 (KHTML, like Gecko) Chrome/137.0.0.0 Safari/537.36","WebKit","Chrome","137.0.0.0","Windows","10.0","https://app.prolific.com/","en-US,en;q=0.9","67f39b05e1bfb4295b1659ac","683db6dfa200031b80f2a654","68650760257f5267f4c5b20e","67f39b05e1bfb4295b1659ac","2025-07-02T10:23:43.714Z","","[0,1]","","","3","mental_health","","","","","","","","","","","","","","","","","","","","","","","","","","","","","","","","","","","","","",""
"49191.5","","","","survey-template","14","194653","0.0-7.0-3.0","148","1","2025-07-02 10:21:14","80fe4187154257d5fb01684ea91b68b9","154.73.187.59","Mozilla/5.0 (Windows NT 10.0; Win64; x64) AppleWebKit/537.36 (KHTML, like Gecko) Chrome/137.0.0.0 Safari/537.36","WebKit","Chrome","137.0.0.0","Windows","10.0","https://app.prolific.com/","en-US,en;q=0.9","67f39b05e1bfb4295b1659ac","683db6dfa200031b80f2a654","68650760257f5267f4c5b20e","67f39b05e1bfb4295b1659ac","2025-07-02T10:24:32.908Z","","","","","","ius","{""Q01"":""3"",""Q02"":""3"",""Q03"":""1"",""Q04"":""4"",""Q05"":""2"",""Q06"":""2"",""Q07"":""1"",""Q08"":""0"",""Q09"":""3"",""Q10"":""0"",""Q11"":""3"",""Q12"":""2"",""Q13"":""1""}","[0,1,2,3,4,5,6,7,8,9,10,11,12]","[""Q01"",""Q02"",""Q03"",""Q04"",""Q05"",""Q06"",""Q07"",""Q08"",""Q09"",""Q10"",""Q11"",""Q12"",""Q13""]","[5613.599999964237,9614.099999964237,16350.099999964237,21965.5,26357.599999964237,27381.599999964237,29437.5,34797.5,39197.39999997616,41405.39999997616,43021.69999998808,45197.59999996424,46205.59999996424]","[]","[4157.599999964237,5613.599999964237,8517.799999952316,9614.099999964237,16350.099999964237,21965.5,25197.599999964237,26357.599999964237,27381.599999964237,29437.5,34797.5,39197.39999997616,41405.39999997616,43021.69999998808,43949.5,45197.59999996424,46205.59999996424,49190]","0.3076923076923077","0.3333333333333333","0","","","","","","","","","","","","","","","","","","","","","","","","","","","","",""
"3236","1751451876145","<p style='font-size:1.1em;line-height:1.25'>In the following, we will ask you a few questions relating to your experiences over the past month.<br></p><p style='font-size:1.1em;line-height:1.25'>Press the <strong>Next</strong> button to continue.</p>","0","custom-html-button-response","15","197890","0.0-7.0-4.0","148","1","2025-07-02 10:21:14","80fe4187154257d5fb01684ea91b68b9","154.73.187.59","Mozilla/5.0 (Windows NT 10.0; Win64; x64) AppleWebKit/537.36 (KHTML, like Gecko) Chrome/137.0.0.0 Safari/537.36","WebKit","Chrome","137.0.0.0","Windows","10.0","https://app.prolific.com/","en-US,en;q=0.9","67f39b05e1bfb4295b1659ac","683db6dfa200031b80f2a654","68650760257f5267f4c5b20e","67f39b05e1bfb4295b1659ac","2025-07-02T10:24:36.146Z","","","","","","","","","","","","","","","","","","","","","","","","","","","","","","","","","","","","","","","","","","","",""
"42568.5","","","","survey-template","16","240461","0.0-7.0-5.0","148","1","2025-07-02 10:21:14","80fe4187154257d5fb01684ea91b68b9","154.73.187.59","Mozilla/5.0 (Windows NT 10.0; Win64; x64) AppleWebKit/537.36 (KHTML, like Gecko) Chrome/137.0.0.0 Safari/537.36","WebKit","Chrome","137.0.0.0","Windows","10.0","https://app.prolific.com/","en-US,en;q=0.9","67f39b05e1bfb4295b1659ac","683db6dfa200031b80f2a654","68650760257f5267f4c5b20e","67f39b05e1bfb4295b1659ac","2025-07-02T10:25:18.716Z","","","","","","pss","{""Q01"":""2"",""Q02"":""2"",""Q03"":""3"",""Q04"":""2"",""Q05"":""2"",""Q06"":""1"",""Q07"":""2"",""Q08"":""2"",""Q09"":""3"",""Q10"":""2""}","[0,1,2,3,4,5,6,7,8,9]","[""Q01"",""Q02"",""Q03"",""Q04"",""Q05"",""Q06"",""Q07"",""Q08"",""Q09"",""Q10""]","[12073.199999988079,18006.80000001192,19111,22281.399999976158,28767.099999964237,30414.80000001192,31622.69999998808,34278.59999996424,40079.30000001192,41281.69999998808]","[]","[0.09999996423721313,5887,12073.199999988079,18006.80000001192,19111,21247,22281.399999976158,26086.80000001192,26903.19999998808,28767.099999964237,30414.80000001192,31622.69999998808,32966.80000001192,33718.69999998808,34278.59999996424,37870.89999997616,40079.30000001192,41281.69999998808,42567.09999996424]","0.7","0.6666666666666666","0","","","","","","","","","","","","","","","","","","","","","","","","","","","","",""
"4004","1751451922721","<p style='font-size:1.1em;line-height:1.25'>Thank you for your answers! Now we will ask you a few more questions relating to your feelings in the last 24 hours.<br></p><p style='font-size:1.1em;line-height:1.25'>Press the <strong>Next</strong> button to continue.</p>","0","custom-html-button-response","17","244467","0.0-7.0-6.0","148","1","2025-07-02 10:21:14","80fe4187154257d5fb01684ea91b68b9","154.73.187.59","Mozilla/5.0 (Windows NT 10.0; Win64; x64) AppleWebKit/537.36 (KHTML, like Gecko) Chrome/137.0.0.0 Safari/537.36","WebKit","Chrome","137.0.0.0","Windows","10.0","https://app.prolific.com/","en-US,en;q=0.9","67f39b05e1bfb4295b1659ac","683db6dfa200031b80f2a654","68650760257f5267f4c5b20e","67f39b05e1bfb4295b1659ac","2025-07-02T10:25:22.722Z","","","","","","","","","","","","","","","","","","","","","","","","","","","","","","","","","","","","","","","","","","","",""
"57001.69999998808","","","","survey-template","18","301472","0.0-7.0-7.0","148","1","2025-07-02 10:21:14","80fe4187154257d5fb01684ea91b68b9","154.73.187.59","Mozilla/5.0 (Windows NT 10.0; Win64; x64) AppleWebKit/537.36 (KHTML, like Gecko) Chrome/137.0.0.0 Safari/537.36","WebKit","Chrome","137.0.0.0","Windows","10.0","https://app.prolific.com/","en-US,en;q=0.9","67f39b05e1bfb4295b1659ac","683db6dfa200031b80f2a654","68650760257f5267f4c5b20e","67f39b05e1bfb4295b1659ac","2025-07-02T10:26:19.727Z","","","","","","drsp","{""Q01"":""0"",""Q02"":""0"",""Q03"":""0"",""Q04"":""0"",""Q05"":""0"",""Q06"":""0"",""Q07"":""0"",""Q08"":""0"",""Q09"":""1"",""Q10"":""0"",""Q11"":""0"",""Q12"":""2"",""Q13"":""2"",""Q14"":""4"",""Q15"":""1"",""Q16"":""0"",""Q17"":""1"",""Q18"":""0"",""Q19"":""3"",""Q20"":""0"",""Q21"":""1""}","[0,1,2,3,4,5,6,7,8,9,10,11,12,13,14,15,16,17,18,19,20]","[""Q01"",""Q02"",""Q03"",""Q04"",""Q05"",""Q06"",""Q07"",""Q08"",""Q09"",""Q10"",""Q11"",""Q12"",""Q13"",""Q14"",""Q15"",""Q15"",""Q16"",""Q17"",""Q18"",""Q19"",""Q20"",""Q21""]","[4022.100000023842,4877.600000023842,5772.600000023842,6789.600000023842,7957.600000023842,11845.800000011921,12469.800000011921,13565.600000023842,19621.600000023842,20566.100000023842,21917.80000001192,25125.5,27069.5,31253.600000023842,33597.60000002384,36541.60000002384,37709.5,38805.5,42349.60000002384,48549.5,51775,55061.89999997616]","[]","[0.10000002384185791,2925.699999988079,4022.100000023842,4877.600000023842,5772.600000023842,6789.600000023842,7957.600000023842,9373.800000011921,11845.800000011921,12469.800000011921,13565.600000023842,17382.899999976158,18821.600000023842,19621.600000023842,20566.100000023842,21917.80000001192,24237.899999976158,25125.5,27069.5,30637.69999998808,31253.600000023842,33597.60000002384,36541.60000002384,37709.5,38805.5,42349.60000002384,48549.5,51775,52635.30000001192,53909.69999998808,54421.69999998808,55061.89999997616,56998.69999998808]","0.6190476190476191","0.3","0","","","","","","","","","","","","","","","","","","","","","","","","","","","","",""
"10862.400000035763","","","","survey-template","19","312336","0.0-7.0-8.0","148","1","2025-07-02 10:21:14","80fe4187154257d5fb01684ea91b68b9","154.73.187.59","Mozilla/5.0 (Windows NT 10.0; Win64; x64) AppleWebKit/537.36 (KHTML, like Gecko) Chrome/137.0.0.0 Safari/537.36","WebKit","Chrome","137.0.0.0","Windows","10.0","https://app.prolific.com/","en-US,en;q=0.9","67f39b05e1bfb4295b1659ac","683db6dfa200031b80f2a654","68650760257f5267f4c5b20e","67f39b05e1bfb4295b1659ac","2025-07-02T10:26:30.591Z","","","","","","stress","{""Q01"":""0"",""Q02"":""2"",""Q03"":""3""}","[0,1,2]","[""Q01"",""Q02"",""Q03""]","[4625.5,6813.400000035763,10273.400000035763]","[]","[2969.300000011921,4625.5,6813.400000035763,9929.5,10273.400000035763,10861.699999988079]","0.6666666666666666","0","0","","","","","","","","","","","","","","","","","","","","","","","","","","","","",""
"58406","","","","instructions","20","370742","0.0-8.0-0.0","148","1","2025-07-02 10:21:14","80fe4187154257d5fb01684ea91b68b9","154.73.187.59","Mozilla/5.0 (Windows NT 10.0; Win64; x64) AppleWebKit/537.36 (KHTML, like Gecko) Chrome/137.0.0.0 Safari/537.36","WebKit","Chrome","137.0.0.0","Windows","10.0","https://app.prolific.com/","en-US,en;q=0.9","67f39b05e1bfb4295b1659ac","683db6dfa200031b80f2a654","68650760257f5267f4c5b20e","67f39b05e1bfb4295b1659ac","","[{""page_index"":0,""viewing_time"":16438},{""page_index"":1,""viewing_time"":18304},{""page_index"":2,""viewing_time"":2512},{""page_index"":3,""viewing_time"":21152}]","","","","","","","","","","","","","","","","","","","","","","","","","","","","","","","","","","","","","","","","","","",""
"","","","","ctl-task-cpt","21","402071","0.0-8.0-1.0","148","1","2025-07-02 10:21:14","80fe4187154257d5fb01684ea91b68b9","154.73.187.59","Mozilla/5.0 (Windows NT 10.0; Win64; x64) AppleWebKit/537.36 (KHTML, like Gecko) Chrome/137.0.0.0 Safari/537.36","WebKit","Chrome","137.0.0.0","Windows","10.0","https://app.prolific.com/","en-US,en;q=0.9","67f39b05e1bfb4295b1659ac","683db6dfa200031b80f2a654","68650760257f5267f4c5b20e","67f39b05e1bfb4295b1659ac","","","","","","","","","","","","","","","","","win-only","3","g1:SW,g2:NE","1","0","1","377483.4","2862.9","6868.2","28317.2","2","4","4","6","2","4","3","3","0","0.022727272727272728","2519.6","4000","1325","[""up"",""right""]","{""num_key_presses"":9,""num_perfect"":6,""num_errors"":1,""num_randdir"":0,""num_randdir_good_moves"":0,""num_whilered"":2,""num_whileblue"":0,""num_blue"":1,""num_good_moves"":6}","[427.57142857142856,412.47767857142856,0.3,427.57142857142856,412.47767857142856,103.5,427.57142857142856,412.47767857142856,213,427.57142857142856,412.47767857142856,318.4,427.57142857142856,412.47767857142856,422.9,427.57142857142856,412.47767857142856,523,427.57142857142856,412.47767857142856,623.1,427.57142857142856,412.47767857142856,723.7,427.57142857142856,412.47767857142856,829.5,438.57142857142856,398.47767857142856,933.3,417.57142857142856,432.47767857142856,1033.3,376.57142857142856,518.4776785714286,1134.3,374.57142857142856,523.4776785714286,1238.2,373.57142857142856,524.4776785714286,1344.1,327.57142857142856,554.4776785714286,1447.4,217.57142857142856,651.4776785714286,1547.5,165.57142857142856,711.4776785714286,1647.8,118.57142857142857,762.4776785714286,1748.6,73.57142857142857,786.4776785714286,1849.2,235.57142857142856,587.4776785714286,1952.7,690.5714285714286,95.47767857142857,2053.2,708.5714285714286,39.47767857142857,2154.6,708.5714285714286,37.47767857142857,2258.1,722.5714285714286,48.47767857142857,2362.8,755.5714285714286,79.47767857142857,2463.6,759.5714285714286,82.47767857142857,2568.3,762.5714285714286,84.47767857142857,2668.4,762.5714285714286,84.47767857142857,2773.6,762.5714285714286,84.47767857142857,2873.6,762.5714285714286,84.47767857142857,2977.5,762.5714285714286,84.47767857142857,3077.8,762.5714285714286,84.47767857142857,3178.2,762.5714285714286,84.47767857142857,3282.9,762.5714285714286,84.47767857142857,3387.7,762.5714285714286,84.47767857142857,3488.4,762.5714285714286,84.47767857142857,3589,762.5714285714286,84.47767857142857,3693,762.5714285714286,84.47767857142857,3793.7,762.5714285714286,84.47767857142857,3899.3]","[1772.6,1772.5,1000,0.1,772.5,""smooth"",""right"",""right"",""good_move"",1913.3,140.2,2516.3,1773.2,-2376.2,""error"",""-"",""-"",""no_move"",2041.3,127.9,2516.3,1773.2,-2248.2,""while_red"",""-"",""-"",""no_move"",2209.4,296,2516.3,1773.2,-2080.1,""while_red"",""-"",""-"",""no_move"",6161.5,4248.1,2794.5,2913.5,453.5,""smooth"",""right"",""right"",""good_move"",8833.4,2671.7,2172.1,6161.7,499.6,""smooth"",""right"",""right"",""good_move"",12385.7,3552.1,3109.2,8833.6,442.9,""smooth"",""up"",""up"",""good_move"",18017.6,5631.5,1718.3,15722.1,577.2,""smooth"",""up"",""up"",""good_move"",21357.4,3339.7,2833.4,18017.7,506.3,""smooth"",""up"",""up"",""good_move""]","",""
"9127","","","","instructions","22","411198","0.0-8.0-2.0","148","1","2025-07-02 10:21:14","80fe4187154257d5fb01684ea91b68b9","154.73.187.59","Mozilla/5.0 (Windows NT 10.0; Win64; x64) AppleWebKit/537.36 (KHTML, like Gecko) Chrome/137.0.0.0 Safari/537.36","WebKit","Chrome","137.0.0.0","Windows","10.0","https://app.prolific.com/","en-US,en;q=0.9","67f39b05e1bfb4295b1659ac","683db6dfa200031b80f2a654","68650760257f5267f4c5b20e","67f39b05e1bfb4295b1659ac","","[{""page_index"":0,""viewing_time"":9127}]","","","","","","","","","","","","","","","","","","","","","","","","","","","","","","","","","","","","","","","","","","",""
"","","","","ctl-task-cpt","23","456056","0.0-8.0-3.0","148","1","2025-07-02 10:21:14","80fe4187154257d5fb01684ea91b68b9","154.73.187.59","Mozilla/5.0 (Windows NT 10.0; Win64; x64) AppleWebKit/537.36 (KHTML, like Gecko) Chrome/137.0.0.0 Safari/537.36","WebKit","Chrome","137.0.0.0","Windows","10.0","https://app.prolific.com/","en-US,en;q=0.9","67f39b05e1bfb4295b1659ac","683db6dfa200031b80f2a654","68650760257f5267f4c5b20e","67f39b05e1bfb4295b1659ac","","","","","","","","","","","","","","","","","win-only","3","g1:SW,g2:NE","0.35","0","3","417938.7","2119.5","6121.7","41852.8","2","4","8","6","2","8","6","6","0","0.045454545454545456","1457.3","4000","155","[""up"",""right""]","{""num_key_presses"":10,""num_perfect"":4,""num_errors"":2,""num_randdir"":4,""num_randdir_good_moves"":2,""num_whilered"":0,""num_whileblue"":2,""num_blue"":4,""num_good_moves"":8}","[412.57142857142856,423.47767857142856,0.6,412.57142857142856,423.47767857142856,102.4,412.57142857142856,423.47767857142856,207.7,412.57142857142856,423.47767857142856,311.4,412.57142857142856,423.47767857142856,416,412.57142857142856,423.47767857142856,516.1,435.57142857142856,401.47767857142856,616.1,474.57142857142856,374.47767857142856,717,510.57142857142856,348.47767857142856,821.5,557.5714285714286,279.47767857142856,921.7,644.5714285714286,165.47767857142856,1021.7,654.5714285714286,155.47767857142856,1121.8,679.5714285714286,132.47767857142856,1225.7,716.5714285714286,109.47767857142857,1326.2,747.5714285714286,89.47767857142857,1426.5,747.5714285714286,89.47767857142857,1531.6,747.5714285714286,89.47767857142857,1636.5,747.5714285714286,89.47767857142857,1737.2,747.5714285714286,89.47767857142857,1841.1,747.5714285714286,89.47767857142857,1941.2,753.5714285714286,103.47767857142857,2041.7,1051.5714285714287,237.47767857142856,2143.1,1290.5714285714287,338.47767857142856,2247.6,1346.5714285714287,343.47767857142856,2352.1,1346.5714285714287,343.47767857142856,2456.1,1346.5714285714287,343.47767857142856,2556.9,1346.5714285714287,343.47767857142856,2661.3,1346.5714285714287,343.47767857142856,2766.2,1346.5714285714287,343.47767857142856,2866.9,1346.5714285714287,343.47767857142856,2967.5,1346.5714285714287,343.47767857142856,3068.2,1346.5714285714287,343.47767857142856,3171.6,1346.5714285714287,343.47767857142856,3277.3,1346.5714285714287,343.47767857142856,3381.4,1346.5714285714287,343.47767857142856,3481.8,1346.5714285714287,343.47767857142856,3587.5,1346.5714285714287,343.47767857142856,3690.2,1346.5714285714287,343.47767857142856,3791.2,1346.5714285714287,343.47767857142856,3892,1346.5714285714287,343.47767857142856,3996.6]","[1449.3,1449.3,1000,0,449.3,""smooth"",""right"",""right"",""good_move"",7908.8,6459,2446.5,5119.7,342.6,""smooth"",""right"",""right"",""good_move"",11100.9,3192,2664.8,7908.9,527.2,""smooth"",""right"",""right"",""good_move"",13316.9,2215.8,1729.6,11101.1,486.2,""smooth"",""up"",""up"",""good_move"",20069.3,6752.2,2883,16745.4,440.9,""oops"",""up"",""down"",""bad_move"",22916.6,2847.1,2443.8,20069.5,403.3,""oops"",""up"",""down"",""bad_move"",26172.6,3255.7,2410.8,22916.9,844.9,""oops"",""up"",""up"",""good_move"",29164.6,2991.7,2622,26172.9,369.7,""while_blue"",""up"",""up"",""good_move"",32236.8,3071.8,2724.9,29165,346.9,""while_blue"",""up"",""up"",""good_move"",35644.8,3407.7,3006.6,32237.1,401.1,""oops"",""up"",""up"",""good_move""]","",""
"19750","","","","instructions","24","475807","0.0-8.0-4.0","148","1","2025-07-02 10:21:14","80fe4187154257d5fb01684ea91b68b9","154.73.187.59","Mozilla/5.0 (Windows NT 10.0; Win64; x64) AppleWebKit/537.36 (KHTML, like Gecko) Chrome/137.0.0.0 Safari/537.36","WebKit","Chrome","137.0.0.0","Windows","10.0","https://app.prolific.com/","en-US,en;q=0.9","67f39b05e1bfb4295b1659ac","683db6dfa200031b80f2a654","68650760257f5267f4c5b20e","67f39b05e1bfb4295b1659ac","","[{""page_index"":0,""viewing_time"":7718},{""page_index"":1,""viewing_time"":12031}]","","","","","","","","","","","","","","","","","","","","","","","","","","","","","","","","","","","","","","","","","","",""
"9711","","","{""green_ball"":[""Ball always moves in the direction I press""]}","survey-multi-select","25","485520","0.0-8.0-5.0-0.0","148","1","2025-07-02 10:21:14","80fe4187154257d5fb01684ea91b68b9","154.73.187.59","Mozilla/5.0 (Windows NT 10.0; Win64; x64) AppleWebKit/537.36 (KHTML, like Gecko) Chrome/137.0.0.0 Safari/537.36","WebKit","Chrome","137.0.0.0","Windows","10.0","https://app.prolific.com/","en-US,en;q=0.9","67f39b05e1bfb4295b1659ac","683db6dfa200031b80f2a654","68650760257f5267f4c5b20e","67f39b05e1bfb4295b1659ac","","","[0]","","","","quiz","","","","","","","","","","","","","","","","","","","","","","","","","","","","","","","","","","","","","false",""
"8158","","<p align='center'><b>INCORRECT.</b> Usually the green ball moves in the indicated direction, but sometimes it shakes and moves randomly. </p>","0","html-button-response","26","493679","0.0-8.0-5.0-1.0","148","1","2025-07-02 10:21:14","80fe4187154257d5fb01684ea91b68b9","154.73.187.59","Mozilla/5.0 (Windows NT 10.0; Win64; x64) AppleWebKit/537.36 (KHTML, like Gecko) Chrome/137.0.0.0 Safari/537.36","WebKit","Chrome","137.0.0.0","Windows","10.0","https://app.prolific.com/","en-US,en;q=0.9","67f39b05e1bfb4295b1659ac","683db6dfa200031b80f2a654","68650760257f5267f4c5b20e","67f39b05e1bfb4295b1659ac","","","","","","","","","","","","","","","","","","","","","","","","","","","","","","","","","","","","","","","","","","","","",""
"18025","","","{""green_ball"":[""Ball always moves in the direction I press""]}","survey-multi-select","27","511707","0.0-8.0-5.1-0.1","148","1","2025-07-02 10:21:14","80fe4187154257d5fb01684ea91b68b9","154.73.187.59","Mozilla/5.0 (Windows NT 10.0; Win64; x64) AppleWebKit/537.36 (KHTML, like Gecko) Chrome/137.0.0.0 Safari/537.36","WebKit","Chrome","137.0.0.0","Windows","10.0","https://app.prolific.com/","en-US,en;q=0.9","67f39b05e1bfb4295b1659ac","683db6dfa200031b80f2a654","68650760257f5267f4c5b20e","67f39b05e1bfb4295b1659ac","","","[0]","","","","quiz","","","","","","","","","","","","","","","","","","","","","","","","","","","","","","","","","","","","","false",""
"6259","","<p align='center'><b>INCORRECT.</b> Usually the green ball moves in the indicated direction, but sometimes it shakes and moves randomly. </p>","0","html-button-response","28","517967","0.0-8.0-5.1-1.1","148","1","2025-07-02 10:21:14","80fe4187154257d5fb01684ea91b68b9","154.73.187.59","Mozilla/5.0 (Windows NT 10.0; Win64; x64) AppleWebKit/537.36 (KHTML, like Gecko) Chrome/137.0.0.0 Safari/537.36","WebKit","Chrome","137.0.0.0","Windows","10.0","https://app.prolific.com/","en-US,en;q=0.9","67f39b05e1bfb4295b1659ac","683db6dfa200031b80f2a654","68650760257f5267f4c5b20e","67f39b05e1bfb4295b1659ac","","","","","","","","","","","","","","","","","","","","","","","","","","","","","","","","","","","","","","","","","","","","",""
"1782","","","{""green_ball"":[""Ball sometimes shakes and moves in a random direction""]}","survey-multi-select","29","519751","0.0-8.0-5.2-0.2","148","1","2025-07-02 10:21:14","80fe4187154257d5fb01684ea91b68b9","154.73.187.59","Mozilla/5.0 (Windows NT 10.0; Win64; x64) AppleWebKit/537.36 (KHTML, like Gecko) Chrome/137.0.0.0 Safari/537.36","WebKit","Chrome","137.0.0.0","Windows","10.0","https://app.prolific.com/","en-US,en;q=0.9","67f39b05e1bfb4295b1659ac","683db6dfa200031b80f2a654","68650760257f5267f4c5b20e","67f39b05e1bfb4295b1659ac","","","[0]","","","","quiz","","","","","","","","","","","","","","","","","","","","","","","","","","","","","","","","","","","","","true",""
"1722","","<p align='center'><b>CORRECT!</b> Indeed, the green ball may sometimes shake and move in a random direction.</p>","0","html-button-response","30","521474","0.0-8.0-5.2-1.2","148","1","2025-07-02 10:21:14","80fe4187154257d5fb01684ea91b68b9","154.73.187.59","Mozilla/5.0 (Windows NT 10.0; Win64; x64) AppleWebKit/537.36 (KHTML, like Gecko) Chrome/137.0.0.0 Safari/537.36","WebKit","Chrome","137.0.0.0","Windows","10.0","https://app.prolific.com/","en-US,en;q=0.9","67f39b05e1bfb4295b1659ac","683db6dfa200031b80f2a654","68650760257f5267f4c5b20e","67f39b05e1bfb4295b1659ac","","","","","","","","","","","","","","","","","","","","","","","","","","","","","","","","","","","","","","","","","","","","",""
"3971","","","{""yellow_ball"":[""Ball doesn‘t move and I get -1 penalty point""]}","survey-multi-select","31","525447","0.0-8.0-6.0-0.0","148","1","2025-07-02 10:21:14","80fe4187154257d5fb01684ea91b68b9","154.73.187.59","Mozilla/5.0 (Windows NT 10.0; Win64; x64) AppleWebKit/537.36 (KHTML, like Gecko) Chrome/137.0.0.0 Safari/537.36","WebKit","Chrome","137.0.0.0","Windows","10.0","https://app.prolific.com/","en-US,en;q=0.9","67f39b05e1bfb4295b1659ac","683db6dfa200031b80f2a654","68650760257f5267f4c5b20e","67f39b05e1bfb4295b1659ac","","","[0]","","","","quiz","","","","","","","","","","","","","","","","","","","","","","","","","","","","","","","","","","","","","true",""
"1147","","<p align='center'><b>CORRECT!</b> Indeed, the yellow ball never moves and you receive a penalty.</p>","0","html-button-response","32","526595","0.0-8.0-6.0-1.0","148","1","2025-07-02 10:21:14","80fe4187154257d5fb01684ea91b68b9","154.73.187.59","Mozilla/5.0 (Windows NT 10.0; Win64; x64) AppleWebKit/537.36 (KHTML, like Gecko) Chrome/137.0.0.0 Safari/537.36","WebKit","Chrome","137.0.0.0","Windows","10.0","https://app.prolific.com/","en-US,en;q=0.9","67f39b05e1bfb4295b1659ac","683db6dfa200031b80f2a654","68650760257f5267f4c5b20e","67f39b05e1bfb4295b1659ac","","","","","","","","","","","","","","","","","","","","","","","","","","","","","","","","","","","","","","","","","","","","",""
"10531","","","{""blue_ball"":[""Ball always shakes and moves in a random direction"",""Ball doesn‘t move and I get -1 penalty point""]}","survey-multi-select","33","537127","0.0-8.0-7.0-0.0","148","1","2025-07-02 10:21:14","80fe4187154257d5fb01684ea91b68b9","154.73.187.59","Mozilla/5.0 (Windows NT 10.0; Win64; x64) AppleWebKit/537.36 (KHTML, like Gecko) Chrome/137.0.0.0 Safari/537.36","WebKit","Chrome","137.0.0.0","Windows","10.0","https://app.prolific.com/","en-US,en;q=0.9","67f39b05e1bfb4295b1659ac","683db6dfa200031b80f2a654","68650760257f5267f4c5b20e","67f39b05e1bfb4295b1659ac","","","[0]","","","","quiz","","","","","","","","","","","","","","","","","","","","","","","","","","","","","","","","","","","","","false",""
"2866","","<p align='center'><b>INCORRECT.</b> The blue ball always shakes and moves randomly.</p>","0","html-button-response","34","539994","0.0-8.0-7.0-1.0","148","1","2025-07-02 10:21:14","80fe4187154257d5fb01684ea91b68b9","154.73.187.59","Mozilla/5.0 (Windows NT 10.0; Win64; x64) AppleWebKit/537.36 (KHTML, like Gecko) Chrome/137.0.0.0 Safari/537.36","WebKit","Chrome","137.0.0.0","Windows","10.0","https://app.prolific.com/","en-US,en;q=0.9","67f39b05e1bfb4295b1659ac","683db6dfa200031b80f2a654","68650760257f5267f4c5b20e","67f39b05e1bfb4295b1659ac","","","","","","","","","","","","","","","","","","","","","","","","","","","","","","","","","","","","","","","","","","","","",""
"4191","","","{""blue_ball"":[""Ball always shakes and moves in a random direction""]}","survey-multi-select","35","544187","0.0-8.0-7.1-0.1","148","1","2025-07-02 10:21:14","80fe4187154257d5fb01684ea91b68b9","154.73.187.59","Mozilla/5.0 (Windows NT 10.0; Win64; x64) AppleWebKit/537.36 (KHTML, like Gecko) Chrome/137.0.0.0 Safari/537.36","WebKit","Chrome","137.0.0.0","Windows","10.0","https://app.prolific.com/","en-US,en;q=0.9","67f39b05e1bfb4295b1659ac","683db6dfa200031b80f2a654","68650760257f5267f4c5b20e","67f39b05e1bfb4295b1659ac","","","[0]","","","","quiz","","","","","","","","","","","","","","","","","","","","","","","","","","","","","","","","","","","","","true",""
"1664","","<p align='center'><b>CORRECT!</b> Indeed, the blue ball always shakes and moves in a random direction. Also there is a penalty of -1 point.</p>","0","html-button-response","36","545851","0.0-8.0-7.1-1.1","148","1","2025-07-02 10:21:14","80fe4187154257d5fb01684ea91b68b9","154.73.187.59","Mozilla/5.0 (Windows NT 10.0; Win64; x64) AppleWebKit/537.36 (KHTML, like Gecko) Chrome/137.0.0.0 Safari/537.36","WebKit","Chrome","137.0.0.0","Windows","10.0","https://app.prolific.com/","en-US,en;q=0.9","67f39b05e1bfb4295b1659ac","683db6dfa200031b80f2a654","68650760257f5267f4c5b20e","67f39b05e1bfb4295b1659ac","","","","","","","","","","","","","","","","","","","","","","","","","","","","","","","","","","","","","","","","","","","","",""
"5555","","","{""bonus"":[""When I reach 50% of points""]}","survey-multi-select","37","551408","0.0-8.0-8.0-0.0","148","1","2025-07-02 10:21:14","80fe4187154257d5fb01684ea91b68b9","154.73.187.59","Mozilla/5.0 (Windows NT 10.0; Win64; x64) AppleWebKit/537.36 (KHTML, like Gecko) Chrome/137.0.0.0 Safari/537.36","WebKit","Chrome","137.0.0.0","Windows","10.0","https://app.prolific.com/","en-US,en;q=0.9","67f39b05e1bfb4295b1659ac","683db6dfa200031b80f2a654","68650760257f5267f4c5b20e","67f39b05e1bfb4295b1659ac","","","[0]","","","","quiz","","","","","","","","","","","","","","","","","","","","","","","","","","","","","","","","","","","","","true",""
"1578","","<p align='center'><b>CORRECT!</b> Indeed, you receive 2 pounds extra when you reach 50% of points.</p>","0","html-button-response","38","552986","0.0-8.0-8.0-1.0","148","1","2025-07-02 10:21:14","80fe4187154257d5fb01684ea91b68b9","154.73.187.59","Mozilla/5.0 (Windows NT 10.0; Win64; x64) AppleWebKit/537.36 (KHTML, like Gecko) Chrome/137.0.0.0 Safari/537.36","WebKit","Chrome","137.0.0.0","Windows","10.0","https://app.prolific.com/","en-US,en;q=0.9","67f39b05e1bfb4295b1659ac","683db6dfa200031b80f2a654","68650760257f5267f4c5b20e","67f39b05e1bfb4295b1659ac","","","","","","","","","","","","","","","","","","","","","","","","","","","","","","","","","","","","","","","","","","","","",""
"3384","","","","instructions","39","556371","0.0-8.0-9.0","148","1","2025-07-02 10:21:14","80fe4187154257d5fb01684ea91b68b9","154.73.187.59","Mozilla/5.0 (Windows NT 10.0; Win64; x64) AppleWebKit/537.36 (KHTML, like Gecko) Chrome/137.0.0.0 Safari/537.36","WebKit","Chrome","137.0.0.0","Windows","10.0","https://app.prolific.com/","en-US,en;q=0.9","67f39b05e1bfb4295b1659ac","683db6dfa200031b80f2a654","68650760257f5267f4c5b20e","67f39b05e1bfb4295b1659ac","","[{""page_index"":0,""viewing_time"":3384}]","","","","","","","","","","","","","","","","","","","","","","","","","","","","","","","","","","","","","","","","","","",""
"13918","","<p>Before you start with this game please answer the following three questions yourself. </p>
  <p>Through this game, we measure several aspects of your cognitive performance, such as reaction times, multi-tasking capabilities </p>
  <p>and the ability to assess the situation you are in.</p>
  <p></p>
  <p><b>How good do you usually are in such tasks?</b></p>","86","html-slider-response","40","570290","0.0-9.0-0.0","148","1","2025-07-02 10:21:14","80fe4187154257d5fb01684ea91b68b9","154.73.187.59","Mozilla/5.0 (Windows NT 10.0; Win64; x64) AppleWebKit/537.36 (KHTML, like Gecko) Chrome/137.0.0.0 Safari/537.36","WebKit","Chrome","137.0.0.0","Windows","10.0","https://app.prolific.com/","en-US,en;q=0.9","67f39b05e1bfb4295b1659ac","683db6dfa200031b80f2a654","68650760257f5267f4c5b20e","67f39b05e1bfb4295b1659ac","2025-07-02T10:30:48.545Z","","","","","","PreSkillQ","","","","","","","","","","","","","","","","","","","","","","","","","","","","","","","","","","","","","","50"
"6583","","<div style=""width:500px;"">
  <p>How well do you think you will perform in this task compared to other participants?</p>
  </div>","60","html-slider-response","41","576874","0.0-9.0-1.0","148","1","2025-07-02 10:21:14","80fe4187154257d5fb01684ea91b68b9","154.73.187.59","Mozilla/5.0 (Windows NT 10.0; Win64; x64) AppleWebKit/537.36 (KHTML, like Gecko) Chrome/137.0.0.0 Safari/537.36","WebKit","Chrome","137.0.0.0","Windows","10.0","https://app.prolific.com/","en-US,en;q=0.9","67f39b05e1bfb4295b1659ac","683db6dfa200031b80f2a654","68650760257f5267f4c5b20e","67f39b05e1bfb4295b1659ac","2025-07-02T10:30:55.129Z","","","","","","PrePerfQ","","","","","","","","","","","","","","","","","","","","","","","","","","","","","","","","","","","","","","50"
"3895","","<div style=""width:500px;"">
  <p>What best describes how you currently feel?</p>
  </div>","96","html-slider-response","42","580770","0.0-9.0-2.0","148","1","2025-07-02 10:21:14","80fe4187154257d5fb01684ea91b68b9","154.73.187.59","Mozilla/5.0 (Windows NT 10.0; Win64; x64) AppleWebKit/537.36 (KHTML, like Gecko) Chrome/137.0.0.0 Safari/537.36","WebKit","Chrome","137.0.0.0","Windows","10.0","https://app.prolific.com/","en-US,en;q=0.9","67f39b05e1bfb4295b1659ac","683db6dfa200031b80f2a654","68650760257f5267f4c5b20e","67f39b05e1bfb4295b1659ac","2025-07-02T10:30:59.025Z","","","","","","PreMotivationQ","","","","","","","","","","","","","","","","","","","","","","","","","","","","","","","","","","","","","","50"
"","","","","ctl-task-cpt","43","610724","0.0-10.0-0.0","148","1","2025-07-02 10:21:14","80fe4187154257d5fb01684ea91b68b9","154.73.187.59","Mozilla/5.0 (Windows NT 10.0; Win64; x64) AppleWebKit/537.36 (KHTML, like Gecko) Chrome/137.0.0.0 Safari/537.36","WebKit","Chrome","137.0.0.0","Windows","10.0","https://app.prolific.com/","en-US,en;q=0.9","67f39b05e1bfb4295b1659ac","683db6dfa200031b80f2a654","68650760257f5267f4c5b20e","67f39b05e1bfb4295b1659ac","2025-07-02T10:31:28.979Z","","","","","","","","","","","","","","","","win-only","1","g1:NE,g2:SW","1","1","0","587511.2","3255","8256.7","26942.7","1","4","8","6","2","8","8","8","0","0.06060606060606061","1535.6","3000","620","[""down"",""left""]","{""num_key_presses"":6,""num_perfect"":6,""num_errors"":0,""num_randdir"":0,""num_randdir_good_moves"":0,""num_whilered"":0,""num_whileblue"":0,""num_blue"":1,""num_good_moves"":6}","[414.57142857142856,414.47767857142856,0.3,414.57142857142856,414.47767857142856,101.1,414.57142857142856,414.47767857142856,205.9,414.57142857142856,414.47767857142856,306.1,414.57142857142856,414.47767857142856,406.7,414.57142857142856,414.47767857142856,507,414.57142857142856,414.47767857142856,612.2,414.57142857142856,414.47767857142856,712.4,414.57142857142856,414.47767857142856,816.4,414.57142857142856,414.47767857142856,921,352.57142857142856,531.4776785714286,1026.5,201.57142857142856,686.4776785714286,1130.8,136.57142857142856,737.4776785714286,1230.8,91.57142857142857,761.4776785714286,1331.4,55.57142857142857,774.4776785714286,1436.8,53.57142857142857,775.4776785714286,1540.8,53.57142857142857,775.4776785714286,1647,60.57142857142857,767.4776785714286,1750.8,173.57142857142856,744.4776785714286,1851,269.57142857142856,688.4776785714286,1956,272.57142857142856,687.4776785714286,2060.8,272.57142857142856,687.4776785714286,2160.8,272.57142857142856,687.4776785714286,2262.2,272.57142857142856,687.4776785714286,2366.1,272.57142857142856,687.4776785714286,2470.7,272.57142857142856,687.4776785714286,2571.1,272.57142857142856,687.4776785714286,2676,272.57142857142856,687.4776785714286,2776.3,272.57142857142856,687.4776785714286,2880.6,272.57142857142856,687.4776785714286,2981.4,272.57142857142856,687.4776785714286,3086.2,272.57142857142856,687.4776785714286,3186.2,272.57142857142856,687.4776785714286,3287,272.57142857142856,687.4776785714286,3392,272.57142857142856,687.4776785714286,3495.8,272.57142857142856,687.4776785714286,3596.1,272.57142857142856,687.4776785714286,3700.9,272.57142857142856,687.4776785714286,3801.3,272.57142857142856,687.4776785714286,3901.4,272.57142857142856,687.4776785714286,4006.3,272.57142857142856,687.4776785714286,4107.7,272.57142857142856,687.4776785714286,4211.9,272.57142857142856,687.4776785714286,4312,272.57142857142856,687.4776785714286,4416,272.57142857142856,687.4776785714286,4519.2,272.57142857142856,687.4776785714286,4620.3,272.57142857142856,687.4776785714286,4721.2,272.57142857142856,687.4776785714286,4826.1,272.57142857142856,687.4776785714286,4926.2]","[1649.3,1649.3,1000,0,649.3,""smooth"",""down"",""down"",""good_move"",4128.8,2479.1,2079.4,1649.7,399.7,""smooth"",""down"",""down"",""good_move"",6988.6,2859.6,2506.4,4129,353.2,""smooth"",""down"",""down"",""good_move"",9360.8,2371.6,2018.3,6989.2,353.3,""smooth"",""left"",""left"",""good_move"",12369.4,3008.3,2683.2,9361.2,325.1,""smooth"",""left"",""left"",""good_move"",18593.8,6224.2,2720.6,15493.5,379.8,""smooth"",""left"",""left"",""good_move""]","",""
"4702","","<div style=""width:500px;"">
  <p>What determined the result of this run?</p>
  </div>","100","html-slider-response","44","615427","0.0-10.0-1.0","148","1","2025-07-02 10:21:14","80fe4187154257d5fb01684ea91b68b9","154.73.187.59","Mozilla/5.0 (Windows NT 10.0; Win64; x64) AppleWebKit/537.36 (KHTML, like Gecko) Chrome/137.0.0.0 Safari/537.36","WebKit","Chrome","137.0.0.0","Windows","10.0","https://app.prolific.com/","en-US,en;q=0.9","67f39b05e1bfb4295b1659ac","683db6dfa200031b80f2a654","68650760257f5267f4c5b20e","67f39b05e1bfb4295b1659ac","2025-07-02T10:31:33.682Z","","","","","","AttribQ","","","","","","","","","","","","","","","","","","","","","","","","","","","","","","","","","","","","","","50"
"3959","","<div style=""width:500px;"">
  <p>How much control did you have over the ball?</p>
  </div>","100","html-slider-response","45","619387","0.0-10.0-2.0","148","1","2025-07-02 10:21:14","80fe4187154257d5fb01684ea91b68b9","154.73.187.59","Mozilla/5.0 (Windows NT 10.0; Win64; x64) AppleWebKit/537.36 (KHTML, like Gecko) Chrome/137.0.0.0 Safari/537.36","WebKit","Chrome","137.0.0.0","Windows","10.0","https://app.prolific.com/","en-US,en;q=0.9","67f39b05e1bfb4295b1659ac","683db6dfa200031b80f2a654","68650760257f5267f4c5b20e","67f39b05e1bfb4295b1659ac","2025-07-02T10:31:37.642Z","","","","","","ControlQ","","","","","","","","","","","","","","","","","","","","","","","","","","","","","","","","","","","","","","50"
"3967","","<div style=""width:500px;"">
  <p>How would you describe your current emotional state?</p>
  </div>","0","html-slider-response","46","623356","0.0-10.0-3.0","148","1","2025-07-02 10:21:14","80fe4187154257d5fb01684ea91b68b9","154.73.187.59","Mozilla/5.0 (Windows NT 10.0; Win64; x64) AppleWebKit/537.36 (KHTML, like Gecko) Chrome/137.0.0.0 Safari/537.36","WebKit","Chrome","137.0.0.0","Windows","10.0","https://app.prolific.com/","en-US,en;q=0.9","67f39b05e1bfb4295b1659ac","683db6dfa200031b80f2a654","68650760257f5267f4c5b20e","67f39b05e1bfb4295b1659ac","2025-07-02T10:31:41.611Z","","","","","","StressQ","","","","","","","","","","","","","","","","","","","","","","","","","","","","","","","","","","","","","","50"
"4238","","<div style=""width:500px;"">
  <p>What best describes how you currently feel?</p>
  </div>","88","html-slider-response","47","627594","0.0-10.0-4.0","148","1","2025-07-02 10:21:14","80fe4187154257d5fb01684ea91b68b9","154.73.187.59","Mozilla/5.0 (Windows NT 10.0; Win64; x64) AppleWebKit/537.36 (KHTML, like Gecko) Chrome/137.0.0.0 Safari/537.36","WebKit","Chrome","137.0.0.0","Windows","10.0","https://app.prolific.com/","en-US,en;q=0.9","67f39b05e1bfb4295b1659ac","683db6dfa200031b80f2a654","68650760257f5267f4c5b20e","67f39b05e1bfb4295b1659ac","2025-07-02T10:31:45.850Z","","","","","","MotivationQ","","","","","","","","","","","","","","","","","","","","","","","","","","","","","","","","","","","","","","50"
"","","","","ctl-task-cpt","48","657028","0.0-10.0-0.1","148","1","2025-07-02 10:21:14","80fe4187154257d5fb01684ea91b68b9","154.73.187.59","Mozilla/5.0 (Windows NT 10.0; Win64; x64) AppleWebKit/537.36 (KHTML, like Gecko) Chrome/137.0.0.0 Safari/537.36","WebKit","Chrome","137.0.0.0","Windows","10.0","https://app.prolific.com/","en-US,en;q=0.9","67f39b05e1bfb4295b1659ac","683db6dfa200031b80f2a654","68650760257f5267f4c5b20e","67f39b05e1bfb4295b1659ac","2025-07-02T10:32:15.283Z","","","","","","","","","","","","","","","","win-only","3","g1:SW,g2:NE","0.9","2","0","634335.9","1347.9","6351.3","26416.1","1","4","4","6","2","4","4","12","8","0.09090909090909091","1380","3000","885","[""up"",""right""]","{""num_key_presses"":6,""num_perfect"":5,""num_errors"":0,""num_randdir"":1,""num_randdir_good_moves"":1,""num_whilered"":0,""num_whileblue"":0,""num_blue"":1,""num_good_moves"":6}","[417.57142857142856,419.47767857142856,0.2,417.57142857142856,419.47767857142856,103.8,417.57142857142856,419.47767857142856,211.6,417.57142857142856,419.47767857142856,311.6,417.57142857142856,419.47767857142856,412.7,417.57142857142856,419.47767857142856,513.7,417.57142857142856,428.47767857142856,618.3,409.57142857142856,466.47767857142856,729.3,391.57142857142856,516.4776785714286,833.2,358.57142857142856,579.4776785714286,937.8,567.5714285714286,327.47767857142856,1038.3,727.5714285714286,92.47767857142857,1146.3,748.5714285714286,73.47767857142857,1248,749.5714285714286,71.47767857142857,1353.6,749.5714285714286,71.47767857142857,1462.5,749.5714285714286,71.47767857142857,1562.6,844.5714285714286,203.47767857142856,1662.7,963.5714285714286,337.47767857142856,1763,963.5714285714286,337.47767857142856,1868.5,963.5714285714286,337.47767857142856,1968.6,963.5714285714286,337.47767857142856,2069,963.5714285714286,337.47767857142856,2173,963.5714285714286,337.47767857142856,2273,963.5714285714286,337.47767857142856,2378.6,963.5714285714286,337.47767857142856,2483,963.5714285714286,337.47767857142856,2583.5,963.5714285714286,337.47767857142856,2683.5,963.5714285714286,337.47767857142856,2788.4,963.5714285714286,337.47767857142856,2889.6,963.5714285714286,337.47767857142856,2995.3,963.5714285714286,337.47767857142856,3095.9,963.5714285714286,337.47767857142856,3198,963.5714285714286,337.47767857142856,3303.4,963.5714285714286,337.47767857142856,3403.7,963.5714285714286,337.47767857142856,3511.5,963.5714285714286,337.47767857142856,3611.7,963.5714285714286,337.47767857142856,3712.6,963.5714285714286,337.47767857142856,3812.7,963.5714285714286,337.47767857142856,3918.4,963.5714285714286,337.47767857142856,4018.4,963.5714285714286,337.47767857142856,4128.2,963.5714285714286,337.47767857142856,4232.7,963.5714285714286,337.47767857142856,4333.6,963.5714285714286,337.47767857142856,4445.1,963.5714285714286,337.47767857142856,4545.7,963.5714285714286,337.47767857142856,4647.5,963.5714285714286,337.47767857142856,4748.2,963.5714285714286,337.47767857142856,4852.9,963.5714285714286,337.47767857142856,4953.8]","[5205.9,5205.9,2840.9,2008.6,356.4,""smooth"",""right"",""right"",""good_move"",8623.1,3416.4,2889.2,5206.7,527.2,""smooth"",""right"",""right"",""good_move"",11140.6,2517.3,2123.6,8623.3,393.7,""smooth"",""up"",""up"",""good_move"",14056.7,2915.6,2485.8,11141.1,429.8,""oops"",""up"",""up"",""good_move"",17562,3505,3140,14057,365,""smooth"",""right"",""right"",""good_move"",19973.2,2411.1,1980.6,17562.1,430.5,""smooth"",""up"",""up"",""good_move""]","",""
"3670","","<div style=""width:500px;"">
  <p>What determined the result of this run?</p>
  </div>","100","html-slider-response","49","660700","0.0-10.0-1.1","148","1","2025-07-02 10:21:14","80fe4187154257d5fb01684ea91b68b9","154.73.187.59","Mozilla/5.0 (Windows NT 10.0; Win64; x64) AppleWebKit/537.36 (KHTML, like Gecko) Chrome/137.0.0.0 Safari/537.36","WebKit","Chrome","137.0.0.0","Windows","10.0","https://app.prolific.com/","en-US,en;q=0.9","67f39b05e1bfb4295b1659ac","683db6dfa200031b80f2a654","68650760257f5267f4c5b20e","67f39b05e1bfb4295b1659ac","2025-07-02T10:32:18.956Z","","","","","","AttribQ","","","","","","","","","","","","","","","","","","","","","","","","","","","","","","","","","","","","","","50"
"3267","","<div style=""width:500px;"">
  <p>How much control did you have over the ball?</p>
  </div>","100","html-slider-response","50","663970","0.0-10.0-2.1","148","1","2025-07-02 10:21:14","80fe4187154257d5fb01684ea91b68b9","154.73.187.59","Mozilla/5.0 (Windows NT 10.0; Win64; x64) AppleWebKit/537.36 (KHTML, like Gecko) Chrome/137.0.0.0 Safari/537.36","WebKit","Chrome","137.0.0.0","Windows","10.0","https://app.prolific.com/","en-US,en;q=0.9","67f39b05e1bfb4295b1659ac","683db6dfa200031b80f2a654","68650760257f5267f4c5b20e","67f39b05e1bfb4295b1659ac","2025-07-02T10:32:22.225Z","","","","","","ControlQ","","","","","","","","","","","","","","","","","","","","","","","","","","","","","","","","","","","","","","50"
"2415","","<div style=""width:500px;"">
  <p>How would you describe your current emotional state?</p>
  </div>","0","html-slider-response","51","666387","0.0-10.0-3.1","148","1","2025-07-02 10:21:14","80fe4187154257d5fb01684ea91b68b9","154.73.187.59","Mozilla/5.0 (Windows NT 10.0; Win64; x64) AppleWebKit/537.36 (KHTML, like Gecko) Chrome/137.0.0.0 Safari/537.36","WebKit","Chrome","137.0.0.0","Windows","10.0","https://app.prolific.com/","en-US,en;q=0.9","67f39b05e1bfb4295b1659ac","683db6dfa200031b80f2a654","68650760257f5267f4c5b20e","67f39b05e1bfb4295b1659ac","2025-07-02T10:32:24.642Z","","","","","","StressQ","","","","","","","","","","","","","","","","","","","","","","","","","","","","","","","","","","","","","","50"
"2704","","<div style=""width:500px;"">
  <p>What best describes how you currently feel?</p>
  </div>","100","html-slider-response","52","669092","0.0-10.0-4.1","148","1","2025-07-02 10:21:14","80fe4187154257d5fb01684ea91b68b9","154.73.187.59","Mozilla/5.0 (Windows NT 10.0; Win64; x64) AppleWebKit/537.36 (KHTML, like Gecko) Chrome/137.0.0.0 Safari/537.36","WebKit","Chrome","137.0.0.0","Windows","10.0","https://app.prolific.com/","en-US,en;q=0.9","67f39b05e1bfb4295b1659ac","683db6dfa200031b80f2a654","68650760257f5267f4c5b20e","67f39b05e1bfb4295b1659ac","2025-07-02T10:32:27.347Z","","","","","","MotivationQ","","","","","","","","","","","","","","","","","","","","","","","","","","","","","","","","","","","","","","50"
"","","","","ctl-task-cpt","53","701375","0.0-10.0-0.2","148","1","2025-07-02 10:21:14","80fe4187154257d5fb01684ea91b68b9","154.73.187.59","Mozilla/5.0 (Windows NT 10.0; Win64; x64) AppleWebKit/537.36 (KHTML, like Gecko) Chrome/137.0.0.0 Safari/537.36","WebKit","Chrome","137.0.0.0","Windows","10.0","https://app.prolific.com/","en-US,en;q=0.9","67f39b05e1bfb4295b1659ac","683db6dfa200031b80f2a654","68650760257f5267f4c5b20e","67f39b05e1bfb4295b1659ac","2025-07-02T10:32:59.630Z","","","","","","","","","","","","","","","","win-only","2","g1:SE,g2:NW","0.8","3","0","675833.1","1164.7","6165.8","29263.6","1","4","4","6","2","4","4","16","12","0.12121212121212122","1623.7","3000","1020","[""left"",""up""]","{""num_key_presses"":6,""num_perfect"":4,""num_errors"":0,""num_randdir"":2,""num_randdir_good_moves"":2,""num_whilered"":0,""num_whileblue"":0,""num_blue"":2,""num_good_moves"":6}","[418.57142857142856,422.47767857142856,0.3,418.57142857142856,422.47767857142856,101.7,418.57142857142856,422.47767857142856,206.6,418.57142857142856,422.47767857142856,307.2,418.57142857142856,422.47767857142856,409.3,411.57142857142856,458.47767857142856,513.9,409.57142857142856,481.47767857142856,617.4,406.57142857142856,495.47767857142856,720.9,406.57142857142856,495.47767857142856,821.7,406.57142857142856,495.47767857142856,927.2,401.57142857142856,495.47767857142856,1031.1,-38.42857142857143,313.47767857142856,1132.4,-155.42857142857144,215.47767857142856,1237.6,22.57142857142857,151.47767857142856,1344.7,55.57142857142857,110.47767857142857,1447.2,77.57142857142857,64.47767857142857,1547.2,77.57142857142857,64.47767857142857,1650.6,77.57142857142857,64.47767857142857,1751.4,82.57142857142857,110.47767857142857,1852.4,209.57142857142856,340.47767857142856,1955.7,249.57142857142856,432.47767857142856,2056.3,249.57142857142856,432.47767857142856,2156.3,249.57142857142856,432.47767857142856,2263,249.57142857142856,432.47767857142856,2365.6,249.57142857142856,432.47767857142856,2466.1,249.57142857142856,432.47767857142856,2566.9,249.57142857142856,432.47767857142856,2670.9,249.57142857142856,432.47767857142856,2771.3,249.57142857142856,432.47767857142856,2877.7,249.57142857142856,432.47767857142856,2982,249.57142857142856,432.47767857142856,3085.9,249.57142857142856,432.47767857142856,3186.6,249.57142857142856,432.47767857142856,3291.8,249.57142857142856,432.47767857142856,3397.2,249.57142857142856,432.47767857142856,3498.4,249.57142857142856,432.47767857142856,3601.1,249.57142857142856,432.47767857142856,3706.5,249.57142857142856,432.47767857142856,3807.2,249.57142857142856,432.47767857142856,3913.4,249.57142857142856,432.47767857142856,4015.8,249.57142857142856,432.47767857142856,4116,249.57142857142856,432.47767857142856,4220.8,249.57142857142856,432.47767857142856,4325.9,249.57142857142856,432.47767857142856,4427.4,249.57142857142856,432.47767857142856,4532.4,249.57142857142856,432.47767857142856,4635.8,249.57142857142856,432.47767857142856,4736.6,249.57142857142856,432.47767857142856,4841.3,249.57142857142856,432.47767857142856,4946.6]","[1410.5,1410.5,1000,0,410.5,""smooth"",""up"",""up"",""good_move"",4169.8,2758.7,2373.7,1411.1,385,""smooth"",""up"",""up"",""good_move"",13618.2,9448.2,2196.8,11020.5,400.9,""oops"",""left"",""left"",""good_move"",16995.6,3377,2971.1,13618.6,405.9,""smooth"",""up"",""up"",""good_move"",20096.3,3100.4,2723.1,16995.9,377.3,""smooth"",""left"",""left"",""good_move"",22996.4,2899.7,2568.8,20096.7,330.9,""oops"",""left"",""left"",""good_move""]","",""
"3898","","<div style=""width:500px;"">
  <p>What determined the result of this run?</p>
  </div>","100","html-slider-response","54","705274","0.0-10.0-1.2","148","1","2025-07-02 10:21:14","80fe4187154257d5fb01684ea91b68b9","154.73.187.59","Mozilla/5.0 (Windows NT 10.0; Win64; x64) AppleWebKit/537.36 (KHTML, like Gecko) Chrome/137.0.0.0 Safari/537.36","WebKit","Chrome","137.0.0.0","Windows","10.0","https://app.prolific.com/","en-US,en;q=0.9","67f39b05e1bfb4295b1659ac","683db6dfa200031b80f2a654","68650760257f5267f4c5b20e","67f39b05e1bfb4295b1659ac","2025-07-02T10:33:03.530Z","","","","","","AttribQ","","","","","","","","","","","","","","","","","","","","","","","","","","","","","","","","","","","","","","50"
"2711","","<div style=""width:500px;"">
  <p>How much control did you have over the ball?</p>
  </div>","100","html-slider-response","55","707986","0.0-10.0-2.2","148","1","2025-07-02 10:21:14","80fe4187154257d5fb01684ea91b68b9","154.73.187.59","Mozilla/5.0 (Windows NT 10.0; Win64; x64) AppleWebKit/537.36 (KHTML, like Gecko) Chrome/137.0.0.0 Safari/537.36","WebKit","Chrome","137.0.0.0","Windows","10.0","https://app.prolific.com/","en-US,en;q=0.9","67f39b05e1bfb4295b1659ac","683db6dfa200031b80f2a654","68650760257f5267f4c5b20e","67f39b05e1bfb4295b1659ac","2025-07-02T10:33:06.241Z","","","","","","ControlQ","","","","","","","","","","","","","","","","","","","","","","","","","","","","","","","","","","","","","","50"
"4375","","<div style=""width:500px;"">
  <p>How would you describe your current emotional state?</p>
  </div>","0","html-slider-response","56","712362","0.0-10.0-3.2","148","1","2025-07-02 10:21:14","80fe4187154257d5fb01684ea91b68b9","154.73.187.59","Mozilla/5.0 (Windows NT 10.0; Win64; x64) AppleWebKit/537.36 (KHTML, like Gecko) Chrome/137.0.0.0 Safari/537.36","WebKit","Chrome","137.0.0.0","Windows","10.0","https://app.prolific.com/","en-US,en;q=0.9","67f39b05e1bfb4295b1659ac","683db6dfa200031b80f2a654","68650760257f5267f4c5b20e","67f39b05e1bfb4295b1659ac","2025-07-02T10:33:10.617Z","","","","","","StressQ","","","","","","","","","","","","","","","","","","","","","","","","","","","","","","","","","","","","","","50"
"2999","","<div style=""width:500px;"">
  <p>What best describes how you currently feel?</p>
  </div>","100","html-slider-response","57","715363","0.0-10.0-4.2","148","1","2025-07-02 10:21:14","80fe4187154257d5fb01684ea91b68b9","154.73.187.59","Mozilla/5.0 (Windows NT 10.0; Win64; x64) AppleWebKit/537.36 (KHTML, like Gecko) Chrome/137.0.0.0 Safari/537.36","WebKit","Chrome","137.0.0.0","Windows","10.0","https://app.prolific.com/","en-US,en;q=0.9","67f39b05e1bfb4295b1659ac","683db6dfa200031b80f2a654","68650760257f5267f4c5b20e","67f39b05e1bfb4295b1659ac","2025-07-02T10:33:13.618Z","","","","","","MotivationQ","","","","","","","","","","","","","","","","","","","","","","","","","","","","","","","","","","","","","","50"
"","","","","ctl-task-cpt","58","772213","0.0-10.0-0.3","148","1","2025-07-02 10:21:14","80fe4187154257d5fb01684ea91b68b9","154.73.187.59","Mozilla/5.0 (Windows NT 10.0; Win64; x64) AppleWebKit/537.36 (KHTML, like Gecko) Chrome/137.0.0.0 Safari/537.36","WebKit","Chrome","137.0.0.0","Windows","10.0","https://app.prolific.com/","en-US,en;q=0.9","67f39b05e1bfb4295b1659ac","683db6dfa200031b80f2a654","68650760257f5267f4c5b20e","67f39b05e1bfb4295b1659ac","2025-07-02T10:34:10.468Z","","","","","","","","","","","","","","","","win-only","2","g1:SE,g2:NW","0.7","4","0","722105","23645.5","28646.9","53823.2","1","4","8","6","2","8","8","24","16","0.18181818181818182","2144","3000","240","[""left"",""up""]","{""num_key_presses"":8,""num_perfect"":5,""num_errors"":0,""num_randdir"":3,""num_randdir_good_moves"":2,""num_whilered"":0,""num_whileblue"":0,""num_blue"":1,""num_good_moves"":7}","[420.57142857142856,421.47767857142856,0.3,420.57142857142856,421.47767857142856,100.4,420.57142857142856,421.47767857142856,206.4,420.57142857142856,421.47767857142856,306.9,420.57142857142856,421.47767857142856,410.7,620.5714285714286,518.4776785714286,516.6,761.5714285714286,558.4776785714286,619.9,761.5714285714286,558.4776785714286,720.6,735.5714285714286,562.4776785714286,825.5,735.5714285714286,562.4776785714286,925.6,735.5714285714286,562.4776785714286,1030.8,735.5714285714286,562.4776785714286,1130.9,735.5714285714286,562.4776785714286,1230.9,657.5714285714286,554.4776785714286,1336.4,-328.42857142857144,324.47767857142856,1440.2,-299.42857142857144,173.47767857142856,1545.2,-225.42857142857144,155.47767857142856,1645.5,-167.42857142857144,154.47767857142856,1746,59.57142857142857,159.47767857142856,1849.8,141.57142857142856,139.47767857142856,1950.1,119.57142857142857,111.47767857142857,2051.4,107.57142857142857,105.47767857142857,2158,107.57142857142857,105.47767857142857,2259.2,107.57142857142857,105.47767857142857,2360.1,107.57142857142857,105.47767857142857,2460.6,107.57142857142857,105.47767857142857,2561.2,107.57142857142857,105.47767857142857,2665.7,107.57142857142857,105.47767857142857,2766.5,107.57142857142857,105.47767857142857,2870.8,107.57142857142857,105.47767857142857,2980.5,107.57142857142857,105.47767857142857,3081.6,107.57142857142857,105.47767857142857,3185.3,107.57142857142857,105.47767857142857,3285.4,107.57142857142857,105.47767857142857,3397.9,107.57142857142857,105.47767857142857,3500.2,107.57142857142857,105.47767857142857,3600.7,107.57142857142857,105.47767857142857,3700.8,107.57142857142857,105.47767857142857,3801,107.57142857142857,105.47767857142857,3905.9,107.57142857142857,105.47767857142857,4008.2,107.57142857142857,105.47767857142857,4108.3,107.57142857142857,105.47767857142857,4212.7,107.57142857142857,105.47767857142857,4313.7,107.57142857142857,105.47767857142857,4416.8,107.57142857142857,105.47767857142857,4517.8,107.57142857142857,105.47767857142857,4627.8,107.57142857142857,105.47767857142857,4729.8,107.57142857142857,105.47767857142857,4831.8,107.57142857142857,105.47767857142857,4932.6]","[1421.8,1421.8,1000,0,421.8,""oops"",""left"",""down"",""bad_move"",5017.2,3594.9,3063.3,1422.3,531.6,""smooth"",""up"",""up"",""good_move"",7850.3,2832.8,2482,5017.5,350.8,""smooth"",""up"",""up"",""good_move"",10521.5,2671.1,2294.2,7850.5,376.8,""oops"",""up"",""left"",""good_move"",16146,5624.1,1996.5,13682.9,466.6,""oops"",""up"",""left"",""good_move"",19568.9,3422.6,2929.4,16146.3,493.2,""smooth"",""up"",""up"",""good_move"",22347.1,2778.1,2256.6,19569.1,521.5,""smooth"",""left"",""left"",""good_move"",25065.4,2717.9,2325,22347.5,392.9,""smooth"",""up"",""up"",""good_move""]","",""
"3664","","<div style=""width:500px;"">
  <p>What determined the result of this run?</p>
  </div>","39","html-slider-response","59","775878","0.0-10.0-1.3","148","1","2025-07-02 10:21:14","80fe4187154257d5fb01684ea91b68b9","154.73.187.59","Mozilla/5.0 (Windows NT 10.0; Win64; x64) AppleWebKit/537.36 (KHTML, like Gecko) Chrome/137.0.0.0 Safari/537.36","WebKit","Chrome","137.0.0.0","Windows","10.0","https://app.prolific.com/","en-US,en;q=0.9","67f39b05e1bfb4295b1659ac","683db6dfa200031b80f2a654","68650760257f5267f4c5b20e","67f39b05e1bfb4295b1659ac","2025-07-02T10:34:14.133Z","","","","","","AttribQ","","","","","","","","","","","","","","","","","","","","","","","","","","","","","","","","","","","","","","50"
"2841","","<div style=""width:500px;"">
  <p>How much control did you have over the ball?</p>
  </div>","36","html-slider-response","60","778721","0.0-10.0-2.3","148","1","2025-07-02 10:21:14","80fe4187154257d5fb01684ea91b68b9","154.73.187.59","Mozilla/5.0 (Windows NT 10.0; Win64; x64) AppleWebKit/537.36 (KHTML, like Gecko) Chrome/137.0.0.0 Safari/537.36","WebKit","Chrome","137.0.0.0","Windows","10.0","https://app.prolific.com/","en-US,en;q=0.9","67f39b05e1bfb4295b1659ac","683db6dfa200031b80f2a654","68650760257f5267f4c5b20e","67f39b05e1bfb4295b1659ac","2025-07-02T10:34:16.976Z","","","","","","ControlQ","","","","","","","","","","","","","","","","","","","","","","","","","","","","","","","","","","","","","","50"
"3260","","<div style=""width:500px;"">
  <p>How would you describe your current emotional state?</p>
  </div>","42","html-slider-response","61","781982","0.0-10.0-3.3","148","1","2025-07-02 10:21:14","80fe4187154257d5fb01684ea91b68b9","154.73.187.59","Mozilla/5.0 (Windows NT 10.0; Win64; x64) AppleWebKit/537.36 (KHTML, like Gecko) Chrome/137.0.0.0 Safari/537.36","WebKit","Chrome","137.0.0.0","Windows","10.0","https://app.prolific.com/","en-US,en;q=0.9","67f39b05e1bfb4295b1659ac","683db6dfa200031b80f2a654","68650760257f5267f4c5b20e","67f39b05e1bfb4295b1659ac","2025-07-02T10:34:20.237Z","","","","","","StressQ","","","","","","","","","","","","","","","","","","","","","","","","","","","","","","","","","","","","","","50"
"2903","","<div style=""width:500px;"">
  <p>What best describes how you currently feel?</p>
  </div>","64","html-slider-response","62","784886","0.0-10.0-4.3","148","1","2025-07-02 10:21:14","80fe4187154257d5fb01684ea91b68b9","154.73.187.59","Mozilla/5.0 (Windows NT 10.0; Win64; x64) AppleWebKit/537.36 (KHTML, like Gecko) Chrome/137.0.0.0 Safari/537.36","WebKit","Chrome","137.0.0.0","Windows","10.0","https://app.prolific.com/","en-US,en;q=0.9","67f39b05e1bfb4295b1659ac","683db6dfa200031b80f2a654","68650760257f5267f4c5b20e","67f39b05e1bfb4295b1659ac","2025-07-02T10:34:23.141Z","","","","","","MotivationQ","","","","","","","","","","","","","","","","","","","","","","","","","","","","","","","","","","","","","","50"
"","","","","ctl-task-cpt","63","837680","0.0-10.0-0.4","148","1","2025-07-02 10:21:14","80fe4187154257d5fb01684ea91b68b9","154.73.187.59","Mozilla/5.0 (Windows NT 10.0; Win64; x64) AppleWebKit/537.36 (KHTML, like Gecko) Chrome/137.0.0.0 Safari/537.36","WebKit","Chrome","137.0.0.0","Windows","10.0","https://app.prolific.com/","en-US,en;q=0.9","67f39b05e1bfb4295b1659ac","683db6dfa200031b80f2a654","68650760257f5267f4c5b20e","67f39b05e1bfb4295b1659ac","2025-07-02T10:35:15.935Z","","","","","","","","","","","","","","","","win-only","0","g1:NW,g2:SE","0.6","5","0","791626.8","1503.2","6506.5","49770.6","1","4","8","6","2","-8","-9","15","24","0.11363636363636363","1271.7","3000","-2030","[""down"",""right""]","{""num_key_presses"":10,""num_perfect"":5,""num_errors"":1,""num_randdir"":4,""num_randdir_good_moves"":1,""num_whilered"":0,""num_whileblue"":1,""num_blue"":5,""num_good_moves"":6}","[416.57142857142856,417.47767857142856,0,416.57142857142856,417.47767857142856,102.6,416.57142857142856,417.47767857142856,207.5,416.57142857142856,417.47767857142856,308.6,414.57142857142856,419.47767857142856,422.8,519.5714285714286,568.4776785714286,523,606.5714285714286,695.4776785714286,623.4,617.5714285714286,721.4776785714286,728.5,542.5714285714286,679.4776785714286,832.6,648.5714285714286,702.4776785714286,932.9,678.5714285714286,710.4776785714286,1037.4,702.5714285714286,722.4776785714286,1138.3,751.5714285714286,750.4776785714286,1245.7,751.5714285714286,750.4776785714286,1350.8,751.5714285714286,750.4776785714286,1456,751.5714285714286,750.4776785714286,1558.1,779.5714285714286,766.4776785714286,1659,897.5714285714286,800.4776785714286,1770.8,895.5714285714286,791.4776785714286,1872.4,895.5714285714286,791.4776785714286,1972.7,895.5714285714286,791.4776785714286,2072.8,895.5714285714286,791.4776785714286,2178.9,895.5714285714286,791.4776785714286,2284.6,895.5714285714286,791.4776785714286,2385.8,895.5714285714286,791.4776785714286,2487.3,895.5714285714286,791.4776785714286,2592.4,895.5714285714286,791.4776785714286,2703.9,895.5714285714286,791.4776785714286,2808.1,895.5714285714286,791.4776785714286,2915,895.5714285714286,791.4776785714286,3019.5,895.5714285714286,791.4776785714286,3120.5,895.5714285714286,791.4776785714286,3222.7,895.5714285714286,791.4776785714286,3322.7,895.5714285714286,791.4776785714286,3431.8,895.5714285714286,791.4776785714286,3536.8,895.5714285714286,791.4776785714286,3637.2,895.5714285714286,791.4776785714286,3738.1,895.5714285714286,791.4776785714286,3838.1,895.5714285714286,791.4776785714286,3938.4,895.5714285714286,791.4776785714286,4042.4,895.5714285714286,791.4776785714286,4155.1,895.5714285714286,791.4776785714286,4257.7,895.5714285714286,791.4776785714286,4369.1,895.5714285714286,791.4776785714286,4470.9,895.5714285714286,791.4776785714286,4572.7,895.5714285714286,791.4776785714286,4673,895.5714285714286,791.4776785714286,4779.2,895.5714285714286,791.4776785714286,4887.1,895.5714285714286,791.4776785714286,4987.4]","[3892.6,3892.6,1615.5,2003.9,273.2,""smooth"",""right"",""right"",""good_move"",9556.6,5663.2,2207,6934.6,415,""oops"",""right"",""left"",""bad_move"",12667.6,3110.4,2625.8,9557.2,484.6,""smooth"",""down"",""down"",""good_move"",19380.8,6712.9,2753.9,16300.1,326.8,""while_blue"",""right"",""left"",""bad_move"",22267.3,2886,2369.6,19381.3,516.5,""oops"",""down"",""up"",""bad_move"",24771.5,2503.9,1928.5,22267.6,575.4,""smooth"",""down"",""down"",""good_move"",27203.4,2431.6,1899.6,24771.8,532,""smooth"",""down"",""down"",""good_move"",30797.9,3594.3,3183.5,27203.6,410.8,""smooth"",""down"",""down"",""good_move"",37628.4,6830.2,3328.9,33999.8,299.8,""oops"",""right"",""right"",""good_move"",39908.6,2279.7,1831.7,37629,448,""oops"",""right"",""left"",""bad_move""]","",""
"4289","","<div style=""width:500px;"">
  <p>What determined the result of this run?</p>
  </div>","0","html-slider-response","64","841971","0.0-10.0-1.4","148","1","2025-07-02 10:21:14","80fe4187154257d5fb01684ea91b68b9","154.73.187.59","Mozilla/5.0 (Windows NT 10.0; Win64; x64) AppleWebKit/537.36 (KHTML, like Gecko) Chrome/137.0.0.0 Safari/537.36","WebKit","Chrome","137.0.0.0","Windows","10.0","https://app.prolific.com/","en-US,en;q=0.9","67f39b05e1bfb4295b1659ac","683db6dfa200031b80f2a654","68650760257f5267f4c5b20e","67f39b05e1bfb4295b1659ac","2025-07-02T10:35:20.226Z","","","","","","AttribQ","","","","","","","","","","","","","","","","","","","","","","","","","","","","","","","","","","","","","","50"
"3050","","<div style=""width:500px;"">
  <p>How much control did you have over the ball?</p>
  </div>","0","html-slider-response","65","845023","0.0-10.0-2.4","148","1","2025-07-02 10:21:14","80fe4187154257d5fb01684ea91b68b9","154.73.187.59","Mozilla/5.0 (Windows NT 10.0; Win64; x64) AppleWebKit/537.36 (KHTML, like Gecko) Chrome/137.0.0.0 Safari/537.36","WebKit","Chrome","137.0.0.0","Windows","10.0","https://app.prolific.com/","en-US,en;q=0.9","67f39b05e1bfb4295b1659ac","683db6dfa200031b80f2a654","68650760257f5267f4c5b20e","67f39b05e1bfb4295b1659ac","2025-07-02T10:35:23.278Z","","","","","","ControlQ","","","","","","","","","","","","","","","","","","","","","","","","","","","","","","","","","","","","","","50"
"2197","","<div style=""width:500px;"">
  <p>How would you describe your current emotional state?</p>
  </div>","84","html-slider-response","66","847222","0.0-10.0-3.4","148","1","2025-07-02 10:21:14","80fe4187154257d5fb01684ea91b68b9","154.73.187.59","Mozilla/5.0 (Windows NT 10.0; Win64; x64) AppleWebKit/537.36 (KHTML, like Gecko) Chrome/137.0.0.0 Safari/537.36","WebKit","Chrome","137.0.0.0","Windows","10.0","https://app.prolific.com/","en-US,en;q=0.9","67f39b05e1bfb4295b1659ac","683db6dfa200031b80f2a654","68650760257f5267f4c5b20e","67f39b05e1bfb4295b1659ac","2025-07-02T10:35:25.478Z","","","","","","StressQ","","","","","","","","","","","","","","","","","","","","","","","","","","","","","","","","","","","","","","50"
"2360","","<div style=""width:500px;"">
  <p>What best describes how you currently feel?</p>
  </div>","32","html-slider-response","67","849584","0.0-10.0-4.4","148","1","2025-07-02 10:21:14","80fe4187154257d5fb01684ea91b68b9","154.73.187.59","Mozilla/5.0 (Windows NT 10.0; Win64; x64) AppleWebKit/537.36 (KHTML, like Gecko) Chrome/137.0.0.0 Safari/537.36","WebKit","Chrome","137.0.0.0","Windows","10.0","https://app.prolific.com/","en-US,en;q=0.9","67f39b05e1bfb4295b1659ac","683db6dfa200031b80f2a654","68650760257f5267f4c5b20e","67f39b05e1bfb4295b1659ac","2025-07-02T10:35:27.840Z","","","","","","MotivationQ","","","","","","","","","","","","","","","","","","","","","","","","","","","","","","","","","","","","","","50"
"","","","","ctl-task-cpt","68","894047","0.0-10.0-0.5","148","1","2025-07-02 10:21:14","80fe4187154257d5fb01684ea91b68b9","154.73.187.59","Mozilla/5.0 (Windows NT 10.0; Win64; x64) AppleWebKit/537.36 (KHTML, like Gecko) Chrome/137.0.0.0 Safari/537.36","WebKit","Chrome","137.0.0.0","Windows","10.0","https://app.prolific.com/","en-US,en;q=0.9","67f39b05e1bfb4295b1659ac","683db6dfa200031b80f2a654","68650760257f5267f4c5b20e","67f39b05e1bfb4295b1659ac","2025-07-02T10:36:12.302Z","","","","","","","","","","","","","","","","win-only","1","g1:NE,g2:SW","0.5","6","0","856327.1","1085.9","6087.9","41441","1","4","4","6","2","4","4","19","15","0.14393939393939395","1027.9","3000","535","[""down"",""left""]","{""num_key_presses"":8,""num_perfect"":5,""num_errors"":0,""num_randdir"":3,""num_randdir_good_moves"":2,""num_whilered"":0,""num_whileblue"":0,""num_blue"":3,""num_good_moves"":7}","[415.57142857142856,424.47767857142856,0.5,415.57142857142856,424.47767857142856,102.1,415.57142857142856,424.47767857142856,205.8,415.57142857142856,424.47767857142856,314.2,415.57142857142856,424.47767857142856,415.2,405.57142857142856,484.47767857142856,518,284.57142857142856,605.4776785714286,621.8,96.57142857142857,755.4776785714286,722.6,83.57142857142857,769.4776785714286,826,83.57142857142857,772.4776785714286,936.2,83.57142857142857,772.4776785714286,1036.4,83.57142857142857,772.4776785714286,1140.8,83.57142857142857,772.4776785714286,1250.9,181.57142857142856,758.4776785714286,1351.2,499.57142857142856,683.4776785714286,1454.5,710.5714285714286,622.4776785714286,1555,710.5714285714286,622.4776785714286,1662.8,710.5714285714286,622.4776785714286,1773.7,710.5714285714286,622.4776785714286,1873.7,710.5714285714286,621.4776785714286,1982.6,710.5714285714286,621.4776785714286,2089,710.5714285714286,621.4776785714286,2191.1,710.5714285714286,621.4776785714286,2301.4,710.5714285714286,621.4776785714286,2402.4,710.5714285714286,621.4776785714286,2503.8,710.5714285714286,621.4776785714286,2605.8,710.5714285714286,621.4776785714286,2706.9,710.5714285714286,621.4776785714286,2816.1,710.5714285714286,621.4776785714286,2922,710.5714285714286,621.4776785714286,3022,710.5714285714286,621.4776785714286,3128.4,710.5714285714286,621.4776785714286,3231.6,710.5714285714286,621.4776785714286,3341.2,710.5714285714286,621.4776785714286,3442.7,710.5714285714286,621.4776785714286,3549.6,710.5714285714286,621.4776785714286,3651.3,710.5714285714286,621.4776785714286,3756.1,710.5714285714286,621.4776785714286,3866.1,710.5714285714286,621.4776785714286,3968.4,710.5714285714286,621.4776785714286,4073.5,710.5714285714286,621.4776785714286,4181.7,710.5714285714286,621.4776785714286,4286.6,710.5714285714286,621.4776785714286,4389.3,710.5714285714286,621.4776785714286,4491.3,710.5714285714286,621.4776785714286,4597.2,710.5714285714286,621.4776785714286,4698.4,710.5714285714286,621.4776785714286,4802.1,710.5714285714286,621.4776785714286,4906.5]","[1385.7,1385.7,1000,0,385.7,""oops"",""down"",""down"",""good_move"",4451.1,3065,2601.3,1386.1,463.7,""smooth"",""left"",""left"",""good_move"",11378.6,6926.9,2771.7,8187.7,419.2,""smooth"",""down"",""down"",""good_move"",18316,6937.1,2176.6,15734,405.4,""smooth"",""left"",""left"",""good_move"",21162.8,2846.6,2414.8,18316.2,431.9,""oops"",""left"",""left"",""good_move"",28227.6,7064,2796,25022.8,408.8,""oops"",""down"",""right"",""bad_move"",31844.5,3616.2,3196.1,28228.3,420.1,""smooth"",""down"",""down"",""good_move"",35233.7,3387.9,2915.9,31845.8,472,""smooth"",""left"",""left"",""good_move""]","",""
"3239","","<div style=""width:500px;"">
  <p>What determined the result of this run?</p>
  </div>","19","html-slider-response","69","897288","0.0-10.0-1.5","148","1","2025-07-02 10:21:14","80fe4187154257d5fb01684ea91b68b9","154.73.187.59","Mozilla/5.0 (Windows NT 10.0; Win64; x64) AppleWebKit/537.36 (KHTML, like Gecko) Chrome/137.0.0.0 Safari/537.36","WebKit","Chrome","137.0.0.0","Windows","10.0","https://app.prolific.com/","en-US,en;q=0.9","67f39b05e1bfb4295b1659ac","683db6dfa200031b80f2a654","68650760257f5267f4c5b20e","67f39b05e1bfb4295b1659ac","2025-07-02T10:36:15.543Z","","","","","","AttribQ","","","","","","","","","","","","","","","","","","","","","","","","","","","","","","","","","","","","","","50"
"2931","","<div style=""width:500px;"">
  <p>How much control did you have over the ball?</p>
  </div>","26","html-slider-response","70","900222","0.0-10.0-2.5","148","1","2025-07-02 10:21:14","80fe4187154257d5fb01684ea91b68b9","154.73.187.59","Mozilla/5.0 (Windows NT 10.0; Win64; x64) AppleWebKit/537.36 (KHTML, like Gecko) Chrome/137.0.0.0 Safari/537.36","WebKit","Chrome","137.0.0.0","Windows","10.0","https://app.prolific.com/","en-US,en;q=0.9","67f39b05e1bfb4295b1659ac","683db6dfa200031b80f2a654","68650760257f5267f4c5b20e","67f39b05e1bfb4295b1659ac","2025-07-02T10:36:18.477Z","","","","","","ControlQ","","","","","","","","","","","","","","","","","","","","","","","","","","","","","","","","","","","","","","50"
"2346","","<div style=""width:500px;"">
  <p>How would you describe your current emotional state?</p>
  </div>","59","html-slider-response","71","902570","0.0-10.0-3.5","148","1","2025-07-02 10:21:14","80fe4187154257d5fb01684ea91b68b9","154.73.187.59","Mozilla/5.0 (Windows NT 10.0; Win64; x64) AppleWebKit/537.36 (KHTML, like Gecko) Chrome/137.0.0.0 Safari/537.36","WebKit","Chrome","137.0.0.0","Windows","10.0","https://app.prolific.com/","en-US,en;q=0.9","67f39b05e1bfb4295b1659ac","683db6dfa200031b80f2a654","68650760257f5267f4c5b20e","67f39b05e1bfb4295b1659ac","2025-07-02T10:36:20.825Z","","","","","","StressQ","","","","","","","","","","","","","","","","","","","","","","","","","","","","","","","","","","","","","","50"
"2709","","<div style=""width:500px;"">
  <p>What best describes how you currently feel?</p>
  </div>","44","html-slider-response","72","905281","0.0-10.0-4.5","148","1","2025-07-02 10:21:14","80fe4187154257d5fb01684ea91b68b9","154.73.187.59","Mozilla/5.0 (Windows NT 10.0; Win64; x64) AppleWebKit/537.36 (KHTML, like Gecko) Chrome/137.0.0.0 Safari/537.36","WebKit","Chrome","137.0.0.0","Windows","10.0","https://app.prolific.com/","en-US,en;q=0.9","67f39b05e1bfb4295b1659ac","683db6dfa200031b80f2a654","68650760257f5267f4c5b20e","67f39b05e1bfb4295b1659ac","2025-07-02T10:36:23.536Z","","","","","","MotivationQ","","","","","","","","","","","","","","","","","","","","","","","","","","","","","","","","","","","","","","50"
"","","","","ctl-task-cpt","73","997016","0.0-10.0-0.6","148","1","2025-07-02 10:21:14","80fe4187154257d5fb01684ea91b68b9","154.73.187.59","Mozilla/5.0 (Windows NT 10.0; Win64; x64) AppleWebKit/537.36 (KHTML, like Gecko) Chrome/137.0.0.0 Safari/537.36","WebKit","Chrome","137.0.0.0","Windows","10.0","https://app.prolific.com/","en-US,en;q=0.9","67f39b05e1bfb4295b1659ac","683db6dfa200031b80f2a654","68650760257f5267f4c5b20e","67f39b05e1bfb4295b1659ac","2025-07-02T10:37:55.271Z","","","","","","","","","","","","","","","","win-only","1","g1:NE,g2:SW","0.4","7","0","912029.2","2109.5","7117.5","88705.6","1","4","4","6","2","-4","-7","12","19","0.09090909090909091","2033.5","3000","-1410","[""down"",""left""]","{""num_key_presses"":19,""num_perfect"":6,""num_errors"":3,""num_randdir"":10,""num_randdir_good_moves"":5,""num_whilered"":0,""num_whileblue"":1,""num_blue"":6,""num_good_moves"":11}","[412.57142857142856,417.47767857142856,0.2,412.57142857142856,417.47767857142856,105.3,412.57142857142856,417.47767857142856,209.6,412.57142857142856,417.47767857142856,314.7,412.57142857142856,417.47767857142856,421.8,412.57142857142856,417.47767857142856,523.1,412.57142857142856,417.47767857142856,630,368.57142857142856,512.4776785714286,731.4,241.57142857142856,733.4776785714286,847.3,134.57142857142856,776.4776785714286,963.6,127.57142857142857,776.4776785714286,1066.1,117.57142857142857,774.4776785714286,1173,103.57142857142857,774.4776785714286,1291.3,103.57142857142857,774.4776785714286,1402.4,103.57142857142857,774.4776785714286,1511.8,103.57142857142857,774.4776785714286,1628.2,103.57142857142857,774.4776785714286,1738.1,103.57142857142857,774.4776785714286,1845.1,103.57142857142857,774.4776785714286,1952.8,103.57142857142857,774.4776785714286,2052.8,103.57142857142857,774.4776785714286,2166.6,103.57142857142857,774.4776785714286,2271.2,103.57142857142857,774.4776785714286,2372.7,289.57142857142856,752.4776785714286,2475.4,490.57142857142856,699.4776785714286,2581.5,596.5714285714286,662.4776785714286,2693.2,597.5714285714286,661.4776785714286,2796.2,597.5714285714286,661.4776785714286,2899.6,597.5714285714286,661.4776785714286,2999.9,597.5714285714286,661.4776785714286,3104.8,597.5714285714286,661.4776785714286,3208.8,597.5714285714286,661.4776785714286,3315.9,597.5714285714286,661.4776785714286,3429.6,597.5714285714286,661.4776785714286,3530,597.5714285714286,661.4776785714286,3635.4,597.5714285714286,661.4776785714286,3737.1,597.5714285714286,661.4776785714286,3841.5,597.5714285714286,661.4776785714286,3951.3,597.5714285714286,661.4776785714286,4054.1,597.5714285714286,661.4776785714286,4165.2,597.5714285714286,661.4776785714286,4265.4,597.5714285714286,661.4776785714286,4377.2,597.5714285714286,661.4776785714286,4480.5,597.5714285714286,661.4776785714286,4583.6,597.5714285714286,661.4776785714286,4688,597.5714285714286,661.4776785714286,4788.4,597.5714285714286,661.4776785714286,4888.7,597.5714285714286,661.4776785714286,4992.3]","[4471.6,4471.6,2068.3,2020.3,383,""oops"",""down"",""left"",""good_move"",8351.3,3879.5,3042.2,4471.8,837.3,""oops"",""down"",""right"",""bad_move"",11847.2,3495.5,2303.1,8351.7,1192.4,""smooth"",""right"",""right"",""bad_move"",14681.3,2833.7,2361,11847.6,472.8,""oops"",""down"",""left"",""good_move"",18167.3,3485.6,2556,14681.7,929.6,""oops"",""left"",""down"",""good_move"",28329.1,10161.6,2705.9,25146.7,476.5,""smooth"",""left"",""left"",""good_move"",37400.1,9070.4,2995.3,33908.8,496,""oops"",""down"",""up"",""bad_move"",42455.3,5054.9,3146.1,37400.4,1908.8,""smooth"",""left"",""left"",""good_move"",50894.7,8439.2,2575.6,47882.6,436.5,""smooth"",""down"",""down"",""good_move"",54436.6,3541.8,2936.8,50894.8,605,""oops"",""down"",""up"",""bad_move"",57102.6,2665.6,2297.6,54437,368,""oops"",""down"",""left"",""good_move"",59851,2748,2379.1,57103,368.9,""oops"",""down"",""up"",""bad_move"",62567.6,2716.2,2269,59851.4,447.2,""oops"",""down"",""up"",""bad_move"",65958.2,3390.4,2915.4,62567.8,475,""while_blue"",""down"",""down"",""good_move"",66670.1,711.6,2335.8,65958.6,-1624.3,""error"",""-"",""-"",""no_move"",69418.5,2748.4,2188.2,67670.3,-440,""error"",""-"",""-"",""no_move"",73447,4028.3,2487.7,70422.1,537.2,""smooth"",""down"",""down"",""good_move"",76471.3,3023.9,2617.3,73447.4,406.6,""smooth"",""down"",""down"",""good_move"",78998.6,2527,2183.1,76471.6,343.9,""oops"",""down"",""down"",""good_move""]","",""
"3737","","<div style=""width:500px;"">
  <p>What determined the result of this run?</p>
  </div>","0","html-slider-response","74","1000756","0.0-10.0-1.6","148","1","2025-07-02 10:21:14","80fe4187154257d5fb01684ea91b68b9","154.73.187.59","Mozilla/5.0 (Windows NT 10.0; Win64; x64) AppleWebKit/537.36 (KHTML, like Gecko) Chrome/137.0.0.0 Safari/537.36","WebKit","Chrome","137.0.0.0","Windows","10.0","https://app.prolific.com/","en-US,en;q=0.9","67f39b05e1bfb4295b1659ac","683db6dfa200031b80f2a654","68650760257f5267f4c5b20e","67f39b05e1bfb4295b1659ac","2025-07-02T10:37:59.011Z","","","","","","AttribQ","","","","","","","","","","","","","","","","","","","","","","","","","","","","","","","","","","","","","","50"
"3206","","<div style=""width:500px;"">
  <p>How much control did you have over the ball?</p>
  </div>","0","html-slider-response","75","1003963","0.0-10.0-2.6","148","1","2025-07-02 10:21:14","80fe4187154257d5fb01684ea91b68b9","154.73.187.59","Mozilla/5.0 (Windows NT 10.0; Win64; x64) AppleWebKit/537.36 (KHTML, like Gecko) Chrome/137.0.0.0 Safari/537.36","WebKit","Chrome","137.0.0.0","Windows","10.0","https://app.prolific.com/","en-US,en;q=0.9","67f39b05e1bfb4295b1659ac","683db6dfa200031b80f2a654","68650760257f5267f4c5b20e","67f39b05e1bfb4295b1659ac","2025-07-02T10:38:02.218Z","","","","","","ControlQ","","","","","","","","","","","","","","","","","","","","","","","","","","","","","","","","","","","","","","50"
"2808","","<div style=""width:500px;"">
  <p>How would you describe your current emotional state?</p>
  </div>","100","html-slider-response","76","1006773","0.0-10.0-3.6","148","1","2025-07-02 10:21:14","80fe4187154257d5fb01684ea91b68b9","154.73.187.59","Mozilla/5.0 (Windows NT 10.0; Win64; x64) AppleWebKit/537.36 (KHTML, like Gecko) Chrome/137.0.0.0 Safari/537.36","WebKit","Chrome","137.0.0.0","Windows","10.0","https://app.prolific.com/","en-US,en;q=0.9","67f39b05e1bfb4295b1659ac","683db6dfa200031b80f2a654","68650760257f5267f4c5b20e","67f39b05e1bfb4295b1659ac","2025-07-02T10:38:05.028Z","","","","","","StressQ","","","","","","","","","","","","","","","","","","","","","","","","","","","","","","","","","","","","","","50"
"2933","","<div style=""width:500px;"">
  <p>What best describes how you currently feel?</p>
  </div>","0","html-slider-response","77","1009707","0.0-10.0-4.6","148","1","2025-07-02 10:21:14","80fe4187154257d5fb01684ea91b68b9","154.73.187.59","Mozilla/5.0 (Windows NT 10.0; Win64; x64) AppleWebKit/537.36 (KHTML, like Gecko) Chrome/137.0.0.0 Safari/537.36","WebKit","Chrome","137.0.0.0","Windows","10.0","https://app.prolific.com/","en-US,en;q=0.9","67f39b05e1bfb4295b1659ac","683db6dfa200031b80f2a654","68650760257f5267f4c5b20e","67f39b05e1bfb4295b1659ac","2025-07-02T10:38:07.962Z","","","","","","MotivationQ","","","","","","","","","","","","","","","","","","","","","","","","","","","","","","","","","","","","","","50"
"","","","","ctl-task-cpt","78","1065397","0.0-10.0-0.7","148","1","2025-07-02 10:21:14","80fe4187154257d5fb01684ea91b68b9","154.73.187.59","Mozilla/5.0 (Windows NT 10.0; Win64; x64) AppleWebKit/537.36 (KHTML, like Gecko) Chrome/137.0.0.0 Safari/537.36","WebKit","Chrome","137.0.0.0","Windows","10.0","https://app.prolific.com/","en-US,en;q=0.9","67f39b05e1bfb4295b1659ac","683db6dfa200031b80f2a654","68650760257f5267f4c5b20e","67f39b05e1bfb4295b1659ac","2025-07-02T10:39:03.652Z","","","","","","","","","","","","","","","","win-only","1","g1:NE,g2:SW","0.3","8","0","1016447.9","1647.1","6648.4","52665","1","4","8","6","2","8","6","18","12","0.13636363636363635","1571.3","3000","550","[""down"",""left""]","{""num_key_presses"":15,""num_perfect"":5,""num_errors"":2,""num_randdir"":8,""num_randdir_good_moves"":4,""num_whilered"":0,""num_whileblue"":1,""num_blue"":1,""num_good_moves"":10}","[418.57142857142856,417.47767857142856,0.2,418.57142857142856,417.47767857142856,101.8,418.57142857142856,417.47767857142856,205.7,418.57142857142856,417.47767857142856,313.1,418.57142857142856,431.47767857142856,419.7,418.57142857142856,436.47767857142856,522.4,418.57142857142856,440.47767857142856,629.5,418.57142857142856,470.47767857142856,739.5,429.57142857142856,518.4776785714286,849.3,444.57142857142856,569.4776785714286,957.6,436.57142857142856,590.4776785714286,1058.4,241.57142857142856,741.4776785714286,1160,201.57142857142856,789.4776785714286,1269.7,75.57142857142857,826.4776785714286,1373.1,46.57142857142857,826.4776785714286,1477,46.57142857142857,826.4776785714286,1588.2,46.57142857142857,826.4776785714286,1688.6,54.57142857142857,816.4776785714286,1793,500.57142857142856,690.4776785714286,1905.4,830.5714285714286,620.4776785714286,2007.5,837.5714285714286,620.4776785714286,2110,848.5714285714286,620.4776785714286,2221.4,848.5714285714286,620.4776785714286,2324.2,848.5714285714286,620.4776785714286,2424.6,848.5714285714286,620.4776785714286,2533.4,848.5714285714286,620.4776785714286,2634.7,848.5714285714286,620.4776785714286,2743.9,848.5714285714286,620.4776785714286,2855.1,848.5714285714286,620.4776785714286,2957.1,848.5714285714286,620.4776785714286,3062.1,848.5714285714286,620.4776785714286,3163.7,848.5714285714286,620.4776785714286,3272.4,848.5714285714286,620.4776785714286,3379.3,848.5714285714286,620.4776785714286,3481.9,848.5714285714286,620.4776785714286,3594,848.5714285714286,620.4776785714286,3705.8,848.5714285714286,620.4776785714286,3809.3,848.5714285714286,620.4776785714286,3922.8,848.5714285714286,620.4776785714286,4027.4,848.5714285714286,620.4776785714286,4142.9,848.5714285714286,620.4776785714286,4247.2,848.5714285714286,620.4776785714286,4357.6,848.5714285714286,620.4776785714286,4463.6,848.5714285714286,620.4776785714286,4576.6,848.5714285714286,620.4776785714286,4683.3,848.5714285714286,620.4776785714286,4793.4,848.5714285714286,620.4776785714286,4902.3]","[441.7,441.7,1000,0,-558.3,""error"",""-"",""-"",""no_move"",4065.4,3623.4,2184.1,1452.2,429.1,""smooth"",""down"",""down"",""good_move"",7104.7,3038.9,2561.3,4065.8,477.6,""oops"",""down"",""up"",""bad_move"",10329.5,3224.4,2823.9,7105.1,400.5,""smooth"",""left"",""left"",""good_move"",13137.6,2807.1,2329.8,10330.5,477.3,""oops"",""down"",""right"",""bad_move"",16257.3,3119.2,2656.5,13138.1,462.7,""while_blue"",""left"",""left"",""good_move"",19089.6,2832.2,2269.2,16257.4,563,""oops"",""down"",""left"",""good_move"",22184.5,3094.6,2328.8,19090,765.8,""oops"",""down"",""up"",""bad_move"",24929.2,2744.4,2382.5,22184.8,361.9,""smooth"",""down"",""down"",""good_move"",28026.9,3097.1,2654.4,24929.8,442.7,""oops"",""up"",""up"",""bad_move"",31787.1,3759.1,2901.5,28028.1,857.5,""oops"",""down"",""left"",""good_move"",35688.2,3900.7,2223.5,31787.5,1677.2,""oops"",""down"",""down"",""good_move"",38521.8,2833.4,2289.7,35688.4,543.7,""smooth"",""down"",""down"",""good_move"",42338,3816.1,3445.8,38521.9,370.3,""oops"",""down"",""down"",""good_move"",45848.2,3509.9,3130.3,42338.3,379.6,""smooth"",""down"",""down"",""good_move""]","",""
"4573","","<div style=""width:500px;"">
  <p>What determined the result of this run?</p>
  </div>","0","html-slider-response","79","1069971","0.0-10.0-1.7","148","1","2025-07-02 10:21:14","80fe4187154257d5fb01684ea91b68b9","154.73.187.59","Mozilla/5.0 (Windows NT 10.0; Win64; x64) AppleWebKit/537.36 (KHTML, like Gecko) Chrome/137.0.0.0 Safari/537.36","WebKit","Chrome","137.0.0.0","Windows","10.0","https://app.prolific.com/","en-US,en;q=0.9","67f39b05e1bfb4295b1659ac","683db6dfa200031b80f2a654","68650760257f5267f4c5b20e","67f39b05e1bfb4295b1659ac","2025-07-02T10:39:08.227Z","","","","","","AttribQ","","","","","","","","","","","","","","","","","","","","","","","","","","","","","","","","","","","","","","50"
"2117","","<div style=""width:500px;"">
  <p>How much control did you have over the ball?</p>
  </div>","0","html-slider-response","80","1072090","0.0-10.0-2.7","148","1","2025-07-02 10:21:14","80fe4187154257d5fb01684ea91b68b9","154.73.187.59","Mozilla/5.0 (Windows NT 10.0; Win64; x64) AppleWebKit/537.36 (KHTML, like Gecko) Chrome/137.0.0.0 Safari/537.36","WebKit","Chrome","137.0.0.0","Windows","10.0","https://app.prolific.com/","en-US,en;q=0.9","67f39b05e1bfb4295b1659ac","683db6dfa200031b80f2a654","68650760257f5267f4c5b20e","67f39b05e1bfb4295b1659ac","2025-07-02T10:39:10.345Z","","","","","","ControlQ","","","","","","","","","","","","","","","","","","","","","","","","","","","","","","","","","","","","","","50"
"2207","","<div style=""width:500px;"">
  <p>How would you describe your current emotional state?</p>
  </div>","100","html-slider-response","81","1074299","0.0-10.0-3.7","148","1","2025-07-02 10:21:14","80fe4187154257d5fb01684ea91b68b9","154.73.187.59","Mozilla/5.0 (Windows NT 10.0; Win64; x64) AppleWebKit/537.36 (KHTML, like Gecko) Chrome/137.0.0.0 Safari/537.36","WebKit","Chrome","137.0.0.0","Windows","10.0","https://app.prolific.com/","en-US,en;q=0.9","67f39b05e1bfb4295b1659ac","683db6dfa200031b80f2a654","68650760257f5267f4c5b20e","67f39b05e1bfb4295b1659ac","2025-07-02T10:39:12.554Z","","","","","","StressQ","","","","","","","","","","","","","","","","","","","","","","","","","","","","","","","","","","","","","","50"
"2783","","<div style=""width:500px;"">
  <p>What best describes how you currently feel?</p>
  </div>","0","html-slider-response","82","1077083","0.0-10.0-4.7","148","1","2025-07-02 10:21:14","80fe4187154257d5fb01684ea91b68b9","154.73.187.59","Mozilla/5.0 (Windows NT 10.0; Win64; x64) AppleWebKit/537.36 (KHTML, like Gecko) Chrome/137.0.0.0 Safari/537.36","WebKit","Chrome","137.0.0.0","Windows","10.0","https://app.prolific.com/","en-US,en;q=0.9","67f39b05e1bfb4295b1659ac","683db6dfa200031b80f2a654","68650760257f5267f4c5b20e","67f39b05e1bfb4295b1659ac","2025-07-02T10:39:15.338Z","","","","","","MotivationQ","","","","","","","","","","","","","","","","","","","","","","","","","","","","","","","","","","","","","","50"
"","","","","ctl-task-cpt","83","1123997","0.0-10.0-0.8","148","1","2025-07-02 10:21:14","80fe4187154257d5fb01684ea91b68b9","154.73.187.59","Mozilla/5.0 (Windows NT 10.0; Win64; x64) AppleWebKit/537.36 (KHTML, like Gecko) Chrome/137.0.0.0 Safari/537.36","WebKit","Chrome","137.0.0.0","Windows","10.0","https://app.prolific.com/","en-US,en;q=0.9","67f39b05e1bfb4295b1659ac","683db6dfa200031b80f2a654","68650760257f5267f4c5b20e","67f39b05e1bfb4295b1659ac","2025-07-02T10:40:02.252Z","","","","","","","","","","","","","","","","win-only","1","g1:NE,g2:SW","0.4","9","0","1083825.8","2621.3","7625.7","43871.2","1","4","8","6","2","8","8","26","18","0.19696969696969696","1290.5","3000","1180","[""down"",""left""]","{""num_key_presses"":10,""num_perfect"":4,""num_errors"":0,""num_randdir"":6,""num_randdir_good_moves"":4,""num_whilered"":0,""num_whileblue"":0,""num_blue"":1,""num_good_moves"":8}","[410.57142857142856,415.47767857142856,0.7,410.57142857142856,415.47767857142856,104.1,410.57142857142856,415.47767857142856,204.4,409.57142857142856,417.47767857142856,305.6,423.57142857142856,451.47767857142856,407,438.57142857142856,505.47767857142856,518.1,325.57142857142856,713.4776785714286,620.2,85.57142857142857,913.4776785714286,720.5,14.57142857142857,923.4776785714286,821.5,11.57142857142857,911.4776785714286,924.9,37.57142857142857,859.4776785714286,1031.4,69.57142857142857,820.4776785714286,1135.1,72.57142857142857,817.4776785714286,1239.9,72.57142857142857,817.4776785714286,1340.4,72.57142857142857,817.4776785714286,1447.2,82.57142857142857,818.4776785714286,1552,584.5714285714286,819.4776785714286,1657,760.5714285714286,812.4776785714286,1762.6,760.5714285714286,812.4776785714286,1865.3,760.5714285714286,812.4776785714286,1968.9,760.5714285714286,812.4776785714286,2072.3,760.5714285714286,812.4776785714286,2174.3,760.5714285714286,812.4776785714286,2280.8,760.5714285714286,812.4776785714286,2383.7,760.5714285714286,812.4776785714286,2485.7,760.5714285714286,812.4776785714286,2588.1,760.5714285714286,812.4776785714286,2691.7,760.5714285714286,812.4776785714286,2794.5,760.5714285714286,812.4776785714286,2900.9,760.5714285714286,812.4776785714286,3003.2,760.5714285714286,812.4776785714286,3105.1,760.5714285714286,812.4776785714286,3207.2,760.5714285714286,812.4776785714286,3315.8,760.5714285714286,812.4776785714286,3421,760.5714285714286,812.4776785714286,3521.3,760.5714285714286,812.4776785714286,3630.4,760.5714285714286,812.4776785714286,3735,760.5714285714286,812.4776785714286,3841.8,760.5714285714286,812.4776785714286,3956,760.5714285714286,812.4776785714286,4062.5,760.5714285714286,812.4776785714286,4167.5,760.5714285714286,812.4776785714286,4270.2,760.5714285714286,812.4776785714286,4371.1,760.5714285714286,812.4776785714286,4486.7,760.5714285714286,812.4776785714286,4590.4,760.5714285714286,812.4776785714286,4704.3,760.5714285714286,812.4776785714286,4804.4,760.5714285714286,812.4776785714286,4907.1]","[1621,1621,1000,0,621,""smooth"",""down"",""down"",""good_move"",5197.8,3575.4,3093.3,1622.4,482.1,""oops"",""down"",""left"",""good_move"",8142,2943.7,1750,5198.3,1193.7,""smooth"",""down"",""down"",""good_move"",11285.5,3143,2588.1,8142.5,554.9,""oops"",""left"",""up"",""bad_move"",14317.6,3031.7,2404.3,11285.9,627.4,""oops"",""left"",""down"",""good_move"",17590.4,3271.6,2770.9,14318.8,500.7,""smooth"",""left"",""left"",""good_move"",20654.9,3064.2,2035.1,17590.7,1029.1,""oops"",""left"",""right"",""bad_move"",23661.6,3006.1,2548.2,20655.6,457.8,""smooth"",""left"",""left"",""good_move"",28023.7,4361.9,1952.6,23661.8,2409.4,""oops"",""left"",""left"",""good_move"",35863.7,7839.3,2228.2,33116.2,519.3,""oops"",""down"",""down"",""good_move""]","",""
"4211","","<div style=""width:500px;"">
  <p>What determined the result of this run?</p>
  </div>","27","html-slider-response","84","1128211","0.0-10.0-1.8","148","1","2025-07-02 10:21:14","80fe4187154257d5fb01684ea91b68b9","154.73.187.59","Mozilla/5.0 (Windows NT 10.0; Win64; x64) AppleWebKit/537.36 (KHTML, like Gecko) Chrome/137.0.0.0 Safari/537.36","WebKit","Chrome","137.0.0.0","Windows","10.0","https://app.prolific.com/","en-US,en;q=0.9","67f39b05e1bfb4295b1659ac","683db6dfa200031b80f2a654","68650760257f5267f4c5b20e","67f39b05e1bfb4295b1659ac","2025-07-02T10:40:06.466Z","","","","","","AttribQ","","","","","","","","","","","","","","","","","","","","","","","","","","","","","","","","","","","","","","50"
"4230","","<div style=""width:500px;"">
  <p>How much control did you have over the ball?</p>
  </div>","21","html-slider-response","85","1132442","0.0-10.0-2.8","148","1","2025-07-02 10:21:14","80fe4187154257d5fb01684ea91b68b9","154.73.187.59","Mozilla/5.0 (Windows NT 10.0; Win64; x64) AppleWebKit/537.36 (KHTML, like Gecko) Chrome/137.0.0.0 Safari/537.36","WebKit","Chrome","137.0.0.0","Windows","10.0","https://app.prolific.com/","en-US,en;q=0.9","67f39b05e1bfb4295b1659ac","683db6dfa200031b80f2a654","68650760257f5267f4c5b20e","67f39b05e1bfb4295b1659ac","2025-07-02T10:40:10.697Z","","","","","","ControlQ","","","","","","","","","","","","","","","","","","","","","","","","","","","","","","","","","","","","","","50"
"2595","","<div style=""width:500px;"">
  <p>How would you describe your current emotional state?</p>
  </div>","86","html-slider-response","86","1135039","0.0-10.0-3.8","148","1","2025-07-02 10:21:14","80fe4187154257d5fb01684ea91b68b9","154.73.187.59","Mozilla/5.0 (Windows NT 10.0; Win64; x64) AppleWebKit/537.36 (KHTML, like Gecko) Chrome/137.0.0.0 Safari/537.36","WebKit","Chrome","137.0.0.0","Windows","10.0","https://app.prolific.com/","en-US,en;q=0.9","67f39b05e1bfb4295b1659ac","683db6dfa200031b80f2a654","68650760257f5267f4c5b20e","67f39b05e1bfb4295b1659ac","2025-07-02T10:40:13.294Z","","","","","","StressQ","","","","","","","","","","","","","","","","","","","","","","","","","","","","","","","","","","","","","","50"
"2627","","<div style=""width:500px;"">
  <p>What best describes how you currently feel?</p>
