"rt","response_timestamp","stimulus","response","trial_type","trial_index","time_elapsed","internal_node_id","run_id","condition","recorded_at","source_code_version","ip","user_agent","device","browser","browser_version","platform","platform_version","referer","accept_language","PROLIFIC_PID","STUDY_ID","SESSION_ID","prolific_id","realtime","view_history","question_order","consent","success","question_id","eventType","responses","item_order","radio_event_ids","radio_event_times","key_event_times","mouse_event_times","straightlining","zigzagging","honeypot","which_type","canvas_config","goals_layout","control_level","trial_number","tutorial_trial_number","trial_start_time","phase1_start_time","phase2_start_time","phase3_start_time","goal_1_value","goal_1_distance","goal_2_value","goal_2_distance","goal_selected","outcome","outcome_total","participant_final_score","participant_initial_score","participant_final_score_prop","goal_choice_rt","allocated_time","allocated_time_remaining","goal_direction","counts","mouse_movements","key_presses","correct","slider_start"
"13134","1751451814318","<p style='font-size:40px;line-height:1.25'><strong>Welcome to the experiment!</strong></p><p style='font-size:1.1em;line-height:1.25'>Thank you for your interest in our experiment! Before you begin, it is important that we obtain your informed consent to participate in the study.</p><p style='font-size:1.1em;line-height:1.25'>On the next screen will be an <strong>information sheet</strong> for you to read. To participate in the study we need you to read this information sheet and the following consent form carefully. If you agree with all the statements, please click the <strong>I agree</strong> button.</p><p style='font-size:1.1em;line-height:1.25'>Press <strong>Next</strong> to read the information sheet.</p>","0","custom-html-button-response","0","13141","0.0-0.0","166","1","2025-07-02 10:22:53","80fe4187154257d5fb01684ea91b68b9","102.66.193.39","Mozilla/5.0 (Windows NT 10.0; Win64; x64) AppleWebKit/537.36 (KHTML, like Gecko) Chrome/138.0.0.0 Safari/537.36 Edg/138.0.0.0","WebKit","Edge","138.0.0.0","Windows","10.0","https://app.prolific.com/","en-US,en;q=0.9","67f38b0b1f5fe0543c6e66ed","683db6dfa200031b80f2a654","686507667443ad7df7e77180","67f38b0b1f5fe0543c6e66ed","2025-07-02T10:23:34.324Z","","","","","","","","","","","","","","","","","","","","","","","","","","","","","","","","","","","","","","","","","","","",""
"80116","","","","instructions","1","93264","0.0-1.0","166","1","2025-07-02 10:22:53","80fe4187154257d5fb01684ea91b68b9","102.66.193.39","Mozilla/5.0 (Windows NT 10.0; Win64; x64) AppleWebKit/537.36 (KHTML, like Gecko) Chrome/138.0.0.0 Safari/537.36 Edg/138.0.0.0","WebKit","Edge","138.0.0.0","Windows","10.0","https://app.prolific.com/","en-US,en;q=0.9","67f38b0b1f5fe0543c6e66ed","683db6dfa200031b80f2a654","686507667443ad7df7e77180","67f38b0b1f5fe0543c6e66ed","","[{""page_index"":0,""viewing_time"":39316},{""page_index"":1,""viewing_time"":40798}]","","","","","","","","","","","","","","","","","","","","","","","","","","","","","","","","","","","","","","","","","","",""
"19150","","","{""Q0"":"""",""Q1"":"""",""Q2"":"""",""Q3"":"""",""Q4"":"""",""Q5"":"""",""Q6"":""I agree""}","survey-multi-choice","2","112423","0.0-2.0","166","1","2025-07-02 10:22:53","80fe4187154257d5fb01684ea91b68b9","102.66.193.39","Mozilla/5.0 (Windows NT 10.0; Win64; x64) AppleWebKit/537.36 (KHTML, like Gecko) Chrome/138.0.0.0 Safari/537.36 Edg/138.0.0.0","WebKit","Edge","138.0.0.0","Windows","10.0","https://app.prolific.com/","en-US,en;q=0.9","67f38b0b1f5fe0543c6e66ed","683db6dfa200031b80f2a654","686507667443ad7df7e77180","67f38b0b1f5fe0543c6e66ed","","","[0,1,2,3,4,5,6]","true","","","","","","","","","","","","","","","","","","","","","","","","","","","","","","","","","","","","","","","","",""
"25800","","","","fullscreen","3","139236","0.0-4.0","166","1","2025-07-02 10:22:53","80fe4187154257d5fb01684ea91b68b9","102.66.193.39","Mozilla/5.0 (Windows NT 10.0; Win64; x64) AppleWebKit/537.36 (KHTML, like Gecko) Chrome/138.0.0.0 Safari/537.36 Edg/138.0.0.0","WebKit","Edge","138.0.0.0","Windows","10.0","https://app.prolific.com/","en-US,en;q=0.9","67f38b0b1f5fe0543c6e66ed","683db6dfa200031b80f2a654","686507667443ad7df7e77180","67f38b0b1f5fe0543c6e66ed","","","","","true","","","","","","","","","","","","","","","","","","","","","","","","","","","","","","","","","","","","","","","",""
"15061","1751451955481"," <p style='font-size:1.1em;line-height:1.25'>Thank you for completing the consent form and closing all other tabs.</p><p style='font-size:1.1em;line-height:1.25'>We will now invite you to fill in some demographic information and questionnaires, before starting the game.<br>This will take about 5 minutes.<br></p><p style='font-size:1.1em;line-height:1.25'>Press the <strong>Next</strong> button to continue.</p>","0","custom-html-button-response","4","154301","0.0-5.0","166","1","2025-07-02 10:22:53","80fe4187154257d5fb01684ea91b68b9","102.66.193.39","Mozilla/5.0 (Windows NT 10.0; Win64; x64) AppleWebKit/537.36 (KHTML, like Gecko) Chrome/138.0.0.0 Safari/537.36 Edg/138.0.0.0","WebKit","Edge","138.0.0.0","Windows","10.0","https://app.prolific.com/","en-US,en;q=0.9","67f38b0b1f5fe0543c6e66ed","683db6dfa200031b80f2a654","686507667443ad7df7e77180","67f38b0b1f5fe0543c6e66ed","2025-07-02T10:25:55.482Z","","","","","","","","","","","","","","","","","","","","","","","","","","","","","","","","","","","","","","","","","","","",""
"6098","","","{""age"":""31""}","survey-text","5","160415","0.0-6.0-0.0","166","1","2025-07-02 10:22:53","80fe4187154257d5fb01684ea91b68b9","102.66.193.39","Mozilla/5.0 (Windows NT 10.0; Win64; x64) AppleWebKit/537.36 (KHTML, like Gecko) Chrome/138.0.0.0 Safari/537.36 Edg/138.0.0.0","WebKit","Edge","138.0.0.0","Windows","10.0","https://app.prolific.com/","en-US,en;q=0.9","67f38b0b1f5fe0543c6e66ed","683db6dfa200031b80f2a654","686507667443ad7df7e77180","67f38b0b1f5fe0543c6e66ed","","","","","","0","demographics","","","","","","","","","","","","","","","","","","","","","","","","","","","","","","","","","","","","","",""
"8728","","","{""gender_identity"":""male/man""}","survey-multi-choice","6","169146","0.0-6.0-1.0","166","1","2025-07-02 10:22:53","80fe4187154257d5fb01684ea91b68b9","102.66.193.39","Mozilla/5.0 (Windows NT 10.0; Win64; x64) AppleWebKit/537.36 (KHTML, like Gecko) Chrome/138.0.0.0 Safari/537.36 Edg/138.0.0.0","WebKit","Edge","138.0.0.0","Windows","10.0","https://app.prolific.com/","en-US,en;q=0.9","67f38b0b1f5fe0543c6e66ed","683db6dfa200031b80f2a654","686507667443ad7df7e77180","67f38b0b1f5fe0543c6e66ed","","","[0]","","","1","demographics","","","","","","","","","","","","","","","","","","","","","","","","","","","","","","","","","","","","","",""
"9132","","","{""assigned_sex"":""male""}","survey-multi-choice","7","178284","0.0-6.0-2.0","166","1","2025-07-02 10:22:53","80fe4187154257d5fb01684ea91b68b9","102.66.193.39","Mozilla/5.0 (Windows NT 10.0; Win64; x64) AppleWebKit/537.36 (KHTML, like Gecko) Chrome/138.0.0.0 Safari/537.36 Edg/138.0.0.0","WebKit","Edge","138.0.0.0","Windows","10.0","https://app.prolific.com/","en-US,en;q=0.9","67f38b0b1f5fe0543c6e66ed","683db6dfa200031b80f2a654","686507667443ad7df7e77180","67f38b0b1f5fe0543c6e66ed","","","[0]","","","2","demographics","","","","","","","","","","","","","","","","","","","","","","","","","","","","","","","","","","","","","",""
"5146","","","{""menstrual_cycle"":""No""}","survey-multi-choice","8","183436","0.0-6.0-3.0","166","1","2025-07-02 10:22:53","80fe4187154257d5fb01684ea91b68b9","102.66.193.39","Mozilla/5.0 (Windows NT 10.0; Win64; x64) AppleWebKit/537.36 (KHTML, like Gecko) Chrome/138.0.0.0 Safari/537.36 Edg/138.0.0.0","WebKit","Edge","138.0.0.0","Windows","10.0","https://app.prolific.com/","en-US,en;q=0.9","67f38b0b1f5fe0543c6e66ed","683db6dfa200031b80f2a654","686507667443ad7df7e77180","67f38b0b1f5fe0543c6e66ed","","","[0]","","","4","demographics","","","","","","","","","","","","","","","","","","","","","","","","","","","","","","","","","","","","","",""
"11669","","","{""education"":""Doctoral Degree (e.g., PhD)""}","survey-multi-choice","9","195109","0.0-6.0-4.0","166","1","2025-07-02 10:22:53","80fe4187154257d5fb01684ea91b68b9","102.66.193.39","Mozilla/5.0 (Windows NT 10.0; Win64; x64) AppleWebKit/537.36 (KHTML, like Gecko) Chrome/138.0.0.0 Safari/537.36 Edg/138.0.0.0","WebKit","Edge","138.0.0.0","Windows","10.0","https://app.prolific.com/","en-US,en;q=0.9","67f38b0b1f5fe0543c6e66ed","683db6dfa200031b80f2a654","686507667443ad7df7e77180","67f38b0b1f5fe0543c6e66ed","","","[0]","","","5","demographics","","","","","","","","","","","","","","","","","","","","","","","","","","","","","","","","","","","","","",""
"7282","","","{""education"":""Master's Degree (e.g., MSc)""}","survey-multi-choice","10","202395","0.0-6.0-5.0","166","1","2025-07-02 10:22:53","80fe4187154257d5fb01684ea91b68b9","102.66.193.39","Mozilla/5.0 (Windows NT 10.0; Win64; x64) AppleWebKit/537.36 (KHTML, like Gecko) Chrome/138.0.0.0 Safari/537.36 Edg/138.0.0.0","WebKit","Edge","138.0.0.0","Windows","10.0","https://app.prolific.com/","en-US,en;q=0.9","67f38b0b1f5fe0543c6e66ed","683db6dfa200031b80f2a654","686507667443ad7df7e77180","67f38b0b1f5fe0543c6e66ed","2025-07-02T10:26:43.576Z","","[0]","","","6","demographics","","","","","","","","","","","","","","","","","","","","","","","","","","","","","","","","","","","","","",""
"23994","","","{""mental_health_condition"":""NO"",""mental_health_treatment"":""NO"",""psychiatric_medication"":""NO""}","survey-text","11","226397","0.0-7.0-0.0","166","1","2025-07-02 10:22:53","80fe4187154257d5fb01684ea91b68b9","102.66.193.39","Mozilla/5.0 (Windows NT 10.0; Win64; x64) AppleWebKit/537.36 (KHTML, like Gecko) Chrome/138.0.0.0 Safari/537.36 Edg/138.0.0.0","WebKit","Edge","138.0.0.0","Windows","10.0","https://app.prolific.com/","en-US,en;q=0.9","67f38b0b1f5fe0543c6e66ed","683db6dfa200031b80f2a654","686507667443ad7df7e77180","67f38b0b1f5fe0543c6e66ed","2025-07-02T10:27:07.578Z","","","","","1","mental_health","","","","","","","","","","","","","","","","","","","","","","","","","","","","","","","","","","","","","",""
"16382","","","{""depression_history"":[""Yes""]}","survey-multi-select","12","242783","0.0-7.0-1.0","166","1","2025-07-02 10:22:53","80fe4187154257d5fb01684ea91b68b9","102.66.193.39","Mozilla/5.0 (Windows NT 10.0; Win64; x64) AppleWebKit/537.36 (KHTML, like Gecko) Chrome/138.0.0.0 Safari/537.36 Edg/138.0.0.0","WebKit","Edge","138.0.0.0","Windows","10.0","https://app.prolific.com/","en-US,en;q=0.9","67f38b0b1f5fe0543c6e66ed","683db6dfa200031b80f2a654","686507667443ad7df7e77180","67f38b0b1f5fe0543c6e66ed","","","[0]","","","","mental_health","","","","","","","","","","","","","","","","","","","","","","","","","","","","","","","","","","","","","",""
"14004","","","{""depression_episodes"":""more than 5"",""depression_recent"":""Currently experiencing an episode""}","survey-multi-choice","13","256791","0.0-7.0-2.0-0.0","166","1","2025-07-02 10:22:53","80fe4187154257d5fb01684ea91b68b9","102.66.193.39","Mozilla/5.0 (Windows NT 10.0; Win64; x64) AppleWebKit/537.36 (KHTML, like Gecko) Chrome/138.0.0.0 Safari/537.36 Edg/138.0.0.0","WebKit","Edge","138.0.0.0","Windows","10.0","https://app.prolific.com/","en-US,en;q=0.9","67f38b0b1f5fe0543c6e66ed","683db6dfa200031b80f2a654","686507667443ad7df7e77180","67f38b0b1f5fe0543c6e66ed","2025-07-02T10:27:37.972Z","","[0,1]","","","3","mental_health","","","","","","","","","","","","","","","","","","","","","","","","","","","","","","","","","","","","","",""
"174394.29999999702","","","","survey-template","14","431200","0.0-7.0-3.0","166","1","2025-07-02 10:22:53","80fe4187154257d5fb01684ea91b68b9","102.66.193.39","Mozilla/5.0 (Windows NT 10.0; Win64; x64) AppleWebKit/537.36 (KHTML, like Gecko) Chrome/138.0.0.0 Safari/537.36 Edg/138.0.0.0","WebKit","Edge","138.0.0.0","Windows","10.0","https://app.prolific.com/","en-US,en;q=0.9","67f38b0b1f5fe0543c6e66ed","683db6dfa200031b80f2a654","686507667443ad7df7e77180","67f38b0b1f5fe0543c6e66ed","2025-07-02T10:30:32.382Z","","","","","","ius","{""Q01"":""3"",""Q02"":""4"",""Q03"":""3"",""Q04"":""4"",""Q05"":""2"",""Q06"":""0"",""Q07"":""0"",""Q08"":""0"",""Q09"":""4"",""Q10"":""4"",""Q11"":""0"",""Q12"":""4"",""Q13"":""3""}","[0,1,2,3,4,5,6,7,8,9,10,11,12]","[""Q01"",""Q02"",""Q03"",""Q04"",""Q05"",""Q06"",""Q07"",""Q08"",""Q09"",""Q10"",""Q11"",""Q12"",""Q13""]","[57229.5,64904.29999999702,71427.5,76424.20000000298,99136.39999999106,107519.29999999702,111272.59999999404,119671,132193.5,133734.79999999702,140001.29999999702,165330.70000000298,171499.79999999702]","[]","[57229.5,64904.29999999702,71427.5,76424.20000000298,77558.79999999702,99136.39999999106,107519.29999999702,111272.59999999404,119671,121428.70000000298,128454.79999999702,132193.5,133734.79999999702,137270.20000000298,138788.5,140001.29999999702,157905,165330.70000000298,171499.79999999702,174385.29999999702]","0.38461538461538464","0.5833333333333334","0","","","","","","","","","","","","","","","","","","","","","","","","","","","","",""
"7543","1751452239928","<p style='font-size:1.1em;line-height:1.25'>In the following, we will ask you a few questions relating to your experiences over the past month.<br></p><p style='font-size:1.1em;line-height:1.25'>Press the <strong>Next</strong> button to continue.</p>","0","custom-html-button-response","15","438748","0.0-7.0-4.0","166","1","2025-07-02 10:22:53","80fe4187154257d5fb01684ea91b68b9","102.66.193.39","Mozilla/5.0 (Windows NT 10.0; Win64; x64) AppleWebKit/537.36 (KHTML, like Gecko) Chrome/138.0.0.0 Safari/537.36 Edg/138.0.0.0","WebKit","Edge","138.0.0.0","Windows","10.0","https://app.prolific.com/","en-US,en;q=0.9","67f38b0b1f5fe0543c6e66ed","683db6dfa200031b80f2a654","686507667443ad7df7e77180","67f38b0b1f5fe0543c6e66ed","2025-07-02T10:30:39.930Z","","","","","","","","","","","","","","","","","","","","","","","","","","","","","","","","","","","","","","","","","","","",""
"123923.29999999702","","","","survey-template","16","562680","0.0-7.0-5.0","166","1","2025-07-02 10:22:53","80fe4187154257d5fb01684ea91b68b9","102.66.193.39","Mozilla/5.0 (Windows NT 10.0; Win64; x64) AppleWebKit/537.36 (KHTML, like Gecko) Chrome/138.0.0.0 Safari/537.36 Edg/138.0.0.0","WebKit","Edge","138.0.0.0","Windows","10.0","https://app.prolific.com/","en-US,en;q=0.9","67f38b0b1f5fe0543c6e66ed","683db6dfa200031b80f2a654","686507667443ad7df7e77180","67f38b0b1f5fe0543c6e66ed","2025-07-02T10:32:43.861Z","","","","","","pss","{""Q01"":""3"",""Q02"":""4"",""Q03"":""4"",""Q04"":""3"",""Q05"":""3"",""Q06"":""2"",""Q07"":""1"",""Q08"":""2"",""Q09"":""4"",""Q10"":""2""}","[0,1,2,3,4,5,6,7,8,9]","[""Q01"",""Q02"",""Q03"",""Q04"",""Q05"",""Q06"",""Q07"",""Q08"",""Q09"",""Q10""]","[9248.70000000298,22387.79999999702,56920.10000000894,66721.79999999702,71975.79999999702,85751.29999999702,93526.40000000596,106141.10000000894,113869.40000000596,122200.20000000298]","[]","[0.10000000894069672,9248.70000000298,22387.79999999702,24027.5,56920.10000000894,66721.79999999702,71975.79999999702,75568.70000000298,85751.29999999702,90959.60000000894,93526.40000000596,95327.20000000298,106141.10000000894,113869.40000000596,122200.20000000298,123916.5]","0.3","0.4444444444444444","0","","","","","","","","","","","","","","","","","","","","","","","","","","","","",""
"7614","1751452371478","<p style='font-size:1.1em;line-height:1.25'>Thank you for your answers! Now we will ask you a few more questions relating to your feelings in the last 24 hours.<br></p><p style='font-size:1.1em;line-height:1.25'>Press the <strong>Next</strong> button to continue.</p>","0","custom-html-button-response","17","570299","0.0-7.0-6.0","166","1","2025-07-02 10:22:53","80fe4187154257d5fb01684ea91b68b9","102.66.193.39","Mozilla/5.0 (Windows NT 10.0; Win64; x64) AppleWebKit/537.36 (KHTML, like Gecko) Chrome/138.0.0.0 Safari/537.36 Edg/138.0.0.0","WebKit","Edge","138.0.0.0","Windows","10.0","https://app.prolific.com/","en-US,en;q=0.9","67f38b0b1f5fe0543c6e66ed","683db6dfa200031b80f2a654","686507667443ad7df7e77180","67f38b0b1f5fe0543c6e66ed","2025-07-02T10:32:51.480Z","","","","","","","","","","","","","","","","","","","","","","","","","","","","","","","","","","","","","","","","","","","",""
"152168.09999999404","","","","survey-template","18","722478","0.0-7.0-7.0","166","1","2025-07-02 10:22:53","80fe4187154257d5fb01684ea91b68b9","102.66.193.39","Mozilla/5.0 (Windows NT 10.0; Win64; x64) AppleWebKit/537.36 (KHTML, like Gecko) Chrome/138.0.0.0 Safari/537.36 Edg/138.0.0.0","WebKit","Edge","138.0.0.0","Windows","10.0","https://app.prolific.com/","en-US,en;q=0.9","67f38b0b1f5fe0543c6e66ed","683db6dfa200031b80f2a654","686507667443ad7df7e77180","67f38b0b1f5fe0543c6e66ed","2025-07-02T10:35:23.659Z","","","","","","drsp","{""Q01"":""2"",""Q02"":""0"",""Q03"":""0"",""Q04"":""1"",""Q05"":""2"",""Q06"":""3"",""Q07"":""0"",""Q08"":""0"",""Q09"":""0"",""Q10"":""0"",""Q11"":""0"",""Q12"":""4"",""Q13"":""5"",""Q14"":""0"",""Q15"":""0"",""Q16"":""0"",""Q17"":""0"",""Q18"":""0"",""Q19"":""2"",""Q20"":""0"",""Q21"":""3""}","[0,1,2,3,4,5,6,7,8,9,10,11,12,13,14,15,16,17,18,19,20]","[""Q01"",""Q02"",""Q03"",""Q04"",""Q05"",""Q06"",""Q07"",""Q08"",""Q09"",""Q10"",""Q11"",""Q12"",""Q13"",""Q14"",""Q15"",""Q16"",""Q17"",""Q18"",""Q19"",""Q20"",""Q21""]","[5344.0999999940395,8340.09999999404,11390.39999999106,13883.199999988079,16224.5,63103.69999998808,74609.69999998808,77258.69999998808,79937.39999999106,86465.09999999404,89406.89999999106,94009.19999998808,109948.59999999404,117060.89999999106,119542.69999998808,121580.19999998808,123280.39999999106,129559.09999999404,135344.09999999404,144906.39999999106,150192.59999999404]","[]","[0.09999999403953552,5344.0999999940395,8340.09999999404,11390.39999999106,13883.199999988079,16224.5,63103.69999998808,67807.29999999702,74609.69999998808,77258.69999998808,79937.39999999106,81930.19999998808,85220.09999999404,86465.09999999404,89406.89999999106,94009.19999998808,109948.59999999404,111192.59999999404,117060.89999999106,119542.69999998808,121580.19999998808,123280.39999999106,129559.09999999404,135344.09999999404,137454.19999998808,144906.39999999106,150192.59999999404,152153.29999999702]","0.6190476190476191","0.25","0","","","","","","","","","","","","","","","","","","","","","","","","","","","","",""
"18189.90000000596","","","","survey-template","19","740673","0.0-7.0-8.0","166","1","2025-07-02 10:22:53","80fe4187154257d5fb01684ea91b68b9","102.66.193.39","Mozilla/5.0 (Windows NT 10.0; Win64; x64) AppleWebKit/537.36 (KHTML, like Gecko) Chrome/138.0.0.0 Safari/537.36 Edg/138.0.0.0","WebKit","Edge","138.0.0.0","Windows","10.0","https://app.prolific.com/","en-US,en;q=0.9","67f38b0b1f5fe0543c6e66ed","683db6dfa200031b80f2a654","686507667443ad7df7e77180","67f38b0b1f5fe0543c6e66ed","2025-07-02T10:35:41.854Z","","","","","","stress","{""Q01"":""0"",""Q02"":""0"",""Q03"":""0""}","[0,1,2]","[""Q01"",""Q02"",""Q03""]","[5771.800000011921,9533.10000000894,16602]","[]","[5771.800000011921,9533.10000000894,16602,18186.30000001192]","0.6666666666666666","1","0","","","","","","","","","","","","","","","","","","","","","","","","","","","","",""
"151581","","","","instructions","20","892257","0.0-8.0-0.0","166","1","2025-07-02 10:22:53","80fe4187154257d5fb01684ea91b68b9","102.66.193.39","Mozilla/5.0 (Windows NT 10.0; Win64; x64) AppleWebKit/537.36 (KHTML, like Gecko) Chrome/138.0.0.0 Safari/537.36 Edg/138.0.0.0","WebKit","Edge","138.0.0.0","Windows","10.0","https://app.prolific.com/","en-US,en;q=0.9","67f38b0b1f5fe0543c6e66ed","683db6dfa200031b80f2a654","686507667443ad7df7e77180","67f38b0b1f5fe0543c6e66ed","","[{""page_index"":0,""viewing_time"":34810},{""page_index"":1,""viewing_time"":22306},{""page_index"":2,""viewing_time"":6152},{""page_index"":3,""viewing_time"":88311}]","","","","","","","","","","","","","","","","","","","","","","","","","","","","","","","","","","","","","","","","","","",""
"","","","","ctl-task-cpt","21","932624","0.0-8.0-1.0","166","1","2025-07-02 10:22:53","80fe4187154257d5fb01684ea91b68b9","102.66.193.39","Mozilla/5.0 (Windows NT 10.0; Win64; x64) AppleWebKit/537.36 (KHTML, like Gecko) Chrome/138.0.0.0 Safari/537.36 Edg/138.0.0.0","WebKit","Edge","138.0.0.0","Windows","10.0","https://app.prolific.com/","en-US,en;q=0.9","67f38b0b1f5fe0543c6e66ed","683db6dfa200031b80f2a654","686507667443ad7df7e77180","67f38b0b1f5fe0543c6e66ed","","","","","","","","","","","","","","","","","win-only","1","g1:NE,g2:SW","1","0","1","926163.8","7213","11220.2","37354","2","4","4","6","2","-4","-9","0","0","0","4007.2","4000","-2360","[""down"",""left""]","{""num_key_presses"":8,""num_perfect"":3,""num_errors"":5,""num_randdir"":0,""num_randdir_good_moves"":0,""num_whilered"":0,""num_whileblue"":0,""num_blue"":0,""num_good_moves"":2}","[298.22232142857143,291.12857142857143,0.6,298.22232142857143,291.12857142857143,105.4,298.22232142857143,291.12857142857143,206.1,298.22232142857143,291.12857142857143,313.1,298.22232142857143,291.12857142857143,418,298.22232142857143,291.12857142857143,523.8,298.22232142857143,291.12857142857143,633.8,298.22232142857143,291.12857142857143,734,298.22232142857143,291.12857142857143,842.9,298.22232142857143,291.12857142857143,946.5,341.22232142857143,271.12857142857143,1046.6,355.22232142857143,252.12857142857143,1146.7,355.22232142857143,247.12857142857143,1250.5,355.22232142857143,244.12857142857143,1351.2,355.22232142857143,243.12857142857143,1451.4,354.22232142857143,242.12857142857143,1556.7,352.22232142857143,242.12857142857143,1663.4,352.22232142857143,241.12857142857143,1763.6,352.22232142857143,241.12857142857143,1863.5,351.22232142857143,241.12857142857143,1963.6,351.22232142857143,241.12857142857143,2068.1,351.22232142857143,241.12857142857143,2173.5,351.22232142857143,241.12857142857143,2280.5,351.22232142857143,241.12857142857143,2380.5,351.22232142857143,241.12857142857143,2480.7,351.22232142857143,241.12857142857143,2580.7,351.22232142857143,241.12857142857143,2684.2,351.22232142857143,241.12857142857143,2784.5,351.22232142857143,241.12857142857143,2886.5,351.22232142857143,241.12857142857143,2995.3,351.22232142857143,241.12857142857143,3097.5,351.22232142857143,241.12857142857143,3198.3,351.22232142857143,241.12857142857143,3301.1,351.22232142857143,241.12857142857143,3410.4,351.22232142857143,241.12857142857143,3512.1,351.22232142857143,241.12857142857143,3614.3,351.22232142857143,241.12857142857143,3719.8,351.22232142857143,241.12857142857143,3821.1,351.22232142857143,241.12857142857143,3922.8]","[146.6,146.6,1000,0,-853.4,""error"",""-"",""-"",""no_move"",2552.3,2405.2,2631,1149.6,-1228.3,""error"",""-"",""-"",""no_move"",5363.5,2810.8,3077.5,3558.9,-1272.8,""error"",""-"",""-"",""no_move"",11553.8,6190,2745.9,6365.8,2442.1,""smooth"",""right"",""right"",""bad_move"",12792.3,1237.2,1737.3,11555.2,-500.2,""error"",""-"",""-"",""no_move"",14926.9,2134.2,2561.2,13793.1,-1427.3,""error"",""-"",""-"",""no_move"",19256.9,4329.6,2804.5,15932.3,520.2,""smooth"",""left"",""left"",""good_move"",23544.4,4286.9,2484.4,19257.7,1802.4,""smooth"",""down"",""down"",""good_move""]","",""
"78765","","","","instructions","22","1011391","0.0-8.0-2.0","166","1","2025-07-02 10:22:53","80fe4187154257d5fb01684ea91b68b9","102.66.193.39","Mozilla/5.0 (Windows NT 10.0; Win64; x64) AppleWebKit/537.36 (KHTML, like Gecko) Chrome/138.0.0.0 Safari/537.36 Edg/138.0.0.0","WebKit","Edge","138.0.0.0","Windows","10.0","https://app.prolific.com/","en-US,en;q=0.9","67f38b0b1f5fe0543c6e66ed","683db6dfa200031b80f2a654","686507667443ad7df7e77180","67f38b0b1f5fe0543c6e66ed","","[{""page_index"":0,""viewing_time"":78765}]","","","","","","","","","","","","","","","","","","","","","","","","","","","","","","","","","","","","","","","","","","",""
"","","","","ctl-task-cpt","23","1043126","0.0-8.0-3.0","166","1","2025-07-02 10:22:53","80fe4187154257d5fb01684ea91b68b9","102.66.193.39","Mozilla/5.0 (Windows NT 10.0; Win64; x64) AppleWebKit/537.36 (KHTML, like Gecko) Chrome/138.0.0.0 Safari/537.36 Edg/138.0.0.0","WebKit","Edge","138.0.0.0","Windows","10.0","https://app.prolific.com/","en-US,en;q=0.9","67f38b0b1f5fe0543c6e66ed","683db6dfa200031b80f2a654","686507667443ad7df7e77180","67f38b0b1f5fe0543c6e66ed","","","","","","","","","","","","","","","","","win-only","1","g1:NE,g2:SW","0.35","0","3","1045297.6","2681.7","6682.2","28723.2","2","4","8","6","1","-2","-3","0","0","0","4000.5","4000","-2360","[""up"",""right""]","{""num_key_presses"":5,""num_perfect"":2,""num_errors"":1,""num_randdir"":2,""num_randdir_good_moves"":0,""num_whilered"":0,""num_whileblue"":0,""num_blue"":1,""num_good_moves"":2}","[300.22232142857143,298.12857142857143,0.5,300.22232142857143,298.12857142857143,106.5,300.22232142857143,298.12857142857143,213.1,300.22232142857143,298.12857142857143,314,300.22232142857143,298.12857142857143,414,300.22232142857143,298.12857142857143,514.1,300.22232142857143,298.12857142857143,614.7,300.22232142857143,298.12857142857143,716.9,300.22232142857143,298.12857142857143,817.1,300.22232142857143,298.12857142857143,917.1,300.22232142857143,298.12857142857143,1019,300.22232142857143,298.12857142857143,1119.1,300.22232142857143,298.12857142857143,1229.4,300.22232142857143,298.12857142857143,1334.1,300.22232142857143,298.12857142857143,1443.6,300.22232142857143,298.12857142857143,1546.4,300.22232142857143,298.12857142857143,1651.3,300.22232142857143,298.12857142857143,1751.3,300.22232142857143,298.12857142857143,1853.5,300.22232142857143,298.12857142857143,1958.7,300.22232142857143,298.12857142857143,2062.8,300.22232142857143,298.12857142857143,2162.9,300.22232142857143,298.12857142857143,2264.4,300.22232142857143,298.12857142857143,2368,300.22232142857143,298.12857142857143,2470.8,300.22232142857143,298.12857142857143,2576.1,300.22232142857143,298.12857142857143,2684.7,300.22232142857143,298.12857142857143,2793.4,300.22232142857143,298.12857142857143,2893.7,300.22232142857143,298.12857142857143,2996.7,300.22232142857143,298.12857142857143,3102.2,300.22232142857143,298.12857142857143,3207.3,300.22232142857143,298.12857142857143,3313.5,300.22232142857143,298.12857142857143,3419.5,300.22232142857143,298.12857142857143,3525.3,300.22232142857143,298.12857142857143,3631.7,300.22232142857143,298.12857142857143,3739.1,300.22232142857143,298.12857142857143,3847.5,300.22232142857143,298.12857142857143,3950]","[3708.4,3708.4,1000,1.2,2707.2,""oops"",""up"",""down"",""bad_move"",7662.6,3953.5,2989.6,3709.1,963.9,""oops"",""up"",""down"",""bad_move"",8771.6,1108.7,2377.9,7662.9,-1269.2,""error"",""-"",""-"",""no_move"",13242.2,4470.3,2600.4,9773.1,868.7,""smooth"",""right"",""right"",""good_move"",19454.4,6211.8,2873.7,16192.6,388.1,""smooth"",""up"",""up"",""good_move""]","",""
"122073","","","","instructions","24","1165201","0.0-8.0-4.0","166","1","2025-07-02 10:22:53","80fe4187154257d5fb01684ea91b68b9","102.66.193.39","Mozilla/5.0 (Windows NT 10.0; Win64; x64) AppleWebKit/537.36 (KHTML, like Gecko) Chrome/138.0.0.0 Safari/537.36 Edg/138.0.0.0","WebKit","Edge","138.0.0.0","Windows","10.0","https://app.prolific.com/","en-US,en;q=0.9","67f38b0b1f5fe0543c6e66ed","683db6dfa200031b80f2a654","686507667443ad7df7e77180","67f38b0b1f5fe0543c6e66ed","","[{""page_index"":0,""viewing_time"":52304},{""page_index"":1,""viewing_time"":69769}]","","","","","","","","","","","","","","","","","","","","","","","","","","","","","","","","","","","","","","","","","","",""
"39040","","","{""green_ball"":[""Ball always shakes and moves in a random direction"",""Ball always moves in the direction I press""]}","survey-multi-select","25","1204249","0.0-8.0-5.0-0.0","166","1","2025-07-02 10:22:53","80fe4187154257d5fb01684ea91b68b9","102.66.193.39","Mozilla/5.0 (Windows NT 10.0; Win64; x64) AppleWebKit/537.36 (KHTML, like Gecko) Chrome/138.0.0.0 Safari/537.36 Edg/138.0.0.0","WebKit","Edge","138.0.0.0","Windows","10.0","https://app.prolific.com/","en-US,en;q=0.9","67f38b0b1f5fe0543c6e66ed","683db6dfa200031b80f2a654","686507667443ad7df7e77180","67f38b0b1f5fe0543c6e66ed","","","[0]","","","","quiz","","","","","","","","","","","","","","","","","","","","","","","","","","","","","","","","","","","","","false",""
"9791","","<p align='center'><b>INCORRECT.</b> Usually the green ball moves in the indicated direction, but sometimes it shakes and moves randomly. </p>","0","html-button-response","26","1214046","0.0-8.0-5.0-1.0","166","1","2025-07-02 10:22:53","80fe4187154257d5fb01684ea91b68b9","102.66.193.39","Mozilla/5.0 (Windows NT 10.0; Win64; x64) AppleWebKit/537.36 (KHTML, like Gecko) Chrome/138.0.0.0 Safari/537.36 Edg/138.0.0.0","WebKit","Edge","138.0.0.0","Windows","10.0","https://app.prolific.com/","en-US,en;q=0.9","67f38b0b1f5fe0543c6e66ed","683db6dfa200031b80f2a654","686507667443ad7df7e77180","67f38b0b1f5fe0543c6e66ed","","","","","","","","","","","","","","","","","","","","","","","","","","","","","","","","","","","","","","","","","","","","",""
"12491","","","{""green_ball"":[""Ball sometimes shakes and moves in a random direction""]}","survey-multi-select","27","1226547","0.0-8.0-5.1-0.1","166","1","2025-07-02 10:22:53","80fe4187154257d5fb01684ea91b68b9","102.66.193.39","Mozilla/5.0 (Windows NT 10.0; Win64; x64) AppleWebKit/537.36 (KHTML, like Gecko) Chrome/138.0.0.0 Safari/537.36 Edg/138.0.0.0","WebKit","Edge","138.0.0.0","Windows","10.0","https://app.prolific.com/","en-US,en;q=0.9","67f38b0b1f5fe0543c6e66ed","683db6dfa200031b80f2a654","686507667443ad7df7e77180","67f38b0b1f5fe0543c6e66ed","","","[0]","","","","quiz","","","","","","","","","","","","","","","","","","","","","","","","","","","","","","","","","","","","","true",""
"11985","","<p align='center'><b>CORRECT!</b> Indeed, the green ball may sometimes shake and move in a random direction.</p>","0","html-button-response","28","1238536","0.0-8.0-5.1-1.1","166","1","2025-07-02 10:22:53","80fe4187154257d5fb01684ea91b68b9","102.66.193.39","Mozilla/5.0 (Windows NT 10.0; Win64; x64) AppleWebKit/537.36 (KHTML, like Gecko) Chrome/138.0.0.0 Safari/537.36 Edg/138.0.0.0","WebKit","Edge","138.0.0.0","Windows","10.0","https://app.prolific.com/","en-US,en;q=0.9","67f38b0b1f5fe0543c6e66ed","683db6dfa200031b80f2a654","686507667443ad7df7e77180","67f38b0b1f5fe0543c6e66ed","","","","","","","","","","","","","","","","","","","","","","","","","","","","","","","","","","","","","","","","","","","","",""
"13985","","","{""yellow_ball"":[""Ball doesn‘t move and I get -1 penalty point""]}","survey-multi-select","29","1252528","0.0-8.0-6.0-0.0","166","1","2025-07-02 10:22:53","80fe4187154257d5fb01684ea91b68b9","102.66.193.39","Mozilla/5.0 (Windows NT 10.0; Win64; x64) AppleWebKit/537.36 (KHTML, like Gecko) Chrome/138.0.0.0 Safari/537.36 Edg/138.0.0.0","WebKit","Edge","138.0.0.0","Windows","10.0","https://app.prolific.com/","en-US,en;q=0.9","67f38b0b1f5fe0543c6e66ed","683db6dfa200031b80f2a654","686507667443ad7df7e77180","67f38b0b1f5fe0543c6e66ed","","","[0]","","","","quiz","","","","","","","","","","","","","","","","","","","","","","","","","","","","","","","","","","","","","true",""
"6824","","<p align='center'><b>CORRECT!</b> Indeed, the yellow ball never moves and you receive a penalty.</p>","0","html-button-response","30","1259356","0.0-8.0-6.0-1.0","166","1","2025-07-02 10:22:53","80fe4187154257d5fb01684ea91b68b9","102.66.193.39","Mozilla/5.0 (Windows NT 10.0; Win64; x64) AppleWebKit/537.36 (KHTML, like Gecko) Chrome/138.0.0.0 Safari/537.36 Edg/138.0.0.0","WebKit","Edge","138.0.0.0","Windows","10.0","https://app.prolific.com/","en-US,en;q=0.9","67f38b0b1f5fe0543c6e66ed","683db6dfa200031b80f2a654","686507667443ad7df7e77180","67f38b0b1f5fe0543c6e66ed","","","","","","","","","","","","","","","","","","","","","","","","","","","","","","","","","","","","","","","","","","","","",""
"4996","","","{""blue_ball"":[""Ball doesn‘t move and I get -1 penalty point""]}","survey-multi-select","31","1264356","0.0-8.0-7.0-0.0","166","1","2025-07-02 10:22:53","80fe4187154257d5fb01684ea91b68b9","102.66.193.39","Mozilla/5.0 (Windows NT 10.0; Win64; x64) AppleWebKit/537.36 (KHTML, like Gecko) Chrome/138.0.0.0 Safari/537.36 Edg/138.0.0.0","WebKit","Edge","138.0.0.0","Windows","10.0","https://app.prolific.com/","en-US,en;q=0.9","67f38b0b1f5fe0543c6e66ed","683db6dfa200031b80f2a654","686507667443ad7df7e77180","67f38b0b1f5fe0543c6e66ed","","","[0]","","","","quiz","","","","","","","","","","","","","","","","","","","","","","","","","","","","","","","","","","","","","false",""
"4462","","<p align='center'><b>INCORRECT.</b> The blue ball always shakes and moves randomly.</p>","0","html-button-response","32","1268820","0.0-8.0-7.0-1.0","166","1","2025-07-02 10:22:53","80fe4187154257d5fb01684ea91b68b9","102.66.193.39","Mozilla/5.0 (Windows NT 10.0; Win64; x64) AppleWebKit/537.36 (KHTML, like Gecko) Chrome/138.0.0.0 Safari/537.36 Edg/138.0.0.0","WebKit","Edge","138.0.0.0","Windows","10.0","https://app.prolific.com/","en-US,en;q=0.9","67f38b0b1f5fe0543c6e66ed","683db6dfa200031b80f2a654","686507667443ad7df7e77180","67f38b0b1f5fe0543c6e66ed","","","","","","","","","","","","","","","","","","","","","","","","","","","","","","","","","","","","","","","","","","","","",""
"8516","","","{""blue_ball"":[""Ball always shakes and moves in a random direction""]}","survey-multi-select","33","1277343","0.0-8.0-7.1-0.1","166","1","2025-07-02 10:22:53","80fe4187154257d5fb01684ea91b68b9","102.66.193.39","Mozilla/5.0 (Windows NT 10.0; Win64; x64) AppleWebKit/537.36 (KHTML, like Gecko) Chrome/138.0.0.0 Safari/537.36 Edg/138.0.0.0","WebKit","Edge","138.0.0.0","Windows","10.0","https://app.prolific.com/","en-US,en;q=0.9","67f38b0b1f5fe0543c6e66ed","683db6dfa200031b80f2a654","686507667443ad7df7e77180","67f38b0b1f5fe0543c6e66ed","","","[0]","","","","quiz","","","","","","","","","","","","","","","","","","","","","","","","","","","","","","","","","","","","","true",""
"4684","","<p align='center'><b>CORRECT!</b> Indeed, the blue ball always shakes and moves in a random direction. Also there is a penalty of -1 point.</p>","0","html-button-response","34","1282032","0.0-8.0-7.1-1.1","166","1","2025-07-02 10:22:53","80fe4187154257d5fb01684ea91b68b9","102.66.193.39","Mozilla/5.0 (Windows NT 10.0; Win64; x64) AppleWebKit/537.36 (KHTML, like Gecko) Chrome/138.0.0.0 Safari/537.36 Edg/138.0.0.0","WebKit","Edge","138.0.0.0","Windows","10.0","https://app.prolific.com/","en-US,en;q=0.9","67f38b0b1f5fe0543c6e66ed","683db6dfa200031b80f2a654","686507667443ad7df7e77180","67f38b0b1f5fe0543c6e66ed","","","","","","","","","","","","","","","","","","","","","","","","","","","","","","","","","","","","","","","","","","","","",""
"10315","","","{""bonus"":[""When I reach 50% of points""]}","survey-multi-select","35","1292354","0.0-8.0-8.0-0.0","166","1","2025-07-02 10:22:53","80fe4187154257d5fb01684ea91b68b9","102.66.193.39","Mozilla/5.0 (Windows NT 10.0; Win64; x64) AppleWebKit/537.36 (KHTML, like Gecko) Chrome/138.0.0.0 Safari/537.36 Edg/138.0.0.0","WebKit","Edge","138.0.0.0","Windows","10.0","https://app.prolific.com/","en-US,en;q=0.9","67f38b0b1f5fe0543c6e66ed","683db6dfa200031b80f2a654","686507667443ad7df7e77180","67f38b0b1f5fe0543c6e66ed","","","[0]","","","","quiz","","","","","","","","","","","","","","","","","","","","","","","","","","","","","","","","","","","","","true",""
"5311","","<p align='center'><b>CORRECT!</b> Indeed, you receive 2 pounds extra when you reach 50% of points.</p>","0","html-button-response","36","1297669","0.0-8.0-8.0-1.0","166","1","2025-07-02 10:22:53","80fe4187154257d5fb01684ea91b68b9","102.66.193.39","Mozilla/5.0 (Windows NT 10.0; Win64; x64) AppleWebKit/537.36 (KHTML, like Gecko) Chrome/138.0.0.0 Safari/537.36 Edg/138.0.0.0","WebKit","Edge","138.0.0.0","Windows","10.0","https://app.prolific.com/","en-US,en;q=0.9","67f38b0b1f5fe0543c6e66ed","683db6dfa200031b80f2a654","686507667443ad7df7e77180","67f38b0b1f5fe0543c6e66ed","","","","","","","","","","","","","","","","","","","","","","","","","","","","","","","","","","","","","","","","","","","","",""
"35929","","","","instructions","37","1333602","0.0-8.0-9.0","166","1","2025-07-02 10:22:53","80fe4187154257d5fb01684ea91b68b9","102.66.193.39","Mozilla/5.0 (Windows NT 10.0; Win64; x64) AppleWebKit/537.36 (KHTML, like Gecko) Chrome/138.0.0.0 Safari/537.36 Edg/138.0.0.0","WebKit","Edge","138.0.0.0","Windows","10.0","https://app.prolific.com/","en-US,en;q=0.9","67f38b0b1f5fe0543c6e66ed","683db6dfa200031b80f2a654","686507667443ad7df7e77180","67f38b0b1f5fe0543c6e66ed","","[{""page_index"":0,""viewing_time"":35928}]","","","","","","","","","","","","","","","","","","","","","","","","","","","","","","","","","","","","","","","","","","",""
"23428","","<p>Before you start with this game please answer the following three questions yourself. </p>
  <p>Through this game, we measure several aspects of your cognitive performance, such as reaction times, multi-tasking capabilities </p>
  <p>and the ability to assess the situation you are in.</p>
  <p></p>
  <p><b>How good do you usually are in such tasks?</b></p>","100","html-slider-response","38","1357037","0.0-9.0-0.0","166","1","2025-07-02 10:22:53","80fe4187154257d5fb01684ea91b68b9","102.66.193.39","Mozilla/5.0 (Windows NT 10.0; Win64; x64) AppleWebKit/537.36 (KHTML, like Gecko) Chrome/138.0.0.0 Safari/537.36 Edg/138.0.0.0","WebKit","Edge","138.0.0.0","Windows","10.0","https://app.prolific.com/","en-US,en;q=0.9","67f38b0b1f5fe0543c6e66ed","683db6dfa200031b80f2a654","686507667443ad7df7e77180","67f38b0b1f5fe0543c6e66ed","2025-07-02T10:45:58.218Z","","","","","","PreSkillQ","","","","","","","","","","","","","","","","","","","","","","","","","","","","","","","","","","","","","","50"
"12674","","<div style=""width:500px;"">
  <p>How well do you think you will perform in this task compared to other participants?</p>
  </div>","100","html-slider-response","39","1369715","0.0-9.0-1.0","166","1","2025-07-02 10:22:53","80fe4187154257d5fb01684ea91b68b9","102.66.193.39","Mozilla/5.0 (Windows NT 10.0; Win64; x64) AppleWebKit/537.36 (KHTML, like Gecko) Chrome/138.0.0.0 Safari/537.36 Edg/138.0.0.0","WebKit","Edge","138.0.0.0","Windows","10.0","https://app.prolific.com/","en-US,en;q=0.9","67f38b0b1f5fe0543c6e66ed","683db6dfa200031b80f2a654","686507667443ad7df7e77180","67f38b0b1f5fe0543c6e66ed","2025-07-02T10:46:10.896Z","","","","","","PrePerfQ","","","","","","","","","","","","","","","","","","","","","","","","","","","","","","","","","","","","","","50"
"6200","","<div style=""width:500px;"">
  <p>What best describes how you currently feel?</p>
  </div>","100","html-slider-response","40","1375919","0.0-9.0-2.0","166","1","2025-07-02 10:22:53","80fe4187154257d5fb01684ea91b68b9","102.66.193.39","Mozilla/5.0 (Windows NT 10.0; Win64; x64) AppleWebKit/537.36 (KHTML, like Gecko) Chrome/138.0.0.0 Safari/537.36 Edg/138.0.0.0","WebKit","Edge","138.0.0.0","Windows","10.0","https://app.prolific.com/","en-US,en;q=0.9","67f38b0b1f5fe0543c6e66ed","683db6dfa200031b80f2a654","686507667443ad7df7e77180","67f38b0b1f5fe0543c6e66ed","2025-07-02T10:46:17.100Z","","","","","","PreMotivationQ","","","","","","","","","","","","","","","","","","","","","","","","","","","","","","","","","","","","","","50"
"","","","","ctl-task-cpt","41","1405782","0.0-10.0-0.0","166","1","2025-07-02 10:22:53","80fe4187154257d5fb01684ea91b68b9","102.66.193.39","Mozilla/5.0 (Windows NT 10.0; Win64; x64) AppleWebKit/537.36 (KHTML, like Gecko) Chrome/138.0.0.0 Safari/537.36 Edg/138.0.0.0","WebKit","Edge","138.0.0.0","Windows","10.0","https://app.prolific.com/","en-US,en;q=0.9","67f38b0b1f5fe0543c6e66ed","683db6dfa200031b80f2a654","686507667443ad7df7e77180","67f38b0b1f5fe0543c6e66ed","2025-07-02T10:46:46.963Z","","","","","","","","","","","","","","","","win-only","2","g1:SE,g2:NW","1","1","0","1409826.6","5637","10640.5","26847.5","1","4","4","6","2","-4","-4","0","0","0","5003.5","3000","-2300","[""left"",""up""]","{""num_key_presses"":4,""num_perfect"":4,""num_errors"":0,""num_randdir"":0,""num_randdir_good_moves"":0,""num_whilered"":0,""num_whileblue"":0,""num_blue"":0,""num_good_moves"":4}","[298.22232142857143,295.12857142857143,0.5,298.22232142857143,295.12857142857143,104.1,298.22232142857143,295.12857142857143,208.8,298.22232142857143,295.12857142857143,309,298.22232142857143,295.12857142857143,410.8,298.22232142857143,295.12857142857143,516.8,298.22232142857143,295.12857142857143,623.4,298.22232142857143,295.12857142857143,726.1,298.22232142857143,295.12857142857143,826.6,298.22232142857143,295.12857142857143,934.4,316.22232142857143,323.12857142857143,1042.6,335.22232142857143,343.12857142857143,1144.5,343.22232142857143,348.12857142857143,1244.5,345.22232142857143,350.12857142857143,1350.6,345.22232142857143,350.12857142857143,1452.1,345.22232142857143,350.12857142857143,1557.1,345.22232142857143,350.12857142857143,1667.6,345.22232142857143,350.12857142857143,1772.6,345.22232142857143,350.12857142857143,1873.4,345.22232142857143,350.12857142857143,1978.1,345.22232142857143,350.12857142857143,2079.5,345.22232142857143,350.12857142857143,2179.5,345.22232142857143,350.12857142857143,2284.7,345.22232142857143,350.12857142857143,2391.2,345.22232142857143,350.12857142857143,2492.6,345.22232142857143,350.12857142857143,2593.3,345.22232142857143,350.12857142857143,2693.9,345.22232142857143,350.12857142857143,2796.3,345.22232142857143,350.12857142857143,2897,345.22232142857143,350.12857142857143,3002.8,345.22232142857143,350.12857142857143,3110.7,345.22232142857143,350.12857142857143,3215.6,345.22232142857143,350.12857142857143,3318.8,345.22232142857143,350.12857142857143,3420.8,345.22232142857143,350.12857142857143,3528.3,345.22232142857143,350.12857142857143,3628.7,345.22232142857143,350.12857142857143,3729,345.22232142857143,350.12857142857143,3829,345.22232142857143,350.12857142857143,3929.1,345.22232142857143,350.12857142857143,4029.4,345.22232142857143,350.12857142857143,4138.7,345.22232142857143,350.12857142857143,4244.1,345.22232142857143,350.12857142857143,4352.1,345.22232142857143,350.12857142857143,4455.1,345.22232142857143,350.12857142857143,4561.8,345.22232142857143,350.12857142857143,4666.2,345.22232142857143,350.12857142857143,4768.9,345.22232142857143,350.12857142857143,4869.2,345.22232142857143,350.12857142857143,4975.7]","[2070.5,2070.5,1000,0,1070.5,""smooth"",""up"",""up"",""good_move"",6218.3,4147.3,3026.1,2071,1121.2,""smooth"",""left"",""left"",""good_move"",10020.1,3801.4,2918.9,6218.7,882.5,""smooth"",""up"",""up"",""good_move"",13093.4,3073,2262.1,10020.4,810.9,""smooth"",""left"",""left"",""good_move""]","",""
"11580","","<div style=""width:500px;"">
  <p>What determined the result of this run?</p>
  </div>","100","html-slider-response","42","1417364","0.0-10.0-1.0","166","1","2025-07-02 10:22:53","80fe4187154257d5fb01684ea91b68b9","102.66.193.39","Mozilla/5.0 (Windows NT 10.0; Win64; x64) AppleWebKit/537.36 (KHTML, like Gecko) Chrome/138.0.0.0 Safari/537.36 Edg/138.0.0.0","WebKit","Edge","138.0.0.0","Windows","10.0","https://app.prolific.com/","en-US,en;q=0.9","67f38b0b1f5fe0543c6e66ed","683db6dfa200031b80f2a654","686507667443ad7df7e77180","67f38b0b1f5fe0543c6e66ed","2025-07-02T10:46:58.545Z","","","","","","AttribQ","","","","","","","","","","","","","","","","","","","","","","","","","","","","","","","","","","","","","","50"
"10577","","<div style=""width:500px;"">
  <p>How much control did you have over the ball?</p>
  </div>","100","html-slider-response","43","1427946","0.0-10.0-2.0","166","1","2025-07-02 10:22:53","80fe4187154257d5fb01684ea91b68b9","102.66.193.39","Mozilla/5.0 (Windows NT 10.0; Win64; x64) AppleWebKit/537.36 (KHTML, like Gecko) Chrome/138.0.0.0 Safari/537.36 Edg/138.0.0.0","WebKit","Edge","138.0.0.0","Windows","10.0","https://app.prolific.com/","en-US,en;q=0.9","67f38b0b1f5fe0543c6e66ed","683db6dfa200031b80f2a654","686507667443ad7df7e77180","67f38b0b1f5fe0543c6e66ed","2025-07-02T10:47:09.127Z","","","","","","ControlQ","","","","","","","","","","","","","","","","","","","","","","","","","","","","","","","","","","","","","","50"
"8424","","<div style=""width:500px;"">
  <p>How would you describe your current emotional state?</p>
  </div>","82","html-slider-response","44","1436375","0.0-10.0-3.0","166","1","2025-07-02 10:22:53","80fe4187154257d5fb01684ea91b68b9","102.66.193.39","Mozilla/5.0 (Windows NT 10.0; Win64; x64) AppleWebKit/537.36 (KHTML, like Gecko) Chrome/138.0.0.0 Safari/537.36 Edg/138.0.0.0","WebKit","Edge","138.0.0.0","Windows","10.0","https://app.prolific.com/","en-US,en;q=0.9","67f38b0b1f5fe0543c6e66ed","683db6dfa200031b80f2a654","686507667443ad7df7e77180","67f38b0b1f5fe0543c6e66ed","2025-07-02T10:47:17.557Z","","","","","","StressQ","","","","","","","","","","","","","","","","","","","","","","","","","","","","","","","","","","","","","","50"
"22597","","<div style=""width:500px;"">
  <p>What best describes how you currently feel?</p>
  </div>","100","html-slider-response","45","1458978","0.0-10.0-4.0","166","1","2025-07-02 10:22:53","80fe4187154257d5fb01684ea91b68b9","102.66.193.39","Mozilla/5.0 (Windows NT 10.0; Win64; x64) AppleWebKit/537.36 (KHTML, like Gecko) Chrome/138.0.0.0 Safari/537.36 Edg/138.0.0.0","WebKit","Edge","138.0.0.0","Windows","10.0","https://app.prolific.com/","en-US,en;q=0.9","67f38b0b1f5fe0543c6e66ed","683db6dfa200031b80f2a654","686507667443ad7df7e77180","67f38b0b1f5fe0543c6e66ed","2025-07-02T10:47:40.159Z","","","","","","MotivationQ","","","","","","","","","","","","","","","","","","","","","","","","","","","","","","","","","","","","","","50"
"","","","","ctl-task-cpt","46","1492503","0.0-10.0-0.1","166","1","2025-07-02 10:22:53","80fe4187154257d5fb01684ea91b68b9","102.66.193.39","Mozilla/5.0 (Windows NT 10.0; Win64; x64) AppleWebKit/537.36 (KHTML, like Gecko) Chrome/138.0.0.0 Safari/537.36 Edg/138.0.0.0","WebKit","Edge","138.0.0.0","Windows","10.0","https://app.prolific.com/","en-US,en;q=0.9","67f38b0b1f5fe0543c6e66ed","683db6dfa200031b80f2a654","686507667443ad7df7e77180","67f38b0b1f5fe0543c6e66ed","2025-07-02T10:48:13.684Z","","","","","","","","","","","","","","","","win-only","0","g1:NW,g2:SE","0.9","2","0","1492884.4","2440.1","7446.1","30492.7","1","4","8","6","1","1","1","1","0","0.007575757575757576","5005.9","3000","880","[""left"",""up""]","{""num_key_presses"":6,""num_perfect"":5,""num_errors"":0,""num_randdir"":1,""num_randdir_good_moves"":0,""num_whilered"":0,""num_whileblue"":0,""num_blue"":2,""num_good_moves"":5}","[292.22232142857143,295.12857142857143,0.4,292.22232142857143,295.12857142857143,103,292.22232142857143,295.12857142857143,205.7,292.22232142857143,295.12857142857143,311.1,292.22232142857143,295.12857142857143,420.1,292.22232142857143,295.12857142857143,526.1,292.22232142857143,295.12857142857143,627.4,292.22232142857143,295.12857142857143,727.5,278.22232142857143,281.12857142857143,829.2,270.22232142857143,271.12857142857143,930.4,258.22232142857143,262.12857142857143,1032.4,253.22232142857143,262.12857142857143,1138.1,247.22232142857143,262.12857142857143,1244.8,246.22232142857143,261.12857142857143,1351,246.22232142857143,261.12857142857143,1454.7,246.22232142857143,261.12857142857143,1562.7,246.22232142857143,261.12857142857143,1664.4,246.22232142857143,261.12857142857143,1764.5,246.22232142857143,261.12857142857143,1865.4,246.22232142857143,261.12857142857143,1969.3,246.22232142857143,261.12857142857143,2071.1,246.22232142857143,261.12857142857143,2171.7,246.22232142857143,261.12857142857143,2277.9,246.22232142857143,261.12857142857143,2387.3,246.22232142857143,261.12857142857143,2491.4,246.22232142857143,261.12857142857143,2595.6,246.22232142857143,261.12857142857143,2695.9,246.22232142857143,261.12857142857143,2797.1,246.22232142857143,261.12857142857143,2900.8,246.22232142857143,261.12857142857143,3002.6,246.22232142857143,261.12857142857143,3107.5,246.22232142857143,261.12857142857143,3214.2,246.22232142857143,261.12857142857143,3315.2,246.22232142857143,261.12857142857143,3421.2,246.22232142857143,261.12857142857143,3522.5,246.22232142857143,261.12857142857143,3625.5,246.22232142857143,261.12857142857143,3727.4,246.22232142857143,261.12857142857143,3832.4,246.22232142857143,261.12857142857143,3939.3,246.22232142857143,261.12857142857143,4046.1,246.22232142857143,261.12857142857143,4146.5,246.22232142857143,261.12857142857143,4254.9,246.22232142857143,261.12857142857143,4358.7,246.22232142857143,261.12857142857143,4462.3,246.22232142857143,261.12857142857143,4562.8,246.22232142857143,261.12857142857143,4667.5,246.22232142857143,261.12857142857143,4772.8,246.22232142857143,261.12857142857143,4873.5,246.22232142857143,261.12857142857143,4976.3]","[1415.2,1415.2,1000,0,415.2,""smooth"",""up"",""up"",""good_move"",7928.4,6512.4,2540.5,4910.9,477,""smooth"",""up"",""up"",""good_move"",11080.5,3151.9,2802.1,7928.6,349.8,""smooth"",""left"",""left"",""good_move"",13369.7,2288.7,1856.9,11081.1,431.7,""oops"",""left"",""right"",""bad_move"",16812.3,3442.1,2562.1,13370.2,880,""smooth"",""left"",""left"",""good_move"",22920.9,6108.2,2282.9,20333.1,304.9,""smooth"",""left"",""left"",""good_move""]","",""
"5889","","<div style=""width:500px;"">
  <p>What determined the result of this run?</p>
  </div>","100","html-slider-response","47","1498394","0.0-10.0-1.1","166","1","2025-07-02 10:22:53","80fe4187154257d5fb01684ea91b68b9","102.66.193.39","Mozilla/5.0 (Windows NT 10.0; Win64; x64) AppleWebKit/537.36 (KHTML, like Gecko) Chrome/138.0.0.0 Safari/537.36 Edg/138.0.0.0","WebKit","Edge","138.0.0.0","Windows","10.0","https://app.prolific.com/","en-US,en;q=0.9","67f38b0b1f5fe0543c6e66ed","683db6dfa200031b80f2a654","686507667443ad7df7e77180","67f38b0b1f5fe0543c6e66ed","2025-07-02T10:48:19.575Z","","","","","","AttribQ","","","","","","","","","","","","","","","","","","","","","","","","","","","","","","","","","","","","","","50"
"5693","","<div style=""width:500px;"">
  <p>How much control did you have over the ball?</p>
  </div>","100","html-slider-response","48","1504090","0.0-10.0-2.1","166","1","2025-07-02 10:22:53","80fe4187154257d5fb01684ea91b68b9","102.66.193.39","Mozilla/5.0 (Windows NT 10.0; Win64; x64) AppleWebKit/537.36 (KHTML, like Gecko) Chrome/138.0.0.0 Safari/537.36 Edg/138.0.0.0","WebKit","Edge","138.0.0.0","Windows","10.0","https://app.prolific.com/","en-US,en;q=0.9","67f38b0b1f5fe0543c6e66ed","683db6dfa200031b80f2a654","686507667443ad7df7e77180","67f38b0b1f5fe0543c6e66ed","2025-07-02T10:48:25.271Z","","","","","","ControlQ","","","","","","","","","","","","","","","","","","","","","","","","","","","","","","","","","","","","","","50"
"5070","","<div style=""width:500px;"">
  <p>How would you describe your current emotional state?</p>
  </div>","0","html-slider-response","49","1509162","0.0-10.0-3.1","166","1","2025-07-02 10:22:53","80fe4187154257d5fb01684ea91b68b9","102.66.193.39","Mozilla/5.0 (Windows NT 10.0; Win64; x64) AppleWebKit/537.36 (KHTML, like Gecko) Chrome/138.0.0.0 Safari/537.36 Edg/138.0.0.0","WebKit","Edge","138.0.0.0","Windows","10.0","https://app.prolific.com/","en-US,en;q=0.9","67f38b0b1f5fe0543c6e66ed","683db6dfa200031b80f2a654","686507667443ad7df7e77180","67f38b0b1f5fe0543c6e66ed","2025-07-02T10:48:30.343Z","","","","","","StressQ","","","","","","","","","","","","","","","","","","","","","","","","","","","","","","","","","","","","","","50"
"4399","","<div style=""width:500px;"">
  <p>What best describes how you currently feel?</p>
  </div>","100","html-slider-response","50","1513563","0.0-10.0-4.1","166","1","2025-07-02 10:22:53","80fe4187154257d5fb01684ea91b68b9","102.66.193.39","Mozilla/5.0 (Windows NT 10.0; Win64; x64) AppleWebKit/537.36 (KHTML, like Gecko) Chrome/138.0.0.0 Safari/537.36 Edg/138.0.0.0","WebKit","Edge","138.0.0.0","Windows","10.0","https://app.prolific.com/","en-US,en;q=0.9","67f38b0b1f5fe0543c6e66ed","683db6dfa200031b80f2a654","686507667443ad7df7e77180","67f38b0b1f5fe0543c6e66ed","2025-07-02T10:48:34.745Z","","","","","","MotivationQ","","","","","","","","","","","","","","","","","","","","","","","","","","","","","","","","","","","","","","50"
"","","","","ctl-task-cpt","51","1561473","0.0-10.0-0.2","166","1","2025-07-02 10:22:53","80fe4187154257d5fb01684ea91b68b9","102.66.193.39","Mozilla/5.0 (Windows NT 10.0; Win64; x64) AppleWebKit/537.36 (KHTML, like Gecko) Chrome/138.0.0.0 Safari/537.36 Edg/138.0.0.0","WebKit","Edge","138.0.0.0","Windows","10.0","https://app.prolific.com/","en-US,en;q=0.9","67f38b0b1f5fe0543c6e66ed","683db6dfa200031b80f2a654","686507667443ad7df7e77180","67f38b0b1f5fe0543c6e66ed","2025-07-02T10:49:22.654Z","","","","","","","","","","","","","","","","win-only","1","g1:NE,g2:SW","0.8","3","0","1547467.7","2158.4","7159.3","44882.6","1","4","4","6","2","4","4","5","1","0.03787878787878788","5000.9","3000","215","[""down"",""left""]","{""num_key_presses"":8,""num_perfect"":7,""num_errors"":0,""num_randdir"":1,""num_randdir_good_moves"":0,""num_whilered"":0,""num_whileblue"":0,""num_blue"":4,""num_good_moves"":7}","[296.22232142857143,299.12857142857143,0.5,296.22232142857143,299.12857142857143,101.3,296.22232142857143,299.12857142857143,204.8,296.22232142857143,299.12857142857143,308,296.22232142857143,299.12857142857143,410.1,296.22232142857143,299.12857142857143,514,296.22232142857143,299.12857142857143,622.4,296.22232142857143,299.12857142857143,726.9,296.22232142857143,299.12857142857143,827.1,296.22232142857143,299.12857142857143,936.7,296.22232142857143,299.12857142857143,1042.7,381.22232142857143,210.12857142857143,1145.3,441.22232142857143,59.128571428571426,1253.3,441.22232142857143,49.128571428571426,1353.3,419.22232142857143,89.12857142857143,1455.1,404.22232142857143,141.12857142857143,1560.5,392.22232142857143,206.12857142857143,1660.7,384.22232142857143,229.12857142857143,1760.7,355.22232142857143,263.12857142857143,1869.4,346.22232142857143,272.12857142857143,1970.1,346.22232142857143,266.12857142857143,2078.3,346.22232142857143,266.12857142857143,2189.6,346.22232142857143,266.12857142857143,2295.1,346.22232142857143,266.12857142857143,2402.8,346.22232142857143,266.12857142857143,2510.2,346.22232142857143,266.12857142857143,2610.9,346.22232142857143,266.12857142857143,2717.5,346.22232142857143,266.12857142857143,2825.9,346.22232142857143,266.12857142857143,2931.9,346.22232142857143,266.12857142857143,3036.4,346.22232142857143,266.12857142857143,3143.3,346.22232142857143,266.12857142857143,3244.6,346.22232142857143,266.12857142857143,3353,346.22232142857143,266.12857142857143,3453.3,346.22232142857143,266.12857142857143,3554.8,346.22232142857143,266.12857142857143,3660.2,346.22232142857143,266.12857142857143,3764.6,346.22232142857143,266.12857142857143,3873.2,346.22232142857143,266.12857142857143,3974.1,346.22232142857143,266.12857142857143,4076.3,346.22232142857143,266.12857142857143,4178.3,346.22232142857143,266.12857142857143,4286.5,346.22232142857143,266.12857142857143,4391.4,346.22232142857143,266.12857142857143,4495.1,346.22232142857143,266.12857142857143,4599.6,346.22232142857143,266.12857142857143,4706.3,346.22232142857143,266.12857142857143,4812,346.22232142857143,266.12857142857143,4920.2]","[1363.7,1363.7,1000,0,363.8,""smooth"",""down"",""down"",""good_move"",9044.9,7680.6,3443.1,5113.8,488,""smooth"",""down"",""down"",""good_move"",15628.1,6583,2483.5,12716.5,428.1,""smooth"",""left"",""left"",""good_move"",18399.5,2770.9,1963.1,15628.6,807.8,""smooth"",""down"",""down"",""good_move"",21943.8,3544,3077.4,18399.8,466.6,""smooth"",""left"",""left"",""good_move"",28531.5,6587.4,2334.2,25781.1,416.2,""oops"",""left"",""right"",""bad_move"",34817.4,6285.4,2256.7,32190.1,370.6,""smooth"",""left"",""left"",""good_move"",37609.2,2791.6,2210.6,34817.6,581,""smooth"",""left"",""left"",""good_move""]","",""
"6803","","<div style=""width:500px;"">
  <p>What determined the result of this run?</p>
  </div>","100","html-slider-response","52","1568279","0.0-10.0-1.2","166","1","2025-07-02 10:22:53","80fe4187154257d5fb01684ea91b68b9","102.66.193.39","Mozilla/5.0 (Windows NT 10.0; Win64; x64) AppleWebKit/537.36 (KHTML, like Gecko) Chrome/138.0.0.0 Safari/537.36 Edg/138.0.0.0","WebKit","Edge","138.0.0.0","Windows","10.0","https://app.prolific.com/","en-US,en;q=0.9","67f38b0b1f5fe0543c6e66ed","683db6dfa200031b80f2a654","686507667443ad7df7e77180","67f38b0b1f5fe0543c6e66ed","2025-07-02T10:49:29.460Z","","","","","","AttribQ","","","","","","","","","","","","","","","","","","","","","","","","","","","","","","","","","","","","","","50"
"4491","","<div style=""width:500px;"">
  <p>How much control did you have over the ball?</p>
  </div>","100","html-slider-response","53","1572771","0.0-10.0-2.2","166","1","2025-07-02 10:22:53","80fe4187154257d5fb01684ea91b68b9","102.66.193.39","Mozilla/5.0 (Windows NT 10.0; Win64; x64) AppleWebKit/537.36 (KHTML, like Gecko) Chrome/138.0.0.0 Safari/537.36 Edg/138.0.0.0","WebKit","Edge","138.0.0.0","Windows","10.0","https://app.prolific.com/","en-US,en;q=0.9","67f38b0b1f5fe0543c6e66ed","683db6dfa200031b80f2a654","686507667443ad7df7e77180","67f38b0b1f5fe0543c6e66ed","2025-07-02T10:49:33.953Z","","","","","","ControlQ","","","","","","","","","","","","","","","","","","","","","","","","","","","","","","","","","","","","","","50"
"4299","","<div style=""width:500px;"">
  <p>How would you describe your current emotional state?</p>
  </div>","0","html-slider-response","54","1577073","0.0-10.0-3.2","166","1","2025-07-02 10:22:53","80fe4187154257d5fb01684ea91b68b9","102.66.193.39","Mozilla/5.0 (Windows NT 10.0; Win64; x64) AppleWebKit/537.36 (KHTML, like Gecko) Chrome/138.0.0.0 Safari/537.36 Edg/138.0.0.0","WebKit","Edge","138.0.0.0","Windows","10.0","https://app.prolific.com/","en-US,en;q=0.9","67f38b0b1f5fe0543c6e66ed","683db6dfa200031b80f2a654","686507667443ad7df7e77180","67f38b0b1f5fe0543c6e66ed","2025-07-02T10:49:38.254Z","","","","","","StressQ","","","","","","","","","","","","","","","","","","","","","","","","","","","","","","","","","","","","","","50"
"3946","","<div style=""width:500px;"">
  <p>What best describes how you currently feel?</p>
  </div>","100","html-slider-response","55","1581020","0.0-10.0-4.2","166","1","2025-07-02 10:22:53","80fe4187154257d5fb01684ea91b68b9","102.66.193.39","Mozilla/5.0 (Windows NT 10.0; Win64; x64) AppleWebKit/537.36 (KHTML, like Gecko) Chrome/138.0.0.0 Safari/537.36 Edg/138.0.0.0","WebKit","Edge","138.0.0.0","Windows","10.0","https://app.prolific.com/","en-US,en;q=0.9","67f38b0b1f5fe0543c6e66ed","683db6dfa200031b80f2a654","686507667443ad7df7e77180","67f38b0b1f5fe0543c6e66ed","2025-07-02T10:49:42.201Z","","","","","","MotivationQ","","","","","","","","","","","","","","","","","","","","","","","","","","","","","","","","","","","","","","50"
"","","","","ctl-task-cpt","56","1611550","0.0-10.0-0.3","166","1","2025-07-02 10:22:53","80fe4187154257d5fb01684ea91b68b9","102.66.193.39","Mozilla/5.0 (Windows NT 10.0; Win64; x64) AppleWebKit/537.36 (KHTML, like Gecko) Chrome/138.0.0.0 Safari/537.36 Edg/138.0.0.0","WebKit","Edge","138.0.0.0","Windows","10.0","https://app.prolific.com/","en-US,en;q=0.9","67f38b0b1f5fe0543c6e66ed","683db6dfa200031b80f2a654","686507667443ad7df7e77180","67f38b0b1f5fe0543c6e66ed","2025-07-02T10:50:12.731Z","","","","","","","","","","","","","","","","win-only","3","g1:SW,g2:NE","0.7","4","0","1614920.9","1769.8","6771.2","27523.2","1","4","8","6","2","-8","-8","0","5","0","5001.4","3000","-2140","[""up"",""right""]","{""num_key_presses"":5,""num_perfect"":3,""num_errors"":0,""num_randdir"":2,""num_randdir_good_moves"":1,""num_whilered"":0,""num_whileblue"":0,""num_blue"":1,""num_good_moves"":4}","[300.22232142857143,296.12857142857143,0.5,300.22232142857143,296.12857142857143,101.4,300.22232142857143,296.12857142857143,201.9,300.22232142857143,296.12857142857143,308.3,300.22232142857143,296.12857142857143,411.1,300.22232142857143,296.12857142857143,516.4,300.22232142857143,296.12857142857143,625.7,300.22232142857143,296.12857142857143,730.3,300.22232142857143,296.12857142857143,837.9,300.22232142857143,296.12857142857143,942.8,300.22232142857143,296.12857142857143,1051.6,300.22232142857143,296.12857142857143,1151.8,300.22232142857143,296.12857142857143,1258.9,300.22232142857143,296.12857142857143,1361.5,300.22232142857143,296.12857142857143,1468.8,300.22232142857143,296.12857142857143,1569.5,300.22232142857143,296.12857142857143,1673.9,300.22232142857143,296.12857142857143,1785.9,300.22232142857143,296.12857142857143,1891.2,300.22232142857143,296.12857142857143,1992,300.22232142857143,296.12857142857143,2096.4,300.22232142857143,296.12857142857143,2197.1,300.22232142857143,296.12857142857143,2301.3,300.22232142857143,296.12857142857143,2411.9,300.22232142857143,296.12857142857143,2515.6,300.22232142857143,296.12857142857143,2616.2,300.22232142857143,296.12857142857143,2718.3,275.22232142857143,290.12857142857143,2824.7,254.22232142857143,310.12857142857143,2927.5,256.22232142857143,321.12857142857143,3029,256.22232142857143,319.12857142857143,3139.5,256.22232142857143,320.12857142857143,3241.2,247.22232142857143,338.12857142857143,3343.9,243.22232142857143,349.12857142857143,3447,243.22232142857143,349.12857142857143,3551.1,243.22232142857143,349.12857142857143,3653.6,243.22232142857143,349.12857142857143,3761.8,243.22232142857143,349.12857142857143,3862.8,243.22232142857143,349.12857142857143,3969.2,243.22232142857143,349.12857142857143,4070.9,243.22232142857143,349.12857142857143,4176.9,243.22232142857143,349.12857142857143,4284.1,243.22232142857143,349.12857142857143,4384.4,243.22232142857143,349.12857142857143,4485.8,243.22232142857143,349.12857142857143,4593.3,243.22232142857143,349.12857142857143,4705.7,243.22232142857143,349.12857142857143,4812.6,243.22232142857143,349.12857142857143,4917.8]","[2000.1,2000.1,1000,0,1000.1,""smooth"",""up"",""up"",""good_move"",8509.4,6508.6,2471.5,5657.6,380.3,""smooth"",""right"",""right"",""good_move"",11006.7,2496.9,1662.7,8509.8,834.2,""smooth"",""up"",""up"",""good_move"",13878.2,2871.2,2065.2,11007,806,""oops"",""up"",""left"",""bad_move"",17487.7,3609.1,2683.1,13878.6,926.1,""oops"",""up"",""right"",""good_move""]","",""
"14219","","<div style=""width:500px;"">
  <p>What determined the result of this run?</p>
  </div>","0","html-slider-response","57","1625772","0.0-10.0-1.3","166","1","2025-07-02 10:22:53","80fe4187154257d5fb01684ea91b68b9","102.66.193.39","Mozilla/5.0 (Windows NT 10.0; Win64; x64) AppleWebKit/537.36 (KHTML, like Gecko) Chrome/138.0.0.0 Safari/537.36 Edg/138.0.0.0","WebKit","Edge","138.0.0.0","Windows","10.0","https://app.prolific.com/","en-US,en;q=0.9","67f38b0b1f5fe0543c6e66ed","683db6dfa200031b80f2a654","686507667443ad7df7e77180","67f38b0b1f5fe0543c6e66ed","2025-07-02T10:50:26.953Z","","","","","","AttribQ","","","","","","","","","","","","","","","","","","","","","","","","","","","","","","","","","","","","","","50"
"6993","","<div style=""width:500px;"">
  <p>How much control did you have over the ball?</p>
  </div>","0","html-slider-response","58","1632766","0.0-10.0-2.3","166","1","2025-07-02 10:22:53","80fe4187154257d5fb01684ea91b68b9","102.66.193.39","Mozilla/5.0 (Windows NT 10.0; Win64; x64) AppleWebKit/537.36 (KHTML, like Gecko) Chrome/138.0.0.0 Safari/537.36 Edg/138.0.0.0","WebKit","Edge","138.0.0.0","Windows","10.0","https://app.prolific.com/","en-US,en;q=0.9","67f38b0b1f5fe0543c6e66ed","683db6dfa200031b80f2a654","686507667443ad7df7e77180","67f38b0b1f5fe0543c6e66ed","2025-07-02T10:50:33.947Z","","","","","","ControlQ","","","","","","","","","","","","","","","","","","","","","","","","","","","","","","","","","","","","","","50"
"20905","","<div style=""width:500px;"">
  <p>How would you describe your current emotional state?</p>
  </div>","0","html-slider-response","59","1653673","0.0-10.0-3.3","166","1","2025-07-02 10:22:53","80fe4187154257d5fb01684ea91b68b9","102.66.193.39","Mozilla/5.0 (Windows NT 10.0; Win64; x64) AppleWebKit/537.36 (KHTML, like Gecko) Chrome/138.0.0.0 Safari/537.36 Edg/138.0.0.0","WebKit","Edge","138.0.0.0","Windows","10.0","https://app.prolific.com/","en-US,en;q=0.9","67f38b0b1f5fe0543c6e66ed","683db6dfa200031b80f2a654","686507667443ad7df7e77180","67f38b0b1f5fe0543c6e66ed","2025-07-02T10:50:54.855Z","","","","","","StressQ","","","","","","","","","","","","","","","","","","","","","","","","","","","","","","","","","","","","","","50"
"7615","","<div style=""width:500px;"">
  <p>What best describes how you currently feel?</p>
  </div>","100","html-slider-response","60","1661291","0.0-10.0-4.3","166","1","2025-07-02 10:22:53","80fe4187154257d5fb01684ea91b68b9","102.66.193.39","Mozilla/5.0 (Windows NT 10.0; Win64; x64) AppleWebKit/537.36 (KHTML, like Gecko) Chrome/138.0.0.0 Safari/537.36 Edg/138.0.0.0","WebKit","Edge","138.0.0.0","Windows","10.0","https://app.prolific.com/","en-US,en;q=0.9","67f38b0b1f5fe0543c6e66ed","683db6dfa200031b80f2a654","686507667443ad7df7e77180","67f38b0b1f5fe0543c6e66ed","2025-07-02T10:51:02.472Z","","","","","","MotivationQ","","","","","","","","","","","","","","","","","","","","","","","","","","","","","","","","","","","","","","50"
"","","","","ctl-task-cpt","61","1695132","0.0-10.0-0.4","166","1","2025-07-02 10:22:53","80fe4187154257d5fb01684ea91b68b9","102.66.193.39","Mozilla/5.0 (Windows NT 10.0; Win64; x64) AppleWebKit/537.36 (KHTML, like Gecko) Chrome/138.0.0.0 Safari/537.36 Edg/138.0.0.0","WebKit","Edge","138.0.0.0","Windows","10.0","https://app.prolific.com/","en-US,en;q=0.9","67f38b0b1f5fe0543c6e66ed","683db6dfa200031b80f2a654","686507667443ad7df7e77180","67f38b0b1f5fe0543c6e66ed","2025-07-02T10:51:36.314Z","","","","","","","","","","","","","","","","win-only","0","g1:NW,g2:SE","0.6","5","0","1695191.3","2635.3","7644.5","30806.8","1","4","4","6","2","-4","-4","0","0","0","5009.2","3000","-2060","[""down"",""right""]","{""num_key_presses"":7,""num_perfect"":4,""num_errors"":0,""num_randdir"":3,""num_randdir_good_moves"":1,""num_whilered"":0,""num_whileblue"":0,""num_blue"":0,""num_good_moves"":5}","[301.22232142857143,291.12857142857143,0.4,301.22232142857143,291.12857142857143,108.3,301.22232142857143,291.12857142857143,210.5,301.22232142857143,291.12857142857143,311.5,301.22232142857143,291.12857142857143,415.5,301.22232142857143,291.12857142857143,515.7,301.22232142857143,291.12857142857143,622.8,301.22232142857143,291.12857142857143,727.7,301.22232142857143,291.12857142857143,830.4,301.22232142857143,291.12857142857143,931.7,267.22232142857143,270.12857142857143,1032.5,234.22232142857143,256.12857142857143,1137.3,235.22232142857143,246.12857142857143,1237.8,239.22232142857143,245.12857142857143,1342.1,240.22232142857143,245.12857142857143,1449.9,240.22232142857143,245.12857142857143,1550.9,240.22232142857143,245.12857142857143,1655.1,240.22232142857143,245.12857142857143,1757,240.22232142857143,245.12857142857143,1857,240.22232142857143,245.12857142857143,1960.2,240.22232142857143,245.12857142857143,2071.2,240.22232142857143,245.12857142857143,2172.4,240.22232142857143,245.12857142857143,2273.7,240.22232142857143,245.12857142857143,2376.1,240.22232142857143,245.12857142857143,2483.6,240.22232142857143,245.12857142857143,2588.4,240.22232142857143,245.12857142857143,2695.4,240.22232142857143,245.12857142857143,2796.2,240.22232142857143,245.12857142857143,2896.5,240.22232142857143,245.12857142857143,3004.2,240.22232142857143,245.12857142857143,3106.2,240.22232142857143,245.12857142857143,3211.1,240.22232142857143,245.12857142857143,3311.8,240.22232142857143,245.12857142857143,3422.9,240.22232142857143,245.12857142857143,3533.3,240.22232142857143,245.12857142857143,3645,240.22232142857143,245.12857142857143,3756.9,240.22232142857143,245.12857142857143,3861.9,240.22232142857143,245.12857142857143,3964.4,240.22232142857143,245.12857142857143,4065.7,240.22232142857143,245.12857142857143,4171,240.22232142857143,245.12857142857143,4273.5,240.22232142857143,245.12857142857143,4379.6,240.22232142857143,245.12857142857143,4482.2,240.22232142857143,245.12857142857143,4585.3,240.22232142857143,245.12857142857143,4696.9,240.22232142857143,245.12857142857143,4800.8,240.22232142857143,245.12857142857143,4900.8]","[2347.8,2347.8,1000,0,1347.8,""smooth"",""down"",""down"",""good_move"",5861.9,3513.5,3134.5,2348.4,379,""smooth"",""right"",""right"",""good_move"",8985.1,3122.5,2727.3,5862.6,395.2,""oops"",""down"",""down"",""good_move"",11803.5,2818,2368.2,8985.5,449.8,""oops"",""right"",""up"",""bad_move"",15149.7,3345.7,2916.2,11804,429.5,""smooth"",""right"",""right"",""good_move"",17482.1,2332.2,1887.6,15149.9,444.6,""oops"",""down"",""up"",""bad_move"",20242.9,2760.5,2107.5,17482.4,653,""smooth"",""down"",""down"",""good_move""]","",""
"5143","","<div style=""width:500px;"">
  <p>What determined the result of this run?</p>
  </div>","0","html-slider-response","62","1700278","0.0-10.0-1.4","166","1","2025-07-02 10:22:53","80fe4187154257d5fb01684ea91b68b9","102.66.193.39","Mozilla/5.0 (Windows NT 10.0; Win64; x64) AppleWebKit/537.36 (KHTML, like Gecko) Chrome/138.0.0.0 Safari/537.36 Edg/138.0.0.0","WebKit","Edge","138.0.0.0","Windows","10.0","https://app.prolific.com/","en-US,en;q=0.9","67f38b0b1f5fe0543c6e66ed","683db6dfa200031b80f2a654","686507667443ad7df7e77180","67f38b0b1f5fe0543c6e66ed","2025-07-02T10:51:41.459Z","","","","","","AttribQ","","","","","","","","","","","","","","","","","","","","","","","","","","","","","","","","","","","","","","50"
"3753","","<div style=""width:500px;"">
  <p>How much control did you have over the ball?</p>
  </div>","0","html-slider-response","63","1704032","0.0-10.0-2.4","166","1","2025-07-02 10:22:53","80fe4187154257d5fb01684ea91b68b9","102.66.193.39","Mozilla/5.0 (Windows NT 10.0; Win64; x64) AppleWebKit/537.36 (KHTML, like Gecko) Chrome/138.0.0.0 Safari/537.36 Edg/138.0.0.0","WebKit","Edge","138.0.0.0","Windows","10.0","https://app.prolific.com/","en-US,en;q=0.9","67f38b0b1f5fe0543c6e66ed","683db6dfa200031b80f2a654","686507667443ad7df7e77180","67f38b0b1f5fe0543c6e66ed","2025-07-02T10:51:45.213Z","","","","","","ControlQ","","","","","","","","","","","","","","","","","","","","","","","","","","","","","","","","","","","","","","50"
"4377","","<div style=""width:500px;"">
  <p>How would you describe your current emotional state?</p>
  </div>","100","html-slider-response","64","1708410","0.0-10.0-3.4","166","1","2025-07-02 10:22:53","80fe4187154257d5fb01684ea91b68b9","102.66.193.39","Mozilla/5.0 (Windows NT 10.0; Win64; x64) AppleWebKit/537.36 (KHTML, like Gecko) Chrome/138.0.0.0 Safari/537.36 Edg/138.0.0.0","WebKit","Edge","138.0.0.0","Windows","10.0","https://app.prolific.com/","en-US,en;q=0.9","67f38b0b1f5fe0543c6e66ed","683db6dfa200031b80f2a654","686507667443ad7df7e77180","67f38b0b1f5fe0543c6e66ed","2025-07-02T10:51:49.592Z","","","","","","StressQ","","","","","","","","","","","","","","","","","","","","","","","","","","","","","","","","","","","","","","50"
"3488","","<div style=""width:500px;"">
  <p>What best describes how you currently feel?</p>
  </div>","0","html-slider-response","65","1711900","0.0-10.0-4.4","166","1","2025-07-02 10:22:53","80fe4187154257d5fb01684ea91b68b9","102.66.193.39","Mozilla/5.0 (Windows NT 10.0; Win64; x64) AppleWebKit/537.36 (KHTML, like Gecko) Chrome/138.0.0.0 Safari/537.36 Edg/138.0.0.0","WebKit","Edge","138.0.0.0","Windows","10.0","https://app.prolific.com/","en-US,en;q=0.9","67f38b0b1f5fe0543c6e66ed","683db6dfa200031b80f2a654","686507667443ad7df7e77180","67f38b0b1f5fe0543c6e66ed","2025-07-02T10:51:53.081Z","","","","","","MotivationQ","","","","","","","","","","","","","","","","","","","","","","","","","","","","","","","","","","","","","","50"
"","","","","ctl-task-cpt","66","1750493","0.0-10.0-0.5","166","1","2025-07-02 10:22:53","80fe4187154257d5fb01684ea91b68b9","102.66.193.39","Mozilla/5.0 (Windows NT 10.0; Win64; x64) AppleWebKit/537.36 (KHTML, like Gecko) Chrome/138.0.0.0 Safari/537.36 Edg/138.0.0.0","WebKit","Edge","138.0.0.0","Windows","10.0","https://app.prolific.com/","en-US,en;q=0.9","67f38b0b1f5fe0543c6e66ed","683db6dfa200031b80f2a654","686507667443ad7df7e77180","67f38b0b1f5fe0543c6e66ed","2025-07-02T10:52:31.674Z","","","","","","","","","","","","","","","","win-only","1","g1:NE,g2:SW","0.5","6","0","1745800.7","1890.9","6894.5","35564.4","1","4","8","6","2","8","8","8","0","0.06060606060606061","5003.6","3000","705","[""down"",""left""]","{""num_key_presses"":6,""num_perfect"":2,""num_errors"":0,""num_randdir"":4,""num_randdir_good_moves"":4,""num_whilered"":0,""num_whileblue"":0,""num_blue"":3,""num_good_moves"":6}","[301.22232142857143,295.12857142857143,0.4,301.22232142857143,295.12857142857143,105.5,301.22232142857143,295.12857142857143,210.1,301.22232142857143,295.12857142857143,315.7,301.22232142857143,295.12857142857143,416,301.22232142857143,295.12857142857143,521.1,301.22232142857143,295.12857142857143,625.5,301.22232142857143,295.12857142857143,725.9,340.22232142857143,274.12857142857143,835.3,359.22232142857143,252.12857142857143,937,367.22232142857143,241.12857142857143,1039.6,366.22232142857143,242.12857142857143,1141.2,354.22232142857143,244.12857142857143,1244.2,354.22232142857143,244.12857142857143,1344.7,354.22232142857143,244.12857142857143,1450.4,354.22232142857143,244.12857142857143,1550.7,354.22232142857143,244.12857142857143,1653,354.22232142857143,244.12857142857143,1755.4,354.22232142857143,244.12857142857143,1866.9,354.22232142857143,244.12857142857143,1970.4,354.22232142857143,244.12857142857143,2076.6,354.22232142857143,244.12857142857143,2184.7,354.22232142857143,244.12857142857143,2290,354.22232142857143,244.12857142857143,2394.8,354.22232142857143,244.12857142857143,2496.8,354.22232142857143,244.12857142857143,2601.2,354.22232142857143,244.12857142857143,2715.3,354.22232142857143,244.12857142857143,2829.7,354.22232142857143,244.12857142857143,2933.1,354.22232142857143,244.12857142857143,3034.2,354.22232142857143,244.12857142857143,3147.9,354.22232142857143,244.12857142857143,3252.6,354.22232142857143,244.12857142857143,3353.7,354.22232142857143,244.12857142857143,3454.9,354.22232142857143,244.12857142857143,3556.3,354.22232142857143,244.12857142857143,3665.4,354.22232142857143,244.12857142857143,3767.7,354.22232142857143,244.12857142857143,3872.1,354.22232142857143,244.12857142857143,3975.4,354.22232142857143,244.12857142857143,4081.9,354.22232142857143,244.12857142857143,4184.8,354.22232142857143,244.12857142857143,4298.5,354.22232142857143,244.12857142857143,4399.4,354.22232142857143,244.12857142857143,4508.8,354.22232142857143,244.12857142857143,4611.1,354.22232142857143,244.12857142857143,4711.8,354.22232142857143,244.12857142857143,4820.2,354.22232142857143,244.12857142857143,4921.6]","[1451.3,1451.3,1000,0,451.3,""smooth"",""down"",""down"",""good_move"",10922.2,9470.1,2575.8,7719.5,626.9,""oops"",""down"",""left"",""good_move"",14760.9,3837.8,2966.8,10923.1,871,""oops"",""left"",""down"",""good_move"",17650.2,2888.8,2326,14761.4,562.8,""oops"",""down"",""left"",""good_move"",20950.3,3299.3,2935.5,17651,363.8,""oops"",""down"",""left"",""good_move"",28540.8,7590.2,3423,24755.5,362.3,""smooth"",""down"",""down"",""good_move""]","",""
"4313","","<div style=""width:500px;"">
  <p>What determined the result of this run?</p>
  </div>","100","html-slider-response","67","1754809","0.0-10.0-1.5","166","1","2025-07-02 10:22:53","80fe4187154257d5fb01684ea91b68b9","102.66.193.39","Mozilla/5.0 (Windows NT 10.0; Win64; x64) AppleWebKit/537.36 (KHTML, like Gecko) Chrome/138.0.0.0 Safari/537.36 Edg/138.0.0.0","WebKit","Edge","138.0.0.0","Windows","10.0","https://app.prolific.com/","en-US,en;q=0.9","67f38b0b1f5fe0543c6e66ed","683db6dfa200031b80f2a654","686507667443ad7df7e77180","67f38b0b1f5fe0543c6e66ed","2025-07-02T10:52:35.991Z","","","","","","AttribQ","","","","","","","","","","","","","","","","","","","","","","","","","","","","","","","","","","","","","","50"
"8451","","<div style=""width:500px;"">
  <p>How much control did you have over the ball?</p>
  </div>","0","html-slider-response","68","1763262","0.0-10.0-2.5","166","1","2025-07-02 10:22:53","80fe4187154257d5fb01684ea91b68b9","102.66.193.39","Mozilla/5.0 (Windows NT 10.0; Win64; x64) AppleWebKit/537.36 (KHTML, like Gecko) Chrome/138.0.0.0 Safari/537.36 Edg/138.0.0.0","WebKit","Edge","138.0.0.0","Windows","10.0","https://app.prolific.com/","en-US,en;q=0.9","67f38b0b1f5fe0543c6e66ed","683db6dfa200031b80f2a654","686507667443ad7df7e77180","67f38b0b1f5fe0543c6e66ed","2025-07-02T10:52:44.443Z","","","","","","ControlQ","","","","","","","","","","","","","","","","","","","","","","","","","","","","","","","","","","","","","","50"
"6383","","<div style=""width:500px;"">
  <p>How would you describe your current emotional state?</p>
  </div>","0","html-slider-response","69","1769646","0.0-10.0-3.5","166","1","2025-07-02 10:22:53","80fe4187154257d5fb01684ea91b68b9","102.66.193.39","Mozilla/5.0 (Windows NT 10.0; Win64; x64) AppleWebKit/537.36 (KHTML, like Gecko) Chrome/138.0.0.0 Safari/537.36 Edg/138.0.0.0","WebKit","Edge","138.0.0.0","Windows","10.0","https://app.prolific.com/","en-US,en;q=0.9","67f38b0b1f5fe0543c6e66ed","683db6dfa200031b80f2a654","686507667443ad7df7e77180","67f38b0b1f5fe0543c6e66ed","2025-07-02T10:52:50.828Z","","","","","","StressQ","","","","","","","","","","","","","","","","","","","","","","","","","","","","","","","","","","","","","","50"
"3366","","<div style=""width:500px;"">
  <p>What best describes how you currently feel?</p>
  </div>","100","html-slider-response","70","1773014","0.0-10.0-4.5","166","1","2025-07-02 10:22:53","80fe4187154257d5fb01684ea91b68b9","102.66.193.39","Mozilla/5.0 (Windows NT 10.0; Win64; x64) AppleWebKit/537.36 (KHTML, like Gecko) Chrome/138.0.0.0 Safari/537.36 Edg/138.0.0.0","WebKit","Edge","138.0.0.0","Windows","10.0","https://app.prolific.com/","en-US,en;q=0.9","67f38b0b1f5fe0543c6e66ed","683db6dfa200031b80f2a654","686507667443ad7df7e77180","67f38b0b1f5fe0543c6e66ed","2025-07-02T10:52:54.195Z","","","","","","MotivationQ","","","","","","","","","","","","","","","","","","","","","","","","","","","","","","","","","","","","","","50"
"","","","","ctl-task-cpt","71","1804353","0.0-10.0-0.6","166","1","2025-07-02 10:22:53","80fe4187154257d5fb01684ea91b68b9","102.66.193.39","Mozilla/5.0 (Windows NT 10.0; Win64; x64) AppleWebKit/537.36 (KHTML, like Gecko) Chrome/138.0.0.0 Safari/537.36 Edg/138.0.0.0","WebKit","Edge","138.0.0.0","Windows","10.0","https://app.prolific.com/","en-US,en;q=0.9","67f38b0b1f5fe0543c6e66ed","683db6dfa200031b80f2a654","686507667443ad7df7e77180","67f38b0b1f5fe0543c6e66ed","2025-07-02T10:53:25.534Z","","","","","","","","","","","","","","","","win-only","1","g1:NE,g2:SW","0.4","7","0","1806914.8","1694.6","6706.1","28310.9","1","4","8","6","2","-8","-9","0","8","0","5011.5","3000","-1975","[""down"",""left""]","{""num_key_presses"":5,""num_perfect"":1,""num_errors"":1,""num_randdir"":3,""num_randdir_good_moves"":2,""num_whilered"":0,""num_whileblue"":1,""num_blue"":2,""num_good_moves"":3}","[299.22232142857143,299.12857142857143,0.5,299.22232142857143,299.12857142857143,101.4,299.22232142857143,299.12857142857143,201.8,299.22232142857143,299.12857142857143,305.3,299.22232142857143,299.12857142857143,412,299.22232142857143,299.12857142857143,512,299.22232142857143,299.12857142857143,615.4,299.22232142857143,299.12857142857143,718.1,317.22232142857143,289.12857142857143,828.6,425.22232142857143,218.12857142857143,939.1,425.22232142857143,216.12857142857143,1040.8,424.22232142857143,216.12857142857143,1144.4,351.22232142857143,241.12857142857143,2228.4,351.22232142857143,241.12857142857143,2335.9,351.22232142857143,241.12857142857143,2436.7,351.22232142857143,241.12857142857143,2545.8,351.22232142857143,241.12857142857143,2648.4,351.22232142857143,241.12857142857143,2748.4,351.22232142857143,241.12857142857143,2848.6,351.22232142857143,241.12857142857143,2950.7,351.22232142857143,241.12857142857143,3056.1,351.22232142857143,241.12857142857143,3157.8,351.22232142857143,241.12857142857143,3262.5,351.22232142857143,241.12857142857143,3365.3,351.22232142857143,241.12857142857143,3467.5,351.22232142857143,241.12857142857143,3568.9,351.22232142857143,241.12857142857143,3672.2,351.22232142857143,241.12857142857143,3779,351.22232142857143,241.12857142857143,3881.4,351.22232142857143,241.12857142857143,3983.5,351.22232142857143,241.12857142857143,4095.9,351.22232142857143,241.12857142857143,4196,351.22232142857143,241.12857142857143,4299.1,351.22232142857143,241.12857142857143,4401.7,351.22232142857143,241.12857142857143,4509.7,351.22232142857143,241.12857142857143,4611.8,351.22232142857143,241.12857142857143,4719.3,351.22232142857143,241.12857142857143,4827.4,351.22232142857143,241.12857142857143,4932.5]","[1817.3,1817.3,1000,0,817.3,""smooth"",""down"",""down"",""good_move"",5429.8,3611.7,2851,1818.1,760.7,""oops"",""left"",""down"",""good_move"",7988,2557.9,1783.8,5430.1,774.1,""oops"",""down"",""down"",""good_move"",10692.2,2703.9,2300.2,7988.3,403.7,""while_blue"",""left"",""right"",""bad_move"",18574.1,7880.3,2808.4,13857.1,1908.6,""oops"",""left"",""up"",""bad_move""]","",""
"8906","","<div style=""width:500px;"">
  <p>What determined the result of this run?</p>
  </div>","100","html-slider-response","72","1813261","0.0-10.0-1.6","166","1","2025-07-02 10:22:53","80fe4187154257d5fb01684ea91b68b9","102.66.193.39","Mozilla/5.0 (Windows NT 10.0; Win64; x64) AppleWebKit/537.36 (KHTML, like Gecko) Chrome/138.0.0.0 Safari/537.36 Edg/138.0.0.0","WebKit","Edge","138.0.0.0","Windows","10.0","https://app.prolific.com/","en-US,en;q=0.9","67f38b0b1f5fe0543c6e66ed","683db6dfa200031b80f2a654","686507667443ad7df7e77180","67f38b0b1f5fe0543c6e66ed","2025-07-02T10:53:34.442Z","","","","","","AttribQ","","","","","","","","","","","","","","","","","","","","","","","","","","","","","","","","","","","","","","50"
"6168","","<div style=""width:500px;"">
  <p>How much control did you have over the ball?</p>
  </div>","100","html-slider-response","73","1819431","0.0-10.0-2.6","166","1","2025-07-02 10:22:53","80fe4187154257d5fb01684ea91b68b9","102.66.193.39","Mozilla/5.0 (Windows NT 10.0; Win64; x64) AppleWebKit/537.36 (KHTML, like Gecko) Chrome/138.0.0.0 Safari/537.36 Edg/138.0.0.0","WebKit","Edge","138.0.0.0","Windows","10.0","https://app.prolific.com/","en-US,en;q=0.9","67f38b0b1f5fe0543c6e66ed","683db6dfa200031b80f2a654","686507667443ad7df7e77180","67f38b0b1f5fe0543c6e66ed","2025-07-02T10:53:40.612Z","","","","","","ControlQ","","","","","","","","","","","","","","","","","","","","","","","","","","","","","","","","","","","","","","50"
"4921","","<div style=""width:500px;"">
  <p>How would you describe your current emotional state?</p>
  </div>","100","html-slider-response","74","1824354","0.0-10.0-3.6","166","1","2025-07-02 10:22:53","80fe4187154257d5fb01684ea91b68b9","102.66.193.39","Mozilla/5.0 (Windows NT 10.0; Win64; x64) AppleWebKit/537.36 (KHTML, like Gecko) Chrome/138.0.0.0 Safari/537.36 Edg/138.0.0.0","WebKit","Edge","138.0.0.0","Windows","10.0","https://app.prolific.com/","en-US,en;q=0.9","67f38b0b1f5fe0543c6e66ed","683db6dfa200031b80f2a654","686507667443ad7df7e77180","67f38b0b1f5fe0543c6e66ed","2025-07-02T10:53:45.535Z","","","","","","StressQ","","","","","","","","","","","","","","","","","","","","","","","","","","","","","","","","","","","","","","50"
"4371","","<div style=""width:500px;"">
  <p>What best describes how you currently feel?</p>
  </div>","100","html-slider-response","75","1828727","0.0-10.0-4.6","166","1","2025-07-02 10:22:53","80fe4187154257d5fb01684ea91b68b9","102.66.193.39","Mozilla/5.0 (Windows NT 10.0; Win64; x64) AppleWebKit/537.36 (KHTML, like Gecko) Chrome/138.0.0.0 Safari/537.36 Edg/138.0.0.0","WebKit","Edge","138.0.0.0","Windows","10.0","https://app.prolific.com/","en-US,en;q=0.9","67f38b0b1f5fe0543c6e66ed","683db6dfa200031b80f2a654","686507667443ad7df7e77180","67f38b0b1f5fe0543c6e66ed","2025-07-02T10:53:49.908Z","","","","","","MotivationQ","","","","","","","","","","","","","","","","","","","","","","","","","","","","","","","","","","","","","","50"
"","","","","ctl-task-cpt","76","1882893","0.0-10.0-0.7","166","1","2025-07-02 10:22:53","80fe4187154257d5fb01684ea91b68b9","102.66.193.39","Mozilla/5.0 (Windows NT 10.0; Win64; x64) AppleWebKit/537.36 (KHTML, like Gecko) Chrome/138.0.0.0 Safari/537.36 Edg/138.0.0.0","WebKit","Edge","138.0.0.0","Windows","10.0","https://app.prolific.com/","en-US,en;q=0.9","67f38b0b1f5fe0543c6e66ed","683db6dfa200031b80f2a654","686507667443ad7df7e77180","67f38b0b1f5fe0543c6e66ed","2025-07-02T10:54:44.074Z","","","","","","","","","","","","","","","","win-only","0","g1:NW,g2:SE","0.3","8","0","1862628.1","2181.1","7195.5","51151.6","1","4","4","6","1","-1","-1","0","0","0","5014.4","3000","-1950","[""left"",""up""]","{""num_key_presses"":8,""num_perfect"":1,""num_errors"":0,""num_randdir"":7,""num_randdir_good_moves"":3,""num_whilered"":0,""num_whileblue"":0,""num_blue"":4,""num_good_moves"":4}","[296.22232142857143,301.12857142857143,0.4,296.22232142857143,301.12857142857143,114.4,296.22232142857143,301.12857142857143,221.4,296.22232142857143,301.12857142857143,332.6,296.22232142857143,301.12857142857143,437,296.22232142857143,301.12857142857143,538.6,296.22232142857143,301.12857142857143,648.6,296.22232142857143,301.12857142857143,749.6,277.22232142857143,290.12857142857143,853.1,273.22232142857143,270.12857142857143,958.3,261.22232142857143,259.12857142857143,1062.7,249.22232142857143,255.12857142857143,1172.1,238.22232142857143,254.12857142857143,1281.8,238.22232142857143,254.12857142857143,1386.3,238.22232142857143,254.12857142857143,1492.7,238.22232142857143,254.12857142857143,1598.6,238.22232142857143,254.12857142857143,1703.6,238.22232142857143,254.12857142857143,1807.6,238.22232142857143,254.12857142857143,1928.1,238.22232142857143,254.12857142857143,2029.6,238.22232142857143,254.12857142857143,2139.5,238.22232142857143,254.12857142857143,2250.8,238.22232142857143,254.12857142857143,2351.7,238.22232142857143,254.12857142857143,2457.7,238.22232142857143,254.12857142857143,2581.5,238.22232142857143,254.12857142857143,2689.3,238.22232142857143,254.12857142857143,2805,238.22232142857143,254.12857142857143,2912.9,238.22232142857143,254.12857142857143,3016,238.22232142857143,254.12857142857143,3116.2,238.22232142857143,254.12857142857143,3219.5,238.22232142857143,254.12857142857143,3321.5,238.22232142857143,254.12857142857143,3437.5,238.22232142857143,254.12857142857143,3544,238.22232142857143,254.12857142857143,3646,238.22232142857143,254.12857142857143,3747.8,238.22232142857143,254.12857142857143,3850,238.22232142857143,254.12857142857143,3955.4,238.22232142857143,254.12857142857143,4055.7,238.22232142857143,254.12857142857143,4158.4,238.22232142857143,254.12857142857143,4259.4,238.22232142857143,254.12857142857143,4361.6,238.22232142857143,254.12857142857143,4477.7,238.22232142857143,254.12857142857143,4583.1,238.22232142857143,254.12857142857143,4684.8,238.22232142857143,254.12857142857143,4785.7,238.22232142857143,254.12857142857143,4888.4,238.22232142857143,254.12857142857143,4988.4]","[1622.7,1622.7,1000,0,622.7,""oops"",""up"",""down"",""bad_move"",5807,4183.5,2229.5,1623.5,1954,""oops"",""left"",""up"",""good_move"",12654,6846.5,2597.4,9645.3,411.3,""oops"",""left"",""right"",""bad_move"",16024.9,3370.6,2677,12654.5,693.5,""oops"",""up"",""up"",""good_move"",22125.8,6100.4,2018.8,19468.8,638.2,""oops"",""up"",""right"",""bad_move"",25383.8,3257.7,2256.9,22126.1,1000.8,""oops"",""up"",""left"",""good_move"",30387.4,5003.2,2273.5,25384.3,2729.7,""smooth"",""left"",""left"",""good_move"",37406.1,7018.3,2763,34205.8,437.4,""oops"",""left"",""right"",""bad_move""]","",""
"17253","","<div style=""width:500px;"">
  <p>What determined the result of this run?</p>
  </div>","0","html-slider-response","77","1900148","0.0-10.0-1.7","166","1","2025-07-02 10:22:53","80fe4187154257d5fb01684ea91b68b9","102.66.193.39","Mozilla/5.0 (Windows NT 10.0; Win64; x64) AppleWebKit/537.36 (KHTML, like Gecko) Chrome/138.0.0.0 Safari/537.36 Edg/138.0.0.0","WebKit","Edge","138.0.0.0","Windows","10.0","https://app.prolific.com/","en-US,en;q=0.9","67f38b0b1f5fe0543c6e66ed","683db6dfa200031b80f2a654","686507667443ad7df7e77180","67f38b0b1f5fe0543c6e66ed","2025-07-02T10:55:01.329Z","","","","","","AttribQ","","","","","","","","","","","","","","","","","","","","","","","","","","","","","","","","","","","","","","50"
"5276","","<div style=""width:500px;"">
  <p>How much control did you have over the ball?</p>
  </div>","0","html-slider-response","78","1905428","0.0-10.0-2.7","166","1","2025-07-02 10:22:53","80fe4187154257d5fb01684ea91b68b9","102.66.193.39","Mozilla/5.0 (Windows NT 10.0; Win64; x64) AppleWebKit/537.36 (KHTML, like Gecko) Chrome/138.0.0.0 Safari/537.36 Edg/138.0.0.0","WebKit","Edge","138.0.0.0","Windows","10.0","https://app.prolific.com/","en-US,en;q=0.9","67f38b0b1f5fe0543c6e66ed","683db6dfa200031b80f2a654","686507667443ad7df7e77180","67f38b0b1f5fe0543c6e66ed","2025-07-02T10:55:06.609Z","","","","","","ControlQ","","","","","","","","","","","","","","","","","","","","","","","","","","","","","","","","","","","","","","50"
"4128","","<div style=""width:500px;"">
  <p>How would you describe your current emotional state?</p>
  </div>","100","html-slider-response","79","1909558","0.0-10.0-3.7","166","1","2025-07-02 10:22:53","80fe4187154257d5fb01684ea91b68b9","102.66.193.39","Mozilla/5.0 (Windows NT 10.0; Win64; x64) AppleWebKit/537.36 (KHTML, like Gecko) Chrome/138.0.0.0 Safari/537.36 Edg/138.0.0.0","WebKit","Edge","138.0.0.0","Windows","10.0","https://app.prolific.com/","en-US,en;q=0.9","67f38b0b1f5fe0543c6e66ed","683db6dfa200031b80f2a654","686507667443ad7df7e77180","67f38b0b1f5fe0543c6e66ed","2025-07-02T10:55:10.739Z","","","","","","StressQ","","","","","","","","","","","","","","","","","","","","","","","","","","","","","","","","","","","","","","50"
"4643","","<div style=""width:500px;"">
  <p>What best describes how you currently feel?</p>
  </div>","100","html-slider-response","80","1914204","0.0-10.0-4.7","166","1","2025-07-02 10:22:53","80fe4187154257d5fb01684ea91b68b9","102.66.193.39","Mozilla/5.0 (Windows NT 10.0; Win64; x64) AppleWebKit/537.36 (KHTML, like Gecko) Chrome/138.0.0.0 Safari/537.36 Edg/138.0.0.0","WebKit","Edge","138.0.0.0","Windows","10.0","https://app.prolific.com/","en-US,en;q=0.9","67f38b0b1f5fe0543c6e66ed","683db6dfa200031b80f2a654","686507667443ad7df7e77180","67f38b0b1f5fe0543c6e66ed","2025-07-02T10:55:15.385Z","","","","","","MotivationQ","","","","","","","","","","","","","","","","","","","","","","","","","","","","","","","","","","","","","","50"
"","","","","ctl-task-cpt","81","1942728","0.0-10.0-0.8","166","1","2025-07-02 10:22:53","80fe4187154257d5fb01684ea91b68b9","102.66.193.39","Mozilla/5.0 (Windows NT 10.0; Win64; x64) AppleWebKit/537.36 (KHTML, like Gecko) Chrome/138.0.0.0 Safari/537.36 Edg/138.0.0.0","WebKit","Edge","138.0.0.0","Windows","10.0","https://app.prolific.com/","en-US,en;q=0.9","67f38b0b1f5fe0543c6e66ed","683db6dfa200031b80f2a654","686507667443ad7df7e77180","67f38b0b1f5fe0543c6e66ed","2025-07-02T10:55:43.909Z","","","","","","","","","","","","","","","","win-only","1","g1:NE,g2:SW","0.4","9","0","1948106","1756.2","6760.8","25492.8","1","4","8","6","1","1","1","1","0","0.007575757575757576","5004.6","3000","1740","[""up"",""right""]","{""num_key_presses"":4,""num_perfect"":2,""num_errors"":0,""num_randdir"":2,""num_randdir_good_moves"":2,""num_whilered"":0,""num_whileblue"":0,""num_blue"":2,""num_good_moves"":4}","[301.22232142857143,296.12857142857143,0.1,301.22232142857143,296.12857142857143,126.3,301.22232142857143,296.12857142857143,239.3,301.22232142857143,296.12857142857143,357.2,301.22232142857143,296.12857142857143,468.8,301.22232142857143,296.12857142857143,588.9,301.22232142857143,296.12857142857143,712.3,347.22232142857143,287.12857142857143,813.9,352.22232142857143,268.12857142857143,916.8,346.22232142857143,258.12857142857143,1017,345.22232142857143,256.12857142857143,1124.4,345.22232142857143,255.12857142857143,1225.5,345.22232142857143,254.12857142857143,1332.9,345.22232142857143,254.12857142857143,1434.8,345.22232142857143,254.12857142857143,1540.9,345.22232142857143,254.12857142857143,1642.8,345.22232142857143,254.12857142857143,1747.9,345.22232142857143,254.12857142857143,1851.2,345.22232142857143,254.12857142857143,1956.1,345.22232142857143,254.12857142857143,2058.4,345.22232142857143,254.12857142857143,2162.3,345.22232142857143,254.12857142857143,2265,345.22232142857143,254.12857142857143,2366.5,345.22232142857143,254.12857142857143,2471.6,345.22232142857143,254.12857142857143,2572.9,345.22232142857143,254.12857142857143,2677.7,345.22232142857143,254.12857142857143,2782.1,345.22232142857143,254.12857142857143,2883.8,345.22232142857143,254.12857142857143,2987.5,345.22232142857143,254.12857142857143,3091,345.22232142857143,254.12857142857143,3195.7,345.22232142857143,254.12857142857143,3295.8,345.22232142857143,254.12857142857143,3403.5,345.22232142857143,254.12857142857143,3505.2,345.22232142857143,254.12857142857143,3608.1,345.22232142857143,254.12857142857143,3717,345.22232142857143,254.12857142857143,3822.1,345.22232142857143,254.12857142857143,3924.9,345.22232142857143,254.12857142857143,4042.9,345.22232142857143,254.12857142857143,4150.6,345.22232142857143,254.12857142857143,4252.4,345.22232142857143,254.12857142857143,4358.3,345.22232142857143,254.12857142857143,4463.1,345.22232142857143,254.12857142857143,4575.1,345.22232142857143,254.12857142857143,4677,345.22232142857143,254.12857142857143,4781,345.22232142857143,254.12857142857143,4881.2,345.22232142857143,254.12857142857143,4982.4]","[1515.1,1515.1,1000,0,515.1,""oops"",""up"",""right"",""good_move"",4235.2,2719.1,2063.9,1516.1,655.2,""smooth"",""right"",""right"",""good_move"",7533.5,3298,2861.8,4235.5,436.2,""oops"",""up"",""up"",""good_move"",18575.5,11041.7,2771.4,15379.9,424.3,""smooth"",""up"",""up"",""good_move""]","",""
"4725","","<div style=""width:500px;"">
  <p>What determined the result of this run?</p>
  </div>","0","html-slider-response","82","1947454","0.0-10.0-1.8","166","1","2025-07-02 10:22:53","80fe4187154257d5fb01684ea91b68b9","102.66.193.39","Mozilla/5.0 (Windows NT 10.0; Win64; x64) AppleWebKit/537.36 (KHTML, like Gecko) Chrome/138.0.0.0 Safari/537.36 Edg/138.0.0.0","WebKit","Edge","138.0.0.0","Windows","10.0","https://app.prolific.com/","en-US,en;q=0.9","67f38b0b1f5fe0543c6e66ed","683db6dfa200031b80f2a654","686507667443ad7df7e77180","67f38b0b1f5fe0543c6e66ed","2025-07-02T10:55:48.636Z","","","","","","AttribQ","","","","","","","","","","","","","","","","","","","","","","","","","","","","","","","","","","","","","","50"
"4823","","<div style=""width:500px;"">
  <p>How much control did you have over the ball?</p>
  </div>","100","html-slider-response","83","1952280","0.0-10.0-2.8","166","1","2025-07-02 10:22:53","80fe4187154257d5fb01684ea91b68b9","102.66.193.39","Mozilla/5.0 (Windows NT 10.0; Win64; x64) AppleWebKit/537.36 (KHTML, like Gecko) Chrome/138.0.0.0 Safari/537.36 Edg/138.0.0.0","WebKit","Edge","138.0.0.0","Windows","10.0","https://app.prolific.com/","en-US,en;q=0.9","67f38b0b1f5fe0543c6e66ed","683db6dfa200031b80f2a654","686507667443ad7df7e77180","67f38b0b1f5fe0543c6e66ed","2025-07-02T10:55:53.461Z","","","","","","ControlQ","","","","","","","","","","","","","","","","","","","","","","","","","","","","","","","","","","","","","","50"
"3610","","<div style=""width:500px;"">
  <p>How would you describe your current emotional state?</p>
  </div>","0","html-slider-response","84","1955892","0.0-10.0-3.8","166","1","2025-07-02 10:22:53","80fe4187154257d5fb01684ea91b68b9","102.66.193.39","Mozilla/5.0 (Windows NT 10.0; Win64; x64) AppleWebKit/537.36 (KHTML, like Gecko) Chrome/138.0.0.0 Safari/537.36 Edg/138.0.0.0","WebKit","Edge","138.0.0.0","Windows","10.0","https://app.prolific.com/","en-US,en;q=0.9","67f38b0b1f5fe0543c6e66ed","683db6dfa200031b80f2a654","686507667443ad7df7e77180","67f38b0b1f5fe0543c6e66ed","2025-07-02T10:55:57.073Z","","","","","","StressQ","","","","","","","","","","","","","","","","","","","","","","","","","","","","","","","","","","","","","","50"
"3755","","<div style=""width:500px;"">
  <p>What best describes how you currently feel?</p>
  </div>","100","html-slider-response","85","1959649","0.0-10.0-4.8","166","1","2025-07-02 10:22:53","80fe4187154257d5fb01684ea91b68b9","102.66.193.39","Mozilla/5.0 (Windows NT 10.0; Win64; x64) AppleWebKit/537.36 (KHTML, like Gecko) Chrome/138.0.0.0 Safari/537.36 Edg/138.0.0.0","WebKit","Edge","138.0.0.0","Windows","10.0","https://app.prolific.com/","en-US,en;q=0.9","67f38b0b1f5fe0543c6e66ed","683db6dfa200031b80f2a654","686507667443ad7df7e77180","67f38b0b1f5fe0543c6e66ed","2025-07-02T10:56:00.830Z","","","","","","MotivationQ","","","","","","","","","","","","","","","","","","","","","","","","","","","","","","","","","","","","","","50"
