"rt","response_timestamp","stimulus","response","trial_type","trial_index","time_elapsed","internal_node_id","run_id","condition","recorded_at","source_code_version","ip","user_agent","device","browser","browser_version","platform","platform_version","referer","accept_language","PROLIFIC_PID","STUDY_ID","SESSION_ID","prolific_id","realtime","view_history","question_order","consent","success","question_id","eventType","responses","item_order","radio_event_ids","radio_event_times","key_event_times","mouse_event_times","straightlining","zigzagging","honeypot","which_type","canvas_config","goals_layout","control_level","trial_number","tutorial_trial_number","trial_start_time","phase1_start_time","phase2_start_time","phase3_start_time","goal_1_value","goal_1_distance","goal_2_value","goal_2_distance","goal_selected","outcome","outcome_total","participant_final_score","participant_initial_score","participant_final_score_prop","goal_choice_rt","allocated_time","allocated_time_remaining","goal_direction","counts","mouse_movements","key_presses","correct","slider_start"
"43727","1751459507802","<p style='font-size:40px;line-height:1.25'><strong>Welcome to the experiment!</strong></p><p style='font-size:1.1em;line-height:1.25'>Thank you for your interest in our experiment! Before you begin, it is important that we obtain your informed consent to participate in the study.</p><p style='font-size:1.1em;line-height:1.25'>On the next screen will be an <strong>information sheet</strong> for you to read. To participate in the study we need you to read this information sheet and the following consent form carefully. If you agree with all the statements, please click the <strong>I agree</strong> button.</p><p style='font-size:1.1em;line-height:1.25'>Press <strong>Next</strong> to read the information sheet.</p>","0","custom-html-button-response","0","43733","0.0-0.0","252","1","2025-07-02 12:31:02","80fe4187154257d5fb01684ea91b68b9","41.114.83.212","Mozilla/5.0 (Windows NT 10.0; Win64; x64) AppleWebKit/537.36 (KHTML, like Gecko) Chrome/137.0.0.0 Safari/537.36","WebKit","Chrome","137.0.0.0","Windows","10.0","https://app.prolific.com/","en-ZA,en-GB;q=0.9,en-US;q=0.8,en;q=0.7","67fa89d6790924c25e5ffb8e","683db6dfa200031b80f2a654","68652650d57375e2aefad3e1","67fa89d6790924c25e5ffb8e","2025-07-02T12:31:47.803Z","","","","","","","","","","","","","","","","","","","","","","","","","","","","","","","","","","","","","","","","","","","",""
"66177","","","","instructions","1","109911","0.0-1.0","252","1","2025-07-02 12:31:02","80fe4187154257d5fb01684ea91b68b9","41.114.83.212","Mozilla/5.0 (Windows NT 10.0; Win64; x64) AppleWebKit/537.36 (KHTML, like Gecko) Chrome/137.0.0.0 Safari/537.36","WebKit","Chrome","137.0.0.0","Windows","10.0","https://app.prolific.com/","en-ZA,en-GB;q=0.9,en-US;q=0.8,en;q=0.7","67fa89d6790924c25e5ffb8e","683db6dfa200031b80f2a654","68652650d57375e2aefad3e1","67fa89d6790924c25e5ffb8e","","[{""page_index"":0,""viewing_time"":21351},{""page_index"":1,""viewing_time"":44826}]","","","","","","","","","","","","","","","","","","","","","","","","","","","","","","","","","","","","","","","","","","",""
"4513","","","{""Q0"":"""",""Q1"":"""",""Q2"":"""",""Q3"":"""",""Q4"":"""",""Q5"":"""",""Q6"":""I agree""}","survey-multi-choice","2","114427","0.0-2.0","252","1","2025-07-02 12:31:02","80fe4187154257d5fb01684ea91b68b9","41.114.83.212","Mozilla/5.0 (Windows NT 10.0; Win64; x64) AppleWebKit/537.36 (KHTML, like Gecko) Chrome/137.0.0.0 Safari/537.36","WebKit","Chrome","137.0.0.0","Windows","10.0","https://app.prolific.com/","en-ZA,en-GB;q=0.9,en-US;q=0.8,en;q=0.7","67fa89d6790924c25e5ffb8e","683db6dfa200031b80f2a654","68652650d57375e2aefad3e1","67fa89d6790924c25e5ffb8e","","","[0,1,2,3,4,5,6]","true","","","","","","","","","","","","","","","","","","","","","","","","","","","","","","","","","","","","","","","","",""
"6351","","","","fullscreen","3","121794","0.0-4.0","252","1","2025-07-02 12:31:02","80fe4187154257d5fb01684ea91b68b9","41.114.83.212","Mozilla/5.0 (Windows NT 10.0; Win64; x64) AppleWebKit/537.36 (KHTML, like Gecko) Chrome/137.0.0.0 Safari/537.36","WebKit","Chrome","137.0.0.0","Windows","10.0","https://app.prolific.com/","en-ZA,en-GB;q=0.9,en-US;q=0.8,en;q=0.7","67fa89d6790924c25e5ffb8e","683db6dfa200031b80f2a654","68652650d57375e2aefad3e1","67fa89d6790924c25e5ffb8e","","","","","true","","","","","","","","","","","","","","","","","","","","","","","","","","","","","","","","","","","","","","","",""
"4741","1751459590607"," <p style='font-size:1.1em;line-height:1.25'>Thank you for completing the consent form and closing all other tabs.</p><p style='font-size:1.1em;line-height:1.25'>We will now invite you to fill in some demographic information and questionnaires, before starting the game.<br>This will take about 5 minutes.<br></p><p style='font-size:1.1em;line-height:1.25'>Press the <strong>Next</strong> button to continue.</p>","0","custom-html-button-response","4","126537","0.0-5.0","252","1","2025-07-02 12:31:02","80fe4187154257d5fb01684ea91b68b9","41.114.83.212","Mozilla/5.0 (Windows NT 10.0; Win64; x64) AppleWebKit/537.36 (KHTML, like Gecko) Chrome/137.0.0.0 Safari/537.36","WebKit","Chrome","137.0.0.0","Windows","10.0","https://app.prolific.com/","en-ZA,en-GB;q=0.9,en-US;q=0.8,en;q=0.7","67fa89d6790924c25e5ffb8e","683db6dfa200031b80f2a654","68652650d57375e2aefad3e1","67fa89d6790924c25e5ffb8e","2025-07-02T12:33:10.607Z","","","","","","","","","","","","","","","","","","","","","","","","","","","","","","","","","","","","","","","","","","","",""
"3241","","","{""age"":""24""}","survey-text","5","129781","0.0-6.0-0.0","252","1","2025-07-02 12:31:02","80fe4187154257d5fb01684ea91b68b9","41.114.83.212","Mozilla/5.0 (Windows NT 10.0; Win64; x64) AppleWebKit/537.36 (KHTML, like Gecko) Chrome/137.0.0.0 Safari/537.36","WebKit","Chrome","137.0.0.0","Windows","10.0","https://app.prolific.com/","en-ZA,en-GB;q=0.9,en-US;q=0.8,en;q=0.7","67fa89d6790924c25e5ffb8e","683db6dfa200031b80f2a654","68652650d57375e2aefad3e1","67fa89d6790924c25e5ffb8e","","","","","","0","demographics","","","","","","","","","","","","","","","","","","","","","","","","","","","","","","","","","","","","","",""
"1912","","","{""gender_identity"":""male/man""}","survey-multi-choice","6","131695","0.0-6.0-1.0","252","1","2025-07-02 12:31:02","80fe4187154257d5fb01684ea91b68b9","41.114.83.212","Mozilla/5.0 (Windows NT 10.0; Win64; x64) AppleWebKit/537.36 (KHTML, like Gecko) Chrome/137.0.0.0 Safari/537.36","WebKit","Chrome","137.0.0.0","Windows","10.0","https://app.prolific.com/","en-ZA,en-GB;q=0.9,en-US;q=0.8,en;q=0.7","67fa89d6790924c25e5ffb8e","683db6dfa200031b80f2a654","68652650d57375e2aefad3e1","67fa89d6790924c25e5ffb8e","","","[0]","","","1","demographics","","","","","","","","","","","","","","","","","","","","","","","","","","","","","","","","","","","","","",""
"1958","","","{""assigned_sex"":""male""}","survey-multi-choice","7","133654","0.0-6.0-2.0","252","1","2025-07-02 12:31:02","80fe4187154257d5fb01684ea91b68b9","41.114.83.212","Mozilla/5.0 (Windows NT 10.0; Win64; x64) AppleWebKit/537.36 (KHTML, like Gecko) Chrome/137.0.0.0 Safari/537.36","WebKit","Chrome","137.0.0.0","Windows","10.0","https://app.prolific.com/","en-ZA,en-GB;q=0.9,en-US;q=0.8,en;q=0.7","67fa89d6790924c25e5ffb8e","683db6dfa200031b80f2a654","68652650d57375e2aefad3e1","67fa89d6790924c25e5ffb8e","","","[0]","","","2","demographics","","","","","","","","","","","","","","","","","","","","","","","","","","","","","","","","","","","","","",""
"3533","","","{""menstrual_cycle"":""No""}","survey-multi-choice","8","137188","0.0-6.0-3.0","252","1","2025-07-02 12:31:02","80fe4187154257d5fb01684ea91b68b9","41.114.83.212","Mozilla/5.0 (Windows NT 10.0; Win64; x64) AppleWebKit/537.36 (KHTML, like Gecko) Chrome/137.0.0.0 Safari/537.36","WebKit","Chrome","137.0.0.0","Windows","10.0","https://app.prolific.com/","en-ZA,en-GB;q=0.9,en-US;q=0.8,en;q=0.7","67fa89d6790924c25e5ffb8e","683db6dfa200031b80f2a654","68652650d57375e2aefad3e1","67fa89d6790924c25e5ffb8e","","","[0]","","","4","demographics","","","","","","","","","","","","","","","","","","","","","","","","","","","","","","","","","","","","","",""
"4993","","","{""education"":""Master's Degree (e.g., MSc)""}","survey-multi-choice","9","142182","0.0-6.0-4.0","252","1","2025-07-02 12:31:02","80fe4187154257d5fb01684ea91b68b9","41.114.83.212","Mozilla/5.0 (Windows NT 10.0; Win64; x64) AppleWebKit/537.36 (KHTML, like Gecko) Chrome/137.0.0.0 Safari/537.36","WebKit","Chrome","137.0.0.0","Windows","10.0","https://app.prolific.com/","en-ZA,en-GB;q=0.9,en-US;q=0.8,en;q=0.7","67fa89d6790924c25e5ffb8e","683db6dfa200031b80f2a654","68652650d57375e2aefad3e1","67fa89d6790924c25e5ffb8e","","","[0]","","","5","demographics","","","","","","","","","","","","","","","","","","","","","","","","","","","","","","","","","","","","","",""
"12805","","","{""education"":""GCSE/Standard Grades""}","survey-multi-choice","10","154989","0.0-6.0-5.0","252","1","2025-07-02 12:31:02","80fe4187154257d5fb01684ea91b68b9","41.114.83.212","Mozilla/5.0 (Windows NT 10.0; Win64; x64) AppleWebKit/537.36 (KHTML, like Gecko) Chrome/137.0.0.0 Safari/537.36","WebKit","Chrome","137.0.0.0","Windows","10.0","https://app.prolific.com/","en-ZA,en-GB;q=0.9,en-US;q=0.8,en;q=0.7","67fa89d6790924c25e5ffb8e","683db6dfa200031b80f2a654","68652650d57375e2aefad3e1","67fa89d6790924c25e5ffb8e","2025-07-02T12:33:39.059Z","","[0]","","","6","demographics","","","","","","","","","","","","","","","","","","","","","","","","","","","","","","","","","","","","","",""
"22282","","","{""mental_health_condition"":""No"",""mental_health_treatment"":""No"",""psychiatric_medication"":""N/A""}","survey-text","11","177273","0.0-7.0-0.0","252","1","2025-07-02 12:31:02","80fe4187154257d5fb01684ea91b68b9","41.114.83.212","Mozilla/5.0 (Windows NT 10.0; Win64; x64) AppleWebKit/537.36 (KHTML, like Gecko) Chrome/137.0.0.0 Safari/537.36","WebKit","Chrome","137.0.0.0","Windows","10.0","https://app.prolific.com/","en-ZA,en-GB;q=0.9,en-US;q=0.8,en;q=0.7","67fa89d6790924c25e5ffb8e","683db6dfa200031b80f2a654","68652650d57375e2aefad3e1","67fa89d6790924c25e5ffb8e","2025-07-02T12:34:01.344Z","","","","","1","mental_health","","","","","","","","","","","","","","","","","","","","","","","","","","","","","","","","","","","","","",""
"8826","","","{""depression_history"":[""Yes""]}","survey-multi-select","12","186103","0.0-7.0-1.0","252","1","2025-07-02 12:31:02","80fe4187154257d5fb01684ea91b68b9","41.114.83.212","Mozilla/5.0 (Windows NT 10.0; Win64; x64) AppleWebKit/537.36 (KHTML, like Gecko) Chrome/137.0.0.0 Safari/537.36","WebKit","Chrome","137.0.0.0","Windows","10.0","https://app.prolific.com/","en-ZA,en-GB;q=0.9,en-US;q=0.8,en;q=0.7","67fa89d6790924c25e5ffb8e","683db6dfa200031b80f2a654","68652650d57375e2aefad3e1","67fa89d6790924c25e5ffb8e","","","[0]","","","","mental_health","","","","","","","","","","","","","","","","","","","","","","","","","","","","","","","","","","","","","",""
"15712","","","{""depression_episodes"":""more than 5"",""depression_recent"":""Within the past year""}","survey-multi-choice","13","201816","0.0-7.0-2.0-0.0","252","1","2025-07-02 12:31:02","80fe4187154257d5fb01684ea91b68b9","41.114.83.212","Mozilla/5.0 (Windows NT 10.0; Win64; x64) AppleWebKit/537.36 (KHTML, like Gecko) Chrome/137.0.0.0 Safari/537.36","WebKit","Chrome","137.0.0.0","Windows","10.0","https://app.prolific.com/","en-ZA,en-GB;q=0.9,en-US;q=0.8,en;q=0.7","67fa89d6790924c25e5ffb8e","683db6dfa200031b80f2a654","68652650d57375e2aefad3e1","67fa89d6790924c25e5ffb8e","2025-07-02T12:34:25.886Z","","[0,1]","","","3","mental_health","","","","","","","","","","","","","","","","","","","","","","","","","","","","","","","","","","","","","",""
"65665.30000001192","","","","survey-template","14","267486","0.0-7.0-3.0","252","1","2025-07-02 12:31:02","80fe4187154257d5fb01684ea91b68b9","41.114.83.212","Mozilla/5.0 (Windows NT 10.0; Win64; x64) AppleWebKit/537.36 (KHTML, like Gecko) Chrome/137.0.0.0 Safari/537.36","WebKit","Chrome","137.0.0.0","Windows","10.0","https://app.prolific.com/","en-ZA,en-GB;q=0.9,en-US;q=0.8,en;q=0.7","67fa89d6790924c25e5ffb8e","683db6dfa200031b80f2a654","68652650d57375e2aefad3e1","67fa89d6790924c25e5ffb8e","2025-07-02T12:35:31.556Z","","","","","","ius","{""Q01"":""3"",""Q02"":""4"",""Q03"":""1"",""Q04"":""4"",""Q05"":""4"",""Q06"":""2"",""Q07"":""2"",""Q08"":""0"",""Q09"":""4"",""Q10"":""4"",""Q11"":""3"",""Q12"":""4"",""Q13"":""3""}","[0,1,2,3,4,5,6,7,8,9,10,11,12]","[""Q01"",""Q02"",""Q03"",""Q04"",""Q05"",""Q06"",""Q06"",""Q07"",""Q08"",""Q09"",""Q10"",""Q10"",""Q11"",""Q12"",""Q13""]","[5525.700000017881,10535,16283.5,19805.30000001192,25188.80000001192,29367.40000000596,31631.30000001192,36314,42343.30000001192,50373.30000001192,54225.30000001192,55285.20000001788,58607,62007.20000001788,65001.59999999404]","[]","[5525.700000017881,10535,16283.5,19805.30000001192,25188.80000001192,29367.40000000596,31631.30000001192,36314,40597.09999999404,42343.30000001192,49829.70000001788,50373.30000001192,53785.30000001192,54225.30000001192,55285.20000001788,58607,62007.20000001788,65001.59999999404,65661.5]","0.46153846153846156","0.4166666666666667","0","","","","","","","","","","","","","","","","","","","","","","","","","","","","",""
"2141","1751459733698","<p style='font-size:1.1em;line-height:1.25'>In the following, we will ask you a few questions relating to your experiences over the past month.<br></p><p style='font-size:1.1em;line-height:1.25'>Press the <strong>Next</strong> button to continue.</p>","0","custom-html-button-response","15","269628","0.0-7.0-4.0","252","1","2025-07-02 12:31:02","80fe4187154257d5fb01684ea91b68b9","41.114.83.212","Mozilla/5.0 (Windows NT 10.0; Win64; x64) AppleWebKit/537.36 (KHTML, like Gecko) Chrome/137.0.0.0 Safari/537.36","WebKit","Chrome","137.0.0.0","Windows","10.0","https://app.prolific.com/","en-ZA,en-GB;q=0.9,en-US;q=0.8,en;q=0.7","67fa89d6790924c25e5ffb8e","683db6dfa200031b80f2a654","68652650d57375e2aefad3e1","67fa89d6790924c25e5ffb8e","2025-07-02T12:35:33.698Z","","","","","","","","","","","","","","","","","","","","","","","","","","","","","","","","","","","","","","","","","","","",""
"67558.70000001788","","","","survey-template","16","337189","0.0-7.0-5.0","252","1","2025-07-02 12:31:02","80fe4187154257d5fb01684ea91b68b9","41.114.83.212","Mozilla/5.0 (Windows NT 10.0; Win64; x64) AppleWebKit/537.36 (KHTML, like Gecko) Chrome/137.0.0.0 Safari/537.36","WebKit","Chrome","137.0.0.0","Windows","10.0","https://app.prolific.com/","en-ZA,en-GB;q=0.9,en-US;q=0.8,en;q=0.7","67fa89d6790924c25e5ffb8e","683db6dfa200031b80f2a654","68652650d57375e2aefad3e1","67fa89d6790924c25e5ffb8e","2025-07-02T12:36:41.259Z","","","","","","pss","{""Q01"":""3"",""Q02"":""2"",""Q03"":""2"",""Q04"":""0"",""Q05"":""0"",""Q06"":""2"",""Q07"":""1"",""Q08"":""0"",""Q09"":""2"",""Q10"":""3""}","[0,1,2,3,4,5,6,7,8,9]","[""Q01"",""Q02"",""Q03"",""Q04"",""Q05"",""Q06"",""Q07"",""Q08"",""Q09"",""Q10"",""Q10""]","[7613.300000011921,19267.100000023842,22384.80000001192,29091.20000001788,35410.90000000596,40444.90000000596,48634.80000001192,52997,59974.60000002384,65158.80000001192,66519.20000001788]","[]","[0.20000001788139343,7613.300000011921,19267.100000023842,22384.80000001192,28706.80000001192,29091.20000001788,34971.40000000596,35410.90000000596,40444.90000000596,48634.80000001192,52997,59974.60000002384,64334.70000001788,64678.60000002384,65158.80000001192,66519.20000001788,67556.70000001788]","0.4","0.4444444444444444","0","","","","","","","","","","","","","","","","","","","","","","","","","","","","",""
"2261","1751459803520","<p style='font-size:1.1em;line-height:1.25'>Thank you for your answers! Now we will ask you a few more questions relating to your feelings in the last 24 hours.<br></p><p style='font-size:1.1em;line-height:1.25'>Press the <strong>Next</strong> button to continue.</p>","0","custom-html-button-response","17","339451","0.0-7.0-6.0","252","1","2025-07-02 12:31:02","80fe4187154257d5fb01684ea91b68b9","41.114.83.212","Mozilla/5.0 (Windows NT 10.0; Win64; x64) AppleWebKit/537.36 (KHTML, like Gecko) Chrome/137.0.0.0 Safari/537.36","WebKit","Chrome","137.0.0.0","Windows","10.0","https://app.prolific.com/","en-ZA,en-GB;q=0.9,en-US;q=0.8,en;q=0.7","67fa89d6790924c25e5ffb8e","683db6dfa200031b80f2a654","68652650d57375e2aefad3e1","67fa89d6790924c25e5ffb8e","2025-07-02T12:36:43.521Z","","","","","","","","","","","","","","","","","","","","","","","","","","","","","","","","","","","","","","","","","","","",""
"74138.10000002384","","","","survey-template","18","413593","0.0-7.0-7.0","252","1","2025-07-02 12:31:02","80fe4187154257d5fb01684ea91b68b9","41.114.83.212","Mozilla/5.0 (Windows NT 10.0; Win64; x64) AppleWebKit/537.36 (KHTML, like Gecko) Chrome/137.0.0.0 Safari/537.36","WebKit","Chrome","137.0.0.0","Windows","10.0","https://app.prolific.com/","en-ZA,en-GB;q=0.9,en-US;q=0.8,en;q=0.7","67fa89d6790924c25e5ffb8e","683db6dfa200031b80f2a654","68652650d57375e2aefad3e1","67fa89d6790924c25e5ffb8e","2025-07-02T12:37:57.663Z","","","","","","drsp","{""Q01"":""0"",""Q02"":""0"",""Q03"":""4"",""Q04"":""2"",""Q05"":""0"",""Q06"":""2"",""Q07"":""0"",""Q08"":""0"",""Q09"":""0"",""Q10"":""0"",""Q11"":""3"",""Q12"":""3"",""Q13"":""5"",""Q14"":""0"",""Q15"":""0"",""Q16"":""4"",""Q17"":""2"",""Q18"":""2"",""Q19"":""4"",""Q20"":""3"",""Q21"":""5""}","[0,1,2,3,4,5,6,7,8,9,10,11,12,13,14,15,16,17,18,19,20]","[""Q01"",""Q02"",""Q03"",""Q03"",""Q04"",""Q04"",""Q05"",""Q06"",""Q07"",""Q08"",""Q09"",""Q10"",""Q11"",""Q12"",""Q13"",""Q14"",""Q15"",""Q16"",""Q17"",""Q18"",""Q18"",""Q19"",""Q20"",""Q21""]","[2577.100000023842,3593.4000000059605,5746.800000011921,8791.200000017881,12347.100000023842,13353.300000011921,15420.600000023842,18252.90000000596,20678.70000001788,22039.20000001788,23686.40000000596,25622.600000023842,29256.5,35156.80000001192,37334.30000001192,42106.80000001192,44280.90000000596,46540.30000001192,48784.5,53191,55734.60000002384,61308.70000001788,69862.60000002384,73422.5]","[]","[0.10000002384185791,2577.100000023842,3593.4000000059605,5746.800000011921,8791.200000017881,12347.100000023842,13353.300000011921,15420.600000023842,18252.90000000596,20678.70000001788,22039.20000001788,23686.40000000596,25622.600000023842,29256.5,35156.80000001192,37334.30000001192,42106.80000001192,44280.90000000596,46540.30000001192,48136.70000001788,48784.5,53191,55050.90000000596,55734.60000002384,61308.70000001788,68959.10000002384,69862.60000002384,73422.5,74131]","0.42857142857142855","0.1","0","","","","","","","","","","","","","","","","","","","","","","","","","","","","",""
"17811.5","","","","survey-template","19","431406","0.0-7.0-8.0","252","1","2025-07-02 12:31:02","80fe4187154257d5fb01684ea91b68b9","41.114.83.212","Mozilla/5.0 (Windows NT 10.0; Win64; x64) AppleWebKit/537.36 (KHTML, like Gecko) Chrome/137.0.0.0 Safari/537.36","WebKit","Chrome","137.0.0.0","Windows","10.0","https://app.prolific.com/","en-ZA,en-GB;q=0.9,en-US;q=0.8,en;q=0.7","67fa89d6790924c25e5ffb8e","683db6dfa200031b80f2a654","68652650d57375e2aefad3e1","67fa89d6790924c25e5ffb8e","2025-07-02T12:38:15.477Z","","","","","","stress","{""Q01"":""0"",""Q02"":""2"",""Q03"":""1""}","[0,1,2]","[""Q01"",""Q02"",""Q02"",""Q03"",""Q03""]","[2011.2000000178814,4939.300000011921,8901.5,14937.300000011921,16787.30000001192]","[]","[2011.2000000178814,4163.300000011921,4939.300000011921,8901.5,13752.90000000596,14937.300000011921,16787.30000001192,17810.70000001788]","0.3333333333333333","0","0","","","","","","","","","","","","","","","","","","","","","","","","","","","","",""
"60561","","","","instructions","20","491968","0.0-8.0-0.0","252","1","2025-07-02 12:31:02","80fe4187154257d5fb01684ea91b68b9","41.114.83.212","Mozilla/5.0 (Windows NT 10.0; Win64; x64) AppleWebKit/537.36 (KHTML, like Gecko) Chrome/137.0.0.0 Safari/537.36","WebKit","Chrome","137.0.0.0","Windows","10.0","https://app.prolific.com/","en-ZA,en-GB;q=0.9,en-US;q=0.8,en;q=0.7","67fa89d6790924c25e5ffb8e","683db6dfa200031b80f2a654","68652650d57375e2aefad3e1","67fa89d6790924c25e5ffb8e","","[{""page_index"":0,""viewing_time"":15447},{""page_index"":1,""viewing_time"":16407},{""page_index"":2,""viewing_time"":8426},{""page_index"":3,""viewing_time"":20280}]","","","","","","","","","","","","","","","","","","","","","","","","","","","","","","","","","","","","","","","","","","",""
"","","","","ctl-task-cpt","21","529211","0.0-8.0-1.0","252","1","2025-07-02 12:31:02","80fe4187154257d5fb01684ea91b68b9","41.114.83.212","Mozilla/5.0 (Windows NT 10.0; Win64; x64) AppleWebKit/537.36 (KHTML, like Gecko) Chrome/137.0.0.0 Safari/537.36","WebKit","Chrome","137.0.0.0","Windows","10.0","https://app.prolific.com/","en-ZA,en-GB;q=0.9,en-US;q=0.8,en;q=0.7","67fa89d6790924c25e5ffb8e","683db6dfa200031b80f2a654","68652650d57375e2aefad3e1","67fa89d6790924c25e5ffb8e","","","","","","","","","","","","","","","","","win-only","2","g1:SE,g2:NW","1","0","1","496087.6","1315.2","5317.3","34231.9","2","4","4","6","2","4","3","3","0","0.022727272727272728","1216.2","4000","1470","[""left"",""up""]","{""num_key_presses"":7,""num_perfect"":6,""num_errors"":1,""num_randdir"":0,""num_randdir_good_moves"":0,""num_whilered"":0,""num_whileblue"":0,""num_blue"":3,""num_good_moves"":6}","[407.8214133126395,425.32142761775424,0.3,407.8214133126395,425.32142761775424,101.8,407.8214133126395,425.32142761775424,201.9,407.8214133126395,425.32142761775424,311.4,420.3214133126395,432.82142761775424,416.3,491.5714133126395,449.07142761775424,517.2,579.0714133126395,437.82142761775424,621.8,556.5714133126395,410.32142761775424,722.1,334.0714133126395,221.57142761775424,828.9,189.0714133126395,116.57142761775425,931.1,90.3214133126395,50.32142761775425,1031.3,60.32141331263951,29.071427617754253,1132.3,60.32141331263951,29.071427617754253,1244.1,60.32141331263951,29.071427617754253,1344.7,60.32141331263951,29.071427617754253,1445.8,135.3214133126395,95.32142761775425,1546.2,501.5714133126395,271.57142761775424,1647.1,931.5714133126395,432.82142761775424,1751.6,1027.8214133126396,435.32142761775424,1851.6,1050.3214133126396,429.07142761775424,1959.4,1050.3214133126396,429.07142761775424,2059.9,1050.3214133126396,429.07142761775424,2160.7,1050.3214133126396,429.07142761775424,2266.2,1050.3214133126396,429.07142761775424,2366.7,1050.3214133126396,429.07142761775424,2475.9,1050.3214133126396,429.07142761775424,2576.2,1050.3214133126396,429.07142761775424,2681.9,1050.3214133126396,429.07142761775424,2785.8,1050.3214133126396,429.07142761775424,2885.9,1050.3214133126396,429.07142761775424,2991.8,1050.3214133126396,429.07142761775424,3095.7,1050.3214133126396,429.07142761775424,3195.9,1050.3214133126396,429.07142761775424,3295.9,1050.3214133126396,429.07142761775424,3396.1,1050.3214133126396,429.07142761775424,3501.9,1050.3214133126396,429.07142761775424,3608.1,1050.3214133126396,429.07142761775424,3711.2,1050.3214133126396,429.07142761775424,3811.2,1050.3214133126396,429.07142761775424,3911.2]","[447.6,447.6,1000,0,-552.4,""error"",""-"",""-"",""no_move"",3753.9,3306.1,1838.4,1454.3,461.2,""smooth"",""up"",""up"",""good_move"",11011.9,7257.5,3024.1,7585,402.8,""smooth"",""left"",""left"",""good_move"",20263.1,9251.1,1775.7,18033.5,454,""smooth"",""up"",""up"",""good_move"",23215.2,2951.8,2453.7,20263.5,498,""smooth"",""left"",""left"",""good_move"",25786.8,2571.2,2134.7,23215.6,436.5,""smooth"",""up"",""up"",""good_move"",28816.3,3029.1,2635.7,25787.2,393.4,""smooth"",""left"",""left"",""good_move""]","",""
"20228","","","","instructions","22","549439","0.0-8.0-2.0","252","1","2025-07-02 12:31:02","80fe4187154257d5fb01684ea91b68b9","41.114.83.212","Mozilla/5.0 (Windows NT 10.0; Win64; x64) AppleWebKit/537.36 (KHTML, like Gecko) Chrome/137.0.0.0 Safari/537.36","WebKit","Chrome","137.0.0.0","Windows","10.0","https://app.prolific.com/","en-ZA,en-GB;q=0.9,en-US;q=0.8,en;q=0.7","67fa89d6790924c25e5ffb8e","683db6dfa200031b80f2a654","68652650d57375e2aefad3e1","67fa89d6790924c25e5ffb8e","","[{""page_index"":0,""viewing_time"":20228}]","","","","","","","","","","","","","","","","","","","","","","","","","","","","","","","","","","","","","","","","","","",""
"","","","","ctl-task-cpt","23","601313","0.0-8.0-3.0","252","1","2025-07-02 12:31:02","80fe4187154257d5fb01684ea91b68b9","41.114.83.212","Mozilla/5.0 (Windows NT 10.0; Win64; x64) AppleWebKit/537.36 (KHTML, like Gecko) Chrome/137.0.0.0 Safari/537.36","WebKit","Chrome","137.0.0.0","Windows","10.0","https://app.prolific.com/","en-ZA,en-GB;q=0.9,en-US;q=0.8,en;q=0.7","67fa89d6790924c25e5ffb8e","683db6dfa200031b80f2a654","68652650d57375e2aefad3e1","67fa89d6790924c25e5ffb8e","","","","","","","","","","","","","","","","","win-only","2","g1:SE,g2:NW","0.35","0","3","553557","3218.4","7221.4","48865.6","2","4","8","6","2","-8","-8","0","0","0","1149.2","4000","-2970","[""left"",""up""]","{""num_key_presses"":7,""num_perfect"":3,""num_errors"":0,""num_randdir"":4,""num_randdir_good_moves"":1,""num_whilered"":0,""num_whileblue"":0,""num_blue"":5,""num_good_moves"":4}","[409.0714133126395,420.32142761775424,0.4,409.0714133126395,420.32142761775424,101.2,409.0714133126395,420.32142761775424,202.8,409.0714133126395,420.32142761775424,307.2,409.0714133126395,420.32142761775424,408.1,409.0714133126395,420.32142761775424,516.9,361.5714133126395,376.57142761775424,617.2,272.8214133126395,347.82142761775424,722.4,182.8214133126395,302.82142761775424,822.6,111.5714133126395,129.07142761775424,924.4,87.8214133126395,84.07142761775425,1027.9,76.5714133126395,67.82142761775425,1133.4,76.5714133126395,67.82142761775425,1238.2,76.5714133126395,67.82142761775425,1342.5,184.0714133126395,160.32142761775424,1443.8,676.5714133126395,364.07142761775424,1549.6,1286.5714133126396,515.3214276177542,1649.7,1375.3214133126396,566.5714276177542,1752.8,1375.3214133126396,571.5714276177542,1853.3,1375.3214133126396,571.5714276177542,1958.1,1375.3214133126396,571.5714276177542,2058.5,1375.3214133126396,571.5714276177542,2165.8,1375.3214133126396,571.5714276177542,2268,1375.3214133126396,571.5714276177542,2368.3,1375.3214133126396,571.5714276177542,2473.2,1375.3214133126396,571.5714276177542,2573.6,1375.3214133126396,571.5714276177542,2681.6,1375.3214133126396,571.5714276177542,2781.9,1375.3214133126396,571.5714276177542,2896.3,1375.3214133126396,571.5714276177542,2998.2,1375.3214133126396,571.5714276177542,3102.5,1375.3214133126396,571.5714276177542,3202.7,1375.3214133126396,571.5714276177542,3303.2,1375.3214133126396,571.5714276177542,3407.5,1375.3214133126396,571.5714276177542,3507.7,1375.3214133126396,571.5714276177542,3607.9,1375.3214133126396,571.5714276177542,3712.8,1375.3214133126396,571.5714276177542,3818,1375.3214133126396,571.5714276177542,3922.9]","[1555.3,1555.3,1000,0,555.3,""oops"",""up"",""up"",""good_move"",8352.3,6796.4,1947.5,6005.2,399.7,""smooth"",""left"",""left"",""good_move"",12231.9,3879.2,3494.8,8352.7,384.4,""smooth"",""up"",""up"",""good_move"",18766.7,6534.6,2479.8,15840,446.9,""oops"",""left"",""down"",""bad_move"",21883.4,3116.5,2428.1,18766.9,688.4,""oops"",""up"",""right"",""bad_move"",31514.3,9630.5,2507.4,28609.2,397.7,""smooth"",""up"",""up"",""good_move"",38049.3,6534.8,2764.3,34854.3,430.7,""oops"",""up"",""down"",""bad_move""]","",""
"36497","","","","instructions","24","637810","0.0-8.0-4.0","252","1","2025-07-02 12:31:02","80fe4187154257d5fb01684ea91b68b9","41.114.83.212","Mozilla/5.0 (Windows NT 10.0; Win64; x64) AppleWebKit/537.36 (KHTML, like Gecko) Chrome/137.0.0.0 Safari/537.36","WebKit","Chrome","137.0.0.0","Windows","10.0","https://app.prolific.com/","en-ZA,en-GB;q=0.9,en-US;q=0.8,en;q=0.7","67fa89d6790924c25e5ffb8e","683db6dfa200031b80f2a654","68652650d57375e2aefad3e1","67fa89d6790924c25e5ffb8e","","[{""page_index"":0,""viewing_time"":7350},{""page_index"":1,""viewing_time"":29147}]","","","","","","","","","","","","","","","","","","","","","","","","","","","","","","","","","","","","","","","","","","",""
"5471","","","{""green_ball"":[""Ball always moves in the direction I press""]}","survey-multi-select","25","643284","0.0-8.0-5.0-0.0","252","1","2025-07-02 12:31:02","80fe4187154257d5fb01684ea91b68b9","41.114.83.212","Mozilla/5.0 (Windows NT 10.0; Win64; x64) AppleWebKit/537.36 (KHTML, like Gecko) Chrome/137.0.0.0 Safari/537.36","WebKit","Chrome","137.0.0.0","Windows","10.0","https://app.prolific.com/","en-ZA,en-GB;q=0.9,en-US;q=0.8,en;q=0.7","67fa89d6790924c25e5ffb8e","683db6dfa200031b80f2a654","68652650d57375e2aefad3e1","67fa89d6790924c25e5ffb8e","","","[0]","","","","quiz","","","","","","","","","","","","","","","","","","","","","","","","","","","","","","","","","","","","","false",""
"1815","","<p align='center'><b>INCORRECT.</b> Usually the green ball moves in the indicated direction, but sometimes it shakes and moves randomly. </p>","0","html-button-response","26","645100","0.0-8.0-5.0-1.0","252","1","2025-07-02 12:31:02","80fe4187154257d5fb01684ea91b68b9","41.114.83.212","Mozilla/5.0 (Windows NT 10.0; Win64; x64) AppleWebKit/537.36 (KHTML, like Gecko) Chrome/137.0.0.0 Safari/537.36","WebKit","Chrome","137.0.0.0","Windows","10.0","https://app.prolific.com/","en-ZA,en-GB;q=0.9,en-US;q=0.8,en;q=0.7","67fa89d6790924c25e5ffb8e","683db6dfa200031b80f2a654","68652650d57375e2aefad3e1","67fa89d6790924c25e5ffb8e","","","","","","","","","","","","","","","","","","","","","","","","","","","","","","","","","","","","","","","","","","","","",""
"4275","","","{""green_ball"":[""Ball sometimes shakes and moves in a random direction""]}","survey-multi-select","27","649379","0.0-8.0-5.1-0.1","252","1","2025-07-02 12:31:02","80fe4187154257d5fb01684ea91b68b9","41.114.83.212","Mozilla/5.0 (Windows NT 10.0; Win64; x64) AppleWebKit/537.36 (KHTML, like Gecko) Chrome/137.0.0.0 Safari/537.36","WebKit","Chrome","137.0.0.0","Windows","10.0","https://app.prolific.com/","en-ZA,en-GB;q=0.9,en-US;q=0.8,en;q=0.7","67fa89d6790924c25e5ffb8e","683db6dfa200031b80f2a654","68652650d57375e2aefad3e1","67fa89d6790924c25e5ffb8e","","","[0]","","","","quiz","","","","","","","","","","","","","","","","","","","","","","","","","","","","","","","","","","","","","true",""
"2082","","<p align='center'><b>CORRECT!</b> Indeed, the green ball may sometimes shake and move in a random direction.</p>","0","html-button-response","28","651462","0.0-8.0-5.1-1.1","252","1","2025-07-02 12:31:02","80fe4187154257d5fb01684ea91b68b9","41.114.83.212","Mozilla/5.0 (Windows NT 10.0; Win64; x64) AppleWebKit/537.36 (KHTML, like Gecko) Chrome/137.0.0.0 Safari/537.36","WebKit","Chrome","137.0.0.0","Windows","10.0","https://app.prolific.com/","en-ZA,en-GB;q=0.9,en-US;q=0.8,en;q=0.7","67fa89d6790924c25e5ffb8e","683db6dfa200031b80f2a654","68652650d57375e2aefad3e1","67fa89d6790924c25e5ffb8e","","","","","","","","","","","","","","","","","","","","","","","","","","","","","","","","","","","","","","","","","","","","",""
"4828","","","{""yellow_ball"":[""Ball doesn‘t move and I get -1 penalty point""]}","survey-multi-select","29","656292","0.0-8.0-6.0-0.0","252","1","2025-07-02 12:31:02","80fe4187154257d5fb01684ea91b68b9","41.114.83.212","Mozilla/5.0 (Windows NT 10.0; Win64; x64) AppleWebKit/537.36 (KHTML, like Gecko) Chrome/137.0.0.0 Safari/537.36","WebKit","Chrome","137.0.0.0","Windows","10.0","https://app.prolific.com/","en-ZA,en-GB;q=0.9,en-US;q=0.8,en;q=0.7","67fa89d6790924c25e5ffb8e","683db6dfa200031b80f2a654","68652650d57375e2aefad3e1","67fa89d6790924c25e5ffb8e","","","[0]","","","","quiz","","","","","","","","","","","","","","","","","","","","","","","","","","","","","","","","","","","","","true",""
"950","","<p align='center'><b>CORRECT!</b> Indeed, the yellow ball never moves and you receive a penalty.</p>","0","html-button-response","30","657243","0.0-8.0-6.0-1.0","252","1","2025-07-02 12:31:02","80fe4187154257d5fb01684ea91b68b9","41.114.83.212","Mozilla/5.0 (Windows NT 10.0; Win64; x64) AppleWebKit/537.36 (KHTML, like Gecko) Chrome/137.0.0.0 Safari/537.36","WebKit","Chrome","137.0.0.0","Windows","10.0","https://app.prolific.com/","en-ZA,en-GB;q=0.9,en-US;q=0.8,en;q=0.7","67fa89d6790924c25e5ffb8e","683db6dfa200031b80f2a654","68652650d57375e2aefad3e1","67fa89d6790924c25e5ffb8e","","","","","","","","","","","","","","","","","","","","","","","","","","","","","","","","","","","","","","","","","","","","",""
"11545","","","{""blue_ball"":[""Ball always shakes and moves in a random direction""]}","survey-multi-select","31","668791","0.0-8.0-7.0-0.0","252","1","2025-07-02 12:31:02","80fe4187154257d5fb01684ea91b68b9","41.114.83.212","Mozilla/5.0 (Windows NT 10.0; Win64; x64) AppleWebKit/537.36 (KHTML, like Gecko) Chrome/137.0.0.0 Safari/537.36","WebKit","Chrome","137.0.0.0","Windows","10.0","https://app.prolific.com/","en-ZA,en-GB;q=0.9,en-US;q=0.8,en;q=0.7","67fa89d6790924c25e5ffb8e","683db6dfa200031b80f2a654","68652650d57375e2aefad3e1","67fa89d6790924c25e5ffb8e","","","[0]","","","","quiz","","","","","","","","","","","","","","","","","","","","","","","","","","","","","","","","","","","","","true",""
"1462","","<p align='center'><b>CORRECT!</b> Indeed, the blue ball always shakes and moves in a random direction. Also there is a penalty of -1 point.</p>","0","html-button-response","32","670254","0.0-8.0-7.0-1.0","252","1","2025-07-02 12:31:02","80fe4187154257d5fb01684ea91b68b9","41.114.83.212","Mozilla/5.0 (Windows NT 10.0; Win64; x64) AppleWebKit/537.36 (KHTML, like Gecko) Chrome/137.0.0.0 Safari/537.36","WebKit","Chrome","137.0.0.0","Windows","10.0","https://app.prolific.com/","en-ZA,en-GB;q=0.9,en-US;q=0.8,en;q=0.7","67fa89d6790924c25e5ffb8e","683db6dfa200031b80f2a654","68652650d57375e2aefad3e1","67fa89d6790924c25e5ffb8e","","","","","","","","","","","","","","","","","","","","","","","","","","","","","","","","","","","","","","","","","","","","",""
"5089","","","{""bonus"":[""When I reach 50% of points""]}","survey-multi-select","33","675344","0.0-8.0-8.0-0.0","252","1","2025-07-02 12:31:02","80fe4187154257d5fb01684ea91b68b9","41.114.83.212","Mozilla/5.0 (Windows NT 10.0; Win64; x64) AppleWebKit/537.36 (KHTML, like Gecko) Chrome/137.0.0.0 Safari/537.36","WebKit","Chrome","137.0.0.0","Windows","10.0","https://app.prolific.com/","en-ZA,en-GB;q=0.9,en-US;q=0.8,en;q=0.7","67fa89d6790924c25e5ffb8e","683db6dfa200031b80f2a654","68652650d57375e2aefad3e1","67fa89d6790924c25e5ffb8e","","","[0]","","","","quiz","","","","","","","","","","","","","","","","","","","","","","","","","","","","","","","","","","","","","true",""
"2054","","<p align='center'><b>CORRECT!</b> Indeed, you receive 2 pounds extra when you reach 50% of points.</p>","0","html-button-response","34","677399","0.0-8.0-8.0-1.0","252","1","2025-07-02 12:31:02","80fe4187154257d5fb01684ea91b68b9","41.114.83.212","Mozilla/5.0 (Windows NT 10.0; Win64; x64) AppleWebKit/537.36 (KHTML, like Gecko) Chrome/137.0.0.0 Safari/537.36","WebKit","Chrome","137.0.0.0","Windows","10.0","https://app.prolific.com/","en-ZA,en-GB;q=0.9,en-US;q=0.8,en;q=0.7","67fa89d6790924c25e5ffb8e","683db6dfa200031b80f2a654","68652650d57375e2aefad3e1","67fa89d6790924c25e5ffb8e","","","","","","","","","","","","","","","","","","","","","","","","","","","","","","","","","","","","","","","","","","","","",""
"3122","","","","instructions","35","680522","0.0-8.0-9.0","252","1","2025-07-02 12:31:02","80fe4187154257d5fb01684ea91b68b9","41.114.83.212","Mozilla/5.0 (Windows NT 10.0; Win64; x64) AppleWebKit/537.36 (KHTML, like Gecko) Chrome/137.0.0.0 Safari/537.36","WebKit","Chrome","137.0.0.0","Windows","10.0","https://app.prolific.com/","en-ZA,en-GB;q=0.9,en-US;q=0.8,en;q=0.7","67fa89d6790924c25e5ffb8e","683db6dfa200031b80f2a654","68652650d57375e2aefad3e1","67fa89d6790924c25e5ffb8e","","[{""page_index"":0,""viewing_time"":3122}]","","","","","","","","","","","","","","","","","","","","","","","","","","","","","","","","","","","","","","","","","","",""
"4695","","<p>Before you start with this game please answer the following three questions yourself. </p>
  <p>Through this game, we measure several aspects of your cognitive performance, such as reaction times, multi-tasking capabilities </p>
  <p>and the ability to assess the situation you are in.</p>
  <p></p>
  <p><b>How good do you usually are in such tasks?</b></p>","75","html-slider-response","36","685218","0.0-9.0-0.0","252","1","2025-07-02 12:31:02","80fe4187154257d5fb01684ea91b68b9","41.114.83.212","Mozilla/5.0 (Windows NT 10.0; Win64; x64) AppleWebKit/537.36 (KHTML, like Gecko) Chrome/137.0.0.0 Safari/537.36","WebKit","Chrome","137.0.0.0","Windows","10.0","https://app.prolific.com/","en-ZA,en-GB;q=0.9,en-US;q=0.8,en;q=0.7","67fa89d6790924c25e5ffb8e","683db6dfa200031b80f2a654","68652650d57375e2aefad3e1","67fa89d6790924c25e5ffb8e","2025-07-02T12:42:29.288Z","","","","","","PreSkillQ","","","","","","","","","","","","","","","","","","","","","","","","","","","","","","","","","","","","","","50"
"3740","","<div style=""width:500px;"">
  <p>How well do you think you will perform in this task compared to other participants?</p>
  </div>","79","html-slider-response","37","688959","0.0-9.0-1.0","252","1","2025-07-02 12:31:02","80fe4187154257d5fb01684ea91b68b9","41.114.83.212","Mozilla/5.0 (Windows NT 10.0; Win64; x64) AppleWebKit/537.36 (KHTML, like Gecko) Chrome/137.0.0.0 Safari/537.36","WebKit","Chrome","137.0.0.0","Windows","10.0","https://app.prolific.com/","en-ZA,en-GB;q=0.9,en-US;q=0.8,en;q=0.7","67fa89d6790924c25e5ffb8e","683db6dfa200031b80f2a654","68652650d57375e2aefad3e1","67fa89d6790924c25e5ffb8e","2025-07-02T12:42:33.029Z","","","","","","PrePerfQ","","","","","","","","","","","","","","","","","","","","","","","","","","","","","","","","","","","","","","50"
"3403","","<div style=""width:500px;"">
  <p>What best describes how you currently feel?</p>
  </div>","100","html-slider-response","38","692364","0.0-9.0-2.0","252","1","2025-07-02 12:31:02","80fe4187154257d5fb01684ea91b68b9","41.114.83.212","Mozilla/5.0 (Windows NT 10.0; Win64; x64) AppleWebKit/537.36 (KHTML, like Gecko) Chrome/137.0.0.0 Safari/537.36","WebKit","Chrome","137.0.0.0","Windows","10.0","https://app.prolific.com/","en-ZA,en-GB;q=0.9,en-US;q=0.8,en;q=0.7","67fa89d6790924c25e5ffb8e","683db6dfa200031b80f2a654","68652650d57375e2aefad3e1","67fa89d6790924c25e5ffb8e","2025-07-02T12:42:36.434Z","","","","","","PreMotivationQ","","","","","","","","","","","","","","","","","","","","","","","","","","","","","","","","","","","","","","50"
"","","","","ctl-task-cpt","39","727164","0.0-10.0-0.0","252","1","2025-07-02 12:31:02","80fe4187154257d5fb01684ea91b68b9","41.114.83.212","Mozilla/5.0 (Windows NT 10.0; Win64; x64) AppleWebKit/537.36 (KHTML, like Gecko) Chrome/137.0.0.0 Safari/537.36","WebKit","Chrome","137.0.0.0","Windows","10.0","https://app.prolific.com/","en-ZA,en-GB;q=0.9,en-US;q=0.8,en;q=0.7","67fa89d6790924c25e5ffb8e","683db6dfa200031b80f2a654","68652650d57375e2aefad3e1","67fa89d6790924c25e5ffb8e","2025-07-02T12:43:11.234Z","","","","","","","","","","","","","","","","win-only","3","g1:SW,g2:NE","1","1","0","696483.1","1671.2","6673.4","31786.8","1","4","4","6","2","4","4","4","0","0.030303030303030304","1255.5","3000","540","[""up"",""right""]","{""num_key_presses"":6,""num_perfect"":6,""num_errors"":0,""num_randdir"":0,""num_randdir_good_moves"":0,""num_whilered"":0,""num_whileblue"":0,""num_blue"":3,""num_good_moves"":6}","[412.8214133126395,407.82142761775424,0.2,412.8214133126395,407.82142761775424,100.2,412.8214133126395,407.82142761775424,206.3,412.8214133126395,407.82142761775424,311.7,385.3214133126395,426.57142761775424,415.3,376.5714133126395,432.82142761775424,522.2,415.3214133126395,381.57142761775424,624,694.0714133126395,174.07142761775424,725.6,719.0714133126395,144.07142761775424,830,721.5714133126395,140.32142761775424,935.6,730.3214133126395,122.82142761775425,1036.5,731.5714133126395,116.57142761775425,1136.6,731.5714133126395,116.57142761775425,1237.4,731.5714133126395,116.57142761775425,1341.4,731.5714133126395,116.57142761775425,1444.6,731.5714133126395,116.57142761775425,1546.1,731.5714133126395,171.57142761775424,1652,734.0714133126395,186.57142761775424,1755.2,734.0714133126395,200.32142761775424,1857.7,734.0714133126395,206.57142761775424,1959.9,734.0714133126395,206.57142761775424,2060.3,734.0714133126395,206.57142761775424,2160.5,734.0714133126395,206.57142761775424,2266.3,734.0714133126395,206.57142761775424,2366.4,734.0714133126395,206.57142761775424,2469.4,734.0714133126395,206.57142761775424,2569.5,734.0714133126395,206.57142761775424,2671.7,734.0714133126395,206.57142761775424,2774.6,734.0714133126395,206.57142761775424,2875,734.0714133126395,206.57142761775424,2981.3,734.0714133126395,206.57142761775424,3086.1,734.0714133126395,206.57142761775424,3189.8,734.0714133126395,206.57142761775424,3295.4,734.0714133126395,206.57142761775424,3399.4,734.0714133126395,206.57142761775424,3499.5,734.0714133126395,206.57142761775424,3602.3,734.0714133126395,206.57142761775424,3705,734.0714133126395,206.57142761775424,3810.5,734.0714133126395,206.57142761775424,3916.5,734.0714133126395,206.57142761775424,4017.6,734.0714133126395,206.57142761775424,4122.4,734.0714133126395,206.57142761775424,4224.6,734.0714133126395,206.57142761775424,4326.9,734.0714133126395,206.57142761775424,4431.9,734.0714133126395,206.57142761775424,4536.4,734.0714133126395,206.57142761775424,4639.1,734.0714133126395,206.57142761775424,4739.7,734.0714133126395,206.57142761775424,4839.9,734.0714133126395,206.57142761775424,4944.1]","[1433.2,1433.2,1000,0,433.2,""smooth"",""up"",""up"",""good_move"",4114.1,2680.6,2214.5,1433.5,466.1,""smooth"",""right"",""right"",""good_move"",9591.6,5477.1,2509.4,6582.8,499.4,""smooth"",""up"",""up"",""good_move"",12139,2547.3,2129.1,9591.8,418.2,""smooth"",""right"",""right"",""good_move"",18384.6,6245.4,2992,14954.2,438.4,""smooth"",""up"",""up"",""good_move"",24997.8,6613,2787.5,21698,512.3,""smooth"",""right"",""right"",""good_move""]","",""
"4680","","<div style=""width:500px;"">
  <p>What determined the result of this run?</p>
  </div>","100","html-slider-response","40","731845","0.0-10.0-1.0","252","1","2025-07-02 12:31:02","80fe4187154257d5fb01684ea91b68b9","41.114.83.212","Mozilla/5.0 (Windows NT 10.0; Win64; x64) AppleWebKit/537.36 (KHTML, like Gecko) Chrome/137.0.0.0 Safari/537.36","WebKit","Chrome","137.0.0.0","Windows","10.0","https://app.prolific.com/","en-ZA,en-GB;q=0.9,en-US;q=0.8,en;q=0.7","67fa89d6790924c25e5ffb8e","683db6dfa200031b80f2a654","68652650d57375e2aefad3e1","67fa89d6790924c25e5ffb8e","2025-07-02T12:43:15.915Z","","","","","","AttribQ","","","","","","","","","","","","","","","","","","","","","","","","","","","","","","","","","","","","","","50"
"2253","","<div style=""width:500px;"">
  <p>How much control did you have over the ball?</p>
  </div>","100","html-slider-response","41","734099","0.0-10.0-2.0","252","1","2025-07-02 12:31:02","80fe4187154257d5fb01684ea91b68b9","41.114.83.212","Mozilla/5.0 (Windows NT 10.0; Win64; x64) AppleWebKit/537.36 (KHTML, like Gecko) Chrome/137.0.0.0 Safari/537.36","WebKit","Chrome","137.0.0.0","Windows","10.0","https://app.prolific.com/","en-ZA,en-GB;q=0.9,en-US;q=0.8,en;q=0.7","67fa89d6790924c25e5ffb8e","683db6dfa200031b80f2a654","68652650d57375e2aefad3e1","67fa89d6790924c25e5ffb8e","2025-07-02T12:43:18.170Z","","","","","","ControlQ","","","","","","","","","","","","","","","","","","","","","","","","","","","","","","","","","","","","","","50"
"3367","","<div style=""width:500px;"">
  <p>How would you describe your current emotional state?</p>
  </div>","0","html-slider-response","42","737468","0.0-10.0-3.0","252","1","2025-07-02 12:31:02","80fe4187154257d5fb01684ea91b68b9","41.114.83.212","Mozilla/5.0 (Windows NT 10.0; Win64; x64) AppleWebKit/537.36 (KHTML, like Gecko) Chrome/137.0.0.0 Safari/537.36","WebKit","Chrome","137.0.0.0","Windows","10.0","https://app.prolific.com/","en-ZA,en-GB;q=0.9,en-US;q=0.8,en;q=0.7","67fa89d6790924c25e5ffb8e","683db6dfa200031b80f2a654","68652650d57375e2aefad3e1","67fa89d6790924c25e5ffb8e","2025-07-02T12:43:21.538Z","","","","","","StressQ","","","","","","","","","","","","","","","","","","","","","","","","","","","","","","","","","","","","","","50"
"3552","","<div style=""width:500px;"">
  <p>What best describes how you currently feel?</p>
  </div>","50","html-slider-response","43","741021","0.0-10.0-4.0","252","1","2025-07-02 12:31:02","80fe4187154257d5fb01684ea91b68b9","41.114.83.212","Mozilla/5.0 (Windows NT 10.0; Win64; x64) AppleWebKit/537.36 (KHTML, like Gecko) Chrome/137.0.0.0 Safari/537.36","WebKit","Chrome","137.0.0.0","Windows","10.0","https://app.prolific.com/","en-ZA,en-GB;q=0.9,en-US;q=0.8,en;q=0.7","67fa89d6790924c25e5ffb8e","683db6dfa200031b80f2a654","68652650d57375e2aefad3e1","67fa89d6790924c25e5ffb8e","2025-07-02T12:43:25.091Z","","","","","","MotivationQ","","","","","","","","","","","","","","","","","","","","","","","","","","","","","","","","","","","","","","50"
"","","","","ctl-task-cpt","44","766930","0.0-10.0-0.1","252","1","2025-07-02 12:31:02","80fe4187154257d5fb01684ea91b68b9","41.114.83.212","Mozilla/5.0 (Windows NT 10.0; Win64; x64) AppleWebKit/537.36 (KHTML, like Gecko) Chrome/137.0.0.0 Safari/537.36","WebKit","Chrome","137.0.0.0","Windows","10.0","https://app.prolific.com/","en-ZA,en-GB;q=0.9,en-US;q=0.8,en;q=0.7","67fa89d6790924c25e5ffb8e","683db6dfa200031b80f2a654","68652650d57375e2aefad3e1","67fa89d6790924c25e5ffb8e","2025-07-02T12:43:51.000Z","","","","","","","","","","","","","","","","win-only","0","g1:NW,g2:SE","0.9","2","0","745139.2","1209.1","6210.6","22892.2","1","4","8","6","2","8","8","12","4","0.09090909090909091","1335.1","3000","720","[""down"",""right""]","{""num_key_presses"":6,""num_perfect"":5,""num_errors"":0,""num_randdir"":1,""num_randdir_good_moves"":1,""num_whilered"":0,""num_whileblue"":0,""num_blue"":0,""num_good_moves"":6}","[407.8214133126395,414.07142761775424,0.2,407.8214133126395,414.07142761775424,101.5,406.5714133126395,414.07142761775424,202,406.5714133126395,414.07142761775424,302,405.3214133126395,405.32142761775424,402.2,370.3214133126395,359.07142761775424,507.3,347.8214133126395,341.57142761775424,612.4,347.8214133126395,341.57142761775424,716.8,371.5714133126395,402.82142761775424,817,531.5714133126395,611.5714276177542,918.1,592.8214133126395,695.3214276177542,1022.4,632.8214133126395,741.5714276177542,1127.2,676.5714133126395,757.8214276177542,1233.3,717.8214133126395,764.0714276177542,1336.6,717.8214133126395,764.0714276177542,1447.1,719.0714133126395,757.8214276177542,1552.5,715.3214133126395,682.8214276177542,1657.1,797.8214133126395,456.57142761775424,1757.1,851.5714133126395,356.57142761775424,1868.7,851.5714133126395,356.57142761775424,1972,851.5714133126395,356.57142761775424,2078,851.5714133126395,356.57142761775424,2182.7,851.5714133126395,356.57142761775424,2282.8,851.5714133126395,356.57142761775424,2387.1,851.5714133126395,356.57142761775424,2493.9,851.5714133126395,356.57142761775424,2596.7,851.5714133126395,356.57142761775424,2701.8,851.5714133126395,356.57142761775424,2807,851.5714133126395,356.57142761775424,2911.4,851.5714133126395,356.57142761775424,3015.6,851.5714133126395,356.57142761775424,3117.4,851.5714133126395,356.57142761775424,3221.8,851.5714133126395,356.57142761775424,3322.1,851.5714133126395,356.57142761775424,3429.2,851.5714133126395,356.57142761775424,3530.4,851.5714133126395,356.57142761775424,3632.1,851.5714133126395,356.57142761775424,3736.3,851.5714133126395,356.57142761775424,3836.8,851.5714133126395,356.57142761775424,3937.4,851.5714133126395,356.57142761775424,4041.9,851.5714133126395,356.57142761775424,4144.9,851.5714133126395,356.57142761775424,4250.3,851.5714133126395,356.57142761775424,4351.3,851.5714133126395,356.57142761775424,4452.1,851.5714133126395,356.57142761775424,4559.7,851.5714133126395,356.57142761775424,4661.8,851.5714133126395,356.57142761775424,4763.2,851.5714133126395,356.57142761775424,4866.2,851.5714133126395,356.57142761775424,4971]","[1419.3,1419.3,1000,0,419.4,""smooth"",""down"",""down"",""good_move"",3909.6,2489,2047.1,1420.7,441.8,""smooth"",""right"",""right"",""good_move"",6757,2847.1,2359.1,3909.9,488,""smooth"",""down"",""down"",""good_move"",10652.1,3894.8,3204.3,6757.3,690.5,""smooth"",""right"",""right"",""good_move"",13983,3330.7,2939.4,10652.3,391.3,""oops"",""down"",""right"",""good_move"",16570.1,2586.7,2185,13983.4,401.7,""smooth"",""down"",""down"",""good_move""]","",""
"4040","","<div style=""width:500px;"">
  <p>What determined the result of this run?</p>
  </div>","100","html-slider-response","45","770971","0.0-10.0-1.1","252","1","2025-07-02 12:31:02","80fe4187154257d5fb01684ea91b68b9","41.114.83.212","Mozilla/5.0 (Windows NT 10.0; Win64; x64) AppleWebKit/537.36 (KHTML, like Gecko) Chrome/137.0.0.0 Safari/537.36","WebKit","Chrome","137.0.0.0","Windows","10.0","https://app.prolific.com/","en-ZA,en-GB;q=0.9,en-US;q=0.8,en;q=0.7","67fa89d6790924c25e5ffb8e","683db6dfa200031b80f2a654","68652650d57375e2aefad3e1","67fa89d6790924c25e5ffb8e","2025-07-02T12:43:55.041Z","","","","","","AttribQ","","","","","","","","","","","","","","","","","","","","","","","","","","","","","","","","","","","","","","50"
"2626","","<div style=""width:500px;"">
  <p>How much control did you have over the ball?</p>
  </div>","87","html-slider-response","46","773597","0.0-10.0-2.1","252","1","2025-07-02 12:31:02","80fe4187154257d5fb01684ea91b68b9","41.114.83.212","Mozilla/5.0 (Windows NT 10.0; Win64; x64) AppleWebKit/537.36 (KHTML, like Gecko) Chrome/137.0.0.0 Safari/537.36","WebKit","Chrome","137.0.0.0","Windows","10.0","https://app.prolific.com/","en-ZA,en-GB;q=0.9,en-US;q=0.8,en;q=0.7","67fa89d6790924c25e5ffb8e","683db6dfa200031b80f2a654","68652650d57375e2aefad3e1","67fa89d6790924c25e5ffb8e","2025-07-02T12:43:57.667Z","","","","","","ControlQ","","","","","","","","","","","","","","","","","","","","","","","","","","","","","","","","","","","","","","50"
"2719","","<div style=""width:500px;"">
  <p>How would you describe your current emotional state?</p>
  </div>","0","html-slider-response","47","776317","0.0-10.0-3.1","252","1","2025-07-02 12:31:02","80fe4187154257d5fb01684ea91b68b9","41.114.83.212","Mozilla/5.0 (Windows NT 10.0; Win64; x64) AppleWebKit/537.36 (KHTML, like Gecko) Chrome/137.0.0.0 Safari/537.36","WebKit","Chrome","137.0.0.0","Windows","10.0","https://app.prolific.com/","en-ZA,en-GB;q=0.9,en-US;q=0.8,en;q=0.7","67fa89d6790924c25e5ffb8e","683db6dfa200031b80f2a654","68652650d57375e2aefad3e1","67fa89d6790924c25e5ffb8e","2025-07-02T12:44:00.387Z","","","","","","StressQ","","","","","","","","","","","","","","","","","","","","","","","","","","","","","","","","","","","","","","50"
"2139","","<div style=""width:500px;"">
  <p>What best describes how you currently feel?</p>
  </div>","53","html-slider-response","48","778457","0.0-10.0-4.1","252","1","2025-07-02 12:31:02","80fe4187154257d5fb01684ea91b68b9","41.114.83.212","Mozilla/5.0 (Windows NT 10.0; Win64; x64) AppleWebKit/537.36 (KHTML, like Gecko) Chrome/137.0.0.0 Safari/537.36","WebKit","Chrome","137.0.0.0","Windows","10.0","https://app.prolific.com/","en-ZA,en-GB;q=0.9,en-US;q=0.8,en;q=0.7","67fa89d6790924c25e5ffb8e","683db6dfa200031b80f2a654","68652650d57375e2aefad3e1","67fa89d6790924c25e5ffb8e","2025-07-02T12:44:02.528Z","","","","","","MotivationQ","","","","","","","","","","","","","","","","","","","","","","","","","","","","","","","","","","","","","","50"
"","","","","ctl-task-cpt","49","807156","0.0-10.0-0.2","252","1","2025-07-02 12:31:02","80fe4187154257d5fb01684ea91b68b9","41.114.83.212","Mozilla/5.0 (Windows NT 10.0; Win64; x64) AppleWebKit/537.36 (KHTML, like Gecko) Chrome/137.0.0.0 Safari/537.36","WebKit","Chrome","137.0.0.0","Windows","10.0","https://app.prolific.com/","en-ZA,en-GB;q=0.9,en-US;q=0.8,en;q=0.7","67fa89d6790924c25e5ffb8e","683db6dfa200031b80f2a654","68652650d57375e2aefad3e1","67fa89d6790924c25e5ffb8e","2025-07-02T12:44:31.226Z","","","","","","","","","","","","","","","","win-only","3","g1:SW,g2:NE","0.8","3","0","782576.1","1017.6","6023","25678.5","1","4","8","6","2","8","7","19","12","0.14393939393939395","1111.5","3000","940","[""up"",""right""]","{""num_key_presses"":6,""num_perfect"":5,""num_errors"":1,""num_randdir"":0,""num_randdir_good_moves"":0,""num_whilered"":0,""num_whileblue"":1,""num_blue"":2,""num_good_moves"":6}","[415.3214133126395,409.07142761775424,0.3,415.3214133126395,409.07142761775424,101.7,415.3214133126395,409.07142761775424,205,415.3214133126395,409.07142761775424,311,412.8214133126395,404.07142761775424,413.8,406.5714133126395,399.07142761775424,517.7,406.5714133126395,399.07142761775424,629.4,511.5714133126395,232.82142761775424,736.3,571.5714133126395,124.07142761775425,838.7,622.8214133126395,96.57142761775425,943.5,735.3214133126395,101.57142761775425,1043.6,761.5714133126395,101.57142761775425,1143.8,761.5714133126395,101.57142761775425,1250.8,761.5714133126395,104.07142761775425,1353.5,756.5714133126395,152.82142761775424,1459.1,841.5714133126395,244.07142761775424,1563.4,999.0714133126395,312.82142761775424,1673.8,1006.5714133126395,325.32142761775424,1779,934.0714133126395,347.82142761775424,1879.3,934.0714133126395,347.82142761775424,1984.1,934.0714133126395,347.82142761775424,2090.2,934.0714133126395,347.82142761775424,2194.3,934.0714133126395,347.82142761775424,2297.8,934.0714133126395,347.82142761775424,2397.8,934.0714133126395,347.82142761775424,2506.2,934.0714133126395,347.82142761775424,2608.3,934.0714133126395,347.82142761775424,2708.8,934.0714133126395,347.82142761775424,2813.4,934.0714133126395,347.82142761775424,2915,934.0714133126395,347.82142761775424,3017.8,934.0714133126395,347.82142761775424,3120.3,934.0714133126395,347.82142761775424,3224.3,934.0714133126395,347.82142761775424,3328.2,934.0714133126395,347.82142761775424,3433.1,934.0714133126395,347.82142761775424,3533.7,934.0714133126395,347.82142761775424,3638.9,934.0714133126395,347.82142761775424,3742.5,934.0714133126395,347.82142761775424,3847.8,934.0714133126395,347.82142761775424,3955.7,934.0714133126395,347.82142761775424,4058.1,934.0714133126395,347.82142761775424,4159,934.0714133126395,347.82142761775424,4263.5,934.0714133126395,347.82142761775424,4363.8,934.0714133126395,347.82142761775424,4469.2,934.0714133126395,347.82142761775424,4570.7,934.0714133126395,347.82142761775424,4673.4,934.0714133126395,347.82142761775424,4775.2,934.0714133126395,347.82142761775424,4878.3,934.0714133126395,347.82142761775424,4983.1]","[1508.2,1508.2,1000,0,508.2,""smooth"",""up"",""up"",""good_move"",8026.2,6517.5,2899.8,4668.3,458.1,""smooth"",""right"",""right"",""good_move"",10979.8,2953.3,2305.8,8026.5,647.5,""smooth"",""up"",""up"",""good_move"",14334.5,3354.4,2994.6,10980.1,359.8,""smooth"",""right"",""right"",""good_move"",16773.1,2438.4,1999.2,14334.7,439.2,""smooth"",""up"",""up"",""good_move"",19561.9,2788,2353.5,16773.9,434.5,""while_blue"",""right"",""right"",""good_move""]","",""
"2249","","<div style=""width:500px;"">
  <p>What determined the result of this run?</p>
  </div>","100","html-slider-response","50","809406","0.0-10.0-1.2","252","1","2025-07-02 12:31:02","80fe4187154257d5fb01684ea91b68b9","41.114.83.212","Mozilla/5.0 (Windows NT 10.0; Win64; x64) AppleWebKit/537.36 (KHTML, like Gecko) Chrome/137.0.0.0 Safari/537.36","WebKit","Chrome","137.0.0.0","Windows","10.0","https://app.prolific.com/","en-ZA,en-GB;q=0.9,en-US;q=0.8,en;q=0.7","67fa89d6790924c25e5ffb8e","683db6dfa200031b80f2a654","68652650d57375e2aefad3e1","67fa89d6790924c25e5ffb8e","2025-07-02T12:44:33.476Z","","","","","","AttribQ","","","","","","","","","","","","","","","","","","","","","","","","","","","","","","","","","","","","","","50"
"4312","","<div style=""width:500px;"">
  <p>How much control did you have over the ball?</p>
  </div>","100","html-slider-response","51","813720","0.0-10.0-2.2","252","1","2025-07-02 12:31:02","80fe4187154257d5fb01684ea91b68b9","41.114.83.212","Mozilla/5.0 (Windows NT 10.0; Win64; x64) AppleWebKit/537.36 (KHTML, like Gecko) Chrome/137.0.0.0 Safari/537.36","WebKit","Chrome","137.0.0.0","Windows","10.0","https://app.prolific.com/","en-ZA,en-GB;q=0.9,en-US;q=0.8,en;q=0.7","67fa89d6790924c25e5ffb8e","683db6dfa200031b80f2a654","68652650d57375e2aefad3e1","67fa89d6790924c25e5ffb8e","2025-07-02T12:44:37.790Z","","","","","","ControlQ","","","","","","","","","","","","","","","","","","","","","","","","","","","","","","","","","","","","","","50"
"2366","","<div style=""width:500px;"">
  <p>How would you describe your current emotional state?</p>
  </div>","0","html-slider-response","52","816088","0.0-10.0-3.2","252","1","2025-07-02 12:31:02","80fe4187154257d5fb01684ea91b68b9","41.114.83.212","Mozilla/5.0 (Windows NT 10.0; Win64; x64) AppleWebKit/537.36 (KHTML, like Gecko) Chrome/137.0.0.0 Safari/537.36","WebKit","Chrome","137.0.0.0","Windows","10.0","https://app.prolific.com/","en-ZA,en-GB;q=0.9,en-US;q=0.8,en;q=0.7","67fa89d6790924c25e5ffb8e","683db6dfa200031b80f2a654","68652650d57375e2aefad3e1","67fa89d6790924c25e5ffb8e","2025-07-02T12:44:40.158Z","","","","","","StressQ","","","","","","","","","","","","","","","","","","","","","","","","","","","","","","","","","","","","","","50"
"1698","","<div style=""width:500px;"">
  <p>What best describes how you currently feel?</p>
  </div>","100","html-slider-response","53","817787","0.0-10.0-4.2","252","1","2025-07-02 12:31:02","80fe4187154257d5fb01684ea91b68b9","41.114.83.212","Mozilla/5.0 (Windows NT 10.0; Win64; x64) AppleWebKit/537.36 (KHTML, like Gecko) Chrome/137.0.0.0 Safari/537.36","WebKit","Chrome","137.0.0.0","Windows","10.0","https://app.prolific.com/","en-ZA,en-GB;q=0.9,en-US;q=0.8,en;q=0.7","67fa89d6790924c25e5ffb8e","683db6dfa200031b80f2a654","68652650d57375e2aefad3e1","67fa89d6790924c25e5ffb8e","2025-07-02T12:44:41.857Z","","","","","","MotivationQ","","","","","","","","","","","","","","","","","","","","","","","","","","","","","","","","","","","","","","50"
"","","","","ctl-task-cpt","54","865306","0.0-10.0-0.3","252","1","2025-07-02 12:31:02","80fe4187154257d5fb01684ea91b68b9","41.114.83.212","Mozilla/5.0 (Windows NT 10.0; Win64; x64) AppleWebKit/537.36 (KHTML, like Gecko) Chrome/137.0.0.0 Safari/537.36","WebKit","Chrome","137.0.0.0","Windows","10.0","https://app.prolific.com/","en-ZA,en-GB;q=0.9,en-US;q=0.8,en;q=0.7","67fa89d6790924c25e5ffb8e","683db6dfa200031b80f2a654","68652650d57375e2aefad3e1","67fa89d6790924c25e5ffb8e","2025-07-02T12:45:29.376Z","","","","","","","","","","","","","","","","win-only","3","g1:SW,g2:NE","0.7","4","0","821905","1077","6081","44500.6","1","4","4","6","2","-4","-5","14","19","0.10606060606060606","916.7","3000","-2275","[""up"",""right""]","{""num_key_presses"":9,""num_perfect"":5,""num_errors"":1,""num_randdir"":3,""num_randdir_good_moves"":1,""num_whilered"":0,""num_whileblue"":1,""num_blue"":4,""num_good_moves"":6}","[410.3214133126395,416.57142761775424,0.1,410.3214133126395,416.57142761775424,103.7,410.3214133126395,416.57142761775424,204.2,410.3214133126395,416.57142761775424,308.3,406.5714133126395,416.57142761775424,409,396.5714133126395,416.57142761775424,513.7,524.0714133126395,306.57142761775424,613.8,707.8214133126395,131.57142761775424,718.3,717.8214133126395,122.82142761775425,819.3,725.3214133126395,117.82142761775425,920.1,725.3214133126395,117.82142761775425,1024.6,725.3214133126395,116.57142761775425,1132.6,725.3214133126395,117.82142761775425,1233.7,694.0714133126395,166.57142761775424,1334.6,659.0714133126395,206.57142761775424,1449.5,654.0714133126395,206.57142761775424,1555,654.0714133126395,206.57142761775424,1659.1,654.0714133126395,206.57142761775424,1759.3,654.0714133126395,206.57142761775424,1869.2,654.0714133126395,206.57142761775424,1974.1,654.0714133126395,206.57142761775424,2079.8,654.0714133126395,206.57142761775424,2184.4,654.0714133126395,206.57142761775424,2284.7,654.0714133126395,206.57142761775424,2388.5,654.0714133126395,206.57142761775424,2488.5,654.0714133126395,206.57142761775424,2589,654.0714133126395,206.57142761775424,2693.3,654.0714133126395,206.57142761775424,2800.5,654.0714133126395,206.57142761775424,2904.3,654.0714133126395,206.57142761775424,3010.7,654.0714133126395,206.57142761775424,3114,654.0714133126395,206.57142761775424,3215.4,654.0714133126395,206.57142761775424,3318.3,654.0714133126395,206.57142761775424,3418.4,654.0714133126395,206.57142761775424,3518.5,654.0714133126395,206.57142761775424,3623.3,654.0714133126395,206.57142761775424,3730.2,654.0714133126395,206.57142761775424,3836.3,654.0714133126395,206.57142761775424,3948.3,654.0714133126395,206.57142761775424,4050.2,654.0714133126395,206.57142761775424,4163.8,654.0714133126395,206.57142761775424,4264,654.0714133126395,206.57142761775424,4379.6,654.0714133126395,206.57142761775424,4484.4,654.0714133126395,206.57142761775424,4597.4,654.0714133126395,206.57142761775424,4697.4,654.0714133126395,206.57142761775424,4798.3,654.0714133126395,206.57142761775424,4898.9,654.0714133126395,206.57142761775424,4999]","[1490.1,1490.1,1000,0,490.1,""smooth"",""up"",""up"",""good_move"",4188.4,2697.9,2261.7,1490.5,436.2,""smooth"",""right"",""right"",""good_move"",7137,2948.4,2547.4,4188.6,401,""smooth"",""up"",""up"",""good_move"",13830.2,6693.1,2440.8,10920.7,468.7,""oops"",""right"",""left"",""bad_move"",20255.6,6425.2,2696.5,17109.9,449.2,""smooth"",""up"",""up"",""good_move"",26210.3,5954.6,2169.8,23419.6,620.9,""oops"",""right"",""down"",""bad_move"",29465,3254.2,2859.7,26210.8,394.5,""oops"",""right"",""up"",""good_move"",32093.6,2628.5,2259.7,29465.2,368.8,""while_blue"",""right"",""left"",""bad_move"",35323.7,3229.7,2674.1,32094,555.6,""smooth"",""right"",""right"",""good_move""]","",""
"4224","","<div style=""width:500px;"">
  <p>What determined the result of this run?</p>
  </div>","85","html-slider-response","55","869531","0.0-10.0-1.3","252","1","2025-07-02 12:31:02","80fe4187154257d5fb01684ea91b68b9","41.114.83.212","Mozilla/5.0 (Windows NT 10.0; Win64; x64) AppleWebKit/537.36 (KHTML, like Gecko) Chrome/137.0.0.0 Safari/537.36","WebKit","Chrome","137.0.0.0","Windows","10.0","https://app.prolific.com/","en-ZA,en-GB;q=0.9,en-US;q=0.8,en;q=0.7","67fa89d6790924c25e5ffb8e","683db6dfa200031b80f2a654","68652650d57375e2aefad3e1","67fa89d6790924c25e5ffb8e","2025-07-02T12:45:33.601Z","","","","","","AttribQ","","","","","","","","","","","","","","","","","","","","","","","","","","","","","","","","","","","","","","50"
"4779","","<div style=""width:500px;"">
  <p>How much control did you have over the ball?</p>
  </div>","10","html-slider-response","56","874311","0.0-10.0-2.3","252","1","2025-07-02 12:31:02","80fe4187154257d5fb01684ea91b68b9","41.114.83.212","Mozilla/5.0 (Windows NT 10.0; Win64; x64) AppleWebKit/537.36 (KHTML, like Gecko) Chrome/137.0.0.0 Safari/537.36","WebKit","Chrome","137.0.0.0","Windows","10.0","https://app.prolific.com/","en-ZA,en-GB;q=0.9,en-US;q=0.8,en;q=0.7","67fa89d6790924c25e5ffb8e","683db6dfa200031b80f2a654","68652650d57375e2aefad3e1","67fa89d6790924c25e5ffb8e","2025-07-02T12:45:38.381Z","","","","","","ControlQ","","","","","","","","","","","","","","","","","","","","","","","","","","","","","","","","","","","","","","50"
"3527","","<div style=""width:500px;"">
  <p>How would you describe your current emotional state?</p>
  </div>","0","html-slider-response","57","877838","0.0-10.0-3.3","252","1","2025-07-02 12:31:02","80fe4187154257d5fb01684ea91b68b9","41.114.83.212","Mozilla/5.0 (Windows NT 10.0; Win64; x64) AppleWebKit/537.36 (KHTML, like Gecko) Chrome/137.0.0.0 Safari/537.36","WebKit","Chrome","137.0.0.0","Windows","10.0","https://app.prolific.com/","en-ZA,en-GB;q=0.9,en-US;q=0.8,en;q=0.7","67fa89d6790924c25e5ffb8e","683db6dfa200031b80f2a654","68652650d57375e2aefad3e1","67fa89d6790924c25e5ffb8e","2025-07-02T12:45:41.909Z","","","","","","StressQ","","","","","","","","","","","","","","","","","","","","","","","","","","","","","","","","","","","","","","50"
"3378","","<div style=""width:500px;"">
  <p>What best describes how you currently feel?</p>
  </div>","51","html-slider-response","58","881218","0.0-10.0-4.3","252","1","2025-07-02 12:31:02","80fe4187154257d5fb01684ea91b68b9","41.114.83.212","Mozilla/5.0 (Windows NT 10.0; Win64; x64) AppleWebKit/537.36 (KHTML, like Gecko) Chrome/137.0.0.0 Safari/537.36","WebKit","Chrome","137.0.0.0","Windows","10.0","https://app.prolific.com/","en-ZA,en-GB;q=0.9,en-US;q=0.8,en;q=0.7","67fa89d6790924c25e5ffb8e","683db6dfa200031b80f2a654","68652650d57375e2aefad3e1","67fa89d6790924c25e5ffb8e","2025-07-02T12:45:45.288Z","","","","","","MotivationQ","","","","","","","","","","","","","","","","","","","","","","","","","","","","","","","","","","","","","","50"
"","","","","ctl-task-cpt","59","948413","0.0-10.0-0.4","252","1","2025-07-02 12:31:02","80fe4187154257d5fb01684ea91b68b9","41.114.83.212","Mozilla/5.0 (Windows NT 10.0; Win64; x64) AppleWebKit/537.36 (KHTML, like Gecko) Chrome/137.0.0.0 Safari/537.36","WebKit","Chrome","137.0.0.0","Windows","10.0","https://app.prolific.com/","en-ZA,en-GB;q=0.9,en-US;q=0.8,en;q=0.7","67fa89d6790924c25e5ffb8e","683db6dfa200031b80f2a654","68652650d57375e2aefad3e1","67fa89d6790924c25e5ffb8e","2025-07-02T12:46:52.483Z","","","","","","","","","","","","","","","","win-only","1","g1:NE,g2:SW","0.6","5","0","885336.2","1671.5","6677.2","64181.7","1","4","4","6","2","-4","-13","1","14","0.007575757575757576","1548","3000","-2090","[""down"",""left""]","{""num_key_presses"":19,""num_perfect"":6,""num_errors"":9,""num_randdir"":4,""num_randdir_good_moves"":1,""num_whilered"":0,""num_whileblue"":1,""num_blue"":4,""num_good_moves"":8}","[421.5714133126395,421.57142761775424,0.4,421.5714133126395,421.57142761775424,102.1,421.5714133126395,421.57142761775424,217.6,421.5714133126395,421.57142761775424,320.3,421.5714133126395,414.07142761775424,423.7,422.8214133126395,405.32142761775424,525.7,381.5714133126395,436.57142761775424,625.7,359.0714133126395,470.32142761775424,726.4,359.0714133126395,471.57142761775424,829.3,336.5714133126395,485.32142761775424,935,186.5714133126395,575.3214276177542,1050.7,142.8214133126395,626.5714276177542,1154.8,126.5714133126395,657.8214276177542,1255.4,101.5714133126395,692.8214276177542,1355.4,74.0714133126395,720.3214276177542,1455.4,66.5714133126395,731.5714276177542,1555.7,65.3214133126395,734.0714276177542,1656.4,61.57141331263951,720.3214276177542,1758.8,61.57141331263951,720.3214276177542,1859.4,61.57141331263951,720.3214276177542,1966,61.57141331263951,720.3214276177542,2066,66.5714133126395,705.3214276177542,2167,66.5714133126395,687.8214276177542,2270.5,66.5714133126395,687.8214276177542,2374.7,66.5714133126395,687.8214276177542,2475.5,66.5714133126395,687.8214276177542,2579.1,66.5714133126395,687.8214276177542,2679.7,66.5714133126395,687.8214276177542,2784.8,66.5714133126395,687.8214276177542,2890.3,66.5714133126395,687.8214276177542,2996.4,66.5714133126395,687.8214276177542,3099.9,66.5714133126395,687.8214276177542,3216.1,66.5714133126395,687.8214276177542,3319.7,66.5714133126395,687.8214276177542,3425.5,66.5714133126395,687.8214276177542,3526.1,66.5714133126395,687.8214276177542,3628.8,66.5714133126395,687.8214276177542,3729.4,66.5714133126395,687.8214276177542,3830.4,66.5714133126395,687.8214276177542,3933,66.5714133126395,687.8214276177542,4038.3,66.5714133126395,687.8214276177542,4139.2,66.5714133126395,687.8214276177542,4240.1,66.5714133126395,687.8214276177542,4344.4,66.5714133126395,687.8214276177542,4461.1,66.5714133126395,687.8214276177542,4565.2,66.5714133126395,687.8214276177542,4669.8,66.5714133126395,687.8214276177542,4770,66.5714133126395,687.8214276177542,4875.2,66.5714133126395,687.8214276177542,4978.8]","[1404.4,1404.4,1000,0,404.4,""smooth"",""left"",""left"",""good_move"",12684.1,11279.4,2911,9338.6,434.5,""smooth"",""left"",""left"",""good_move"",15718.3,3034,2567.5,12684.3,466.5,""oops"",""left"",""up"",""bad_move"",18837,3118.3,2679.7,15718.7,438.6,""smooth"",""left"",""left"",""good_move"",21654.5,2817.3,2418.8,18837.2,398.5,""smooth"",""down"",""down"",""good_move"",27553.5,5898.7,2447.2,24699.8,406.5,""oops"",""down"",""right"",""bad_move"",31158,3604.3,3209.3,27553.7,395,""smooth"",""down"",""down"",""good_move"",33720,2561.8,2132.3,31158.2,429.5,""oops"",""down"",""down"",""good_move"",36694.1,2973.8,2571.9,33720.3,401.9,""smooth"",""down"",""down"",""good_move"",39150.8,2456.5,2083.5,36694.3,373.1,""oops"",""left"",""up"",""bad_move"",41849,2697.8,2400.7,39151.2,297.1,""while_blue"",""left"",""left"",""good_move"",43567.6,1718.3,2391.7,41849.3,-673.4,""error"",""-"",""-"",""no_move"",44797,1228.7,2330.3,44574.1,-2107.4,""error"",""-"",""-"",""no_move"",46190,1392.8,1822.2,45800.4,-1432.6,""error"",""-"",""-"",""no_move"",47549.8,1359.6,2784.1,47193.8,-2428.1,""error"",""-"",""-"",""no_move"",48943.3,1393.4,2847.1,48560.9,-2464.7,""error"",""-"",""-"",""no_move"",50391,1447.5,2874.7,49943.8,-2427.5,""error"",""-"",""-"",""no_move"",52499.7,2108.6,2275.3,51394.3,-1169.9,""error"",""-"",""-"",""no_move"",54039,1539.1,2207.7,53505.9,-1674.6,""error"",""-"",""-"",""no_move""]","",""
"2713","","<div style=""width:500px;"">
  <p>What determined the result of this run?</p>
  </div>","0","html-slider-response","60","951127","0.0-10.0-1.4","252","1","2025-07-02 12:31:02","80fe4187154257d5fb01684ea91b68b9","41.114.83.212","Mozilla/5.0 (Windows NT 10.0; Win64; x64) AppleWebKit/537.36 (KHTML, like Gecko) Chrome/137.0.0.0 Safari/537.36","WebKit","Chrome","137.0.0.0","Windows","10.0","https://app.prolific.com/","en-ZA,en-GB;q=0.9,en-US;q=0.8,en;q=0.7","67fa89d6790924c25e5ffb8e","683db6dfa200031b80f2a654","68652650d57375e2aefad3e1","67fa89d6790924c25e5ffb8e","2025-07-02T12:46:55.197Z","","","","","","AttribQ","","","","","","","","","","","","","","","","","","","","","","","","","","","","","","","","","","","","","","50"
"4095","","<div style=""width:500px;"">
  <p>How much control did you have over the ball?</p>
  </div>","14","html-slider-response","61","955223","0.0-10.0-2.4","252","1","2025-07-02 12:31:02","80fe4187154257d5fb01684ea91b68b9","41.114.83.212","Mozilla/5.0 (Windows NT 10.0; Win64; x64) AppleWebKit/537.36 (KHTML, like Gecko) Chrome/137.0.0.0 Safari/537.36","WebKit","Chrome","137.0.0.0","Windows","10.0","https://app.prolific.com/","en-ZA,en-GB;q=0.9,en-US;q=0.8,en;q=0.7","67fa89d6790924c25e5ffb8e","683db6dfa200031b80f2a654","68652650d57375e2aefad3e1","67fa89d6790924c25e5ffb8e","2025-07-02T12:46:59.294Z","","","","","","ControlQ","","","","","","","","","","","","","","","","","","","","","","","","","","","","","","","","","","","","","","50"
"2322","","<div style=""width:500px;"">
  <p>How would you describe your current emotional state?</p>
  </div>","100","html-slider-response","62","957547","0.0-10.0-3.4","252","1","2025-07-02 12:31:02","80fe4187154257d5fb01684ea91b68b9","41.114.83.212","Mozilla/5.0 (Windows NT 10.0; Win64; x64) AppleWebKit/537.36 (KHTML, like Gecko) Chrome/137.0.0.0 Safari/537.36","WebKit","Chrome","137.0.0.0","Windows","10.0","https://app.prolific.com/","en-ZA,en-GB;q=0.9,en-US;q=0.8,en;q=0.7","67fa89d6790924c25e5ffb8e","683db6dfa200031b80f2a654","68652650d57375e2aefad3e1","67fa89d6790924c25e5ffb8e","2025-07-02T12:47:01.617Z","","","","","","StressQ","","","","","","","","","","","","","","","","","","","","","","","","","","","","","","","","","","","","","","50"
"3038","","<div style=""width:500px;"">
  <p>What best describes how you currently feel?</p>
  </div>","74","html-slider-response","63","960586","0.0-10.0-4.4","252","1","2025-07-02 12:31:02","80fe4187154257d5fb01684ea91b68b9","41.114.83.212","Mozilla/5.0 (Windows NT 10.0; Win64; x64) AppleWebKit/537.36 (KHTML, like Gecko) Chrome/137.0.0.0 Safari/537.36","WebKit","Chrome","137.0.0.0","Windows","10.0","https://app.prolific.com/","en-ZA,en-GB;q=0.9,en-US;q=0.8,en;q=0.7","67fa89d6790924c25e5ffb8e","683db6dfa200031b80f2a654","68652650d57375e2aefad3e1","67fa89d6790924c25e5ffb8e","2025-07-02T12:47:04.657Z","","","","","","MotivationQ","","","","","","","","","","","","","","","","","","","","","","","","","","","","","","","","","","","","","","50"
"","","","","ctl-task-cpt","64","1011672","0.0-10.0-0.5","252","1","2025-07-02 12:31:02","80fe4187154257d5fb01684ea91b68b9","41.114.83.212","Mozilla/5.0 (Windows NT 10.0; Win64; x64) AppleWebKit/537.36 (KHTML, like Gecko) Chrome/137.0.0.0 Safari/537.36","WebKit","Chrome","137.0.0.0","Windows","10.0","https://app.prolific.com/","en-ZA,en-GB;q=0.9,en-US;q=0.8,en;q=0.7","67fa89d6790924c25e5ffb8e","683db6dfa200031b80f2a654","68652650d57375e2aefad3e1","67fa89d6790924c25e5ffb8e","2025-07-02T12:47:55.742Z","","","","","","","","","","","","","","","","win-only","0","g1:NW,g2:SE","0.5","6","0","964705.7","1038.3","6041.1","48060.4","1","4","8","6","2","-8","-9","0","1","0","1081.6","3000","-2320","[""down"",""right""]","{""num_key_presses"":10,""num_perfect"":5,""num_errors"":1,""num_randdir"":4,""num_randdir_good_moves"":1,""num_whilered"":0,""num_whileblue"":1,""num_blue"":5,""num_good_moves"":7}","[414.0714133126395,421.57142761775424,0.6,414.0714133126395,421.57142761775424,104.8,414.0714133126395,421.57142761775424,207.7,414.0714133126395,421.57142761775424,311.5,414.0714133126395,421.57142761775424,414.3,414.0714133126395,417.82142761775424,518.4,416.5714133126395,416.57142761775424,620.5,484.0714133126395,451.57142761775424,722.7,621.5714133126395,626.5714276177542,822.8,724.0714133126395,715.3214276177542,928.6,785.3214133126395,756.5714276177542,1039.1,785.3214133126395,756.5714276177542,1142,787.8214133126395,756.5714276177542,1252,787.8214133126395,789.0714276177542,1359.8,787.8214133126395,789.0714276177542,1473,787.8214133126395,789.0714276177542,1573.4,787.8214133126395,789.0714276177542,1678,787.8214133126395,789.0714276177542,1783.1,787.8214133126395,789.0714276177542,1894.2,787.8214133126395,789.0714276177542,1999.8,787.8214133126395,789.0714276177542,2102.7,787.8214133126395,789.0714276177542,2207.5,787.8214133126395,789.0714276177542,2308.3,787.8214133126395,789.0714276177542,2410.8,787.8214133126395,789.0714276177542,2513,787.8214133126395,789.0714276177542,2623.4,787.8214133126395,789.0714276177542,2728,787.8214133126395,789.0714276177542,2833,787.8214133126395,789.0714276177542,2933.9,787.8214133126395,789.0714276177542,3035.2,787.8214133126395,789.0714276177542,3138.3,787.8214133126395,789.0714276177542,3242.1,787.8214133126395,789.0714276177542,3342.6,787.8214133126395,789.0714276177542,3447,787.8214133126395,789.0714276177542,3547.9,787.8214133126395,789.0714276177542,3652.2,787.8214133126395,789.0714276177542,3753.7,787.8214133126395,789.0714276177542,3869.5,787.8214133126395,789.0714276177542,3979.6,787.8214133126395,789.0714276177542,4082.6,787.8214133126395,789.0714276177542,4183.1,787.8214133126395,789.0714276177542,4283.8,787.8214133126395,789.0714276177542,4387,787.8214133126395,789.0714276177542,4487.4,787.8214133126395,789.0714276177542,4594.8,787.8214133126395,789.0714276177542,4697.7,787.8214133126395,789.0714276177542,4799.3,787.8214133126395,789.0714276177542,4900.9]","[1398.9,1398.9,1000,0,398.9,""smooth"",""down"",""down"",""good_move"",4183.6,2784.4,2443.6,1399.2,340.8,""oops"",""right"",""down"",""good_move"",7087.6,2903.8,2670.6,4183.8,233.2,""while_blue"",""right"",""down"",""good_move"",9962.1,2874.3,2438.9,7087.8,435.4,""smooth"",""right"",""right"",""good_move"",13652,3689.5,3293.6,9962.5,395.9,""oops"",""right"",""left"",""bad_move"",22940.2,9287.6,2616.5,19960.3,363.4,""oops"",""right"",""up"",""bad_move"",28970.4,6030,2490.5,25991.9,488,""smooth"",""right"",""right"",""good_move"",31322.9,2352.4,1826.4,28970.6,525.9,""oops"",""right"",""left"",""bad_move"",36757.4,5434.3,1859.1,34385.3,513,""smooth"",""right"",""right"",""good_move"",39236.6,2479,2041.7,36757.7,437.2,""smooth"",""right"",""right"",""good_move""]","",""
"5042","","<div style=""width:500px;"">
  <p>What determined the result of this run?</p>
  </div>","69","html-slider-response","65","1016715","0.0-10.0-1.5","252","1","2025-07-02 12:31:02","80fe4187154257d5fb01684ea91b68b9","41.114.83.212","Mozilla/5.0 (Windows NT 10.0; Win64; x64) AppleWebKit/537.36 (KHTML, like Gecko) Chrome/137.0.0.0 Safari/537.36","WebKit","Chrome","137.0.0.0","Windows","10.0","https://app.prolific.com/","en-ZA,en-GB;q=0.9,en-US;q=0.8,en;q=0.7","67fa89d6790924c25e5ffb8e","683db6dfa200031b80f2a654","68652650d57375e2aefad3e1","67fa89d6790924c25e5ffb8e","2025-07-02T12:48:00.785Z","","","","","","AttribQ","","","","","","","","","","","","","","","","","","","","","","","","","","","","","","","","","","","","","","50"
"3235","","<div style=""width:500px;"">
  <p>How much control did you have over the ball?</p>
  </div>","14","html-slider-response","66","1019953","0.0-10.0-2.5","252","1","2025-07-02 12:31:02","80fe4187154257d5fb01684ea91b68b9","41.114.83.212","Mozilla/5.0 (Windows NT 10.0; Win64; x64) AppleWebKit/537.36 (KHTML, like Gecko) Chrome/137.0.0.0 Safari/537.36","WebKit","Chrome","137.0.0.0","Windows","10.0","https://app.prolific.com/","en-ZA,en-GB;q=0.9,en-US;q=0.8,en;q=0.7","67fa89d6790924c25e5ffb8e","683db6dfa200031b80f2a654","68652650d57375e2aefad3e1","67fa89d6790924c25e5ffb8e","2025-07-02T12:48:04.023Z","","","","","","ControlQ","","","","","","","","","","","","","","","","","","","","","","","","","","","","","","","","","","","","","","50"
"4080","","<div style=""width:500px;"">
  <p>How would you describe your current emotional state?</p>
  </div>","82","html-slider-response","67","1024034","0.0-10.0-3.5","252","1","2025-07-02 12:31:02","80fe4187154257d5fb01684ea91b68b9","41.114.83.212","Mozilla/5.0 (Windows NT 10.0; Win64; x64) AppleWebKit/537.36 (KHTML, like Gecko) Chrome/137.0.0.0 Safari/537.36","WebKit","Chrome","137.0.0.0","Windows","10.0","https://app.prolific.com/","en-ZA,en-GB;q=0.9,en-US;q=0.8,en;q=0.7","67fa89d6790924c25e5ffb8e","683db6dfa200031b80f2a654","68652650d57375e2aefad3e1","67fa89d6790924c25e5ffb8e","2025-07-02T12:48:08.104Z","","","","","","StressQ","","","","","","","","","","","","","","","","","","","","","","","","","","","","","","","","","","","","","","50"
"3111","","<div style=""width:500px;"">
  <p>What best describes how you currently feel?</p>
  </div>","29","html-slider-response","68","1027146","0.0-10.0-4.5","252","1","2025-07-02 12:31:02","80fe4187154257d5fb01684ea91b68b9","41.114.83.212","Mozilla/5.0 (Windows NT 10.0; Win64; x64) AppleWebKit/537.36 (KHTML, like Gecko) Chrome/137.0.0.0 Safari/537.36","WebKit","Chrome","137.0.0.0","Windows","10.0","https://app.prolific.com/","en-ZA,en-GB;q=0.9,en-US;q=0.8,en;q=0.7","67fa89d6790924c25e5ffb8e","683db6dfa200031b80f2a654","68652650d57375e2aefad3e1","67fa89d6790924c25e5ffb8e","2025-07-02T12:48:11.216Z","","","","","","MotivationQ","","","","","","","","","","","","","","","","","","","","","","","","","","","","","","","","","","","","","","50"
"","","","","ctl-task-cpt","69","1075381","0.0-10.0-0.6","252","1","2025-07-02 12:31:02","80fe4187154257d5fb01684ea91b68b9","41.114.83.212","Mozilla/5.0 (Windows NT 10.0; Win64; x64) AppleWebKit/537.36 (KHTML, like Gecko) Chrome/137.0.0.0 Safari/537.36","WebKit","Chrome","137.0.0.0","Windows","10.0","https://app.prolific.com/","en-ZA,en-GB;q=0.9,en-US;q=0.8,en;q=0.7","67fa89d6790924c25e5ffb8e","683db6dfa200031b80f2a654","68652650d57375e2aefad3e1","67fa89d6790924c25e5ffb8e","2025-07-02T12:48:59.451Z","","","","","","","","","","","","","","","","win-only","1","g1:NE,g2:SW","0.4","7","0","1031264.7","1267.1","6271.6","45215.2","1","4","4","6","2","-4","-7","0","0","0","1507.5","3000","-2345","[""down"",""left""]","{""num_key_presses"":14,""num_perfect"":4,""num_errors"":3,""num_randdir"":7,""num_randdir_good_moves"":3,""num_whilered"":0,""num_whileblue"":0,""num_blue"":0,""num_good_moves"":7}","[416.5714133126395,419.07142761775424,0.3,416.5714133126395,419.07142761775424,103.1,416.5714133126395,419.07142761775424,204.2,416.5714133126395,419.07142761775424,308.9,416.5714133126395,419.07142761775424,413.8,416.5714133126395,419.07142761775424,518.5,410.3214133126395,419.07142761775424,619.9,342.8214133126395,469.07142761775424,725.2,250.3214133126395,577.8214276177542,828,76.5714133126395,701.5714276177542,928.3,-13.428586687360493,740.3214276177542,1030.3,-13.428586687360493,740.3214276177542,1136.9,-13.428586687360493,740.3214276177542,1242.2,6.571413312639507,746.5714276177542,1357.2,34.07141331263951,754.0714276177542,1459.5,35.32141331263951,754.0714276177542,1581.6,41.57141331263951,754.0714276177542,1694.4,161.5714133126395,736.5714276177542,1805.9,237.8214133126395,721.5714276177542,1910.5,251.5714133126395,725.3214276177542,2019.3,251.5714133126395,725.3214276177542,2123.4,251.5714133126395,725.3214276177542,2224,251.5714133126395,725.3214276177542,2330,251.5714133126395,725.3214276177542,2434.7,251.5714133126395,725.3214276177542,2540.5,251.5714133126395,725.3214276177542,2653.2,251.5714133126395,725.3214276177542,2754.5,251.5714133126395,725.3214276177542,2858.6,251.5714133126395,725.3214276177542,2960.8,251.5714133126395,725.3214276177542,3065.2,251.5714133126395,725.3214276177542,3168.9,251.5714133126395,725.3214276177542,3270.7,251.5714133126395,725.3214276177542,3383.8,251.5714133126395,725.3214276177542,3484.6,251.5714133126395,725.3214276177542,3598.4,251.5714133126395,725.3214276177542,3701.1,251.5714133126395,725.3214276177542,3804.5,251.5714133126395,725.3214276177542,3915.5,251.5714133126395,725.3214276177542,4016.1,251.5714133126395,725.3214276177542,4116.3,251.5714133126395,725.3214276177542,4217.2,251.5714133126395,725.3214276177542,4317.7,251.5714133126395,725.3214276177542,4419,251.5714133126395,725.3214276177542,4519.7,251.5714133126395,725.3214276177542,4623.8,251.5714133126395,725.3214276177542,4725.4,251.5714133126395,725.3214276177542,4834.5,251.5714133126395,725.3214276177542,4934.5]","[1420.6,1420.6,1000,0,420.6,""oops"",""left"",""right"",""bad_move"",4345.6,2924.7,2553.9,1420.9,370.8,""oops"",""down"",""down"",""good_move"",6956.2,2610.4,2222.9,4345.8,387.5,""oops"",""down"",""up"",""bad_move"",9825.2,2867.5,2500,6957.7,367.5,""smooth"",""left"",""left"",""good_move"",12254.8,2429.3,1996.3,9825.5,433,""smooth"",""left"",""left"",""good_move"",15083.7,2828.6,2462.1,12255.1,366.5,""smooth"",""left"",""left"",""good_move"",17449.7,2365.9,2049.2,15083.8,316.7,""oops"",""down"",""up"",""bad_move"",20477.3,3027.4,2752.5,17449.9,274.9,""smooth"",""left"",""left"",""good_move"",23375,2897.5,2538.6,20477.6,358.8,""oops"",""down"",""up"",""bad_move"",25863,2487.8,2127.2,23375.2,360.6,""oops"",""down"",""down"",""good_move"",28364.4,2501.1,2148.1,25863.3,353,""oops"",""down"",""down"",""good_move"",30902.4,2536.9,2681,28365.5,-144.1,""error"",""-"",""-"",""no_move"",32298.1,1395.5,2321.7,31910.6,-1934.2,""error"",""-"",""-"",""no_move"",34931.8,2633.2,2541.7,33300.4,-910.3,""error"",""-"",""-"",""no_move""]","",""
"2389","","<div style=""width:500px;"">
  <p>What determined the result of this run?</p>
  </div>","0","html-slider-response","70","1077771","0.0-10.0-1.6","252","1","2025-07-02 12:31:02","80fe4187154257d5fb01684ea91b68b9","41.114.83.212","Mozilla/5.0 (Windows NT 10.0; Win64; x64) AppleWebKit/537.36 (KHTML, like Gecko) Chrome/137.0.0.0 Safari/537.36","WebKit","Chrome","137.0.0.0","Windows","10.0","https://app.prolific.com/","en-ZA,en-GB;q=0.9,en-US;q=0.8,en;q=0.7","67fa89d6790924c25e5ffb8e","683db6dfa200031b80f2a654","68652650d57375e2aefad3e1","67fa89d6790924c25e5ffb8e","2025-07-02T12:49:01.841Z","","","","","","AttribQ","","","","","","","","","","","","","","","","","","","","","","","","","","","","","","","","","","","","","","50"
"3961","","<div style=""width:500px;"">
  <p>How much control did you have over the ball?</p>
  </div>","0","html-slider-response","71","1081734","0.0-10.0-2.6","252","1","2025-07-02 12:31:02","80fe4187154257d5fb01684ea91b68b9","41.114.83.212","Mozilla/5.0 (Windows NT 10.0; Win64; x64) AppleWebKit/537.36 (KHTML, like Gecko) Chrome/137.0.0.0 Safari/537.36","WebKit","Chrome","137.0.0.0","Windows","10.0","https://app.prolific.com/","en-ZA,en-GB;q=0.9,en-US;q=0.8,en;q=0.7","67fa89d6790924c25e5ffb8e","683db6dfa200031b80f2a654","68652650d57375e2aefad3e1","67fa89d6790924c25e5ffb8e","2025-07-02T12:49:05.804Z","","","","","","ControlQ","","","","","","","","","","","","","","","","","","","","","","","","","","","","","","","","","","","","","","50"
"2186","","<div style=""width:500px;"">
  <p>How would you describe your current emotional state?</p>
  </div>","98","html-slider-response","72","1083921","0.0-10.0-3.6","252","1","2025-07-02 12:31:02","80fe4187154257d5fb01684ea91b68b9","41.114.83.212","Mozilla/5.0 (Windows NT 10.0; Win64; x64) AppleWebKit/537.36 (KHTML, like Gecko) Chrome/137.0.0.0 Safari/537.36","WebKit","Chrome","137.0.0.0","Windows","10.0","https://app.prolific.com/","en-ZA,en-GB;q=0.9,en-US;q=0.8,en;q=0.7","67fa89d6790924c25e5ffb8e","683db6dfa200031b80f2a654","68652650d57375e2aefad3e1","67fa89d6790924c25e5ffb8e","2025-07-02T12:49:07.991Z","","","","","","StressQ","","","","","","","","","","","","","","","","","","","","","","","","","","","","","","","","","","","","","","50"
"5294","","<div style=""width:500px;"">
  <p>What best describes how you currently feel?</p>
  </div>","16","html-slider-response","73","1089216","0.0-10.0-4.6","252","1","2025-07-02 12:31:02","80fe4187154257d5fb01684ea91b68b9","41.114.83.212","Mozilla/5.0 (Windows NT 10.0; Win64; x64) AppleWebKit/537.36 (KHTML, like Gecko) Chrome/137.0.0.0 Safari/537.36","WebKit","Chrome","137.0.0.0","Windows","10.0","https://app.prolific.com/","en-ZA,en-GB;q=0.9,en-US;q=0.8,en;q=0.7","67fa89d6790924c25e5ffb8e","683db6dfa200031b80f2a654","68652650d57375e2aefad3e1","67fa89d6790924c25e5ffb8e","2025-07-02T12:49:13.286Z","","","","","","MotivationQ","","","","","","","","","","","","","","","","","","","","","","","","","","","","","","","","","","","","","","50"
"","","","","ctl-task-cpt","74","1142167","0.0-10.0-0.7","252","1","2025-07-02 12:31:02","80fe4187154257d5fb01684ea91b68b9","41.114.83.212","Mozilla/5.0 (Windows NT 10.0; Win64; x64) AppleWebKit/537.36 (KHTML, like Gecko) Chrome/137.0.0.0 Safari/537.36","WebKit","Chrome","137.0.0.0","Windows","10.0","https://app.prolific.com/","en-ZA,en-GB;q=0.9,en-US;q=0.8,en;q=0.7","67fa89d6790924c25e5ffb8e","683db6dfa200031b80f2a654","68652650d57375e2aefad3e1","67fa89d6790924c25e5ffb8e","2025-07-02T12:50:06.237Z","","","","","","","","","","","","","","","","win-only","0","g1:NW,g2:SE","0.3","8","0","1093334.8","941.6","5947","49925.4","1","4","8","6","2","-8","-11","0","0","0","940.2","3000","-2115","[""down"",""right""]","{""num_key_presses"":15,""num_perfect"":3,""num_errors"":3,""num_randdir"":9,""num_randdir_good_moves"":5,""num_whilered"":0,""num_whileblue"":1,""num_blue"":1,""num_good_moves"":8}","[414.0714133126395,419.07142761775424,0.3,414.0714133126395,419.07142761775424,103.4,414.0714133126395,419.07142761775424,203.9,414.0714133126395,419.07142761775424,304,414.0714133126395,419.07142761775424,404.8,389.0714133126395,444.07142761775424,514.5,409.0714133126395,541.5714276177542,616.3,600.3214133126395,644.0714276177542,717.1,771.5714133126395,751.5714276177542,819.6,816.5714133126395,774.0714276177542,919.6,816.5714133126395,774.0714276177542,1019.7,817.8214133126395,775.3214276177542,1120.5,816.5714133126395,775.3214276177542,1226.1,770.3214133126395,740.3214276177542,1331.4,732.8214133126395,651.5714276177542,1435.7,860.3214133126395,515.3214276177542,1539.6,1006.5714133126395,481.57142761775424,1652.5,1004.0714133126395,496.57142761775424,1752.6,999.0714133126395,496.57142761775424,1855.3,999.0714133126395,496.57142761775424,1960.8,999.0714133126395,496.57142761775424,2063.9,999.0714133126395,496.57142761775424,2165.4,999.0714133126395,496.57142761775424,2269.3,999.0714133126395,496.57142761775424,2369.5,999.0714133126395,496.57142761775424,2469.9,999.0714133126395,496.57142761775424,2583,999.0714133126395,496.57142761775424,2690.1,999.0714133126395,496.57142761775424,2795.5,999.0714133126395,496.57142761775424,2898.9,999.0714133126395,496.57142761775424,2998.9,999.0714133126395,496.57142761775424,3104.7,999.0714133126395,496.57142761775424,3219.7,999.0714133126395,496.57142761775424,3323.7,999.0714133126395,496.57142761775424,3433.4,999.0714133126395,496.57142761775424,3537,999.0714133126395,496.57142761775424,3640.4,999.0714133126395,496.57142761775424,3744.4,999.0714133126395,496.57142761775424,3853.8,999.0714133126395,496.57142761775424,3964,999.0714133126395,496.57142761775424,4065.2,999.0714133126395,496.57142761775424,4170.4,999.0714133126395,496.57142761775424,4270.7,999.0714133126395,496.57142761775424,4374.8,999.0714133126395,496.57142761775424,4486,999.0714133126395,496.57142761775424,4600.9,999.0714133126395,496.57142761775424,4713.1,999.0714133126395,496.57142761775424,4815.2,999.0714133126395,496.57142761775424,4915.6]","[1462.9,1462.9,1000,0,462.9,""smooth"",""down"",""down"",""good_move"",3924.7,2461.5,2003.5,1463.2,458,""oops"",""down"",""right"",""good_move"",6843.3,2918.3,2484.8,3925,433.5,""oops"",""down"",""down"",""good_move"",10114.6,3271.1,2863.4,6843.5,407.7,""oops"",""right"",""up"",""bad_move"",12853.8,2738.8,2339.6,10115,399.2,""smooth"",""right"",""right"",""good_move"",16279.2,3424.8,3038.7,12854.4,386.1,""oops"",""down"",""right"",""good_move"",18987.7,2708.1,2354.1,16279.6,354,""oops"",""down"",""up"",""bad_move"",21564.9,2577,2217.5,18987.9,359.5,""oops"",""down"",""down"",""good_move"",24173.9,2608.7,2441.2,21565.2,167.5,""while_blue"",""down"",""left"",""bad_move"",27404.7,3230.6,2801.2,24174.2,429.4,""smooth"",""down"",""down"",""good_move"",30613.4,3208.5,2835.7,27404.9,372.8,""oops"",""right"",""down"",""good_move"",33667.8,3054.2,2650.9,30613.6,403.3,""oops"",""right"",""up"",""bad_move"",34865,1197,2693.1,33668,-1496.1,""error"",""-"",""-"",""no_move"",36741.6,1876.6,2664.2,35880.4,-1802.9,""error"",""-"",""-"",""no_move"",41057.8,4315.8,2934.4,37754.5,368.9,""oops"",""right"",""up"",""bad_move""]","",""
"3821","","<div style=""width:500px;"">
  <p>What determined the result of this run?</p>
  </div>","0","html-slider-response","75","1145990","0.0-10.0-1.7","252","1","2025-07-02 12:31:02","80fe4187154257d5fb01684ea91b68b9","41.114.83.212","Mozilla/5.0 (Windows NT 10.0; Win64; x64) AppleWebKit/537.36 (KHTML, like Gecko) Chrome/137.0.0.0 Safari/537.36","WebKit","Chrome","137.0.0.0","Windows","10.0","https://app.prolific.com/","en-ZA,en-GB;q=0.9,en-US;q=0.8,en;q=0.7","67fa89d6790924c25e5ffb8e","683db6dfa200031b80f2a654","68652650d57375e2aefad3e1","67fa89d6790924c25e5ffb8e","2025-07-02T12:50:10.060Z","","","","","","AttribQ","","","","","","","","","","","","","","","","","","","","","","","","","","","","","","","","","","","","","","50"
"2179","","<div style=""width:500px;"">
  <p>How much control did you have over the ball?</p>
  </div>","0","html-slider-response","76","1148170","0.0-10.0-2.7","252","1","2025-07-02 12:31:02","80fe4187154257d5fb01684ea91b68b9","41.114.83.212","Mozilla/5.0 (Windows NT 10.0; Win64; x64) AppleWebKit/537.36 (KHTML, like Gecko) Chrome/137.0.0.0 Safari/537.36","WebKit","Chrome","137.0.0.0","Windows","10.0","https://app.prolific.com/","en-ZA,en-GB;q=0.9,en-US;q=0.8,en;q=0.7","67fa89d6790924c25e5ffb8e","683db6dfa200031b80f2a654","68652650d57375e2aefad3e1","67fa89d6790924c25e5ffb8e","2025-07-02T12:50:12.240Z","","","","","","ControlQ","","","","","","","","","","","","","","","","","","","","","","","","","","","","","","","","","","","","","","50"
"1921","","<div style=""width:500px;"">
  <p>How would you describe your current emotional state?</p>
  </div>","100","html-slider-response","77","1150093","0.0-10.0-3.7","252","1","2025-07-02 12:31:02","80fe4187154257d5fb01684ea91b68b9","41.114.83.212","Mozilla/5.0 (Windows NT 10.0; Win64; x64) AppleWebKit/537.36 (KHTML, like Gecko) Chrome/137.0.0.0 Safari/537.36","WebKit","Chrome","137.0.0.0","Windows","10.0","https://app.prolific.com/","en-ZA,en-GB;q=0.9,en-US;q=0.8,en;q=0.7","67fa89d6790924c25e5ffb8e","683db6dfa200031b80f2a654","68652650d57375e2aefad3e1","67fa89d6790924c25e5ffb8e","2025-07-02T12:50:14.163Z","","","","","","StressQ","","","","","","","","","","","","","","","","","","","","","","","","","","","","","","","","","","","","","","50"
"2456","","<div style=""width:500px;"">
  <p>What best describes how you currently feel?</p>
  </div>","0","html-slider-response","78","1152552","0.0-10.0-4.7","252","1","2025-07-02 12:31:02","80fe4187154257d5fb01684ea91b68b9","41.114.83.212","Mozilla/5.0 (Windows NT 10.0; Win64; x64) AppleWebKit/537.36 (KHTML, like Gecko) Chrome/137.0.0.0 Safari/537.36","WebKit","Chrome","137.0.0.0","Windows","10.0","https://app.prolific.com/","en-ZA,en-GB;q=0.9,en-US;q=0.8,en;q=0.7","67fa89d6790924c25e5ffb8e","683db6dfa200031b80f2a654","68652650d57375e2aefad3e1","67fa89d6790924c25e5ffb8e","2025-07-02T12:50:16.622Z","","","","","","MotivationQ","","","","","","","","","","","","","","","","","","","","","","","","","","","","","","","","","","","","","","50"
"","","","","ctl-task-cpt","79","1184542","0.0-10.0-0.8","252","1","2025-07-02 12:31:02","80fe4187154257d5fb01684ea91b68b9","41.114.83.212","Mozilla/5.0 (Windows NT 10.0; Win64; x64) AppleWebKit/537.36 (KHTML, like Gecko) Chrome/137.0.0.0 Safari/537.36","WebKit","Chrome","137.0.0.0","Windows","10.0","https://app.prolific.com/","en-ZA,en-GB;q=0.9,en-US;q=0.8,en;q=0.7","67fa89d6790924c25e5ffb8e","683db6dfa200031b80f2a654","68652650d57375e2aefad3e1","67fa89d6790924c25e5ffb8e","2025-07-02T12:50:48.612Z","","","","","","","","","","","","","","","","win-only","1","g1:NE,g2:SW","0.4","9","0","1156671.1","1060.4","6063.4","28971","1","4","4","6","2","4","4","4","0","0.030303030303030304","1035.8","3000","1300","[""down"",""left""]","{""num_key_presses"":6,""num_perfect"":4,""num_errors"":0,""num_randdir"":2,""num_randdir_good_moves"":2,""num_whilered"":0,""num_whileblue"":0,""num_blue"":2,""num_good_moves"":6}","[421.5714133126395,410.32142761775424,0.2,421.5714133126395,410.32142761775424,106.2,421.5714133126395,410.32142761775424,211.8,421.5714133126395,410.32142761775424,316.8,421.5714133126395,410.32142761775424,417,421.5714133126395,407.82142761775424,517.9,429.0714133126395,404.07142761775424,620.9,377.8214133126395,469.07142761775424,726.1,149.0714133126395,711.5714276177542,838.7,84.0714133126395,775.3214276177542,943.8,71.5714133126395,791.5714276177542,1047.2,71.5714133126395,791.5714276177542,1148.3,72.8214133126395,791.5714276177542,1252.4,221.5714133126395,744.0714276177542,1356.1,545.3214133126395,704.0714276177542,1456.6,669.0714133126395,737.8214276177542,1558.1,675.3214133126395,802.8214276177542,1662,641.5714133126395,867.8214276177542,1765.6,605.3214133126395,902.8214276177542,1867.6,484.0714133126395,946.5714276177542,1971.3,426.5714133126395,935.3214276177542,2071.5,425.3214133126395,934.0714276177542,2174.1,425.3214133126395,934.0714276177542,2276,425.3214133126395,934.0714276177542,2381.4,425.3214133126395,934.0714276177542,2487.2,425.3214133126395,934.0714276177542,2587.2,425.3214133126395,934.0714276177542,2691.4,425.3214133126395,934.0714276177542,2800.3,425.3214133126395,934.0714276177542,2902.8,425.3214133126395,934.0714276177542,3002.9,425.3214133126395,934.0714276177542,3105.8,425.3214133126395,934.0714276177542,3212.8,425.3214133126395,934.0714276177542,3321.7,425.3214133126395,934.0714276177542,3422.9,425.3214133126395,934.0714276177542,3537.9,425.3214133126395,934.0714276177542,3638,425.3214133126395,934.0714276177542,3740.7,425.3214133126395,934.0714276177542,3847,425.3214133126395,934.0714276177542,3947,425.3214133126395,934.0714276177542,4051.4,425.3214133126395,934.0714276177542,4155.3,425.3214133126395,934.0714276177542,4263.4,425.3214133126395,934.0714276177542,4375,425.3214133126395,934.0714276177542,4476.4,425.3214133126395,934.0714276177542,4581,425.3214133126395,934.0714276177542,4682.1,425.3214133126395,934.0714276177542,4788.3,425.3214133126395,934.0714276177542,4900.2]","[5109.4,5109.4,2688.4,2003.1,417.9,""smooth"",""left"",""left"",""good_move"",8029.3,2919.4,2482.8,5109.9,436.6,""oops"",""down"",""down"",""good_move"",10773.3,2743.6,2320.4,8029.7,423.2,""smooth"",""down"",""down"",""good_move"",13135.9,2362.4,1948.9,10773.5,413.5,""smooth"",""left"",""left"",""good_move"",20092.2,6956,2688.6,16937,466.6,""oops"",""left"",""down"",""good_move"",22745.8,2653.4,2121,20092.4,532.4,""smooth"",""left"",""left"",""good_move""]","",""
"2771","","<div style=""width:500px;"">
  <p>What determined the result of this run?</p>
  </div>","78","html-slider-response","80","1187315","0.0-10.0-1.8","252","1","2025-07-02 12:31:02","80fe4187154257d5fb01684ea91b68b9","41.114.83.212","Mozilla/5.0 (Windows NT 10.0; Win64; x64) AppleWebKit/537.36 (KHTML, like Gecko) Chrome/137.0.0.0 Safari/537.36","WebKit","Chrome","137.0.0.0","Windows","10.0","https://app.prolific.com/","en-ZA,en-GB;q=0.9,en-US;q=0.8,en;q=0.7","67fa89d6790924c25e5ffb8e","683db6dfa200031b80f2a654","68652650d57375e2aefad3e1","67fa89d6790924c25e5ffb8e","2025-07-02T12:50:51.385Z","","","","","","AttribQ","","","","","","","","","","","","","","","","","","","","","","","","","","","","","","","","","","","","","","50"
"3601","","<div style=""width:500px;"">
  <p>How much control did you have over the ball?</p>
  </div>","26","html-slider-response","81","1190917","0.0-10.0-2.8","252","1","2025-07-02 12:31:02","80fe4187154257d5fb01684ea91b68b9","41.114.83.212","Mozilla/5.0 (Windows NT 10.0; Win64; x64) AppleWebKit/537.36 (KHTML, like Gecko) Chrome/137.0.0.0 Safari/537.36","WebKit","Chrome","137.0.0.0","Windows","10.0","https://app.prolific.com/","en-ZA,en-GB;q=0.9,en-US;q=0.8,en;q=0.7","67fa89d6790924c25e5ffb8e","683db6dfa200031b80f2a654","68652650d57375e2aefad3e1","67fa89d6790924c25e5ffb8e","2025-07-02T12:50:54.987Z","","","","","","ControlQ","","","","","","","","","","","","","","","","","","","","","","","","","","","","","","","","","","","","","","50"
"3353","","<div style=""width:500px;"">
  <p>How would you describe your current emotional state?</p>
  </div>","34","html-slider-response","82","1194273","0.0-10.0-3.8","252","1","2025-07-02 12:31:02","80fe4187154257d5fb01684ea91b68b9","41.114.83.212","Mozilla/5.0 (Windows NT 10.0; Win64; x64) AppleWebKit/537.36 (KHTML, like Gecko) Chrome/137.0.0.0 Safari/537.36","WebKit","Chrome","137.0.0.0","Windows","10.0","https://app.prolific.com/","en-ZA,en-GB;q=0.9,en-US;q=0.8,en;q=0.7","67fa89d6790924c25e5ffb8e","683db6dfa200031b80f2a654","68652650d57375e2aefad3e1","67fa89d6790924c25e5ffb8e","2025-07-02T12:50:58.343Z","","","","","","StressQ","","","","","","","","","","","","","","","","","","","","","","","","","","","","","","","","","","","","","","50"
"2714","","<div style=""width:500px;"">
  <p>What best describes how you currently feel?</p>
  </div>","28","html-slider-response","83","1196988","0.0-10.0-4.8","252","1","2025-07-02 12:31:02","80fe4187154257d5fb01684ea91b68b9","41.114.83.212","Mozilla/5.0 (Windows NT 10.0; Win64; x64) AppleWebKit/537.36 (KHTML, like Gecko) Chrome/137.0.0.0 Safari/537.36","WebKit","Chrome","137.0.0.0","Windows","10.0","https://app.prolific.com/","en-ZA,en-GB;q=0.9,en-US;q=0.8,en;q=0.7","67fa89d6790924c25e5ffb8e","683db6dfa200031b80f2a654","68652650d57375e2aefad3e1","67fa89d6790924c25e5ffb8e","2025-07-02T12:51:01.058Z","","","","","","MotivationQ","","","","","","","","","","","","","","","","","","","","","","","","","","","","","","","","","","","","","","50"
