"rt","response_timestamp","stimulus","response","trial_type","trial_index","time_elapsed","internal_node_id","run_id","condition","recorded_at","source_code_version","ip","user_agent","device","browser","browser_version","platform","platform_version","referer","accept_language","PROLIFIC_PID","STUDY_ID","SESSION_ID","prolific_id","realtime","view_history","question_order","consent","success","question_id","eventType","responses","item_order","radio_event_ids","radio_event_times","key_event_times","mouse_event_times","straightlining","zigzagging","honeypot","which_type","canvas_config","goals_layout","control_level","trial_number","tutorial_trial_number","trial_start_time","phase1_start_time","phase2_start_time","phase3_start_time","goal_1_value","goal_1_distance","goal_2_value","goal_2_distance","goal_selected","outcome","outcome_total","participant_final_score","participant_initial_score","participant_final_score_prop","goal_choice_rt","allocated_time","allocated_time_remaining","goal_direction","counts","mouse_movements","key_presses","correct","slider_start"
"19886","1751451667938","<p style='font-size:40px;line-height:1.25'><strong>Welcome to the experiment!</strong></p><p style='font-size:1.1em;line-height:1.25'>Thank you for your interest in our experiment! Before you begin, it is important that we obtain your informed consent to participate in the study.</p><p style='font-size:1.1em;line-height:1.25'>On the next screen will be an <strong>information sheet</strong> for you to read. To participate in the study we need you to read this information sheet and the following consent form carefully. If you agree with all the statements, please click the <strong>I agree</strong> button.</p><p style='font-size:1.1em;line-height:1.25'>Press <strong>Next</strong> to read the information sheet.</p>","0","custom-html-button-response","0","19891","0.0-0.0","139","1","2025-07-02 10:20:41","80fe4187154257d5fb01684ea91b68b9","105.12.7.131","Mozilla/5.0 (Windows NT 10.0; Win64; x64) AppleWebKit/537.36 (KHTML, like Gecko) Chrome/137.0.0.0 Safari/537.36","WebKit","Chrome","137.0.0.0","Windows","10.0","https://app.prolific.com/","en-US,en;q=0.9","6800c1807a6267402d617aa9","683db6dfa200031b80f2a654","686507801dacc29dc9f6be2d","6800c1807a6267402d617aa9","2025-07-02T10:21:07.941Z","","","","","","","","","","","","","","","","","","","","","","","","","","","","","","","","","","","","","","","","","","","",""
"28226","","","","instructions","1","48121","0.0-1.0","139","1","2025-07-02 10:20:41","80fe4187154257d5fb01684ea91b68b9","105.12.7.131","Mozilla/5.0 (Windows NT 10.0; Win64; x64) AppleWebKit/537.36 (KHTML, like Gecko) Chrome/137.0.0.0 Safari/537.36","WebKit","Chrome","137.0.0.0","Windows","10.0","https://app.prolific.com/","en-US,en;q=0.9","6800c1807a6267402d617aa9","683db6dfa200031b80f2a654","686507801dacc29dc9f6be2d","6800c1807a6267402d617aa9","","[{""page_index"":0,""viewing_time"":17501},{""page_index"":1,""viewing_time"":10724}]","","","","","","","","","","","","","","","","","","","","","","","","","","","","","","","","","","","","","","","","","","",""
"10693","","","{""Q0"":"""",""Q1"":"""",""Q2"":"""",""Q3"":"""",""Q4"":"""",""Q5"":"""",""Q6"":""I agree""}","survey-multi-choice","2","58821","0.0-2.0","139","1","2025-07-02 10:20:41","80fe4187154257d5fb01684ea91b68b9","105.12.7.131","Mozilla/5.0 (Windows NT 10.0; Win64; x64) AppleWebKit/537.36 (KHTML, like Gecko) Chrome/137.0.0.0 Safari/537.36","WebKit","Chrome","137.0.0.0","Windows","10.0","https://app.prolific.com/","en-US,en;q=0.9","6800c1807a6267402d617aa9","683db6dfa200031b80f2a654","686507801dacc29dc9f6be2d","6800c1807a6267402d617aa9","","","[0,1,2,3,4,5,6]","true","","","","","","","","","","","","","","","","","","","","","","","","","","","","","","","","","","","","","","","","",""
"27387","","","","fullscreen","3","87232","0.0-4.0","139","1","2025-07-02 10:20:41","80fe4187154257d5fb01684ea91b68b9","105.12.7.131","Mozilla/5.0 (Windows NT 10.0; Win64; x64) AppleWebKit/537.36 (KHTML, like Gecko) Chrome/137.0.0.0 Safari/537.36","WebKit","Chrome","137.0.0.0","Windows","10.0","https://app.prolific.com/","en-US,en;q=0.9","6800c1807a6267402d617aa9","683db6dfa200031b80f2a654","686507801dacc29dc9f6be2d","6800c1807a6267402d617aa9","","","","","true","","","","","","","","","","","","","","","","","","","","","","","","","","","","","","","","","","","","","","","",""
"29435","1751451764719"," <p style='font-size:1.1em;line-height:1.25'>Thank you for completing the consent form and closing all other tabs.</p><p style='font-size:1.1em;line-height:1.25'>We will now invite you to fill in some demographic information and questionnaires, before starting the game.<br>This will take about 5 minutes.<br></p><p style='font-size:1.1em;line-height:1.25'>Press the <strong>Next</strong> button to continue.</p>","0","custom-html-button-response","4","116671","0.0-5.0","139","1","2025-07-02 10:20:41","80fe4187154257d5fb01684ea91b68b9","105.12.7.131","Mozilla/5.0 (Windows NT 10.0; Win64; x64) AppleWebKit/537.36 (KHTML, like Gecko) Chrome/137.0.0.0 Safari/537.36","WebKit","Chrome","137.0.0.0","Windows","10.0","https://app.prolific.com/","en-US,en;q=0.9","6800c1807a6267402d617aa9","683db6dfa200031b80f2a654","686507801dacc29dc9f6be2d","6800c1807a6267402d617aa9","2025-07-02T10:22:44.720Z","","","","","","","","","","","","","","","","","","","","","","","","","","","","","","","","","","","","","","","","","","","",""
"8019","","","{""age"":""39""}","survey-text","5","124696","0.0-6.0-0.0","139","1","2025-07-02 10:20:41","80fe4187154257d5fb01684ea91b68b9","105.12.7.131","Mozilla/5.0 (Windows NT 10.0; Win64; x64) AppleWebKit/537.36 (KHTML, like Gecko) Chrome/137.0.0.0 Safari/537.36","WebKit","Chrome","137.0.0.0","Windows","10.0","https://app.prolific.com/","en-US,en;q=0.9","6800c1807a6267402d617aa9","683db6dfa200031b80f2a654","686507801dacc29dc9f6be2d","6800c1807a6267402d617aa9","","","","","","0","demographics","","","","","","","","","","","","","","","","","","","","","","","","","","","","","","","","","","","","","",""
"3272","","","{""gender_identity"":""male/man""}","survey-multi-choice","6","127972","0.0-6.0-1.0","139","1","2025-07-02 10:20:41","80fe4187154257d5fb01684ea91b68b9","105.12.7.131","Mozilla/5.0 (Windows NT 10.0; Win64; x64) AppleWebKit/537.36 (KHTML, like Gecko) Chrome/137.0.0.0 Safari/537.36","WebKit","Chrome","137.0.0.0","Windows","10.0","https://app.prolific.com/","en-US,en;q=0.9","6800c1807a6267402d617aa9","683db6dfa200031b80f2a654","686507801dacc29dc9f6be2d","6800c1807a6267402d617aa9","","","[0]","","","1","demographics","","","","","","","","","","","","","","","","","","","","","","","","","","","","","","","","","","","","","",""
"11081","","","{""assigned_sex"":""male""}","survey-multi-choice","7","139056","0.0-6.0-2.0","139","1","2025-07-02 10:20:41","80fe4187154257d5fb01684ea91b68b9","105.12.7.131","Mozilla/5.0 (Windows NT 10.0; Win64; x64) AppleWebKit/537.36 (KHTML, like Gecko) Chrome/137.0.0.0 Safari/537.36","WebKit","Chrome","137.0.0.0","Windows","10.0","https://app.prolific.com/","en-US,en;q=0.9","6800c1807a6267402d617aa9","683db6dfa200031b80f2a654","686507801dacc29dc9f6be2d","6800c1807a6267402d617aa9","","","[0]","","","2","demographics","","","","","","","","","","","","","","","","","","","","","","","","","","","","","","","","","","","","","",""
"6843","","","{""menstrual_cycle"":""No""}","survey-multi-choice","8","145902","0.0-6.0-3.0","139","1","2025-07-02 10:20:41","80fe4187154257d5fb01684ea91b68b9","105.12.7.131","Mozilla/5.0 (Windows NT 10.0; Win64; x64) AppleWebKit/537.36 (KHTML, like Gecko) Chrome/137.0.0.0 Safari/537.36","WebKit","Chrome","137.0.0.0","Windows","10.0","https://app.prolific.com/","en-US,en;q=0.9","6800c1807a6267402d617aa9","683db6dfa200031b80f2a654","686507801dacc29dc9f6be2d","6800c1807a6267402d617aa9","","","[0]","","","4","demographics","","","","","","","","","","","","","","","","","","","","","","","","","","","","","","","","","","","","","",""
"15647","","","{""education"":""Master's Degree (e.g., MSc)""}","survey-multi-choice","9","161552","0.0-6.0-4.0","139","1","2025-07-02 10:20:41","80fe4187154257d5fb01684ea91b68b9","105.12.7.131","Mozilla/5.0 (Windows NT 10.0; Win64; x64) AppleWebKit/537.36 (KHTML, like Gecko) Chrome/137.0.0.0 Safari/537.36","WebKit","Chrome","137.0.0.0","Windows","10.0","https://app.prolific.com/","en-US,en;q=0.9","6800c1807a6267402d617aa9","683db6dfa200031b80f2a654","686507801dacc29dc9f6be2d","6800c1807a6267402d617aa9","","","[0]","","","5","demographics","","","","","","","","","","","","","","","","","","","","","","","","","","","","","","","","","","","","","",""
"9414","","","{""education"":""Bachelor's Degree (e.g., BA)""}","survey-multi-choice","10","170971","0.0-6.0-5.0","139","1","2025-07-02 10:20:41","80fe4187154257d5fb01684ea91b68b9","105.12.7.131","Mozilla/5.0 (Windows NT 10.0; Win64; x64) AppleWebKit/537.36 (KHTML, like Gecko) Chrome/137.0.0.0 Safari/537.36","WebKit","Chrome","137.0.0.0","Windows","10.0","https://app.prolific.com/","en-US,en;q=0.9","6800c1807a6267402d617aa9","683db6dfa200031b80f2a654","686507801dacc29dc9f6be2d","6800c1807a6267402d617aa9","2025-07-02T10:23:39.020Z","","[0]","","","6","demographics","","","","","","","","","","","","","","","","","","","","","","","","","","","","","","","","","","","","","",""
"126996","","","{""mental_health_condition"":""n0"",""mental_health_treatment"":""no"",""psychiatric_medication"":""no""}","survey-text","11","297993","0.0-7.0-0.0","139","1","2025-07-02 10:20:41","80fe4187154257d5fb01684ea91b68b9","105.12.7.131","Mozilla/5.0 (Windows NT 10.0; Win64; x64) AppleWebKit/537.36 (KHTML, like Gecko) Chrome/137.0.0.0 Safari/537.36","WebKit","Chrome","137.0.0.0","Windows","10.0","https://app.prolific.com/","en-US,en;q=0.9","6800c1807a6267402d617aa9","683db6dfa200031b80f2a654","686507801dacc29dc9f6be2d","6800c1807a6267402d617aa9","2025-07-02T10:25:46.042Z","","","","","1","mental_health","","","","","","","","","","","","","","","","","","","","","","","","","","","","","","","","","","","","","",""
"11117","","","{""depression_history"":[""No""]}","survey-multi-select","12","309116","0.0-7.0-1.0","139","1","2025-07-02 10:20:41","80fe4187154257d5fb01684ea91b68b9","105.12.7.131","Mozilla/5.0 (Windows NT 10.0; Win64; x64) AppleWebKit/537.36 (KHTML, like Gecko) Chrome/137.0.0.0 Safari/537.36","WebKit","Chrome","137.0.0.0","Windows","10.0","https://app.prolific.com/","en-US,en;q=0.9","6800c1807a6267402d617aa9","683db6dfa200031b80f2a654","686507801dacc29dc9f6be2d","6800c1807a6267402d617aa9","","","[0]","","","","mental_health","","","","","","","","","","","","","","","","","","","","","","","","","","","","","","","","","","","","","",""
"109427.40000000596","","","","survey-template","13","418556","0.0-7.0-3.0","139","1","2025-07-02 10:20:41","80fe4187154257d5fb01684ea91b68b9","105.12.7.131","Mozilla/5.0 (Windows NT 10.0; Win64; x64) AppleWebKit/537.36 (KHTML, like Gecko) Chrome/137.0.0.0 Safari/537.36","WebKit","Chrome","137.0.0.0","Windows","10.0","https://app.prolific.com/","en-US,en;q=0.9","6800c1807a6267402d617aa9","683db6dfa200031b80f2a654","686507801dacc29dc9f6be2d","6800c1807a6267402d617aa9","2025-07-02T10:27:46.605Z","","","","","","ius","{""Q01"":""3"",""Q02"":""4"",""Q03"":""1"",""Q04"":""2"",""Q05"":""2"",""Q06"":""3"",""Q07"":""3"",""Q08"":""0"",""Q09"":""3"",""Q10"":""1"",""Q11"":""2"",""Q12"":""3"",""Q13"":""2""}","[0,1,2,3,4,5,6,7,8,9,10,11,12]","[""Q01"",""Q02"",""Q03"",""Q04"",""Q05"",""Q06"",""Q07"",""Q08"",""Q09"",""Q10"",""Q11"",""Q12"",""Q13""]","[16307.699999988079,28494.59999999404,35561.09999999404,44853.29999998212,53160.79999998212,59847.40000000596,65029.09999999404,73302,84045.29999998212,90583.19999998808,96681,101208.90000000596,105653.29999998212]","[]","[16307.699999988079,28494.59999999404,33395.59999999404,34293.90000000596,35561.09999999404,42191,44853.29999998212,53160.79999998212,59847.40000000596,64389,65029.09999999404,73302,84045.29999998212,89408.40000000596,90583.19999998808,96681,100656,101208.90000000596,105653.29999998212,109425]","0.38461538461538464","0.5","0","","","","","","","","","","","","","","","","","","","","","","","","","","","","",""
"3460","1751452070067","<p style='font-size:1.1em;line-height:1.25'>In the following, we will ask you a few questions relating to your experiences over the past month.<br></p><p style='font-size:1.1em;line-height:1.25'>Press the <strong>Next</strong> button to continue.</p>","0","custom-html-button-response","14","422019","0.0-7.0-4.0","139","1","2025-07-02 10:20:41","80fe4187154257d5fb01684ea91b68b9","105.12.7.131","Mozilla/5.0 (Windows NT 10.0; Win64; x64) AppleWebKit/537.36 (KHTML, like Gecko) Chrome/137.0.0.0 Safari/537.36","WebKit","Chrome","137.0.0.0","Windows","10.0","https://app.prolific.com/","en-US,en;q=0.9","6800c1807a6267402d617aa9","683db6dfa200031b80f2a654","686507801dacc29dc9f6be2d","6800c1807a6267402d617aa9","2025-07-02T10:27:50.068Z","","","","","","","","","","","","","","","","","","","","","","","","","","","","","","","","","","","","","","","","","","","",""
"114394.80000001192","","","","survey-template","15","536419","0.0-7.0-5.0","139","1","2025-07-02 10:20:41","80fe4187154257d5fb01684ea91b68b9","105.12.7.131","Mozilla/5.0 (Windows NT 10.0; Win64; x64) AppleWebKit/537.36 (KHTML, like Gecko) Chrome/137.0.0.0 Safari/537.36","WebKit","Chrome","137.0.0.0","Windows","10.0","https://app.prolific.com/","en-US,en;q=0.9","6800c1807a6267402d617aa9","683db6dfa200031b80f2a654","686507801dacc29dc9f6be2d","6800c1807a6267402d617aa9","2025-07-02T10:29:44.468Z","","","","","","pss","{""Q01"":""3"",""Q02"":""3"",""Q03"":""2"",""Q04"":""0"",""Q05"":""1"",""Q06"":""2"",""Q07"":""1"",""Q08"":""1"",""Q09"":""2"",""Q10"":""1""}","[0,1,2,3,4,5,6,7,8,9]","[""Q01"",""Q02"",""Q03"",""Q04"",""Q05"",""Q06"",""Q07"",""Q08"",""Q09"",""Q10""]","[26565.19999998808,36621.5,42479.5,55471.19999998808,70319,77154.90000000596,83820.80000001192,89505.19999998808,95773.30000001192,112493.40000000596]","[]","[0.09999999403953552,26565.19999998808,36621.5,42479.5,52285.19999998808,55471.19999998808,70319,77154.90000000596,83820.80000001192,89505.19999998808,95773.30000001192,112493.40000000596,114392.90000000596]","0.5","0.6666666666666666","0","","","","","","","","","","","","","","","","","","","","","","","","","","","","",""
"7161","1751452191631","<p style='font-size:1.1em;line-height:1.25'>Thank you for your answers! Now we will ask you a few more questions relating to your feelings in the last 24 hours.<br></p><p style='font-size:1.1em;line-height:1.25'>Press the <strong>Next</strong> button to continue.</p>","0","custom-html-button-response","16","543582","0.0-7.0-6.0","139","1","2025-07-02 10:20:41","80fe4187154257d5fb01684ea91b68b9","105.12.7.131","Mozilla/5.0 (Windows NT 10.0; Win64; x64) AppleWebKit/537.36 (KHTML, like Gecko) Chrome/137.0.0.0 Safari/537.36","WebKit","Chrome","137.0.0.0","Windows","10.0","https://app.prolific.com/","en-US,en;q=0.9","6800c1807a6267402d617aa9","683db6dfa200031b80f2a654","686507801dacc29dc9f6be2d","6800c1807a6267402d617aa9","2025-07-02T10:29:51.631Z","","","","","","","","","","","","","","","","","","","","","","","","","","","","","","","","","","","","","","","","","","","",""
"190004.5","","","","survey-template","17","733595","0.0-7.0-7.0","139","1","2025-07-02 10:20:41","80fe4187154257d5fb01684ea91b68b9","105.12.7.131","Mozilla/5.0 (Windows NT 10.0; Win64; x64) AppleWebKit/537.36 (KHTML, like Gecko) Chrome/137.0.0.0 Safari/537.36","WebKit","Chrome","137.0.0.0","Windows","10.0","https://app.prolific.com/","en-US,en;q=0.9","6800c1807a6267402d617aa9","683db6dfa200031b80f2a654","686507801dacc29dc9f6be2d","6800c1807a6267402d617aa9","2025-07-02T10:33:01.645Z","","","","","","drsp","{""Q01"":""0"",""Q02"":""1"",""Q03"":""0"",""Q04"":""0"",""Q05"":""3"",""Q06"":""2"",""Q07"":""3"",""Q08"":""0"",""Q09"":""2"",""Q10"":""0"",""Q11"":""0"",""Q12"":""3"",""Q13"":""4"",""Q14"":""1"",""Q15"":""2"",""Q16"":""3"",""Q17"":""0"",""Q18"":""0"",""Q19"":""1"",""Q20"":""0"",""Q21"":""0""}","[0,1,2,3,4,5,6,7,8,9,10,11,12,13,14,15,16,17,18,19,20]","[""Q01"",""Q02"",""Q02"",""Q03"",""Q04"",""Q05"",""Q06"",""Q07"",""Q08"",""Q09"",""Q10"",""Q11"",""Q12"",""Q13"",""Q14"",""Q15"",""Q16"",""Q17"",""Q18"",""Q19"",""Q20"",""Q21"",""Q21"",""Q21""]","[8421,12017.59999999404,12050.299999982119,15737.699999988079,18273.5,21371.59999999404,76575,81975.09999999404,85013.09999999404,94340.5,98589.59999999404,105711.5,110809.09999999404,114095.39999997616,127669.29999998212,138661.29999998212,142509.29999998212,144817.19999998808,152325.5,175415.39999997616,180849.29999998212,185233.19999998808,186365.19999998808,188415]","[]","[0,8421,12017.59999999404,12050.299999982119,15737.699999988079,18273.5,21371.59999999404,76575,81975.09999999404,85013.09999999404,94340.5,98589.59999999404,105711.5,109104.69999998808,110088,110809.09999999404,114095.39999997616,127669.29999998212,138661.29999998212,142509.29999998212,144817.19999998808,152325.5,172439.69999998808,175415.39999997616,180849.29999998212,185233.19999998808,186365.19999998808,188415,189993.89999997616]","0.47619047619047616","0.45","0","","","","","","","","","","","","","","","","","","","","","","","","","","","","",""
"19316.600000023842","","","","survey-template","18","752921","0.0-7.0-8.0","139","1","2025-07-02 10:20:41","80fe4187154257d5fb01684ea91b68b9","105.12.7.131","Mozilla/5.0 (Windows NT 10.0; Win64; x64) AppleWebKit/537.36 (KHTML, like Gecko) Chrome/137.0.0.0 Safari/537.36","WebKit","Chrome","137.0.0.0","Windows","10.0","https://app.prolific.com/","en-US,en;q=0.9","6800c1807a6267402d617aa9","683db6dfa200031b80f2a654","686507801dacc29dc9f6be2d","6800c1807a6267402d617aa9","2025-07-02T10:33:20.970Z","","","","","","stress","{""Q01"":""1"",""Q02"":""1"",""Q03"":""1""}","[0,1,2]","[""Q01"",""Q02"",""Q03""]","[7015.200000017881,13295.40000000596,17817.30000001192]","[]","[7015.200000017881,13295.40000000596,17817.30000001192,19313.70000001788]","0.6666666666666666","0","0","","","","","","","","","","","","","","","","","","","","","","","","","","","","",""
"305402","","","","instructions","19","1058328","0.0-8.0-0.0","139","1","2025-07-02 10:20:41","80fe4187154257d5fb01684ea91b68b9","105.12.7.131","Mozilla/5.0 (Windows NT 10.0; Win64; x64) AppleWebKit/537.36 (KHTML, like Gecko) Chrome/137.0.0.0 Safari/537.36","WebKit","Chrome","137.0.0.0","Windows","10.0","https://app.prolific.com/","en-US,en;q=0.9","6800c1807a6267402d617aa9","683db6dfa200031b80f2a654","686507801dacc29dc9f6be2d","6800c1807a6267402d617aa9","","[{""page_index"":0,""viewing_time"":112812},{""page_index"":1,""viewing_time"":76102},{""page_index"":2,""viewing_time"":84366},{""page_index"":3,""viewing_time"":32122}]","","","","","","","","","","","","","","","","","","","","","","","","","","","","","","","","","","","","","","","","","","",""
"","","","","ctl-task-cpt","20","1097180","0.0-8.0-1.0","139","1","2025-07-02 10:20:41","80fe4187154257d5fb01684ea91b68b9","105.12.7.131","Mozilla/5.0 (Windows NT 10.0; Win64; x64) AppleWebKit/537.36 (KHTML, like Gecko) Chrome/137.0.0.0 Safari/537.36","WebKit","Chrome","137.0.0.0","Windows","10.0","https://app.prolific.com/","en-US,en;q=0.9","6800c1807a6267402d617aa9","683db6dfa200031b80f2a654","686507801dacc29dc9f6be2d","6800c1807a6267402d617aa9","","","","","","","","","","","","","","","","","win-only","3","g1:SW,g2:NE","1","0","1","1064327.6","11893.7","15904.5","35840.4","2","4","4","6","2","4","2","2","0","0.015151515151515152","3165.4","4000","1630","[""up"",""right""]","{""num_key_presses"":13,""num_perfect"":6,""num_errors"":2,""num_randdir"":0,""num_randdir_good_moves"":0,""num_whilered"":5,""num_whileblue"":0,""num_blue"":0,""num_good_moves"":6}","[298.22232142857143,292.12857142857143,0.8,298.22232142857143,292.12857142857143,108.9,298.22232142857143,292.12857142857143,209,298.22232142857143,292.12857142857143,318.9,298.22232142857143,292.12857142857143,419.2,298.22232142857143,292.12857142857143,519.4,298.22232142857143,292.12857142857143,625.4,298.22232142857143,292.12857142857143,726.8,298.22232142857143,292.12857142857143,826.7,298.22232142857143,292.12857142857143,926.9,298.22232142857143,292.12857142857143,1028.2,298.22232142857143,292.12857142857143,1130.3,224.22232142857143,367.12857142857143,1233.4,175.22232142857143,451.12857142857143,1338.3,159.22232142857143,481.12857142857143,1438.5,159.22232142857143,481.12857142857143,1539.2,159.22232142857143,481.12857142857143,1639.7,150.22232142857143,495.12857142857143,1744.9,217.22232142857143,319.12857142857143,1849.7,286.22232142857143,-21.871428571428574,1949.7,312.22232142857143,-77.87142857142857,2050,355.22232142857143,-68.87142857142857,2162.5,468.22232142857143,-26.871428571428574,2262.9,541.2223214285714,-13.871428571428574,2363.3,543.2223214285714,-21.871428571428574,2469.7,543.2223214285714,-21.871428571428574,2578.8,543.2223214285714,-21.871428571428574,2686.8,572.2223214285714,12.128571428571426,2790.2,572.2223214285714,22.128571428571426,2894.5,572.2223214285714,24.128571428571426,2999,572.2223214285714,24.128571428571426,3099.6,572.2223214285714,24.128571428571426,3210.7,572.2223214285714,24.128571428571426,3319.6,572.2223214285714,24.128571428571426,3428.6,572.2223214285714,24.128571428571426,3539.3,572.2223214285714,24.128571428571426,3648.9,572.2223214285714,24.128571428571426,3748.9,572.2223214285714,24.128571428571426,3849,572.2223214285714,24.128571428571426,3959.4]","[1217.6,1217.6,1000,0,217.6,""smooth"",""up"",""up"",""good_move"",1492.7,270.3,1964,1222.5,-1693.8,""error"",""-"",""-"",""no_move"",1685.7,192.2,1964,1222.5,-1500.8,""while_red"",""-"",""-"",""no_move"",1875.9,382.4,1964,1222.5,-1310.6,""while_red"",""-"",""-"",""no_move"",2069.5,576,1964,1222.5,-1117,""while_red"",""-"",""-"",""no_move"",2305.8,812.3,1964,1222.5,-880.7,""while_red"",""-"",""-"",""no_move"",5687.1,4193.6,2336.9,2497.8,852.5,""smooth"",""up"",""up"",""good_move"",6034.1,346,2463.6,5688.1,-2117.6,""error"",""-"",""-"",""no_move"",6583,548,2463.6,5688.1,-1568.7,""while_red"",""-"",""-"",""no_move"",10276.5,4241.5,2435.5,7038.2,802.8,""smooth"",""up"",""up"",""good_move"",13215.8,2938.6,2426.5,10277.4,511.9,""smooth"",""right"",""right"",""good_move"",16380.5,3163.1,2432.4,13217.5,730.6,""smooth"",""right"",""right"",""good_move"",19801.2,3419.3,2942,16382.2,477.1,""smooth"",""right"",""right"",""good_move""]","",""
"9270","","","","instructions","21","1106450","0.0-8.0-2.0","139","1","2025-07-02 10:20:41","80fe4187154257d5fb01684ea91b68b9","105.12.7.131","Mozilla/5.0 (Windows NT 10.0; Win64; x64) AppleWebKit/537.36 (KHTML, like Gecko) Chrome/137.0.0.0 Safari/537.36","WebKit","Chrome","137.0.0.0","Windows","10.0","https://app.prolific.com/","en-US,en;q=0.9","6800c1807a6267402d617aa9","683db6dfa200031b80f2a654","686507801dacc29dc9f6be2d","6800c1807a6267402d617aa9","","[{""page_index"":0,""viewing_time"":9269}]","","","","","","","","","","","","","","","","","","","","","","","","","","","","","","","","","","","","","","","","","","",""
"","","","","ctl-task-cpt","22","1152328","0.0-8.0-3.0","139","1","2025-07-02 10:20:41","80fe4187154257d5fb01684ea91b68b9","105.12.7.131","Mozilla/5.0 (Windows NT 10.0; Win64; x64) AppleWebKit/537.36 (KHTML, like Gecko) Chrome/137.0.0.0 Safari/537.36","WebKit","Chrome","137.0.0.0","Windows","10.0","https://app.prolific.com/","en-US,en;q=0.9","6800c1807a6267402d617aa9","683db6dfa200031b80f2a654","686507801dacc29dc9f6be2d","6800c1807a6267402d617aa9","","","","","","","","","","","","","","","","","win-only","3","g1:SW,g2:NE","0.35","0","3","1112448.1","3147.4","7162.5","42863.7","2","4","8","6","2","-8","-9","0","0","0","2119.7","4000","-1795","[""up"",""right""]","{""num_key_presses"":11,""num_perfect"":4,""num_errors"":1,""num_randdir"":6,""num_randdir_good_moves"":3,""num_whilered"":0,""num_whileblue"":0,""num_blue"":0,""num_good_moves"":7}","[291.22232142857143,289.12857142857143,1.7,291.22232142857143,289.12857142857143,103.3,291.22232142857143,289.12857142857143,213.2,291.22232142857143,289.12857142857143,323.2,291.22232142857143,289.12857142857143,423.6,291.22232142857143,289.12857142857143,533.3,291.22232142857143,289.12857142857143,637.8,291.22232142857143,289.12857142857143,743.5,291.22232142857143,289.12857142857143,849.9,291.22232142857143,289.12857142857143,956.1,416.22232142857143,92.12857142857143,1061.4,456.22232142857143,39.128571428571426,1163.3,478.22232142857143,24.128571428571426,1263.3,491.22232142857143,19.128571428571426,1363.3,510.22232142857143,26.128571428571426,1466.5,524.2223214285714,40.128571428571426,1569.2,525.2223214285714,42.128571428571426,1674.2,525.2223214285714,42.128571428571426,1785.3,525.2223214285714,42.128571428571426,1893.6,525.2223214285714,42.128571428571426,1999.4,525.2223214285714,42.128571428571426,2100.2,525.2223214285714,42.128571428571426,2213.6,525.2223214285714,42.128571428571426,2314.8,525.2223214285714,42.128571428571426,2423.4,525.2223214285714,42.128571428571426,2523.6,525.2223214285714,42.128571428571426,2624.4,525.2223214285714,42.128571428571426,2734,525.2223214285714,42.128571428571426,2834.1,525.2223214285714,42.128571428571426,2943.4,525.2223214285714,42.128571428571426,3044.5,525.2223214285714,42.128571428571426,3149.8,525.2223214285714,42.128571428571426,3250.1,525.2223214285714,42.128571428571426,3363.6,525.2223214285714,42.128571428571426,3473.7,525.2223214285714,42.128571428571426,3582.7,525.2223214285714,42.128571428571426,3682.9,525.2223214285714,42.128571428571426,3784.8,525.2223214285714,42.128571428571426,3893.2,525.2223214285714,42.128571428571426,3993.6]","[1610.1,1610.1,1000,0,610.1,""oops"",""up"",""right"",""good_move"",4605,2994,2478.2,1611,515.8,""smooth"",""up"",""up"",""good_move"",7718.6,3112.8,2610.3,4605.8,502.5,""oops"",""up"",""down"",""bad_move"",10942.4,3220.5,2644.4,7721.9,576.1,""oops"",""up"",""down"",""bad_move"",14805.8,3862.5,2616.8,10943.3,1245.7,""oops"",""left"",""right"",""good_move"",17704.7,2895.8,2499.5,14808.9,396.3,""smooth"",""right"",""right"",""good_move"",19817.9,2111.5,2982,17706.4,-870.5,""error"",""-"",""-"",""no_move"",23839.5,4020.5,2546.8,20829.9,462.8,""smooth"",""up"",""up"",""good_move"",27052.9,3212.4,2650.5,23840.5,561.9,""smooth"",""up"",""up"",""good_move"",29602.1,2548.5,2111.1,27053.6,437.4,""oops"",""up"",""up"",""good_move"",31966.8,2364,1988.7,29602.8,375.3,""oops"",""up"",""down"",""bad_move""]","",""
"56278","","","","instructions","23","1208606","0.0-8.0-4.0","139","1","2025-07-02 10:20:41","80fe4187154257d5fb01684ea91b68b9","105.12.7.131","Mozilla/5.0 (Windows NT 10.0; Win64; x64) AppleWebKit/537.36 (KHTML, like Gecko) Chrome/137.0.0.0 Safari/537.36","WebKit","Chrome","137.0.0.0","Windows","10.0","https://app.prolific.com/","en-US,en;q=0.9","6800c1807a6267402d617aa9","683db6dfa200031b80f2a654","686507801dacc29dc9f6be2d","6800c1807a6267402d617aa9","","[{""page_index"":0,""viewing_time"":11169},{""page_index"":1,""viewing_time"":45108}]","","","","","","","","","","","","","","","","","","","","","","","","","","","","","","","","","","","","","","","","","","",""
"82691","","","{""green_ball"":[""Ball always moves in the direction I press""]}","survey-multi-select","24","1291315","0.0-8.0-5.0-0.0","139","1","2025-07-02 10:20:41","80fe4187154257d5fb01684ea91b68b9","105.12.7.131","Mozilla/5.0 (Windows NT 10.0; Win64; x64) AppleWebKit/537.36 (KHTML, like Gecko) Chrome/137.0.0.0 Safari/537.36","WebKit","Chrome","137.0.0.0","Windows","10.0","https://app.prolific.com/","en-US,en;q=0.9","6800c1807a6267402d617aa9","683db6dfa200031b80f2a654","686507801dacc29dc9f6be2d","6800c1807a6267402d617aa9","","","[0]","","","","quiz","","","","","","","","","","","","","","","","","","","","","","","","","","","","","","","","","","","","","false",""
"8874","","<p align='center'><b>INCORRECT.</b> Usually the green ball moves in the indicated direction, but sometimes it shakes and moves randomly. </p>","0","html-button-response","25","1300214","0.0-8.0-5.0-1.0","139","1","2025-07-02 10:20:41","80fe4187154257d5fb01684ea91b68b9","105.12.7.131","Mozilla/5.0 (Windows NT 10.0; Win64; x64) AppleWebKit/537.36 (KHTML, like Gecko) Chrome/137.0.0.0 Safari/537.36","WebKit","Chrome","137.0.0.0","Windows","10.0","https://app.prolific.com/","en-US,en;q=0.9","6800c1807a6267402d617aa9","683db6dfa200031b80f2a654","686507801dacc29dc9f6be2d","6800c1807a6267402d617aa9","","","","","","","","","","","","","","","","","","","","","","","","","","","","","","","","","","","","","","","","","","","","",""
"11026","","","{""green_ball"":[""Ball sometimes shakes and moves in a random direction""]}","survey-multi-select","26","1311252","0.0-8.0-5.1-0.1","139","1","2025-07-02 10:20:41","80fe4187154257d5fb01684ea91b68b9","105.12.7.131","Mozilla/5.0 (Windows NT 10.0; Win64; x64) AppleWebKit/537.36 (KHTML, like Gecko) Chrome/137.0.0.0 Safari/537.36","WebKit","Chrome","137.0.0.0","Windows","10.0","https://app.prolific.com/","en-US,en;q=0.9","6800c1807a6267402d617aa9","683db6dfa200031b80f2a654","686507801dacc29dc9f6be2d","6800c1807a6267402d617aa9","","","[0]","","","","quiz","","","","","","","","","","","","","","","","","","","","","","","","","","","","","","","","","","","","","true",""
"2444","","<p align='center'><b>CORRECT!</b> Indeed, the green ball may sometimes shake and move in a random direction.</p>","0","html-button-response","27","1313704","0.0-8.0-5.1-1.1","139","1","2025-07-02 10:20:41","80fe4187154257d5fb01684ea91b68b9","105.12.7.131","Mozilla/5.0 (Windows NT 10.0; Win64; x64) AppleWebKit/537.36 (KHTML, like Gecko) Chrome/137.0.0.0 Safari/537.36","WebKit","Chrome","137.0.0.0","Windows","10.0","https://app.prolific.com/","en-US,en;q=0.9","6800c1807a6267402d617aa9","683db6dfa200031b80f2a654","686507801dacc29dc9f6be2d","6800c1807a6267402d617aa9","","","","","","","","","","","","","","","","","","","","","","","","","","","","","","","","","","","","","","","","","","","","",""
"13132","","","{""yellow_ball"":[""Ball doesn‘t move and I get -1 penalty point""]}","survey-multi-select","28","1326844","0.0-8.0-6.0-0.0","139","1","2025-07-02 10:20:41","80fe4187154257d5fb01684ea91b68b9","105.12.7.131","Mozilla/5.0 (Windows NT 10.0; Win64; x64) AppleWebKit/537.36 (KHTML, like Gecko) Chrome/137.0.0.0 Safari/537.36","WebKit","Chrome","137.0.0.0","Windows","10.0","https://app.prolific.com/","en-US,en;q=0.9","6800c1807a6267402d617aa9","683db6dfa200031b80f2a654","686507801dacc29dc9f6be2d","6800c1807a6267402d617aa9","","","[0]","","","","quiz","","","","","","","","","","","","","","","","","","","","","","","","","","","","","","","","","","","","","true",""
"2125","","<p align='center'><b>CORRECT!</b> Indeed, the yellow ball never moves and you receive a penalty.</p>","0","html-button-response","29","1328973","0.0-8.0-6.0-1.0","139","1","2025-07-02 10:20:41","80fe4187154257d5fb01684ea91b68b9","105.12.7.131","Mozilla/5.0 (Windows NT 10.0; Win64; x64) AppleWebKit/537.36 (KHTML, like Gecko) Chrome/137.0.0.0 Safari/537.36","WebKit","Chrome","137.0.0.0","Windows","10.0","https://app.prolific.com/","en-US,en;q=0.9","6800c1807a6267402d617aa9","683db6dfa200031b80f2a654","686507801dacc29dc9f6be2d","6800c1807a6267402d617aa9","","","","","","","","","","","","","","","","","","","","","","","","","","","","","","","","","","","","","","","","","","","","",""
"11859","","","{""blue_ball"":[""Ball doesn‘t move and I get -1 penalty point""]}","survey-multi-select","30","1340843","0.0-8.0-7.0-0.0","139","1","2025-07-02 10:20:41","80fe4187154257d5fb01684ea91b68b9","105.12.7.131","Mozilla/5.0 (Windows NT 10.0; Win64; x64) AppleWebKit/537.36 (KHTML, like Gecko) Chrome/137.0.0.0 Safari/537.36","WebKit","Chrome","137.0.0.0","Windows","10.0","https://app.prolific.com/","en-US,en;q=0.9","6800c1807a6267402d617aa9","683db6dfa200031b80f2a654","686507801dacc29dc9f6be2d","6800c1807a6267402d617aa9","","","[0]","","","","quiz","","","","","","","","","","","","","","","","","","","","","","","","","","","","","","","","","","","","","false",""
"5592","","<p align='center'><b>INCORRECT.</b> The blue ball always shakes and moves randomly.</p>","0","html-button-response","31","1346439","0.0-8.0-7.0-1.0","139","1","2025-07-02 10:20:41","80fe4187154257d5fb01684ea91b68b9","105.12.7.131","Mozilla/5.0 (Windows NT 10.0; Win64; x64) AppleWebKit/537.36 (KHTML, like Gecko) Chrome/137.0.0.0 Safari/537.36","WebKit","Chrome","137.0.0.0","Windows","10.0","https://app.prolific.com/","en-US,en;q=0.9","6800c1807a6267402d617aa9","683db6dfa200031b80f2a654","686507801dacc29dc9f6be2d","6800c1807a6267402d617aa9","","","","","","","","","","","","","","","","","","","","","","","","","","","","","","","","","","","","","","","","","","","","",""
"15247","","","{""blue_ball"":[""Ball always shakes and moves in a random direction""]}","survey-multi-select","32","1361700","0.0-8.0-7.1-0.1","139","1","2025-07-02 10:20:41","80fe4187154257d5fb01684ea91b68b9","105.12.7.131","Mozilla/5.0 (Windows NT 10.0; Win64; x64) AppleWebKit/537.36 (KHTML, like Gecko) Chrome/137.0.0.0 Safari/537.36","WebKit","Chrome","137.0.0.0","Windows","10.0","https://app.prolific.com/","en-US,en;q=0.9","6800c1807a6267402d617aa9","683db6dfa200031b80f2a654","686507801dacc29dc9f6be2d","6800c1807a6267402d617aa9","","","[0]","","","","quiz","","","","","","","","","","","","","","","","","","","","","","","","","","","","","","","","","","","","","true",""
"2301","","<p align='center'><b>CORRECT!</b> Indeed, the blue ball always shakes and moves in a random direction. Also there is a penalty of -1 point.</p>","0","html-button-response","33","1364006","0.0-8.0-7.1-1.1","139","1","2025-07-02 10:20:41","80fe4187154257d5fb01684ea91b68b9","105.12.7.131","Mozilla/5.0 (Windows NT 10.0; Win64; x64) AppleWebKit/537.36 (KHTML, like Gecko) Chrome/137.0.0.0 Safari/537.36","WebKit","Chrome","137.0.0.0","Windows","10.0","https://app.prolific.com/","en-US,en;q=0.9","6800c1807a6267402d617aa9","683db6dfa200031b80f2a654","686507801dacc29dc9f6be2d","6800c1807a6267402d617aa9","","","","","","","","","","","","","","","","","","","","","","","","","","","","","","","","","","","","","","","","","","","","",""
"13949","","","{""bonus"":[""When I reach 50% of points""]}","survey-multi-select","34","1377964","0.0-8.0-8.0-0.0","139","1","2025-07-02 10:20:41","80fe4187154257d5fb01684ea91b68b9","105.12.7.131","Mozilla/5.0 (Windows NT 10.0; Win64; x64) AppleWebKit/537.36 (KHTML, like Gecko) Chrome/137.0.0.0 Safari/537.36","WebKit","Chrome","137.0.0.0","Windows","10.0","https://app.prolific.com/","en-US,en;q=0.9","6800c1807a6267402d617aa9","683db6dfa200031b80f2a654","686507801dacc29dc9f6be2d","6800c1807a6267402d617aa9","","","[0]","","","","quiz","","","","","","","","","","","","","","","","","","","","","","","","","","","","","","","","","","","","","true",""
"3609","","<p align='center'><b>CORRECT!</b> Indeed, you receive 2 pounds extra when you reach 50% of points.</p>","0","html-button-response","35","1381579","0.0-8.0-8.0-1.0","139","1","2025-07-02 10:20:41","80fe4187154257d5fb01684ea91b68b9","105.12.7.131","Mozilla/5.0 (Windows NT 10.0; Win64; x64) AppleWebKit/537.36 (KHTML, like Gecko) Chrome/137.0.0.0 Safari/537.36","WebKit","Chrome","137.0.0.0","Windows","10.0","https://app.prolific.com/","en-US,en;q=0.9","6800c1807a6267402d617aa9","683db6dfa200031b80f2a654","686507801dacc29dc9f6be2d","6800c1807a6267402d617aa9","","","","","","","","","","","","","","","","","","","","","","","","","","","","","","","","","","","","","","","","","","","","",""
"11247","","","","instructions","36","1392832","0.0-8.0-9.0","139","1","2025-07-02 10:20:41","80fe4187154257d5fb01684ea91b68b9","105.12.7.131","Mozilla/5.0 (Windows NT 10.0; Win64; x64) AppleWebKit/537.36 (KHTML, like Gecko) Chrome/137.0.0.0 Safari/537.36","WebKit","Chrome","137.0.0.0","Windows","10.0","https://app.prolific.com/","en-US,en;q=0.9","6800c1807a6267402d617aa9","683db6dfa200031b80f2a654","686507801dacc29dc9f6be2d","6800c1807a6267402d617aa9","","[{""page_index"":0,""viewing_time"":11246}]","","","","","","","","","","","","","","","","","","","","","","","","","","","","","","","","","","","","","","","","","","",""
"58561","","<p>Before you start with this game please answer the following three questions yourself. </p>
  <p>Through this game, we measure several aspects of your cognitive performance, such as reaction times, multi-tasking capabilities </p>
  <p>and the ability to assess the situation you are in.</p>
  <p></p>
  <p><b>How good do you usually are in such tasks?</b></p>","85","html-slider-response","37","1451417","0.0-9.0-0.0","139","1","2025-07-02 10:20:41","80fe4187154257d5fb01684ea91b68b9","105.12.7.131","Mozilla/5.0 (Windows NT 10.0; Win64; x64) AppleWebKit/537.36 (KHTML, like Gecko) Chrome/137.0.0.0 Safari/537.36","WebKit","Chrome","137.0.0.0","Windows","10.0","https://app.prolific.com/","en-US,en;q=0.9","6800c1807a6267402d617aa9","683db6dfa200031b80f2a654","686507801dacc29dc9f6be2d","6800c1807a6267402d617aa9","2025-07-02T10:44:59.466Z","","","","","","PreSkillQ","","","","","","","","","","","","","","","","","","","","","","","","","","","","","","","","","","","","","","50"
"20607","","<div style=""width:500px;"">
  <p>How well do you think you will perform in this task compared to other participants?</p>
  </div>","100","html-slider-response","38","1472031","0.0-9.0-1.0","139","1","2025-07-02 10:20:41","80fe4187154257d5fb01684ea91b68b9","105.12.7.131","Mozilla/5.0 (Windows NT 10.0; Win64; x64) AppleWebKit/537.36 (KHTML, like Gecko) Chrome/137.0.0.0 Safari/537.36","WebKit","Chrome","137.0.0.0","Windows","10.0","https://app.prolific.com/","en-US,en;q=0.9","6800c1807a6267402d617aa9","683db6dfa200031b80f2a654","686507801dacc29dc9f6be2d","6800c1807a6267402d617aa9","2025-07-02T10:45:20.080Z","","","","","","PrePerfQ","","","","","","","","","","","","","","","","","","","","","","","","","","","","","","","","","","","","","","50"
"12549","","<div style=""width:500px;"">
  <p>What best describes how you currently feel?</p>
  </div>","98","html-slider-response","39","1484588","0.0-9.0-2.0","139","1","2025-07-02 10:20:41","80fe4187154257d5fb01684ea91b68b9","105.12.7.131","Mozilla/5.0 (Windows NT 10.0; Win64; x64) AppleWebKit/537.36 (KHTML, like Gecko) Chrome/137.0.0.0 Safari/537.36","WebKit","Chrome","137.0.0.0","Windows","10.0","https://app.prolific.com/","en-US,en;q=0.9","6800c1807a6267402d617aa9","683db6dfa200031b80f2a654","686507801dacc29dc9f6be2d","6800c1807a6267402d617aa9","2025-07-02T10:45:32.637Z","","","","","","PreMotivationQ","","","","","","","","","","","","","","","","","","","","","","","","","","","","","","","","","","","","","","50"
"","","","","ctl-task-cpt","40","1516269","0.0-10.0-0.0","139","1","2025-07-02 10:20:41","80fe4187154257d5fb01684ea91b68b9","105.12.7.131","Mozilla/5.0 (Windows NT 10.0; Win64; x64) AppleWebKit/537.36 (KHTML, like Gecko) Chrome/137.0.0.0 Safari/537.36","WebKit","Chrome","137.0.0.0","Windows","10.0","https://app.prolific.com/","en-US,en;q=0.9","6800c1807a6267402d617aa9","683db6dfa200031b80f2a654","686507801dacc29dc9f6be2d","6800c1807a6267402d617aa9","2025-07-02T10:46:04.318Z","","","","","","","","","","","","","","","","win-only","1","g1:NE,g2:SW","1","1","0","1490587.9","2687.2","7691.5","28650.8","1","4","4","6","2","4","4","4","0","0.030303030303030304","2310","3000","705","[""down"",""left""]","{""num_key_presses"":6,""num_perfect"":6,""num_errors"":0,""num_randdir"":0,""num_randdir_good_moves"":0,""num_whilered"":0,""num_whileblue"":0,""num_blue"":1,""num_good_moves"":6}","[297.22232142857143,293.12857142857143,0.6,297.22232142857143,293.12857142857143,105,297.22232142857143,293.12857142857143,205.2,298.22232142857143,292.12857142857143,309.6,298.22232142857143,291.12857142857143,413.1,298.22232142857143,291.12857142857143,513.1,298.22232142857143,292.12857142857143,620,301.22232142857143,292.12857142857143,720.9,305.22232142857143,293.12857142857143,827,305.22232142857143,293.12857142857143,933.2,305.22232142857143,307.12857142857143,1044.8,317.22232142857143,329.12857142857143,1153.7,313.22232142857143,332.12857142857143,1254.5,298.22232142857143,378.12857142857143,1355.4,259.22232142857143,466.12857142857143,1463.1,199.22232142857143,518.1285714285714,1563.7,144.22232142857143,526.1285714285714,1664.3,95.22232142857143,540.1285714285714,1773.8,76.22232142857143,544.1285714285714,1874.4,65.22232142857143,546.1285714285714,1974.8,64.22232142857143,546.1285714285714,2075.3,64.22232142857143,546.1285714285714,2183.4,64.22232142857143,546.1285714285714,2283.5,64.22232142857143,546.1285714285714,2384.1,64.22232142857143,546.1285714285714,2486.8,64.22232142857143,546.1285714285714,2595.3,64.22232142857143,546.1285714285714,2703.1,64.22232142857143,546.1285714285714,2803.1,64.22232142857143,546.1285714285714,2904.2,68.22232142857143,541.1285714285714,3005.1,80.22232142857143,541.1285714285714,3106.4,99.22232142857143,543.1285714285714,3213.3,307.22232142857143,636.1285714285714,3314.9,945.2223214285714,683.1285714285714,3420.6,945.2223214285714,683.1285714285714,3520.7,945.2223214285714,683.1285714285714,3632.9,945.2223214285714,683.1285714285714,3732.9,945.2223214285714,683.1285714285714,3833.9,945.2223214285714,683.1285714285714,3943,964.2223214285714,671.1285714285714,4044.3,976.2223214285714,683.1285714285714,4146.1,906.2223214285714,673.1285714285714,4246.8,895.2223214285714,670.1285714285714,4354.2,895.2223214285714,670.1285714285714,4462.9,895.2223214285714,670.1285714285714,4563.2,895.2223214285714,669.1285714285714,4663.2,895.2223214285714,669.1285714285714,4770.7,895.2223214285714,669.1285714285714,4883.3,895.2223214285714,669.1285714285714,4983.4]","[2052.9,2052.9,1000,0,1052.9,""smooth"",""down"",""down"",""good_move"",4671,2617.2,1800.2,2053.8,817.1,""smooth"",""down"",""down"",""good_move"",11924.3,7252.5,2953.7,8508.7,461.9,""smooth"",""down"",""down"",""good_move"",14401.6,2476.8,1920.6,11924.8,556.2,""smooth"",""left"",""left"",""good_move"",17270.8,2868.1,2271.2,14402.7,596.9,""smooth"",""left"",""left"",""good_move"",20821.2,3549.8,2895.4,17271.5,654.3,""smooth"",""left"",""left"",""good_move""]","",""
"15525","","<div style=""width:500px;"">
  <p>What determined the result of this run?</p>
  </div>","95","html-slider-response","41","1531797","0.0-10.0-1.0","139","1","2025-07-02 10:20:41","80fe4187154257d5fb01684ea91b68b9","105.12.7.131","Mozilla/5.0 (Windows NT 10.0; Win64; x64) AppleWebKit/537.36 (KHTML, like Gecko) Chrome/137.0.0.0 Safari/537.36","WebKit","Chrome","137.0.0.0","Windows","10.0","https://app.prolific.com/","en-US,en;q=0.9","6800c1807a6267402d617aa9","683db6dfa200031b80f2a654","686507801dacc29dc9f6be2d","6800c1807a6267402d617aa9","2025-07-02T10:46:19.847Z","","","","","","AttribQ","","","","","","","","","","","","","","","","","","","","","","","","","","","","","","","","","","","","","","50"
"5921","","<div style=""width:500px;"">
  <p>How much control did you have over the ball?</p>
  </div>","98","html-slider-response","42","1537726","0.0-10.0-2.0","139","1","2025-07-02 10:20:41","80fe4187154257d5fb01684ea91b68b9","105.12.7.131","Mozilla/5.0 (Windows NT 10.0; Win64; x64) AppleWebKit/537.36 (KHTML, like Gecko) Chrome/137.0.0.0 Safari/537.36","WebKit","Chrome","137.0.0.0","Windows","10.0","https://app.prolific.com/","en-US,en;q=0.9","6800c1807a6267402d617aa9","683db6dfa200031b80f2a654","686507801dacc29dc9f6be2d","6800c1807a6267402d617aa9","2025-07-02T10:46:25.775Z","","","","","","ControlQ","","","","","","","","","","","","","","","","","","","","","","","","","","","","","","","","","","","","","","50"
"17367","","<div style=""width:500px;"">
  <p>How would you describe your current emotional state?</p>
  </div>","2","html-slider-response","43","1555095","0.0-10.0-3.0","139","1","2025-07-02 10:20:41","80fe4187154257d5fb01684ea91b68b9","105.12.7.131","Mozilla/5.0 (Windows NT 10.0; Win64; x64) AppleWebKit/537.36 (KHTML, like Gecko) Chrome/137.0.0.0 Safari/537.36","WebKit","Chrome","137.0.0.0","Windows","10.0","https://app.prolific.com/","en-US,en;q=0.9","6800c1807a6267402d617aa9","683db6dfa200031b80f2a654","686507801dacc29dc9f6be2d","6800c1807a6267402d617aa9","2025-07-02T10:46:43.145Z","","","","","","StressQ","","","","","","","","","","","","","","","","","","","","","","","","","","","","","","","","","","","","","","50"
"7346","","<div style=""width:500px;"">
  <p>What best describes how you currently feel?</p>
  </div>","95","html-slider-response","44","1562447","0.0-10.0-4.0","139","1","2025-07-02 10:20:41","80fe4187154257d5fb01684ea91b68b9","105.12.7.131","Mozilla/5.0 (Windows NT 10.0; Win64; x64) AppleWebKit/537.36 (KHTML, like Gecko) Chrome/137.0.0.0 Safari/537.36","WebKit","Chrome","137.0.0.0","Windows","10.0","https://app.prolific.com/","en-US,en;q=0.9","6800c1807a6267402d617aa9","683db6dfa200031b80f2a654","686507801dacc29dc9f6be2d","6800c1807a6267402d617aa9","2025-07-02T10:46:50.497Z","","","","","","MotivationQ","","","","","","","","","","","","","","","","","","","","","","","","","","","","","","","","","","","","","","50"
"","","","","ctl-task-cpt","45","1595253","0.0-10.0-0.1","139","1","2025-07-02 10:20:41","80fe4187154257d5fb01684ea91b68b9","105.12.7.131","Mozilla/5.0 (Windows NT 10.0; Win64; x64) AppleWebKit/537.36 (KHTML, like Gecko) Chrome/137.0.0.0 Safari/537.36","WebKit","Chrome","137.0.0.0","Windows","10.0","https://app.prolific.com/","en-US,en;q=0.9","6800c1807a6267402d617aa9","683db6dfa200031b80f2a654","686507801dacc29dc9f6be2d","6800c1807a6267402d617aa9","2025-07-02T10:47:23.302Z","","","","","","","","","","","","","","","","win-only","2","g1:SE,g2:NW","0.9","2","0","1568450.8","3829.4","8832.3","29767.5","1","4","8","6","2","8","8","12","4","0.09090909090909091","2221.5","3000","660","[""left"",""up""]","{""num_key_presses"":6,""num_perfect"":6,""num_errors"":0,""num_randdir"":0,""num_randdir_good_moves"":0,""num_whilered"":0,""num_whileblue"":0,""num_blue"":1,""num_good_moves"":6}","[295.22232142857143,291.12857142857143,0.8,295.22232142857143,291.12857142857143,107.2,295.22232142857143,291.12857142857143,220.3,295.22232142857143,291.12857142857143,331.6,295.22232142857143,291.12857142857143,446.3,295.22232142857143,291.12857142857143,552.1,295.22232142857143,291.12857142857143,658,295.22232142857143,291.12857142857143,764.3,295.22232142857143,291.12857142857143,866.3,295.22232142857143,291.12857142857143,966.9,295.22232142857143,291.12857142857143,1067.3,295.22232142857143,291.12857142857143,1169.8,32.222321428571426,98.12857142857143,1272.5,-45.777678571428574,9.128571428571426,1388.5,-54.777678571428574,-2.8714285714285737,1492.1,-22.777678571428574,12.128571428571426,1599.9,39.222321428571426,35.128571428571426,1718.7,52.222321428571426,44.128571428571426,1834.5,52.222321428571426,44.128571428571426,1937.2,52.222321428571426,44.128571428571426,2050.7,52.222321428571426,44.128571428571426,2175,52.222321428571426,44.128571428571426,2282.7,52.222321428571426,44.128571428571426,2384,52.222321428571426,44.128571428571426,2484.6,52.222321428571426,44.128571428571426,2591,52.222321428571426,44.128571428571426,2696.2,52.222321428571426,44.128571428571426,2799.7,52.222321428571426,44.128571428571426,2899.8,52.222321428571426,44.128571428571426,3002.7,52.222321428571426,44.128571428571426,3104.3,52.222321428571426,44.128571428571426,3207.3,52.222321428571426,44.128571428571426,3309.8,52.222321428571426,44.128571428571426,3411.4,52.222321428571426,44.128571428571426,3520.8,52.222321428571426,44.128571428571426,3621,52.222321428571426,44.128571428571426,3721.1,52.222321428571426,44.128571428571426,3827.1,52.222321428571426,44.128571428571426,3927.1,52.222321428571426,44.128571428571426,4030.5,52.222321428571426,44.128571428571426,4131.1,52.222321428571426,44.128571428571426,4232,52.222321428571426,44.128571428571426,4332.1,52.222321428571426,44.128571428571426,4439.7,52.222321428571426,44.128571428571426,4544,52.222321428571426,44.128571428571426,4650.8,52.222321428571426,44.128571428571426,4752.7,52.222321428571426,44.128571428571426,4858.5,52.222321428571426,44.128571428571426,4969.8]","[1796.5,1796.5,1000,0,796.5,""smooth"",""up"",""up"",""good_move"",4728.2,2930.7,2355.4,1797.5,575.3,""smooth"",""up"",""up"",""good_move"",7648.7,2918.4,2376.5,4730.3,541.9,""smooth"",""left"",""left"",""good_move"",14941,7291.4,3250.2,11159.5,531.3,""smooth"",""left"",""left"",""good_move"",17801.7,2860,2229.9,14941.7,630.1,""smooth"",""left"",""left"",""good_move"",20781.2,2978.8,2488.1,17802.5,490.6,""smooth"",""up"",""up"",""good_move""]","",""
"10273","","<div style=""width:500px;"">
  <p>What determined the result of this run?</p>
  </div>","96","html-slider-response","46","1605529","0.0-10.0-1.1","139","1","2025-07-02 10:20:41","80fe4187154257d5fb01684ea91b68b9","105.12.7.131","Mozilla/5.0 (Windows NT 10.0; Win64; x64) AppleWebKit/537.36 (KHTML, like Gecko) Chrome/137.0.0.0 Safari/537.36","WebKit","Chrome","137.0.0.0","Windows","10.0","https://app.prolific.com/","en-US,en;q=0.9","6800c1807a6267402d617aa9","683db6dfa200031b80f2a654","686507801dacc29dc9f6be2d","6800c1807a6267402d617aa9","2025-07-02T10:47:33.578Z","","","","","","AttribQ","","","","","","","","","","","","","","","","","","","","","","","","","","","","","","","","","","","","","","50"
"4675","","<div style=""width:500px;"">
  <p>How much control did you have over the ball?</p>
  </div>","96","html-slider-response","47","1610207","0.0-10.0-2.1","139","1","2025-07-02 10:20:41","80fe4187154257d5fb01684ea91b68b9","105.12.7.131","Mozilla/5.0 (Windows NT 10.0; Win64; x64) AppleWebKit/537.36 (KHTML, like Gecko) Chrome/137.0.0.0 Safari/537.36","WebKit","Chrome","137.0.0.0","Windows","10.0","https://app.prolific.com/","en-US,en;q=0.9","6800c1807a6267402d617aa9","683db6dfa200031b80f2a654","686507801dacc29dc9f6be2d","6800c1807a6267402d617aa9","2025-07-02T10:47:38.257Z","","","","","","ControlQ","","","","","","","","","","","","","","","","","","","","","","","","","","","","","","","","","","","","","","50"
"6473","","<div style=""width:500px;"">
  <p>How would you describe your current emotional state?</p>
  </div>","0","html-slider-response","48","1616683","0.0-10.0-3.1","139","1","2025-07-02 10:20:41","80fe4187154257d5fb01684ea91b68b9","105.12.7.131","Mozilla/5.0 (Windows NT 10.0; Win64; x64) AppleWebKit/537.36 (KHTML, like Gecko) Chrome/137.0.0.0 Safari/537.36","WebKit","Chrome","137.0.0.0","Windows","10.0","https://app.prolific.com/","en-US,en;q=0.9","6800c1807a6267402d617aa9","683db6dfa200031b80f2a654","686507801dacc29dc9f6be2d","6800c1807a6267402d617aa9","2025-07-02T10:47:44.733Z","","","","","","StressQ","","","","","","","","","","","","","","","","","","","","","","","","","","","","","","","","","","","","","","50"
"11724","","<div style=""width:500px;"">
  <p>What best describes how you currently feel?</p>
  </div>","100","html-slider-response","49","1628410","0.0-10.0-4.1","139","1","2025-07-02 10:20:41","80fe4187154257d5fb01684ea91b68b9","105.12.7.131","Mozilla/5.0 (Windows NT 10.0; Win64; x64) AppleWebKit/537.36 (KHTML, like Gecko) Chrome/137.0.0.0 Safari/537.36","WebKit","Chrome","137.0.0.0","Windows","10.0","https://app.prolific.com/","en-US,en;q=0.9","6800c1807a6267402d617aa9","683db6dfa200031b80f2a654","686507801dacc29dc9f6be2d","6800c1807a6267402d617aa9","2025-07-02T10:47:56.459Z","","","","","","MotivationQ","","","","","","","","","","","","","","","","","","","","","","","","","","","","","","","","","","","","","","50"
"","","","","ctl-task-cpt","50","1658352","0.0-10.0-0.2","139","1","2025-07-02 10:20:41","80fe4187154257d5fb01684ea91b68b9","105.12.7.131","Mozilla/5.0 (Windows NT 10.0; Win64; x64) AppleWebKit/537.36 (KHTML, like Gecko) Chrome/137.0.0.0 Safari/537.36","WebKit","Chrome","137.0.0.0","Windows","10.0","https://app.prolific.com/","en-US,en;q=0.9","6800c1807a6267402d617aa9","683db6dfa200031b80f2a654","686507801dacc29dc9f6be2d","6800c1807a6267402d617aa9","2025-07-02T10:48:26.401Z","","","","","","","","","","","","","","","","win-only","0","g1:NW,g2:SE","0.8","3","0","1634407.7","2356.1","7367","26909.9","1","4","4","6","2","4","4","16","12","0.12121212121212122","2049.3","3000","1125","[""down"",""right""]","{""num_key_presses"":6,""num_perfect"":6,""num_errors"":0,""num_randdir"":0,""num_randdir_good_moves"":0,""num_whilered"":0,""num_whileblue"":0,""num_blue"":1,""num_good_moves"":6}","[289.22232142857143,298.12857142857143,0.8,289.22232142857143,298.12857142857143,101.1,289.22232142857143,298.12857142857143,208.4,289.22232142857143,298.12857142857143,320.1,289.22232142857143,298.12857142857143,425,289.22232142857143,298.12857142857143,525.3,289.22232142857143,298.12857142857143,625.7,289.22232142857143,298.12857142857143,731.4,316.22232142857143,314.12857142857143,845.8,426.22232142857143,386.12857142857143,946.9,493.22232142857143,462.12857142857143,1052.2,525.2223214285714,515.1285714285714,1155.9,544.2223214285714,545.1285714285714,1262.3,554.2223214285714,560.1285714285714,1377.9,554.2223214285714,560.1285714285714,1484.7,554.2223214285714,560.1285714285714,1586.8,553.2223214285714,559.1285714285714,1687.6,552.2223214285714,558.1285714285714,1792.6,552.2223214285714,558.1285714285714,1895.1,552.2223214285714,558.1285714285714,2005.4,552.2223214285714,558.1285714285714,2110,552.2223214285714,558.1285714285714,2218,552.2223214285714,558.1285714285714,2325.3,552.2223214285714,558.1285714285714,2429.8,552.2223214285714,558.1285714285714,2539.9,552.2223214285714,558.1285714285714,2655.4,552.2223214285714,558.1285714285714,2763,552.2223214285714,558.1285714285714,2872,552.2223214285714,558.1285714285714,2973.9,552.2223214285714,558.1285714285714,3075.1,552.2223214285714,558.1285714285714,3176.3,552.2223214285714,558.1285714285714,3279.7,552.2223214285714,558.1285714285714,3388.3,552.2223214285714,558.1285714285714,3492.4,552.2223214285714,558.1285714285714,3608.9,552.2223214285714,558.1285714285714,3709.7,552.2223214285714,558.1285714285714,3817.5,552.2223214285714,558.1285714285714,3925,552.2223214285714,558.1285714285714,4041.6,552.2223214285714,558.1285714285714,4141.6,552.2223214285714,558.1285714285714,4246.2,552.2223214285714,558.1285714285714,4351.6,552.2223214285714,558.1285714285714,4477.2,552.2223214285714,558.1285714285714,4580.3,552.2223214285714,558.1285714285714,4687.7,552.2223214285714,558.1285714285714,4794.4,552.2223214285714,558.1285714285714,4898.8]","[5093.9,5093.9,2389.4,2021.9,682.6,""smooth"",""right"",""right"",""good_move"",8673.7,3577.2,3046.4,5096.5,530.8,""smooth"",""right"",""right"",""good_move"",11564.1,2889.6,2447.3,8674.5,442.3,""smooth"",""down"",""down"",""good_move"",13904.9,2339.9,1831.2,11565,508.7,""smooth"",""right"",""right"",""good_move"",16822,2916.2,2342.6,13905.8,573.7,""smooth"",""down"",""down"",""good_move"",19397.5,2574.6,2106.4,16823.2,468,""smooth"",""down"",""down"",""good_move""]","",""
"6932","","<div style=""width:500px;"">
  <p>What determined the result of this run?</p>
  </div>","100","html-slider-response","51","1665287","0.0-10.0-1.2","139","1","2025-07-02 10:20:41","80fe4187154257d5fb01684ea91b68b9","105.12.7.131","Mozilla/5.0 (Windows NT 10.0; Win64; x64) AppleWebKit/537.36 (KHTML, like Gecko) Chrome/137.0.0.0 Safari/537.36","WebKit","Chrome","137.0.0.0","Windows","10.0","https://app.prolific.com/","en-US,en;q=0.9","6800c1807a6267402d617aa9","683db6dfa200031b80f2a654","686507801dacc29dc9f6be2d","6800c1807a6267402d617aa9","2025-07-02T10:48:33.336Z","","","","","","AttribQ","","","","","","","","","","","","","","","","","","","","","","","","","","","","","","","","","","","","","","50"
"5345","","<div style=""width:500px;"">
  <p>How much control did you have over the ball?</p>
  </div>","100","html-slider-response","52","1670634","0.0-10.0-2.2","139","1","2025-07-02 10:20:41","80fe4187154257d5fb01684ea91b68b9","105.12.7.131","Mozilla/5.0 (Windows NT 10.0; Win64; x64) AppleWebKit/537.36 (KHTML, like Gecko) Chrome/137.0.0.0 Safari/537.36","WebKit","Chrome","137.0.0.0","Windows","10.0","https://app.prolific.com/","en-US,en;q=0.9","6800c1807a6267402d617aa9","683db6dfa200031b80f2a654","686507801dacc29dc9f6be2d","6800c1807a6267402d617aa9","2025-07-02T10:48:38.683Z","","","","","","ControlQ","","","","","","","","","","","","","","","","","","","","","","","","","","","","","","","","","","","","","","50"
"4977","","<div style=""width:500px;"">
  <p>How would you describe your current emotional state?</p>
  </div>","0","html-slider-response","53","1675613","0.0-10.0-3.2","139","1","2025-07-02 10:20:41","80fe4187154257d5fb01684ea91b68b9","105.12.7.131","Mozilla/5.0 (Windows NT 10.0; Win64; x64) AppleWebKit/537.36 (KHTML, like Gecko) Chrome/137.0.0.0 Safari/537.36","WebKit","Chrome","137.0.0.0","Windows","10.0","https://app.prolific.com/","en-US,en;q=0.9","6800c1807a6267402d617aa9","683db6dfa200031b80f2a654","686507801dacc29dc9f6be2d","6800c1807a6267402d617aa9","2025-07-02T10:48:43.662Z","","","","","","StressQ","","","","","","","","","","","","","","","","","","","","","","","","","","","","","","","","","","","","","","50"
"4193","","<div style=""width:500px;"">
  <p>What best describes how you currently feel?</p>
  </div>","90","html-slider-response","54","1679808","0.0-10.0-4.2","139","1","2025-07-02 10:20:41","80fe4187154257d5fb01684ea91b68b9","105.12.7.131","Mozilla/5.0 (Windows NT 10.0; Win64; x64) AppleWebKit/537.36 (KHTML, like Gecko) Chrome/137.0.0.0 Safari/537.36","WebKit","Chrome","137.0.0.0","Windows","10.0","https://app.prolific.com/","en-US,en;q=0.9","6800c1807a6267402d617aa9","683db6dfa200031b80f2a654","686507801dacc29dc9f6be2d","6800c1807a6267402d617aa9","2025-07-02T10:48:47.857Z","","","","","","MotivationQ","","","","","","","","","","","","","","","","","","","","","","","","","","","","","","","","","","","","","","50"
"","","","","ctl-task-cpt","55","1732087","0.0-10.0-0.3","139","1","2025-07-02 10:20:41","80fe4187154257d5fb01684ea91b68b9","105.12.7.131","Mozilla/5.0 (Windows NT 10.0; Win64; x64) AppleWebKit/537.36 (KHTML, like Gecko) Chrome/137.0.0.0 Safari/537.36","WebKit","Chrome","137.0.0.0","Windows","10.0","https://app.prolific.com/","en-US,en;q=0.9","6800c1807a6267402d617aa9","683db6dfa200031b80f2a654","686507801dacc29dc9f6be2d","6800c1807a6267402d617aa9","2025-07-02T10:49:40.136Z","","","","","","","","","","","","","","","","win-only","0","g1:NW,g2:SE","0.7","4","0","1685805.4","2195.3","7201.9","49251.4","1","4","8","6","2","-8","-8","8","16","0.06060606060606061","2190","3000","-1585","[""down"",""right""]","{""num_key_presses"":9,""num_perfect"":6,""num_errors"":0,""num_randdir"":3,""num_randdir_good_moves"":1,""num_whilered"":0,""num_whileblue"":0,""num_blue"":4,""num_good_moves"":7}","[293.22232142857143,297.12857142857143,2.5,293.22232142857143,297.12857142857143,135.1,293.22232142857143,297.12857142857143,237.8,293.22232142857143,297.12857142857143,369.8,293.22232142857143,297.12857142857143,499.8,293.22232142857143,297.12857142857143,606.2,293.22232142857143,297.12857142857143,730.2,293.22232142857143,297.12857142857143,844.6,293.22232142857143,297.12857142857143,960.3,293.22232142857143,297.12857142857143,1062.3,293.22232142857143,297.12857142857143,1175.6,353.22232142857143,348.12857142857143,1280.9,433.22232142857143,411.12857142857143,1389.7,495.22232142857143,464.12857142857143,1496.2,537.2223214285714,502.12857142857143,1597.6,540.2223214285714,506.12857142857143,1699.2,544.2223214285714,514.1285714285714,1802.4,544.2223214285714,525.1285714285714,1908.8,544.2223214285714,526.1285714285714,2036.6,544.2223214285714,526.1285714285714,2164.7,544.2223214285714,526.1285714285714,2299.7,544.2223214285714,526.1285714285714,2406.9,544.2223214285714,526.1285714285714,2507.1,544.2223214285714,526.1285714285714,2614.3,544.2223214285714,526.1285714285714,2717.8,544.2223214285714,526.1285714285714,2821.3,544.2223214285714,526.1285714285714,2925.6,544.2223214285714,526.1285714285714,3042.4,544.2223214285714,526.1285714285714,3144.1,544.2223214285714,526.1285714285714,3246.6,544.2223214285714,526.1285714285714,3375.6,544.2223214285714,526.1285714285714,3481.3,544.2223214285714,526.1285714285714,3581.6,544.2223214285714,526.1285714285714,3704,544.2223214285714,526.1285714285714,3831,544.2223214285714,526.1285714285714,3934.8,544.2223214285714,526.1285714285714,4079.8,544.2223214285714,526.1285714285714,4192.8,544.2223214285714,526.1285714285714,4304.2,544.2223214285714,526.1285714285714,4405.3,544.2223214285714,526.1285714285714,4524.5,544.2223214285714,526.1285714285714,4635.5,544.2223214285714,526.1285714285714,4755.2,544.2223214285714,526.1285714285714,4859.5,544.2223214285714,526.1285714285714,4963.9]","[2573.5,2573.5,1000,0,1573.5,""oops"",""right"",""left"",""bad_move"",5215.4,2637.1,2162.8,2578.3,474.3,""smooth"",""right"",""right"",""good_move"",8297.5,3080.5,2610.6,5217,469.9,""smooth"",""right"",""right"",""good_move"",10613.6,2314.1,1725.7,8299.6,588.4,""oops"",""right"",""right"",""good_move"",17478.9,6864.4,3022.7,13937,519.3,""smooth"",""right"",""right"",""good_move"",23594.3,6114.8,2235.2,20875.2,483.9,""smooth"",""down"",""down"",""good_move"",27152.4,3556.1,2996.8,23596.3,559.3,""smooth"",""down"",""down"",""good_move"",32465.4,5309,2253.4,29732.9,479.1,""oops"",""down"",""up"",""bad_move"",35918.1,3451.9,2406.9,32466.3,1045,""smooth"",""down"",""down"",""good_move""]","",""
"7711","","<div style=""width:500px;"">
  <p>What determined the result of this run?</p>
  </div>","3","html-slider-response","56","1739801","0.0-10.0-1.3","139","1","2025-07-02 10:20:41","80fe4187154257d5fb01684ea91b68b9","105.12.7.131","Mozilla/5.0 (Windows NT 10.0; Win64; x64) AppleWebKit/537.36 (KHTML, like Gecko) Chrome/137.0.0.0 Safari/537.36","WebKit","Chrome","137.0.0.0","Windows","10.0","https://app.prolific.com/","en-US,en;q=0.9","6800c1807a6267402d617aa9","683db6dfa200031b80f2a654","686507801dacc29dc9f6be2d","6800c1807a6267402d617aa9","2025-07-02T10:49:47.850Z","","","","","","AttribQ","","","","","","","","","","","","","","","","","","","","","","","","","","","","","","","","","","","","","","50"
"7952","","<div style=""width:500px;"">
  <p>How much control did you have over the ball?</p>
  </div>","26","html-slider-response","57","1747756","0.0-10.0-2.3","139","1","2025-07-02 10:20:41","80fe4187154257d5fb01684ea91b68b9","105.12.7.131","Mozilla/5.0 (Windows NT 10.0; Win64; x64) AppleWebKit/537.36 (KHTML, like Gecko) Chrome/137.0.0.0 Safari/537.36","WebKit","Chrome","137.0.0.0","Windows","10.0","https://app.prolific.com/","en-US,en;q=0.9","6800c1807a6267402d617aa9","683db6dfa200031b80f2a654","686507801dacc29dc9f6be2d","6800c1807a6267402d617aa9","2025-07-02T10:49:55.807Z","","","","","","ControlQ","","","","","","","","","","","","","","","","","","","","","","","","","","","","","","","","","","","","","","50"
"5652","","<div style=""width:500px;"">
  <p>How would you describe your current emotional state?</p>
  </div>","69","html-slider-response","58","1753413","0.0-10.0-3.3","139","1","2025-07-02 10:20:41","80fe4187154257d5fb01684ea91b68b9","105.12.7.131","Mozilla/5.0 (Windows NT 10.0; Win64; x64) AppleWebKit/537.36 (KHTML, like Gecko) Chrome/137.0.0.0 Safari/537.36","WebKit","Chrome","137.0.0.0","Windows","10.0","https://app.prolific.com/","en-US,en;q=0.9","6800c1807a6267402d617aa9","683db6dfa200031b80f2a654","686507801dacc29dc9f6be2d","6800c1807a6267402d617aa9","2025-07-02T10:50:01.462Z","","","","","","StressQ","","","","","","","","","","","","","","","","","","","","","","","","","","","","","","","","","","","","","","50"
"10055","","<div style=""width:500px;"">
  <p>What best describes how you currently feel?</p>
  </div>","88","html-slider-response","59","1763472","0.0-10.0-4.3","139","1","2025-07-02 10:20:41","80fe4187154257d5fb01684ea91b68b9","105.12.7.131","Mozilla/5.0 (Windows NT 10.0; Win64; x64) AppleWebKit/537.36 (KHTML, like Gecko) Chrome/137.0.0.0 Safari/537.36","WebKit","Chrome","137.0.0.0","Windows","10.0","https://app.prolific.com/","en-US,en;q=0.9","6800c1807a6267402d617aa9","683db6dfa200031b80f2a654","686507801dacc29dc9f6be2d","6800c1807a6267402d617aa9","2025-07-02T10:50:11.521Z","","","","","","MotivationQ","","","","","","","","","","","","","","","","","","","","","","","","","","","","","","","","","","","","","","50"
"","","","","ctl-task-cpt","60","1813656","0.0-10.0-0.4","139","1","2025-07-02 10:20:41","80fe4187154257d5fb01684ea91b68b9","105.12.7.131","Mozilla/5.0 (Windows NT 10.0; Win64; x64) AppleWebKit/537.36 (KHTML, like Gecko) Chrome/137.0.0.0 Safari/537.36","WebKit","Chrome","137.0.0.0","Windows","10.0","https://app.prolific.com/","en-US,en;q=0.9","6800c1807a6267402d617aa9","683db6dfa200031b80f2a654","686507801dacc29dc9f6be2d","6800c1807a6267402d617aa9","2025-07-02T10:51:01.706Z","","","","","","","","","","","","","","","","win-only","3","g1:SW,g2:NE","0.6","5","0","1769470.3","8498.2","13509.4","47147.3","1","4","8","6","2","-8","-8","0","8","0","1899.2","3000","-1435","[""up"",""right""]","{""num_key_presses"":8,""num_perfect"":4,""num_errors"":0,""num_randdir"":4,""num_randdir_good_moves"":1,""num_whilered"":0,""num_whileblue"":0,""num_blue"":1,""num_good_moves"":5}","[291.22232142857143,290.12857142857143,0.8,291.22232142857143,290.12857142857143,123.6,291.22232142857143,290.12857142857143,233.1,291.22232142857143,290.12857142857143,358,291.22232142857143,290.12857142857143,470.4,291.22232142857143,290.12857142857143,588.9,291.22232142857143,290.12857142857143,689.2,291.22232142857143,290.12857142857143,793.2,304.22232142857143,245.12857142857143,902.8,395.22232142857143,71.12857142857143,1008.7,445.22232142857143,25.128571428571426,1125.3,488.22232142857143,21.128571428571426,1251.3,506.22232142857143,30.128571428571426,1359.9,518.2223214285714,42.128571428571426,1460.7,529.2223214285714,52.128571428571426,1565.8,534.2223214285714,55.128571428571426,1706.6,534.2223214285714,55.128571428571426,1808.9,534.2223214285714,55.128571428571426,1916.8,534.2223214285714,55.128571428571426,2021.2,534.2223214285714,55.128571428571426,2121.2,534.2223214285714,55.128571428571426,2225.7,534.2223214285714,55.128571428571426,2376.9,534.2223214285714,55.128571428571426,2478,534.2223214285714,55.128571428571426,2580,534.2223214285714,55.128571428571426,2699.5,534.2223214285714,55.128571428571426,2799.8,534.2223214285714,55.128571428571426,2927.7,534.2223214285714,55.128571428571426,3040.1,534.2223214285714,55.128571428571426,3157.8,534.2223214285714,55.128571428571426,3260.1,534.2223214285714,55.128571428571426,3368.8,534.2223214285714,55.128571428571426,3487.9,534.2223214285714,55.128571428571426,3594.7,534.2223214285714,55.128571428571426,3705.7,534.2223214285714,55.128571428571426,3807.7,534.2223214285714,55.128571428571426,3909.5,534.2223214285714,55.128571428571426,4034.9,534.2223214285714,55.128571428571426,4148.4,534.2223214285714,55.128571428571426,4286.2,534.2223214285714,55.128571428571426,4390,534.2223214285714,55.128571428571426,4490.6,534.2223214285714,55.128571428571426,4621.6,534.2223214285714,55.128571428571426,4724.7,534.2223214285714,55.128571428571426,4825.5,534.2223214285714,55.128571428571426,4926.9]","[1710.8,1710.8,1000,0,710.8,""oops"",""up"",""down"",""bad_move"",5536.9,3825.1,3356.8,1711.8,468.3,""smooth"",""right"",""right"",""good_move"",9226.2,3688.2,2756.9,5538,931.3,""smooth"",""right"",""right"",""good_move"",13101.7,3874.5,3043.3,9227.2,831.2,""oops"",""up"",""down"",""bad_move"",16176.6,3074,2512.9,13102.7,561,""smooth"",""right"",""right"",""good_move"",19435.5,3258,2815,16177.6,442.9,""oops"",""up"",""left"",""bad_move"",23962.1,4525.5,3003.2,19436.6,1522.3,""oops"",""left"",""right"",""good_move"",30734.8,6771.1,2101.2,27937.9,695.7,""smooth"",""up"",""up"",""good_move""]","",""
"8101","","<div style=""width:500px;"">
  <p>What determined the result of this run?</p>
  </div>","31","html-slider-response","61","1821760","0.0-10.0-1.4","139","1","2025-07-02 10:20:41","80fe4187154257d5fb01684ea91b68b9","105.12.7.131","Mozilla/5.0 (Windows NT 10.0; Win64; x64) AppleWebKit/537.36 (KHTML, like Gecko) Chrome/137.0.0.0 Safari/537.36","WebKit","Chrome","137.0.0.0","Windows","10.0","https://app.prolific.com/","en-US,en;q=0.9","6800c1807a6267402d617aa9","683db6dfa200031b80f2a654","686507801dacc29dc9f6be2d","6800c1807a6267402d617aa9","2025-07-02T10:51:09.810Z","","","","","","AttribQ","","","","","","","","","","","","","","","","","","","","","","","","","","","","","","","","","","","","","","50"
"6902","","<div style=""width:500px;"">
  <p>How much control did you have over the ball?</p>
  </div>","6","html-slider-response","62","1828667","0.0-10.0-2.4","139","1","2025-07-02 10:20:41","80fe4187154257d5fb01684ea91b68b9","105.12.7.131","Mozilla/5.0 (Windows NT 10.0; Win64; x64) AppleWebKit/537.36 (KHTML, like Gecko) Chrome/137.0.0.0 Safari/537.36","WebKit","Chrome","137.0.0.0","Windows","10.0","https://app.prolific.com/","en-US,en;q=0.9","6800c1807a6267402d617aa9","683db6dfa200031b80f2a654","686507801dacc29dc9f6be2d","6800c1807a6267402d617aa9","2025-07-02T10:51:16.716Z","","","","","","ControlQ","","","","","","","","","","","","","","","","","","","","","","","","","","","","","","","","","","","","","","50"
"6912","","<div style=""width:500px;"">
  <p>How would you describe your current emotional state?</p>
  </div>","98","html-slider-response","63","1835583","0.0-10.0-3.4","139","1","2025-07-02 10:20:41","80fe4187154257d5fb01684ea91b68b9","105.12.7.131","Mozilla/5.0 (Windows NT 10.0; Win64; x64) AppleWebKit/537.36 (KHTML, like Gecko) Chrome/137.0.0.0 Safari/537.36","WebKit","Chrome","137.0.0.0","Windows","10.0","https://app.prolific.com/","en-US,en;q=0.9","6800c1807a6267402d617aa9","683db6dfa200031b80f2a654","686507801dacc29dc9f6be2d","6800c1807a6267402d617aa9","2025-07-02T10:51:23.632Z","","","","","","StressQ","","","","","","","","","","","","","","","","","","","","","","","","","","","","","","","","","","","","","","50"
"8162","","<div style=""width:500px;"">
  <p>What best describes how you currently feel?</p>
  </div>","83","html-slider-response","64","1843747","0.0-10.0-4.4","139","1","2025-07-02 10:20:41","80fe4187154257d5fb01684ea91b68b9","105.12.7.131","Mozilla/5.0 (Windows NT 10.0; Win64; x64) AppleWebKit/537.36 (KHTML, like Gecko) Chrome/137.0.0.0 Safari/537.36","WebKit","Chrome","137.0.0.0","Windows","10.0","https://app.prolific.com/","en-US,en;q=0.9","6800c1807a6267402d617aa9","683db6dfa200031b80f2a654","686507801dacc29dc9f6be2d","6800c1807a6267402d617aa9","2025-07-02T10:51:31.796Z","","","","","","MotivationQ","","","","","","","","","","","","","","","","","","","","","","","","","","","","","","","","","","","","","","50"
"","","","","ctl-task-cpt","65","1963097","0.0-10.0-0.5","139","1","2025-07-02 10:20:41","80fe4187154257d5fb01684ea91b68b9","105.12.7.131","Mozilla/5.0 (Windows NT 10.0; Win64; x64) AppleWebKit/537.36 (KHTML, like Gecko) Chrome/137.0.0.0 Safari/537.36","WebKit","Chrome","137.0.0.0","Windows","10.0","https://app.prolific.com/","en-US,en;q=0.9","6800c1807a6267402d617aa9","683db6dfa200031b80f2a654","686507801dacc29dc9f6be2d","6800c1807a6267402d617aa9","2025-07-02T10:53:31.146Z","","","","","","","","","","","","","","","","win-only","2","g1:SE,g2:NW","0.5","6","0","1849743.1","13016.3","18053.3","116297.2","1","4","4","6","2","-4","-5","0","0","0","2492.9","3000","-365","[""left"",""up""]","{""num_key_presses"":20,""num_perfect"":9,""num_errors"":1,""num_randdir"":10,""num_randdir_good_moves"":4,""num_whilered"":0,""num_whileblue"":1,""num_blue"":6,""num_good_moves"":11}","[296.22232142857143,289.12857142857143,2.1,296.22232142857143,289.12857142857143,110.5,296.22232142857143,289.12857142857143,279.5,296.22232142857143,289.12857142857143,383,296.22232142857143,289.12857142857143,489.4,296.22232142857143,289.12857142857143,595.7,296.22232142857143,289.12857142857143,699.6,296.22232142857143,289.12857142857143,852.2,296.22232142857143,289.12857142857143,1002.7,238.22232142857143,257.12857142857143,1127.4,69.22232142857143,140.12857142857143,1229.1,30.222321428571426,101.12857142857143,1331.8,-6.777678571428574,60.128571428571426,1507.9,-18.777678571428574,51.128571428571426,1652.3,-23.777678571428574,47.128571428571426,1753.6,-27.777678571428574,43.128571428571426,1862.4,17.222321428571426,34.128571428571426,1965,40.222321428571426,33.128571428571426,2073.5,42.222321428571426,33.128571428571426,2230.9,42.222321428571426,33.128571428571426,2334.6,42.222321428571426,33.128571428571426,2439.7,42.222321428571426,33.128571428571426,2540.6,42.222321428571426,33.128571428571426,2644.2,42.222321428571426,33.128571428571426,2753.5,42.222321428571426,33.128571428571426,2860.1,42.222321428571426,33.128571428571426,2960.9,42.222321428571426,33.128571428571426,3075.2,42.222321428571426,33.128571428571426,3180.9,42.222321428571426,33.128571428571426,3281.3,42.222321428571426,33.128571428571426,3391.4,42.222321428571426,33.128571428571426,3506.6,42.222321428571426,33.128571428571426,3612.6,42.222321428571426,33.128571428571426,3712.9,42.222321428571426,33.128571428571426,3817.6,42.222321428571426,33.128571428571426,3953.8,42.222321428571426,33.128571428571426,4059.9,42.222321428571426,33.128571428571426,4210.3,42.222321428571426,33.128571428571426,4338.6,42.222321428571426,33.128571428571426,4438.9,42.222321428571426,33.128571428571426,4545.2,42.222321428571426,33.128571428571426,4646.6,42.222321428571426,33.128571428571426,4747.1,42.222321428571426,33.128571428571426,4857.2]","[1816.6,1816.6,1000,0,816.6,""oops"",""up"",""left"",""good_move"",4805.9,2988.1,2424.8,1817.8,563.3,""smooth"",""left"",""left"",""good_move"",8115.2,3308.3,2621.3,4806.9,687,""oops"",""up"",""left"",""good_move"",11956,3839.8,2633,8116.2,1206.8,""smooth"",""up"",""up"",""good_move"",20963.8,9006.6,2972.8,17447.9,543.1,""oops"",""up"",""right"",""bad_move"",23886.4,2921.7,2245.8,20964.7,675.9,""smooth"",""up"",""up"",""good_move"",28431.8,4544.5,2340.5,23887.3,2204,""oops"",""up"",""down"",""bad_move"",31617.3,3184.7,2644.9,28432.6,539.8,""smooth"",""up"",""up"",""good_move"",35915.4,4297.3,2385.1,31618.8,1911.5,""smooth"",""right"",""right"",""bad_move"",45817.5,9892.2,2324.2,43013.1,480.2,""oops"",""up"",""left"",""good_move"",49660.1,3840.8,3219.9,45819.3,620.9,""smooth"",""up"",""up"",""good_move"",57906.7,8244.5,3101.5,54325.3,479.9,""oops"",""left"",""right"",""bad_move"",60763.4,2856.2,1387.4,57907.3,1468.7,""smooth"",""right"",""right"",""bad_move"",63436.9,2672.7,2044,60764.2,628.7,""smooth"",""left"",""left"",""good_move"",69196.8,5759.3,2204.2,63437.6,3555.1,""oops"",""left"",""right"",""bad_move"",72529.1,3331.5,2659,69197.7,672.4,""while_blue"",""up"",""left"",""good_move"",81187.2,8656.8,2581,78025.6,580.6,""smooth"",""up"",""right"",""bad_move"",84229.3,3041.8,2427.5,81187.6,614.3,""oops"",""left"",""down"",""bad_move"",88062.9,3832.5,2051.3,84230.4,1781.2,""oops"",""left"",""left"",""good_move"",95227.8,7164.1,2081.4,88063.7,5082.7,""oops"",""left"",""right"",""bad_move""]","",""
"3392","","<div style=""width:500px;"">
  <p>What determined the result of this run?</p>
  </div>","0","html-slider-response","66","1966495","0.0-10.0-1.5","139","1","2025-07-02 10:20:41","80fe4187154257d5fb01684ea91b68b9","105.12.7.131","Mozilla/5.0 (Windows NT 10.0; Win64; x64) AppleWebKit/537.36 (KHTML, like Gecko) Chrome/137.0.0.0 Safari/537.36","WebKit","Chrome","137.0.0.0","Windows","10.0","https://app.prolific.com/","en-US,en;q=0.9","6800c1807a6267402d617aa9","683db6dfa200031b80f2a654","686507801dacc29dc9f6be2d","6800c1807a6267402d617aa9","2025-07-02T10:53:34.544Z","","","","","","AttribQ","","","","","","","","","","","","","","","","","","","","","","","","","","","","","","","","","","","","","","50"
"7414","","<div style=""width:500px;"">
  <p>How much control did you have over the ball?</p>
  </div>","0","html-slider-response","67","1973916","0.0-10.0-2.5","139","1","2025-07-02 10:20:41","80fe4187154257d5fb01684ea91b68b9","105.12.7.131","Mozilla/5.0 (Windows NT 10.0; Win64; x64) AppleWebKit/537.36 (KHTML, like Gecko) Chrome/137.0.0.0 Safari/537.36","WebKit","Chrome","137.0.0.0","Windows","10.0","https://app.prolific.com/","en-US,en;q=0.9","6800c1807a6267402d617aa9","683db6dfa200031b80f2a654","686507801dacc29dc9f6be2d","6800c1807a6267402d617aa9","2025-07-02T10:53:41.965Z","","","","","","ControlQ","","","","","","","","","","","","","","","","","","","","","","","","","","","","","","","","","","","","","","50"
"5955","","<div style=""width:500px;"">
  <p>How would you describe your current emotional state?</p>
  </div>","100","html-slider-response","68","1979875","0.0-10.0-3.5","139","1","2025-07-02 10:20:41","80fe4187154257d5fb01684ea91b68b9","105.12.7.131","Mozilla/5.0 (Windows NT 10.0; Win64; x64) AppleWebKit/537.36 (KHTML, like Gecko) Chrome/137.0.0.0 Safari/537.36","WebKit","Chrome","137.0.0.0","Windows","10.0","https://app.prolific.com/","en-US,en;q=0.9","6800c1807a6267402d617aa9","683db6dfa200031b80f2a654","686507801dacc29dc9f6be2d","6800c1807a6267402d617aa9","2025-07-02T10:53:47.924Z","","","","","","StressQ","","","","","","","","","","","","","","","","","","","","","","","","","","","","","","","","","","","","","","50"
"6345","","<div style=""width:500px;"">
  <p>What best describes how you currently feel?</p>
  </div>","50","html-slider-response","69","1986224","0.0-10.0-4.5","139","1","2025-07-02 10:20:41","80fe4187154257d5fb01684ea91b68b9","105.12.7.131","Mozilla/5.0 (Windows NT 10.0; Win64; x64) AppleWebKit/537.36 (KHTML, like Gecko) Chrome/137.0.0.0 Safari/537.36","WebKit","Chrome","137.0.0.0","Windows","10.0","https://app.prolific.com/","en-US,en;q=0.9","6800c1807a6267402d617aa9","683db6dfa200031b80f2a654","686507801dacc29dc9f6be2d","6800c1807a6267402d617aa9","2025-07-02T10:53:54.273Z","","","","","","MotivationQ","","","","","","","","","","","","","","","","","","","","","","","","","","","","","","","","","","","","","","50"
"","","","","ctl-task-cpt","70","2125971","0.0-10.0-0.6","139","1","2025-07-02 10:20:41","80fe4187154257d5fb01684ea91b68b9","105.12.7.131","Mozilla/5.0 (Windows NT 10.0; Win64; x64) AppleWebKit/537.36 (KHTML, like Gecko) Chrome/137.0.0.0 Safari/537.36","WebKit","Chrome","137.0.0.0","Windows","10.0","https://app.prolific.com/","en-US,en;q=0.9","6800c1807a6267402d617aa9","683db6dfa200031b80f2a654","686507801dacc29dc9f6be2d","6800c1807a6267402d617aa9","2025-07-02T10:56:14.020Z","","","","","","","","","","","","","","","","win-only","2","g1:SE,g2:NW","0.4","7","0","1992222","2021.2","7027.2","136677.2","1","4","8","6","2","8","5","5","0","0.03787878787878788","2396","3000","545","[""left"",""up""]","{""num_key_presses"":19,""num_perfect"":7,""num_errors"":3,""num_randdir"":9,""num_randdir_good_moves"":5,""num_whilered"":0,""num_whileblue"":0,""num_blue"":8,""num_good_moves"":11}","[289.22232142857143,297.12857142857143,0.6,289.22232142857143,297.12857142857143,113,289.22232142857143,297.12857142857143,223.8,289.22232142857143,297.12857142857143,338.7,289.22232142857143,297.12857142857143,453.1,289.22232142857143,297.12857142857143,571,289.22232142857143,297.12857142857143,679.8,289.22232142857143,297.12857142857143,790.7,289.22232142857143,297.12857142857143,903.8,289.22232142857143,297.12857142857143,1007.9,289.22232142857143,297.12857142857143,1117.8,289.22232142857143,297.12857142857143,1231.9,246.22232142857143,242.12857142857143,1332.6,154.22232142857143,148.12857142857143,1437.6,48.222321428571426,56.128571428571426,1548.7,2.2223214285714263,32.128571428571426,1656.4,-10.777678571428574,24.128571428571426,1781.5,4.222321428571426,31.128571428571426,1914.4,21.222321428571426,38.128571428571426,2016.9,30.222321428571426,43.128571428571426,2128.9,32.222321428571426,44.128571428571426,2242.2,32.222321428571426,44.128571428571426,2371.1,32.222321428571426,44.128571428571426,2472.5,32.222321428571426,44.128571428571426,2587.3,32.222321428571426,44.128571428571426,2705.9,32.222321428571426,44.128571428571426,2823.8,32.222321428571426,44.128571428571426,2949.8,32.222321428571426,44.128571428571426,3070.3,32.222321428571426,44.128571428571426,3187.3,32.222321428571426,44.128571428571426,3301,32.222321428571426,44.128571428571426,3419.6,32.222321428571426,44.128571428571426,3534.7,32.222321428571426,44.128571428571426,3651.7,32.222321428571426,44.128571428571426,3771,32.222321428571426,44.128571428571426,3884.8,32.222321428571426,44.128571428571426,3999.9,32.222321428571426,44.128571428571426,4115.4,32.222321428571426,44.128571428571426,4231.1,32.222321428571426,44.128571428571426,4351.2,32.222321428571426,44.128571428571426,4462.5,32.222321428571426,44.128571428571426,4580.2,32.222321428571426,44.128571428571426,4694.6,32.222321428571426,44.128571428571426,4808,32.222321428571426,44.128571428571426,4918.9]","[2048.2,2048.2,1000,0,1048.2,""oops"",""up"",""left"",""good_move"",14340.6,12291.7,2168.6,9945.5,2226.6,""smooth"",""up"",""up"",""good_move"",20915.4,6573.6,2422.3,14341.8,4151.3,""smooth"",""up"",""up"",""good_move"",30910,9994,2243.7,30841,-2174.7,""error"",""-"",""-"",""no_move"",35037.3,4126.3,2428.7,31913.3,695.3,""oops"",""left"",""up"",""good_move"",40912,5874,2502.6,35038,3371.4,""oops"",""left"",""right"",""bad_move"",44300.6,3387.7,2672.6,40912.9,715.1,""oops"",""right"",""left"",""good_move"",55675.3,11373.6,2743.1,52460.9,471.3,""smooth"",""right"",""right"",""bad_move"",57015.8,1339.8,2611.8,55676.1,-1272,""error"",""-"",""-"",""no_move"",61773.8,4757.3,2463.2,58024.7,1285.9,""oops"",""left"",""right"",""bad_move"",67232.5,5458,2951.6,65578.8,-1297.9,""error"",""-"",""-"",""no_move"",70926.3,3693.5,1876.7,68255,794.6,""oops"",""left"",""left"",""good_move"",79380.5,8453.4,2302.5,70927.1,6150.9,""smooth"",""left"",""left"",""good_move"",87771.6,8390.3,2243.4,79381.4,6146.8,""oops"",""left"",""right"",""bad_move"",92377.3,4605.1,2418,87772.3,2187,""smooth"",""left"",""left"",""good_move"",101004.9,8626.9,3379.5,92378.1,5247.3,""oops"",""right"",""down"",""bad_move"",107432,6426.3,2599.7,104208.1,624.2,""smooth"",""left"",""left"",""good_move"",119863.7,12431,2596.2,116793.5,474,""oops"",""left"",""left"",""good_move"",128748.5,8884.4,2101.7,119864.1,6782.7,""smooth"",""up"",""up"",""good_move""]","",""
"9131","","<div style=""width:500px;"">
  <p>What determined the result of this run?</p>
  </div>","74","html-slider-response","71","2135109","0.0-10.0-1.6","139","1","2025-07-02 10:20:41","80fe4187154257d5fb01684ea91b68b9","105.12.7.131","Mozilla/5.0 (Windows NT 10.0; Win64; x64) AppleWebKit/537.36 (KHTML, like Gecko) Chrome/137.0.0.0 Safari/537.36","WebKit","Chrome","137.0.0.0","Windows","10.0","https://app.prolific.com/","en-US,en;q=0.9","6800c1807a6267402d617aa9","683db6dfa200031b80f2a654","686507801dacc29dc9f6be2d","6800c1807a6267402d617aa9","2025-07-02T10:56:23.158Z","","","","","","AttribQ","","","","","","","","","","","","","","","","","","","","","","","","","","","","","","","","","","","","","","50"
"5697","","<div style=""width:500px;"">
  <p>How much control did you have over the ball?</p>
  </div>","58","html-slider-response","72","2140815","0.0-10.0-2.6","139","1","2025-07-02 10:20:41","80fe4187154257d5fb01684ea91b68b9","105.12.7.131","Mozilla/5.0 (Windows NT 10.0; Win64; x64) AppleWebKit/537.36 (KHTML, like Gecko) Chrome/137.0.0.0 Safari/537.36","WebKit","Chrome","137.0.0.0","Windows","10.0","https://app.prolific.com/","en-US,en;q=0.9","6800c1807a6267402d617aa9","683db6dfa200031b80f2a654","686507801dacc29dc9f6be2d","6800c1807a6267402d617aa9","2025-07-02T10:56:28.865Z","","","","","","ControlQ","","","","","","","","","","","","","","","","","","","","","","","","","","","","","","","","","","","","","","50"
"5510","","<div style=""width:500px;"">
  <p>How would you describe your current emotional state?</p>
  </div>","83","html-slider-response","73","2146336","0.0-10.0-3.6","139","1","2025-07-02 10:20:41","80fe4187154257d5fb01684ea91b68b9","105.12.7.131","Mozilla/5.0 (Windows NT 10.0; Win64; x64) AppleWebKit/537.36 (KHTML, like Gecko) Chrome/137.0.0.0 Safari/537.36","WebKit","Chrome","137.0.0.0","Windows","10.0","https://app.prolific.com/","en-US,en;q=0.9","6800c1807a6267402d617aa9","683db6dfa200031b80f2a654","686507801dacc29dc9f6be2d","6800c1807a6267402d617aa9","2025-07-02T10:56:34.385Z","","","","","","StressQ","","","","","","","","","","","","","","","","","","","","","","","","","","","","","","","","","","","","","","50"
"3458","","<div style=""width:500px;"">
  <p>What best describes how you currently feel?</p>
  </div>","76","html-slider-response","74","2149804","0.0-10.0-4.6","139","1","2025-07-02 10:20:41","80fe4187154257d5fb01684ea91b68b9","105.12.7.131","Mozilla/5.0 (Windows NT 10.0; Win64; x64) AppleWebKit/537.36 (KHTML, like Gecko) Chrome/137.0.0.0 Safari/537.36","WebKit","Chrome","137.0.0.0","Windows","10.0","https://app.prolific.com/","en-US,en;q=0.9","6800c1807a6267402d617aa9","683db6dfa200031b80f2a654","686507801dacc29dc9f6be2d","6800c1807a6267402d617aa9","2025-07-02T10:56:37.853Z","","","","","","MotivationQ","","","","","","","","","","","","","","","","","","","","","","","","","","","","","","","","","","","","","","50"
"","","","","ctl-task-cpt","75","2243077","0.0-10.0-0.7","139","1","2025-07-02 10:20:41","80fe4187154257d5fb01684ea91b68b9","105.12.7.131","Mozilla/5.0 (Windows NT 10.0; Win64; x64) AppleWebKit/537.36 (KHTML, like Gecko) Chrome/137.0.0.0 Safari/537.36","WebKit","Chrome","137.0.0.0","Windows","10.0","https://app.prolific.com/","en-US,en;q=0.9","6800c1807a6267402d617aa9","683db6dfa200031b80f2a654","686507801dacc29dc9f6be2d","6800c1807a6267402d617aa9","2025-07-02T10:58:11.126Z","","","","","","","","","","","","","","","","win-only","2","g1:SE,g2:NW","0.3","8","0","2155806.9","2234.7","7311.1","90228.8","1","4","4","6","2","4","3","8","5","0.06060606060606061","3413","3000","460","[""left"",""up""]","{""num_key_presses"":13,""num_perfect"":3,""num_errors"":1,""num_randdir"":9,""num_randdir_good_moves"":6,""num_whilered"":0,""num_whileblue"":0,""num_blue"":6,""num_good_moves"":9}","[301.22232142857143,296.12857142857143,1.1,301.22232142857143,296.12857142857143,136.1,301.22232142857143,296.12857142857143,305.9,301.22232142857143,296.12857142857143,477.2,301.22232142857143,296.12857142857143,647.1,301.22232142857143,296.12857142857143,816.3,301.22232142857143,296.12857142857143,990.1,301.22232142857143,296.12857142857143,1155.7,301.22232142857143,296.12857142857143,1330.4,301.22232142857143,296.12857142857143,1499.6,301.22232142857143,296.12857142857143,1669.9,301.22232142857143,296.12857142857143,1843.5,301.22232142857143,296.12857142857143,2012.1,301.22232142857143,296.12857142857143,2184.1,176.22232142857143,218.12857142857143,2368.6,176.22232142857143,218.12857142857143,2539.8,176.22232142857143,218.12857142857143,2713.2,51.222321428571426,113.12857142857143,2815.2,-5.777678571428574,53.128571428571426,3007.3,24.222321428571426,56.128571428571426,3107.5,32.222321428571426,52.128571428571426,3290.8,32.222321428571426,52.128571428571426,3467,32.222321428571426,52.128571428571426,3639.2,32.222321428571426,52.128571428571426,3810.4,32.222321428571426,52.128571428571426,3980.7,32.222321428571426,52.128571428571426,4130.1,32.222321428571426,52.128571428571426,4308.3,32.222321428571426,52.128571428571426,4480.2,32.222321428571426,52.128571428571426,4651.7,32.222321428571426,52.128571428571426,4823.7,32.222321428571426,52.128571428571426,4992.4]","[1995.9,1995.9,1000,0,995.9,""oops"",""left"",""up"",""good_move"",27647.5,25650.8,2473.1,24673.7,500.7,""oops"",""up"",""left"",""good_move"",31006.7,3358.3,2072.4,27648.4,1285.9,""oops"",""left"",""down"",""bad_move"",42461.6,11447.6,3459.1,38416.4,586.1,""oops"",""up"",""up"",""good_move"",46460.7,3998.4,2563.3,42462.3,1435.1,""smooth"",""left"",""left"",""good_move"",50588.5,4127.1,3288.4,46461.4,838.7,""oops"",""left"",""up"",""good_move"",53840.8,3250.5,2400.8,50590.5,849.5,""oops"",""up"",""right"",""bad_move"",56744.6,2902.5,2100.4,53842.1,802.1,""smooth"",""left"",""left"",""good_move"",60551.2,3805.6,2201,56745.7,1604.6,""smooth"",""left"",""left"",""good_move"",67537.1,6984.9,2306.1,66320.5,-1089.5,""error"",""-"",""-"",""no_move"",72198.7,4660.5,3164.9,68553,480.8,""oops"",""up"",""down"",""bad_move"",76341.4,4142.2,2643,72199.3,1499.1,""oops"",""up"",""up"",""good_move"",82311.2,5968,2078.9,76343.2,3889.1,""oops"",""up"",""up"",""good_move""]","",""
"6537","","<div style=""width:500px;"">
  <p>What determined the result of this run?</p>
  </div>","66","html-slider-response","76","2249653","0.0-10.0-1.7","139","1","2025-07-02 10:20:41","80fe4187154257d5fb01684ea91b68b9","105.12.7.131","Mozilla/5.0 (Windows NT 10.0; Win64; x64) AppleWebKit/537.36 (KHTML, like Gecko) Chrome/137.0.0.0 Safari/537.36","WebKit","Chrome","137.0.0.0","Windows","10.0","https://app.prolific.com/","en-US,en;q=0.9","6800c1807a6267402d617aa9","683db6dfa200031b80f2a654","686507801dacc29dc9f6be2d","6800c1807a6267402d617aa9","2025-07-02T10:58:17.702Z","","","","","","AttribQ","","","","","","","","","","","","","","","","","","","","","","","","","","","","","","","","","","","","","","50"
"16753","","<div style=""width:500px;"">
  <p>How much control did you have over the ball?</p>
  </div>","72","html-slider-response","77","2266412","0.0-10.0-2.7","139","1","2025-07-02 10:20:41","80fe4187154257d5fb01684ea91b68b9","105.12.7.131","Mozilla/5.0 (Windows NT 10.0; Win64; x64) AppleWebKit/537.36 (KHTML, like Gecko) Chrome/137.0.0.0 Safari/537.36","WebKit","Chrome","137.0.0.0","Windows","10.0","https://app.prolific.com/","en-US,en;q=0.9","6800c1807a6267402d617aa9","683db6dfa200031b80f2a654","686507801dacc29dc9f6be2d","6800c1807a6267402d617aa9","2025-07-02T10:58:34.461Z","","","","","","ControlQ","","","","","","","","","","","","","","","","","","","","","","","","","","","","","","","","","","","","","","50"
"5742","","<div style=""width:500px;"">
  <p>How would you describe your current emotional state?</p>
  </div>","77","html-slider-response","78","2272160","0.0-10.0-3.7","139","1","2025-07-02 10:20:41","80fe4187154257d5fb01684ea91b68b9","105.12.7.131","Mozilla/5.0 (Windows NT 10.0; Win64; x64) AppleWebKit/537.36 (KHTML, like Gecko) Chrome/137.0.0.0 Safari/537.36","WebKit","Chrome","137.0.0.0","Windows","10.0","https://app.prolific.com/","en-US,en;q=0.9","6800c1807a6267402d617aa9","683db6dfa200031b80f2a654","686507801dacc29dc9f6be2d","6800c1807a6267402d617aa9","2025-07-02T10:58:40.210Z","","","","","","StressQ","","","","","","","","","","","","","","","","","","","","","","","","","","","","","","","","","","","","","","50"
"6622","","<div style=""width:500px;"">
  <p>What best describes how you currently feel?</p>
  </div>","75","html-slider-response","79","2278788","0.0-10.0-4.7","139","1","2025-07-02 10:20:41","80fe4187154257d5fb01684ea91b68b9","105.12.7.131","Mozilla/5.0 (Windows NT 10.0; Win64; x64) AppleWebKit/537.36 (KHTML, like Gecko) Chrome/137.0.0.0 Safari/537.36","WebKit","Chrome","137.0.0.0","Windows","10.0","https://app.prolific.com/","en-US,en;q=0.9","6800c1807a6267402d617aa9","683db6dfa200031b80f2a654","686507801dacc29dc9f6be2d","6800c1807a6267402d617aa9","2025-07-02T10:58:46.838Z","","","","","","MotivationQ","","","","","","","","","","","","","","","","","","","","","","","","","","","","","","","","","","","","","","50"
"","","","","ctl-task-cpt","80","2341789","0.0-10.0-0.8","139","1","2025-07-02 10:20:41","80fe4187154257d5fb01684ea91b68b9","105.12.7.131","Mozilla/5.0 (Windows NT 10.0; Win64; x64) AppleWebKit/537.36 (KHTML, like Gecko) Chrome/137.0.0.0 Safari/537.36","WebKit","Chrome","137.0.0.0","Windows","10.0","https://app.prolific.com/","en-US,en;q=0.9","6800c1807a6267402d617aa9","683db6dfa200031b80f2a654","686507801dacc29dc9f6be2d","6800c1807a6267402d617aa9","2025-07-02T10:59:49.838Z","","","","","","","","","","","","","","","","win-only","1","g1:NE,g2:SW","0.4","9","0","2284785","2112.1","7114.2","59969.3","1","4","8","6","1","1","0","8","8","0.06060606060606061","2923.6","3000","970","[""up"",""right""]","{""num_key_presses"":15,""num_perfect"":7,""num_errors"":1,""num_randdir"":7,""num_randdir_good_moves"":2,""num_whilered"":0,""num_whileblue"":0,""num_blue"":1,""num_good_moves"":9}","[294.22232142857143,298.12857142857143,1.6,294.22232142857143,298.12857142857143,102.3,294.22232142857143,298.12857142857143,289.8,294.22232142857143,298.12857142857143,399.3,294.22232142857143,298.12857142857143,533.3,294.22232142857143,298.12857142857143,640.2,294.22232142857143,298.12857142857143,748.3,294.22232142857143,298.12857142857143,852,294.22232142857143,298.12857142857143,954.8,294.22232142857143,298.12857142857143,1178.1,294.22232142857143,298.12857142857143,1283.3,294.22232142857143,298.12857142857143,1389.3,294.22232142857143,298.12857142857143,1499.7,225.22232142857143,348.12857142857143,1614.2,218.22232142857143,358.12857142857143,1721.6,414.22232142857143,181.12857142857143,1826.7,467.22232142857143,143.12857142857143,1946.3,493.22232142857143,142.12857142857143,2047.6,493.22232142857143,142.12857142857143,2156.4,493.22232142857143,142.12857142857143,2257.1,493.22232142857143,142.12857142857143,2367,508.22232142857143,98.12857142857143,2477.8,516.2223214285714,69.12857142857143,2581.9,518.2223214285714,64.12857142857143,2685.3,518.2223214285714,64.12857142857143,2788.8,518.2223214285714,64.12857142857143,2892.1,518.2223214285714,64.12857142857143,2995.6,518.2223214285714,64.12857142857143,3104.7,518.2223214285714,64.12857142857143,3214.4,518.2223214285714,64.12857142857143,3316,518.2223214285714,64.12857142857143,3423.2,518.2223214285714,64.12857142857143,3689,518.2223214285714,64.12857142857143,3795.8,518.2223214285714,64.12857142857143,3904.7,518.2223214285714,64.12857142857143,4008,518.2223214285714,64.12857142857143,4114.8,518.2223214285714,64.12857142857143,4220.2,518.2223214285714,64.12857142857143,4324.6,518.2223214285714,64.12857142857143,4435.4,518.2223214285714,64.12857142857143,4539.9,518.2223214285714,64.12857142857143,4656.6,518.2223214285714,64.12857142857143,4771.2,518.2223214285714,64.12857142857143,4873.8,518.2223214285714,64.12857142857143,4983.9]","[1263.7,1263.7,1000,0,263.7,""oops"",""up"",""left"",""bad_move"",3947.3,2682.5,1791.1,1264.8,891.4,""error"",""-"",""-"",""no_move"",7701,3752.9,2031,4967.4,702.6,""oops"",""up"",""left"",""bad_move"",11860.8,4159,2038.5,7701.8,2120.5,""smooth"",""right"",""right"",""good_move"",17396.2,5534.4,2042.6,14901.3,452.3,""oops"",""right"",""down"",""bad_move"",20666.8,3269.6,2466.5,17397.2,803.1,""oops"",""right"",""right"",""good_move"",23761.1,3093.2,2175.4,20667.9,917.8,""oops"",""right"",""down"",""bad_move"",26795,3032.6,2505.7,23762.4,527,""oops"",""right"",""down"",""bad_move"",29913.9,3117.6,2644.2,26796.3,473.4,""smooth"",""up"",""up"",""good_move"",36066.6,6151.6,2105.8,29915,4045.8,""smooth"",""up"",""up"",""good_move"",39028.1,2960.9,2384,36067.2,576.9,""smooth"",""up"",""up"",""good_move"",42274.6,3245.2,2717.9,39029.4,527.3,""smooth"",""up"",""up"",""good_move"",46217.7,3941.7,2361.5,42276,1580.2,""smooth"",""up"",""up"",""good_move"",49870.7,3651.8,2664,46219,987.7,""smooth"",""right"",""right"",""good_move"",52564.6,2692.7,2144.8,49871.9,547.9,""oops"",""right"",""right"",""good_move""]","",""
"5550","","<div style=""width:500px;"">
  <p>What determined the result of this run?</p>
  </div>","66","html-slider-response","81","2347344","0.0-10.0-1.8","139","1","2025-07-02 10:20:41","80fe4187154257d5fb01684ea91b68b9","105.12.7.131","Mozilla/5.0 (Windows NT 10.0; Win64; x64) AppleWebKit/537.36 (KHTML, like Gecko) Chrome/137.0.0.0 Safari/537.36","WebKit","Chrome","137.0.0.0","Windows","10.0","https://app.prolific.com/","en-US,en;q=0.9","6800c1807a6267402d617aa9","683db6dfa200031b80f2a654","686507801dacc29dc9f6be2d","6800c1807a6267402d617aa9","2025-07-02T10:59:55.393Z","","","","","","AttribQ","","","","","","","","","","","","","","","","","","","","","","","","","","","","","","","","","","","","","","50"
"3079","","<div style=""width:500px;"">
  <p>How much control did you have over the ball?</p>
  </div>","56","html-slider-response","82","2350427","0.0-10.0-2.8","139","1","2025-07-02 10:20:41","80fe4187154257d5fb01684ea91b68b9","105.12.7.131","Mozilla/5.0 (Windows NT 10.0; Win64; x64) AppleWebKit/537.36 (KHTML, like Gecko) Chrome/137.0.0.0 Safari/537.36","WebKit","Chrome","137.0.0.0","Windows","10.0","https://app.prolific.com/","en-US,en;q=0.9","6800c1807a6267402d617aa9","683db6dfa200031b80f2a654","686507801dacc29dc9f6be2d","6800c1807a6267402d617aa9","2025-07-02T10:59:58.477Z","","","","","","ControlQ","","","","","","","","","","","","","","","","","","","","","","","","","","","","","","","","","","","","","","50"
"4109","","<div style=""width:500px;"">
  <p>How would you describe your current emotional state?</p>
  </div>","75","html-slider-response","83","2354540","0.0-10.0-3.8","139","1","2025-07-02 10:20:41","80fe4187154257d5fb01684ea91b68b9","105.12.7.131","Mozilla/5.0 (Windows NT 10.0; Win64; x64) AppleWebKit/537.36 (KHTML, like Gecko) Chrome/137.0.0.0 Safari/537.36","WebKit","Chrome","137.0.0.0","Windows","10.0","https://app.prolific.com/","en-US,en;q=0.9","6800c1807a6267402d617aa9","683db6dfa200031b80f2a654","686507801dacc29dc9f6be2d","6800c1807a6267402d617aa9","2025-07-02T11:00:02.589Z","","","","","","StressQ","","","","","","","","","","","","","","","","","","","","","","","","","","","","","","","","","","","","","","50"
"16429","","<div style=""width:500px;"">
  <p>What best describes how you currently feel?</p>
  </div>","67","html-slider-response","84","2370973","0.0-10.0-4.8","139","1","2025-07-02 10:20:41","80fe4187154257d5fb01684ea91b68b9","105.12.7.131","Mozilla/5.0 (Windows NT 10.0; Win64; x64) AppleWebKit/537.36 (KHTML, like Gecko) Chrome/137.0.0.0 Safari/537.36","WebKit","Chrome","137.0.0.0","Windows","10.0","https://app.prolific.com/","en-US,en;q=0.9","6800c1807a6267402d617aa9","683db6dfa200031b80f2a654","686507801dacc29dc9f6be2d","6800c1807a6267402d617aa9","2025-07-02T11:00:19.022Z","","","","","","MotivationQ","","","","","","","","","","","","","","","","","","","","","","","","","","","","","","","","","","","","","","50"
