"rt","response_timestamp","stimulus","response","trial_type","trial_index","time_elapsed","internal_node_id","run_id","condition","recorded_at","source_code_version","ip","user_agent","device","browser","browser_version","platform","platform_version","referer","accept_language","PROLIFIC_PID","STUDY_ID","SESSION_ID","prolific_id","realtime","view_history","question_order","consent","success","question_id","eventType","responses","item_order","radio_event_ids","radio_event_times","key_event_times","mouse_event_times","straightlining","zigzagging","honeypot","which_type","canvas_config","goals_layout","control_level","trial_number","tutorial_trial_number","trial_start_time","phase1_start_time","phase2_start_time","phase3_start_time","goal_1_value","goal_1_distance","goal_2_value","goal_2_distance","goal_selected","outcome","outcome_total","participant_final_score","participant_initial_score","participant_final_score_prop","goal_choice_rt","allocated_time","allocated_time_remaining","goal_direction","counts","mouse_movements","key_presses","correct","slider_start"
"83547","1751452923796","<p style='font-size:40px;line-height:1.25'><strong>Welcome to the experiment!</strong></p><p style='font-size:1.1em;line-height:1.25'>Thank you for your interest in our experiment! Before you begin, it is important that we obtain your informed consent to participate in the study.</p><p style='font-size:1.1em;line-height:1.25'>On the next screen will be an <strong>information sheet</strong> for you to read. To participate in the study we need you to read this information sheet and the following consent form carefully. If you agree with all the statements, please click the <strong>I agree</strong> button.</p><p style='font-size:1.1em;line-height:1.25'>Press <strong>Next</strong> to read the information sheet.</p>","0","custom-html-button-response","0","83552","0.0-0.0","210","1","2025-07-02 10:40:37","80fe4187154257d5fb01684ea91b68b9","41.122.216.36","Mozilla/5.0 (Windows NT 10.0; Win64; x64) AppleWebKit/537.36 (KHTML, like Gecko) Chrome/137.0.0.0 Safari/537.36","WebKit","Chrome","137.0.0.0","Windows","10.0","https://app.prolific.com/","en-US,en;q=0.9","6814aa905ee9dc10b46bd758","683db6dfa200031b80f2a654","68650783f098e34caa7cee1e","6814aa905ee9dc10b46bd758","2025-07-02T10:42:03.798Z","","","","","","","","","","","","","","","","","","","","","","","","","","","","","","","","","","","","","","","","","","","",""
"12874","","","","instructions","1","96428","0.0-1.0","210","1","2025-07-02 10:40:37","80fe4187154257d5fb01684ea91b68b9","41.122.216.36","Mozilla/5.0 (Windows NT 10.0; Win64; x64) AppleWebKit/537.36 (KHTML, like Gecko) Chrome/137.0.0.0 Safari/537.36","WebKit","Chrome","137.0.0.0","Windows","10.0","https://app.prolific.com/","en-US,en;q=0.9","6814aa905ee9dc10b46bd758","683db6dfa200031b80f2a654","68650783f098e34caa7cee1e","6814aa905ee9dc10b46bd758","","[{""page_index"":0,""viewing_time"":8556},{""page_index"":1,""viewing_time"":4318}]","","","","","","","","","","","","","","","","","","","","","","","","","","","","","","","","","","","","","","","","","","",""
"9640","","","{""Q0"":"""",""Q1"":"""",""Q2"":"""",""Q3"":"""",""Q4"":"""",""Q5"":"""",""Q6"":""I agree""}","survey-multi-choice","2","106071","0.0-2.0","210","1","2025-07-02 10:40:37","80fe4187154257d5fb01684ea91b68b9","41.122.216.36","Mozilla/5.0 (Windows NT 10.0; Win64; x64) AppleWebKit/537.36 (KHTML, like Gecko) Chrome/137.0.0.0 Safari/537.36","WebKit","Chrome","137.0.0.0","Windows","10.0","https://app.prolific.com/","en-US,en;q=0.9","6814aa905ee9dc10b46bd758","683db6dfa200031b80f2a654","68650783f098e34caa7cee1e","6814aa905ee9dc10b46bd758","","","[0,1,2,3,4,5,6]","true","","","","","","","","","","","","","","","","","","","","","","","","","","","","","","","","","","","","","","","","",""
"24159","","","","fullscreen","3","131235","0.0-4.0","210","1","2025-07-02 10:40:37","80fe4187154257d5fb01684ea91b68b9","41.122.216.36","Mozilla/5.0 (Windows NT 10.0; Win64; x64) AppleWebKit/537.36 (KHTML, like Gecko) Chrome/137.0.0.0 Safari/537.36","WebKit","Chrome","137.0.0.0","Windows","10.0","https://app.prolific.com/","en-US,en;q=0.9","6814aa905ee9dc10b46bd758","683db6dfa200031b80f2a654","68650783f098e34caa7cee1e","6814aa905ee9dc10b46bd758","","","","","true","","","","","","","","","","","","","","","","","","","","","","","","","","","","","","","","","","","","","","","",""
"6064","1751452977545"," <p style='font-size:1.1em;line-height:1.25'>Thank you for completing the consent form and closing all other tabs.</p><p style='font-size:1.1em;line-height:1.25'>We will now invite you to fill in some demographic information and questionnaires, before starting the game.<br>This will take about 5 minutes.<br></p><p style='font-size:1.1em;line-height:1.25'>Press the <strong>Next</strong> button to continue.</p>","0","custom-html-button-response","4","137299","0.0-5.0","210","1","2025-07-02 10:40:37","80fe4187154257d5fb01684ea91b68b9","41.122.216.36","Mozilla/5.0 (Windows NT 10.0; Win64; x64) AppleWebKit/537.36 (KHTML, like Gecko) Chrome/137.0.0.0 Safari/537.36","WebKit","Chrome","137.0.0.0","Windows","10.0","https://app.prolific.com/","en-US,en;q=0.9","6814aa905ee9dc10b46bd758","683db6dfa200031b80f2a654","68650783f098e34caa7cee1e","6814aa905ee9dc10b46bd758","2025-07-02T10:42:57.546Z","","","","","","","","","","","","","","","","","","","","","","","","","","","","","","","","","","","","","","","","","","","",""
"5178","","","{""age"":""22""}","survey-text","5","142483","0.0-6.0-0.0","210","1","2025-07-02 10:40:37","80fe4187154257d5fb01684ea91b68b9","41.122.216.36","Mozilla/5.0 (Windows NT 10.0; Win64; x64) AppleWebKit/537.36 (KHTML, like Gecko) Chrome/137.0.0.0 Safari/537.36","WebKit","Chrome","137.0.0.0","Windows","10.0","https://app.prolific.com/","en-US,en;q=0.9","6814aa905ee9dc10b46bd758","683db6dfa200031b80f2a654","68650783f098e34caa7cee1e","6814aa905ee9dc10b46bd758","","","","","","0","demographics","","","","","","","","","","","","","","","","","","","","","","","","","","","","","","","","","","","","","",""
"4045","","","{""gender_identity"":""male/man""}","survey-multi-choice","6","146530","0.0-6.0-1.0","210","1","2025-07-02 10:40:37","80fe4187154257d5fb01684ea91b68b9","41.122.216.36","Mozilla/5.0 (Windows NT 10.0; Win64; x64) AppleWebKit/537.36 (KHTML, like Gecko) Chrome/137.0.0.0 Safari/537.36","WebKit","Chrome","137.0.0.0","Windows","10.0","https://app.prolific.com/","en-US,en;q=0.9","6814aa905ee9dc10b46bd758","683db6dfa200031b80f2a654","68650783f098e34caa7cee1e","6814aa905ee9dc10b46bd758","","","[0]","","","1","demographics","","","","","","","","","","","","","","","","","","","","","","","","","","","","","","","","","","","","","",""
"6169","","","{""assigned_sex"":""male""}","survey-multi-choice","7","152701","0.0-6.0-2.0","210","1","2025-07-02 10:40:37","80fe4187154257d5fb01684ea91b68b9","41.122.216.36","Mozilla/5.0 (Windows NT 10.0; Win64; x64) AppleWebKit/537.36 (KHTML, like Gecko) Chrome/137.0.0.0 Safari/537.36","WebKit","Chrome","137.0.0.0","Windows","10.0","https://app.prolific.com/","en-US,en;q=0.9","6814aa905ee9dc10b46bd758","683db6dfa200031b80f2a654","68650783f098e34caa7cee1e","6814aa905ee9dc10b46bd758","","","[0]","","","2","demographics","","","","","","","","","","","","","","","","","","","","","","","","","","","","","","","","","","","","","",""
"4272","","","{""menstrual_cycle"":""No""}","survey-multi-choice","8","156975","0.0-6.0-3.0","210","1","2025-07-02 10:40:37","80fe4187154257d5fb01684ea91b68b9","41.122.216.36","Mozilla/5.0 (Windows NT 10.0; Win64; x64) AppleWebKit/537.36 (KHTML, like Gecko) Chrome/137.0.0.0 Safari/537.36","WebKit","Chrome","137.0.0.0","Windows","10.0","https://app.prolific.com/","en-US,en;q=0.9","6814aa905ee9dc10b46bd758","683db6dfa200031b80f2a654","68650783f098e34caa7cee1e","6814aa905ee9dc10b46bd758","","","[0]","","","4","demographics","","","","","","","","","","","","","","","","","","","","","","","","","","","","","","","","","","","","","",""
"4200","","","{""education"":""Master's Degree (e.g., MSc)""}","survey-multi-choice","9","161177","0.0-6.0-4.0","210","1","2025-07-02 10:40:37","80fe4187154257d5fb01684ea91b68b9","41.122.216.36","Mozilla/5.0 (Windows NT 10.0; Win64; x64) AppleWebKit/537.36 (KHTML, like Gecko) Chrome/137.0.0.0 Safari/537.36","WebKit","Chrome","137.0.0.0","Windows","10.0","https://app.prolific.com/","en-US,en;q=0.9","6814aa905ee9dc10b46bd758","683db6dfa200031b80f2a654","68650783f098e34caa7cee1e","6814aa905ee9dc10b46bd758","","","[0]","","","5","demographics","","","","","","","","","","","","","","","","","","","","","","","","","","","","","","","","","","","","","",""
"9838","","","{""education"":""Doctoral Degree (e.g., PhD)""}","survey-multi-choice","10","171015","0.0-6.0-5.0","210","1","2025-07-02 10:40:37","80fe4187154257d5fb01684ea91b68b9","41.122.216.36","Mozilla/5.0 (Windows NT 10.0; Win64; x64) AppleWebKit/537.36 (KHTML, like Gecko) Chrome/137.0.0.0 Safari/537.36","WebKit","Chrome","137.0.0.0","Windows","10.0","https://app.prolific.com/","en-US,en;q=0.9","6814aa905ee9dc10b46bd758","683db6dfa200031b80f2a654","68650783f098e34caa7cee1e","6814aa905ee9dc10b46bd758","2025-07-02T10:43:31.261Z","","[0]","","","6","demographics","","","","","","","","","","","","","","","","","","","","","","","","","","","","","","","","","","","","","",""
"23757","","","{""mental_health_condition"":""no"",""mental_health_treatment"":""no"",""psychiatric_medication"":""no""}","survey-text","11","194774","0.0-7.0-0.0","210","1","2025-07-02 10:40:37","80fe4187154257d5fb01684ea91b68b9","41.122.216.36","Mozilla/5.0 (Windows NT 10.0; Win64; x64) AppleWebKit/537.36 (KHTML, like Gecko) Chrome/137.0.0.0 Safari/537.36","WebKit","Chrome","137.0.0.0","Windows","10.0","https://app.prolific.com/","en-US,en;q=0.9","6814aa905ee9dc10b46bd758","683db6dfa200031b80f2a654","68650783f098e34caa7cee1e","6814aa905ee9dc10b46bd758","2025-07-02T10:43:55.021Z","","","","","1","mental_health","","","","","","","","","","","","","","","","","","","","","","","","","","","","","","","","","","","","","",""
"13754","","","{""depression_history"":[""Yes""]}","survey-multi-select","12","208543","0.0-7.0-1.0","210","1","2025-07-02 10:40:37","80fe4187154257d5fb01684ea91b68b9","41.122.216.36","Mozilla/5.0 (Windows NT 10.0; Win64; x64) AppleWebKit/537.36 (KHTML, like Gecko) Chrome/137.0.0.0 Safari/537.36","WebKit","Chrome","137.0.0.0","Windows","10.0","https://app.prolific.com/","en-US,en;q=0.9","6814aa905ee9dc10b46bd758","683db6dfa200031b80f2a654","68650783f098e34caa7cee1e","6814aa905ee9dc10b46bd758","","","[0]","","","","mental_health","","","","","","","","","","","","","","","","","","","","","","","","","","","","","","","","","","","","","",""
"13129","","","{""depression_episodes"":""1-2"",""depression_recent"":""More than 1 year ago""}","survey-multi-choice","13","221674","0.0-7.0-2.0-0.0","210","1","2025-07-02 10:40:37","80fe4187154257d5fb01684ea91b68b9","41.122.216.36","Mozilla/5.0 (Windows NT 10.0; Win64; x64) AppleWebKit/537.36 (KHTML, like Gecko) Chrome/137.0.0.0 Safari/537.36","WebKit","Chrome","137.0.0.0","Windows","10.0","https://app.prolific.com/","en-US,en;q=0.9","6814aa905ee9dc10b46bd758","683db6dfa200031b80f2a654","68650783f098e34caa7cee1e","6814aa905ee9dc10b46bd758","2025-07-02T10:44:21.920Z","","[0,1]","","","3","mental_health","","","","","","","","","","","","","","","","","","","","","","","","","","","","","","","","","","","","","",""
"60363.20000000298","","","","survey-template","14","282065","0.0-7.0-3.0","210","1","2025-07-02 10:40:37","80fe4187154257d5fb01684ea91b68b9","41.122.216.36","Mozilla/5.0 (Windows NT 10.0; Win64; x64) AppleWebKit/537.36 (KHTML, like Gecko) Chrome/137.0.0.0 Safari/537.36","WebKit","Chrome","137.0.0.0","Windows","10.0","https://app.prolific.com/","en-US,en;q=0.9","6814aa905ee9dc10b46bd758","683db6dfa200031b80f2a654","68650783f098e34caa7cee1e","6814aa905ee9dc10b46bd758","2025-07-02T10:45:22.311Z","","","","","","ius","{""Q01"":""4"",""Q02"":""4"",""Q03"":""3"",""Q04"":""4"",""Q05"":""4"",""Q06"":""1"",""Q07"":""2"",""Q08"":""0"",""Q09"":""3"",""Q10"":""2"",""Q11"":""0"",""Q12"":""4"",""Q13"":""2""}","[0,1,2,3,4,5,6,7,8,9,10,11,12]","[""Q02"",""Q01"",""Q03"",""Q04"",""Q05"",""Q06"",""Q07"",""Q08"",""Q09"",""Q10"",""Q11"",""Q11"",""Q12"",""Q13""]","[11732.10000000149,13396.20000000298,16739.5,19554.300000000745,24312.70000000298,29320.300000000745,32594.900000002235,37483.900000002235,41431,44418.900000002235,47426.800000000745,52443.5,55910.60000000149,58724.20000000298]","[]","[9035.70000000298,11732.10000000149,13396.20000000298,16739.5,19554.300000000745,22757.20000000298,24312.70000000298,29320.300000000745,32594.900000002235,37483.900000002235,41431,44418.900000002235,47426.800000000745,51054.10000000149,52443.5,55910.60000000149,58724.20000000298,60360.20000000298]","0.38461538461538464","0.4166666666666667","0","","","","","","","","","","","","","","","","","","","","","","","","","","","","",""
"2769","1751453125082","<p style='font-size:1.1em;line-height:1.25'>In the following, we will ask you a few questions relating to your experiences over the past month.<br></p><p style='font-size:1.1em;line-height:1.25'>Press the <strong>Next</strong> button to continue.</p>","0","custom-html-button-response","15","284837","0.0-7.0-4.0","210","1","2025-07-02 10:40:37","80fe4187154257d5fb01684ea91b68b9","41.122.216.36","Mozilla/5.0 (Windows NT 10.0; Win64; x64) AppleWebKit/537.36 (KHTML, like Gecko) Chrome/137.0.0.0 Safari/537.36","WebKit","Chrome","137.0.0.0","Windows","10.0","https://app.prolific.com/","en-US,en;q=0.9","6814aa905ee9dc10b46bd758","683db6dfa200031b80f2a654","68650783f098e34caa7cee1e","6814aa905ee9dc10b46bd758","2025-07-02T10:45:25.083Z","","","","","","","","","","","","","","","","","","","","","","","","","","","","","","","","","","","","","","","","","","","",""
"37899.89999999851","","","","survey-template","16","322740","0.0-7.0-5.0","210","1","2025-07-02 10:40:37","80fe4187154257d5fb01684ea91b68b9","41.122.216.36","Mozilla/5.0 (Windows NT 10.0; Win64; x64) AppleWebKit/537.36 (KHTML, like Gecko) Chrome/137.0.0.0 Safari/537.36","WebKit","Chrome","137.0.0.0","Windows","10.0","https://app.prolific.com/","en-US,en;q=0.9","6814aa905ee9dc10b46bd758","683db6dfa200031b80f2a654","68650783f098e34caa7cee1e","6814aa905ee9dc10b46bd758","2025-07-02T10:46:02.986Z","","","","","","pss","{""Q01"":""2"",""Q02"":""3"",""Q03"":""2"",""Q04"":""2"",""Q05"":""2"",""Q06"":""2"",""Q07"":""1"",""Q08"":""2"",""Q09"":""2"",""Q10"":""3""}","[0,1,2,3,4,5,6,7,8,9]","[""Q01"",""Q02"",""Q03"",""Q04"",""Q05"",""Q06"",""Q07"",""Q08"",""Q09"",""Q10""]","[7130.89999999851,8946.10000000149,10738.300000000745,12392.39999999851,13756.39999999851,17210.89999999851,20803.60000000149,22399.39999999851,24181.5,28226.5]","[]","[0.10000000149011612,5147.60000000149,7130.89999999851,8946.10000000149,10738.300000000745,12392.39999999851,13756.39999999851,15488.39999999851,17210.89999999851,18945.800000000745,20803.60000000149,22399.39999999851,24181.5,26378.39999999851,28226.5,37898.39999999851]","0.7","0.5555555555555556","0","","","","","","","","","","","","","","","","","","","","","","","","","","","","",""
"3733","1751453166720","<p style='font-size:1.1em;line-height:1.25'>Thank you for your answers! Now we will ask you a few more questions relating to your feelings in the last 24 hours.<br></p><p style='font-size:1.1em;line-height:1.25'>Press the <strong>Next</strong> button to continue.</p>","0","custom-html-button-response","17","326474","0.0-7.0-6.0","210","1","2025-07-02 10:40:37","80fe4187154257d5fb01684ea91b68b9","41.122.216.36","Mozilla/5.0 (Windows NT 10.0; Win64; x64) AppleWebKit/537.36 (KHTML, like Gecko) Chrome/137.0.0.0 Safari/537.36","WebKit","Chrome","137.0.0.0","Windows","10.0","https://app.prolific.com/","en-US,en;q=0.9","6814aa905ee9dc10b46bd758","683db6dfa200031b80f2a654","68650783f098e34caa7cee1e","6814aa905ee9dc10b46bd758","2025-07-02T10:46:06.721Z","","","","","","","","","","","","","","","","","","","","","","","","","","","","","","","","","","","","","","","","","","","",""
"51452.800000000745","","","","survey-template","18","377932","0.0-7.0-7.0","210","1","2025-07-02 10:40:37","80fe4187154257d5fb01684ea91b68b9","41.122.216.36","Mozilla/5.0 (Windows NT 10.0; Win64; x64) AppleWebKit/537.36 (KHTML, like Gecko) Chrome/137.0.0.0 Safari/537.36","WebKit","Chrome","137.0.0.0","Windows","10.0","https://app.prolific.com/","en-US,en;q=0.9","6814aa905ee9dc10b46bd758","683db6dfa200031b80f2a654","68650783f098e34caa7cee1e","6814aa905ee9dc10b46bd758","2025-07-02T10:46:58.178Z","","","","","","drsp","{""Q01"":""0"",""Q02"":""0"",""Q03"":""0"",""Q04"":""0"",""Q05"":""2"",""Q06"":""0"",""Q07"":""1"",""Q08"":""1"",""Q09"":""1"",""Q10"":""1"",""Q11"":""2"",""Q12"":""1"",""Q13"":""3"",""Q14"":""0"",""Q15"":""0"",""Q16"":""0"",""Q17"":""0"",""Q18"":""0"",""Q19"":""0"",""Q20"":""1"",""Q21"":""1""}","[0,1,2,3,4,5,6,7,8,9,10,11,12,13,14,15,16,17,18,19,20]","[""Q01"",""Q02"",""Q03"",""Q04"",""Q05"",""Q06"",""Q07"",""Q08"",""Q09"",""Q10"",""Q11"",""Q12"",""Q13"",""Q14"",""Q15"",""Q16"",""Q17"",""Q18"",""Q19"",""Q20"",""Q21""]","[4384.800000000745,6890.60000000149,8370.300000000745,9674.400000002235,11576.199999999255,13805.800000000745,15945.60000000149,18335,19596.300000000745,22877,24367.900000002235,26911.5,29518.300000000745,32076.10000000149,34744,36149.10000000149,37701.199999999255,39909.10000000149,41463.199999999255,46917.900000002235,49764.800000000745]","[]","[0.10000000149011612,4384.800000000745,6890.60000000149,8370.300000000745,9674.400000002235,11576.199999999255,13805.800000000745,15945.60000000149,18335,19596.300000000745,21056.60000000149,22877,24367.900000002235,26911.5,29518.300000000745,32076.10000000149,34744,36149.10000000149,37701.199999999255,39909.10000000149,41463.199999999255,45233.10000000149,46917.900000002235,49764.800000000745,51448.300000000745]","0.5238095238095238","0.2","0","","","","","","","","","","","","","","","","","","","","","","","","","","","","",""
"13982.199999999255","","","","survey-template","19","391917","0.0-7.0-8.0","210","1","2025-07-02 10:40:37","80fe4187154257d5fb01684ea91b68b9","41.122.216.36","Mozilla/5.0 (Windows NT 10.0; Win64; x64) AppleWebKit/537.36 (KHTML, like Gecko) Chrome/137.0.0.0 Safari/537.36","WebKit","Chrome","137.0.0.0","Windows","10.0","https://app.prolific.com/","en-US,en;q=0.9","6814aa905ee9dc10b46bd758","683db6dfa200031b80f2a654","68650783f098e34caa7cee1e","6814aa905ee9dc10b46bd758","2025-07-02T10:47:12.163Z","","","","","","stress","{""Q01"":""2"",""Q02"":""1"",""Q03"":""1""}","[0,1,2]","[""Q01"",""Q02"",""Q03""]","[4217.199999999255,9125.699999999255,12343.300000000745]","[]","[4217.199999999255,9125.699999999255,12343.300000000745,13981.199999999255]","0.3333333333333333","0","0","","","","","","","","","","","","","","","","","","","","","","","","","","","","",""
"126843","","","","instructions","20","518761","0.0-8.0-0.0","210","1","2025-07-02 10:40:37","80fe4187154257d5fb01684ea91b68b9","41.122.216.36","Mozilla/5.0 (Windows NT 10.0; Win64; x64) AppleWebKit/537.36 (KHTML, like Gecko) Chrome/137.0.0.0 Safari/537.36","WebKit","Chrome","137.0.0.0","Windows","10.0","https://app.prolific.com/","en-US,en;q=0.9","6814aa905ee9dc10b46bd758","683db6dfa200031b80f2a654","68650783f098e34caa7cee1e","6814aa905ee9dc10b46bd758","","[{""page_index"":0,""viewing_time"":2781},{""page_index"":1,""viewing_time"":6703},{""page_index"":0,""viewing_time"":22957},{""page_index"":1,""viewing_time"":27414},{""page_index"":2,""viewing_time"":6827},{""page_index"":3,""viewing_time"":60161}]","","","","","","","","","","","","","","","","","","","","","","","","","","","","","","","","","","","","","","","","","","",""
"","","","","ctl-task-cpt","21","538410","0.0-8.0-1.0","210","1","2025-07-02 10:40:37","80fe4187154257d5fb01684ea91b68b9","41.122.216.36","Mozilla/5.0 (Windows NT 10.0; Win64; x64) AppleWebKit/537.36 (KHTML, like Gecko) Chrome/137.0.0.0 Safari/537.36","WebKit","Chrome","137.0.0.0","Windows","10.0","https://app.prolific.com/","en-US,en;q=0.9","6814aa905ee9dc10b46bd758","683db6dfa200031b80f2a654","68650783f098e34caa7cee1e","6814aa905ee9dc10b46bd758","","","","","","","","","","","","","","","","","win-only","3","g1:SW,g2:NE","1","0","1","522297.1","3089.3","7091.1","16628.8","2","4","4","6","2","-4","-5","0","0","0","4001.7","4000","-2565","[""up"",""right""]","{""num_key_presses"":4,""num_perfect"":1,""num_errors"":1,""num_randdir"":0,""num_randdir_good_moves"":0,""num_whilered"":2,""num_whileblue"":0,""num_blue"":0,""num_good_moves"":1}","[413.57142857142856,416.1808016640799,0.9,413.57142857142856,416.1808016640799,143.5,413.57142857142856,416.1808016640799,250.8,413.57142857142856,416.1808016640799,356.4,413.57142857142856,416.1808016640799,462.1,413.57142857142856,416.1808016640799,562.6,413.57142857142856,416.1808016640799,665.6,413.57142857142856,416.1808016640799,766.8,413.57142857142856,416.1808016640799,871.8,413.57142857142856,416.1808016640799,972.6,413.57142857142856,416.1808016640799,1076.8,413.57142857142856,416.1808016640799,1191.9,413.57142857142856,416.1808016640799,1292.2,413.57142857142856,416.1808016640799,1396.9,413.57142857142856,416.1808016640799,1501.8,413.57142857142856,416.1808016640799,1602.2,413.57142857142856,416.1808016640799,1706.3,413.57142857142856,416.1808016640799,1807.2,413.57142857142856,416.1808016640799,1911.3,413.57142857142856,416.1808016640799,2011.3,413.57142857142856,416.1808016640799,2111.9,413.57142857142856,416.1808016640799,2212.8,413.57142857142856,416.1808016640799,2333.5,413.57142857142856,416.1808016640799,2436.9,413.57142857142856,416.1808016640799,2541.5,413.57142857142856,416.1808016640799,2642.4,413.57142857142856,416.1808016640799,2754.3,413.57142857142856,416.1808016640799,2857,413.57142857142856,416.1808016640799,2961,413.57142857142856,416.1808016640799,3061.8,413.57142857142856,416.1808016640799,3162,413.57142857142856,416.1808016640799,3266.9,413.57142857142856,416.1808016640799,3370.3,413.57142857142856,416.1808016640799,3472.3,413.57142857142856,416.1808016640799,3576.4,413.57142857142856,416.1808016640799,3683.9,413.57142857142856,416.1808016640799,3786.3,413.57142857142856,416.1808016640799,3888.9,413.57142857142856,416.1808016640799,3991.5]","[5088,5088,1000,0,4088,""smooth"",""up"",""up"",""good_move"",6024.4,935.8,2979.9,5088.8,-2044.3,""error"",""-"",""-"",""no_move"",6244.4,219.7,2979.9,5088.8,-1824.3,""while_red"",""-"",""-"",""no_move"",6429.7,405,2979.9,5088.8,-1639,""while_red"",""-"",""-"",""no_move""]","",""
"3378","","","","instructions","22","541788","0.0-8.0-2.0","210","1","2025-07-02 10:40:37","80fe4187154257d5fb01684ea91b68b9","41.122.216.36","Mozilla/5.0 (Windows NT 10.0; Win64; x64) AppleWebKit/537.36 (KHTML, like Gecko) Chrome/137.0.0.0 Safari/537.36","WebKit","Chrome","137.0.0.0","Windows","10.0","https://app.prolific.com/","en-US,en;q=0.9","6814aa905ee9dc10b46bd758","683db6dfa200031b80f2a654","68650783f098e34caa7cee1e","6814aa905ee9dc10b46bd758","","[{""page_index"":0,""viewing_time"":3377}]","","","","","","","","","","","","","","","","","","","","","","","","","","","","","","","","","","","","","","","","","","",""
"","","","","ctl-task-cpt","23","570485","0.0-8.0-3.0","210","1","2025-07-02 10:40:37","80fe4187154257d5fb01684ea91b68b9","41.122.216.36","Mozilla/5.0 (Windows NT 10.0; Win64; x64) AppleWebKit/537.36 (KHTML, like Gecko) Chrome/137.0.0.0 Safari/537.36","WebKit","Chrome","137.0.0.0","Windows","10.0","https://app.prolific.com/","en-US,en;q=0.9","6814aa905ee9dc10b46bd758","683db6dfa200031b80f2a654","68650783f098e34caa7cee1e","6814aa905ee9dc10b46bd758","","","","","","","","","","","","","","","","","win-only","3","g1:SW,g2:NE","0.35","0","3","545311.1","1635.1","5637.4","25687.4","2","4","8","6","2","-8","-9","0","0","0","4002.3","4000","-2855","[""up"",""right""]","{""num_key_presses"":4,""num_perfect"":2,""num_errors"":1,""num_randdir"":1,""num_randdir_good_moves"":0,""num_whilered"":0,""num_whileblue"":0,""num_blue"":1,""num_good_moves"":2}","[422.57142857142856,422.1808016640799,0.6,422.57142857142856,422.1808016640799,100.8,422.57142857142856,422.1808016640799,201.1,422.57142857142856,422.1808016640799,303.7,422.57142857142856,422.1808016640799,410.6,422.57142857142856,422.1808016640799,511.9,422.57142857142856,422.1808016640799,615.6,422.57142857142856,422.1808016640799,717.1,422.57142857142856,422.1808016640799,822.5,439.07142857142856,396.6808016640799,925.7,443.57142857142856,384.6808016640799,1026.3,442.07142857142856,374.1808016640799,1131.4,395.57142857142856,452.1808016640799,1250,388.07142857142856,462.6808016640799,1351.5,383.57142857142856,470.1808016640799,1456.3,397.07142857142856,443.1808016640799,1563.3,427.07142857142856,411.6808016640799,1665.6,449.57142857142856,395.1808016640799,1766,443.57142857142856,417.6808016640799,1866.1,428.57142857142856,431.1808016640799,1966.5,424.07142857142856,431.1808016640799,2075.1,424.07142857142856,428.1808016640799,2176.2,419.57142857142856,435.6808016640799,2281.2,395.57142857142856,461.1808016640799,2381.6,371.57142857142856,477.6808016640799,2491.4,358.07142857142856,482.1808016640799,2591.8,352.07142857142856,479.1808016640799,2699.9,355.07142857142856,468.6808016640799,2801.4,376.07142857142856,461.1808016640799,2907.5,385.07142857142856,462.6808016640799,3015.4,376.07142857142856,473.1808016640799,3121.9,368.57142857142856,477.6808016640799,3223,362.57142857142856,480.6808016640799,3328,359.57142857142856,482.1808016640799,3431,359.57142857142856,482.1808016640799,3531,359.57142857142856,479.1808016640799,3631.1,368.57142857142856,476.1808016640799,3732.6,370.07142857142856,476.1808016640799,3844.9,362.57142857142856,482.1808016640799,3946]","[2082.6,2082.6,1000,0,1082.6,""smooth"",""up"",""up"",""good_move"",9062.4,6979.5,2626.1,5783.4,652.9,""smooth"",""up"",""up"",""good_move"",12777.3,3714.7,2404.3,9062.7,1310.3,""oops"",""right"",""down"",""bad_move"",14227.2,1449.1,2356.2,12778.1,-907.1,""error"",""-"",""-"",""no_move""]","",""
"36113","","","","instructions","24","606598","0.0-8.0-4.0","210","1","2025-07-02 10:40:37","80fe4187154257d5fb01684ea91b68b9","41.122.216.36","Mozilla/5.0 (Windows NT 10.0; Win64; x64) AppleWebKit/537.36 (KHTML, like Gecko) Chrome/137.0.0.0 Safari/537.36","WebKit","Chrome","137.0.0.0","Windows","10.0","https://app.prolific.com/","en-US,en;q=0.9","6814aa905ee9dc10b46bd758","683db6dfa200031b80f2a654","68650783f098e34caa7cee1e","6814aa905ee9dc10b46bd758","","[{""page_index"":0,""viewing_time"":30648},{""page_index"":1,""viewing_time"":5464}]","","","","","","","","","","","","","","","","","","","","","","","","","","","","","","","","","","","","","","","","","","",""
"15393","","","{""green_ball"":[""Ball always moves in the direction I press""]}","survey-multi-select","25","622002","0.0-8.0-5.0-0.0","210","1","2025-07-02 10:40:37","80fe4187154257d5fb01684ea91b68b9","41.122.216.36","Mozilla/5.0 (Windows NT 10.0; Win64; x64) AppleWebKit/537.36 (KHTML, like Gecko) Chrome/137.0.0.0 Safari/537.36","WebKit","Chrome","137.0.0.0","Windows","10.0","https://app.prolific.com/","en-US,en;q=0.9","6814aa905ee9dc10b46bd758","683db6dfa200031b80f2a654","68650783f098e34caa7cee1e","6814aa905ee9dc10b46bd758","","","[0]","","","","quiz","","","","","","","","","","","","","","","","","","","","","","","","","","","","","","","","","","","","","false",""
"2611","","<p align='center'><b>INCORRECT.</b> Usually the green ball moves in the indicated direction, but sometimes it shakes and moves randomly. </p>","0","html-button-response","26","624619","0.0-8.0-5.0-1.0","210","1","2025-07-02 10:40:37","80fe4187154257d5fb01684ea91b68b9","41.122.216.36","Mozilla/5.0 (Windows NT 10.0; Win64; x64) AppleWebKit/537.36 (KHTML, like Gecko) Chrome/137.0.0.0 Safari/537.36","WebKit","Chrome","137.0.0.0","Windows","10.0","https://app.prolific.com/","en-US,en;q=0.9","6814aa905ee9dc10b46bd758","683db6dfa200031b80f2a654","68650783f098e34caa7cee1e","6814aa905ee9dc10b46bd758","","","","","","","","","","","","","","","","","","","","","","","","","","","","","","","","","","","","","","","","","","","","",""
"6406","","","{""green_ball"":[""Ball sometimes shakes and moves in a random direction""]}","survey-multi-select","27","631031","0.0-8.0-5.1-0.1","210","1","2025-07-02 10:40:37","80fe4187154257d5fb01684ea91b68b9","41.122.216.36","Mozilla/5.0 (Windows NT 10.0; Win64; x64) AppleWebKit/537.36 (KHTML, like Gecko) Chrome/137.0.0.0 Safari/537.36","WebKit","Chrome","137.0.0.0","Windows","10.0","https://app.prolific.com/","en-US,en;q=0.9","6814aa905ee9dc10b46bd758","683db6dfa200031b80f2a654","68650783f098e34caa7cee1e","6814aa905ee9dc10b46bd758","","","[0]","","","","quiz","","","","","","","","","","","","","","","","","","","","","","","","","","","","","","","","","","","","","true",""
"2098","","<p align='center'><b>CORRECT!</b> Indeed, the green ball may sometimes shake and move in a random direction.</p>","0","html-button-response","28","633130","0.0-8.0-5.1-1.1","210","1","2025-07-02 10:40:37","80fe4187154257d5fb01684ea91b68b9","41.122.216.36","Mozilla/5.0 (Windows NT 10.0; Win64; x64) AppleWebKit/537.36 (KHTML, like Gecko) Chrome/137.0.0.0 Safari/537.36","WebKit","Chrome","137.0.0.0","Windows","10.0","https://app.prolific.com/","en-US,en;q=0.9","6814aa905ee9dc10b46bd758","683db6dfa200031b80f2a654","68650783f098e34caa7cee1e","6814aa905ee9dc10b46bd758","","","","","","","","","","","","","","","","","","","","","","","","","","","","","","","","","","","","","","","","","","","","",""
"4464","","","{""yellow_ball"":[""Ball always shakes and moves in a random direction""]}","survey-multi-select","29","637596","0.0-8.0-6.0-0.0","210","1","2025-07-02 10:40:37","80fe4187154257d5fb01684ea91b68b9","41.122.216.36","Mozilla/5.0 (Windows NT 10.0; Win64; x64) AppleWebKit/537.36 (KHTML, like Gecko) Chrome/137.0.0.0 Safari/537.36","WebKit","Chrome","137.0.0.0","Windows","10.0","https://app.prolific.com/","en-US,en;q=0.9","6814aa905ee9dc10b46bd758","683db6dfa200031b80f2a654","68650783f098e34caa7cee1e","6814aa905ee9dc10b46bd758","","","[0]","","","","quiz","","","","","","","","","","","","","","","","","","","","","","","","","","","","","","","","","","","","","false",""
"2004","","<p align='center'><b>INCORRECT.</b> The yellow ball never moves and you reveice a penalty if you press anyways. </p>","0","html-button-response","30","639602","0.0-8.0-6.0-1.0","210","1","2025-07-02 10:40:37","80fe4187154257d5fb01684ea91b68b9","41.122.216.36","Mozilla/5.0 (Windows NT 10.0; Win64; x64) AppleWebKit/537.36 (KHTML, like Gecko) Chrome/137.0.0.0 Safari/537.36","WebKit","Chrome","137.0.0.0","Windows","10.0","https://app.prolific.com/","en-US,en;q=0.9","6814aa905ee9dc10b46bd758","683db6dfa200031b80f2a654","68650783f098e34caa7cee1e","6814aa905ee9dc10b46bd758","","","","","","","","","","","","","","","","","","","","","","","","","","","","","","","","","","","","","","","","","","","","",""
"5567","","","{""yellow_ball"":[""Ball sometimes shakes and moves in a random direction""]}","survey-multi-select","31","645172","0.0-8.0-6.1-0.1","210","1","2025-07-02 10:40:37","80fe4187154257d5fb01684ea91b68b9","41.122.216.36","Mozilla/5.0 (Windows NT 10.0; Win64; x64) AppleWebKit/537.36 (KHTML, like Gecko) Chrome/137.0.0.0 Safari/537.36","WebKit","Chrome","137.0.0.0","Windows","10.0","https://app.prolific.com/","en-US,en;q=0.9","6814aa905ee9dc10b46bd758","683db6dfa200031b80f2a654","68650783f098e34caa7cee1e","6814aa905ee9dc10b46bd758","","","[0]","","","","quiz","","","","","","","","","","","","","","","","","","","","","","","","","","","","","","","","","","","","","false",""
"1778","","<p align='center'><b>INCORRECT.</b> The yellow ball never moves and you reveice a penalty if you press anyways. </p>","0","html-button-response","32","646951","0.0-8.0-6.1-1.1","210","1","2025-07-02 10:40:37","80fe4187154257d5fb01684ea91b68b9","41.122.216.36","Mozilla/5.0 (Windows NT 10.0; Win64; x64) AppleWebKit/537.36 (KHTML, like Gecko) Chrome/137.0.0.0 Safari/537.36","WebKit","Chrome","137.0.0.0","Windows","10.0","https://app.prolific.com/","en-US,en;q=0.9","6814aa905ee9dc10b46bd758","683db6dfa200031b80f2a654","68650783f098e34caa7cee1e","6814aa905ee9dc10b46bd758","","","","","","","","","","","","","","","","","","","","","","","","","","","","","","","","","","","","","","","","","","","","",""
"9761","","","{""yellow_ball"":[""Ball doesn‘t move and I get -1 penalty point""]}","survey-multi-select","33","656714","0.0-8.0-6.2-0.2","210","1","2025-07-02 10:40:37","80fe4187154257d5fb01684ea91b68b9","41.122.216.36","Mozilla/5.0 (Windows NT 10.0; Win64; x64) AppleWebKit/537.36 (KHTML, like Gecko) Chrome/137.0.0.0 Safari/537.36","WebKit","Chrome","137.0.0.0","Windows","10.0","https://app.prolific.com/","en-US,en;q=0.9","6814aa905ee9dc10b46bd758","683db6dfa200031b80f2a654","68650783f098e34caa7cee1e","6814aa905ee9dc10b46bd758","","","[0]","","","","quiz","","","","","","","","","","","","","","","","","","","","","","","","","","","","","","","","","","","","","true",""
"2038","","<p align='center'><b>CORRECT!</b> Indeed, the yellow ball never moves and you receive a penalty.</p>","0","html-button-response","34","658755","0.0-8.0-6.2-1.2","210","1","2025-07-02 10:40:37","80fe4187154257d5fb01684ea91b68b9","41.122.216.36","Mozilla/5.0 (Windows NT 10.0; Win64; x64) AppleWebKit/537.36 (KHTML, like Gecko) Chrome/137.0.0.0 Safari/537.36","WebKit","Chrome","137.0.0.0","Windows","10.0","https://app.prolific.com/","en-US,en;q=0.9","6814aa905ee9dc10b46bd758","683db6dfa200031b80f2a654","68650783f098e34caa7cee1e","6814aa905ee9dc10b46bd758","","","","","","","","","","","","","","","","","","","","","","","","","","","","","","","","","","","","","","","","","","","","",""
"5954","","","{""blue_ball"":[""Ball doesn‘t move and I get -1 penalty point""]}","survey-multi-select","35","664712","0.0-8.0-7.0-0.0","210","1","2025-07-02 10:40:37","80fe4187154257d5fb01684ea91b68b9","41.122.216.36","Mozilla/5.0 (Windows NT 10.0; Win64; x64) AppleWebKit/537.36 (KHTML, like Gecko) Chrome/137.0.0.0 Safari/537.36","WebKit","Chrome","137.0.0.0","Windows","10.0","https://app.prolific.com/","en-US,en;q=0.9","6814aa905ee9dc10b46bd758","683db6dfa200031b80f2a654","68650783f098e34caa7cee1e","6814aa905ee9dc10b46bd758","","","[0]","","","","quiz","","","","","","","","","","","","","","","","","","","","","","","","","","","","","","","","","","","","","false",""
"1982","","<p align='center'><b>INCORRECT.</b> The blue ball always shakes and moves randomly.</p>","0","html-button-response","36","666696","0.0-8.0-7.0-1.0","210","1","2025-07-02 10:40:37","80fe4187154257d5fb01684ea91b68b9","41.122.216.36","Mozilla/5.0 (Windows NT 10.0; Win64; x64) AppleWebKit/537.36 (KHTML, like Gecko) Chrome/137.0.0.0 Safari/537.36","WebKit","Chrome","137.0.0.0","Windows","10.0","https://app.prolific.com/","en-US,en;q=0.9","6814aa905ee9dc10b46bd758","683db6dfa200031b80f2a654","68650783f098e34caa7cee1e","6814aa905ee9dc10b46bd758","","","","","","","","","","","","","","","","","","","","","","","","","","","","","","","","","","","","","","","","","","","","",""
"7719","","","{""blue_ball"":[""Ball always moves in the direction I press""]}","survey-multi-select","37","674419","0.0-8.0-7.1-0.1","210","1","2025-07-02 10:40:37","80fe4187154257d5fb01684ea91b68b9","41.122.216.36","Mozilla/5.0 (Windows NT 10.0; Win64; x64) AppleWebKit/537.36 (KHTML, like Gecko) Chrome/137.0.0.0 Safari/537.36","WebKit","Chrome","137.0.0.0","Windows","10.0","https://app.prolific.com/","en-US,en;q=0.9","6814aa905ee9dc10b46bd758","683db6dfa200031b80f2a654","68650783f098e34caa7cee1e","6814aa905ee9dc10b46bd758","","","[0]","","","","quiz","","","","","","","","","","","","","","","","","","","","","","","","","","","","","","","","","","","","","false",""
"2919","","<p align='center'><b>INCORRECT.</b> The blue ball always shakes and moves randomly.</p>","0","html-button-response","38","677340","0.0-8.0-7.1-1.1","210","1","2025-07-02 10:40:37","80fe4187154257d5fb01684ea91b68b9","41.122.216.36","Mozilla/5.0 (Windows NT 10.0; Win64; x64) AppleWebKit/537.36 (KHTML, like Gecko) Chrome/137.0.0.0 Safari/537.36","WebKit","Chrome","137.0.0.0","Windows","10.0","https://app.prolific.com/","en-US,en;q=0.9","6814aa905ee9dc10b46bd758","683db6dfa200031b80f2a654","68650783f098e34caa7cee1e","6814aa905ee9dc10b46bd758","","","","","","","","","","","","","","","","","","","","","","","","","","","","","","","","","","","","","","","","","","","","",""
"5061","","","{""blue_ball"":[""Ball always shakes and moves in a random direction""]}","survey-multi-select","39","682403","0.0-8.0-7.2-0.2","210","1","2025-07-02 10:40:37","80fe4187154257d5fb01684ea91b68b9","41.122.216.36","Mozilla/5.0 (Windows NT 10.0; Win64; x64) AppleWebKit/537.36 (KHTML, like Gecko) Chrome/137.0.0.0 Safari/537.36","WebKit","Chrome","137.0.0.0","Windows","10.0","https://app.prolific.com/","en-US,en;q=0.9","6814aa905ee9dc10b46bd758","683db6dfa200031b80f2a654","68650783f098e34caa7cee1e","6814aa905ee9dc10b46bd758","","","[0]","","","","quiz","","","","","","","","","","","","","","","","","","","","","","","","","","","","","","","","","","","","","true",""
"2020","","<p align='center'><b>CORRECT!</b> Indeed, the blue ball always shakes and moves in a random direction. Also there is a penalty of -1 point.</p>","0","html-button-response","40","684425","0.0-8.0-7.2-1.2","210","1","2025-07-02 10:40:37","80fe4187154257d5fb01684ea91b68b9","41.122.216.36","Mozilla/5.0 (Windows NT 10.0; Win64; x64) AppleWebKit/537.36 (KHTML, like Gecko) Chrome/137.0.0.0 Safari/537.36","WebKit","Chrome","137.0.0.0","Windows","10.0","https://app.prolific.com/","en-US,en;q=0.9","6814aa905ee9dc10b46bd758","683db6dfa200031b80f2a654","68650783f098e34caa7cee1e","6814aa905ee9dc10b46bd758","","","","","","","","","","","","","","","","","","","","","","","","","","","","","","","","","","","","","","","","","","","","",""
"6775","","","{""bonus"":[""When I reach all possible points""]}","survey-multi-select","41","691201","0.0-8.0-8.0-0.0","210","1","2025-07-02 10:40:37","80fe4187154257d5fb01684ea91b68b9","41.122.216.36","Mozilla/5.0 (Windows NT 10.0; Win64; x64) AppleWebKit/537.36 (KHTML, like Gecko) Chrome/137.0.0.0 Safari/537.36","WebKit","Chrome","137.0.0.0","Windows","10.0","https://app.prolific.com/","en-US,en;q=0.9","6814aa905ee9dc10b46bd758","683db6dfa200031b80f2a654","68650783f098e34caa7cee1e","6814aa905ee9dc10b46bd758","","","[0]","","","","quiz","","","","","","","","","","","","","","","","","","","","","","","","","","","","","","","","","","","","","false",""
"2635","","<p align='center'><b>INCORRECT.</b> You receive 2 pounds extra when you reach 50% of points </p>","0","html-button-response","42","693838","0.0-8.0-8.0-1.0","210","1","2025-07-02 10:40:37","80fe4187154257d5fb01684ea91b68b9","41.122.216.36","Mozilla/5.0 (Windows NT 10.0; Win64; x64) AppleWebKit/537.36 (KHTML, like Gecko) Chrome/137.0.0.0 Safari/537.36","WebKit","Chrome","137.0.0.0","Windows","10.0","https://app.prolific.com/","en-US,en;q=0.9","6814aa905ee9dc10b46bd758","683db6dfa200031b80f2a654","68650783f098e34caa7cee1e","6814aa905ee9dc10b46bd758","","","","","","","","","","","","","","","","","","","","","","","","","","","","","","","","","","","","","","","","","","","","",""
"2896","","","{""bonus"":[""When I reach 50% of points""]}","survey-multi-select","43","696737","0.0-8.0-8.1-0.1","210","1","2025-07-02 10:40:37","80fe4187154257d5fb01684ea91b68b9","41.122.216.36","Mozilla/5.0 (Windows NT 10.0; Win64; x64) AppleWebKit/537.36 (KHTML, like Gecko) Chrome/137.0.0.0 Safari/537.36","WebKit","Chrome","137.0.0.0","Windows","10.0","https://app.prolific.com/","en-US,en;q=0.9","6814aa905ee9dc10b46bd758","683db6dfa200031b80f2a654","68650783f098e34caa7cee1e","6814aa905ee9dc10b46bd758","","","[0]","","","","quiz","","","","","","","","","","","","","","","","","","","","","","","","","","","","","","","","","","","","","true",""
"1686","","<p align='center'><b>CORRECT!</b> Indeed, you receive 2 pounds extra when you reach 50% of points.</p>","0","html-button-response","44","698425","0.0-8.0-8.1-1.1","210","1","2025-07-02 10:40:37","80fe4187154257d5fb01684ea91b68b9","41.122.216.36","Mozilla/5.0 (Windows NT 10.0; Win64; x64) AppleWebKit/537.36 (KHTML, like Gecko) Chrome/137.0.0.0 Safari/537.36","WebKit","Chrome","137.0.0.0","Windows","10.0","https://app.prolific.com/","en-US,en;q=0.9","6814aa905ee9dc10b46bd758","683db6dfa200031b80f2a654","68650783f098e34caa7cee1e","6814aa905ee9dc10b46bd758","","","","","","","","","","","","","","","","","","","","","","","","","","","","","","","","","","","","","","","","","","","","",""
"3263","","","","instructions","45","701695","0.0-8.0-9.0","210","1","2025-07-02 10:40:37","80fe4187154257d5fb01684ea91b68b9","41.122.216.36","Mozilla/5.0 (Windows NT 10.0; Win64; x64) AppleWebKit/537.36 (KHTML, like Gecko) Chrome/137.0.0.0 Safari/537.36","WebKit","Chrome","137.0.0.0","Windows","10.0","https://app.prolific.com/","en-US,en;q=0.9","6814aa905ee9dc10b46bd758","683db6dfa200031b80f2a654","68650783f098e34caa7cee1e","6814aa905ee9dc10b46bd758","","[{""page_index"":0,""viewing_time"":3262}]","","","","","","","","","","","","","","","","","","","","","","","","","","","","","","","","","","","","","","","","","","",""
"4958","","<p>Before you start with this game please answer the following three questions yourself. </p>
  <p>Through this game, we measure several aspects of your cognitive performance, such as reaction times, multi-tasking capabilities </p>
  <p>and the ability to assess the situation you are in.</p>
  <p></p>
  <p><b>How good do you usually are in such tasks?</b></p>","86","html-slider-response","46","706666","0.0-9.0-0.0","210","1","2025-07-02 10:40:37","80fe4187154257d5fb01684ea91b68b9","41.122.216.36","Mozilla/5.0 (Windows NT 10.0; Win64; x64) AppleWebKit/537.36 (KHTML, like Gecko) Chrome/137.0.0.0 Safari/537.36","WebKit","Chrome","137.0.0.0","Windows","10.0","https://app.prolific.com/","en-US,en;q=0.9","6814aa905ee9dc10b46bd758","683db6dfa200031b80f2a654","68650783f098e34caa7cee1e","6814aa905ee9dc10b46bd758","2025-07-02T10:52:26.912Z","","","","","","PreSkillQ","","","","","","","","","","","","","","","","","","","","","","","","","","","","","","","","","","","","","","50"
"7182","","<div style=""width:500px;"">
  <p>How well do you think you will perform in this task compared to other participants?</p>
  </div>","28","html-slider-response","47","713850","0.0-9.0-1.0","210","1","2025-07-02 10:40:37","80fe4187154257d5fb01684ea91b68b9","41.122.216.36","Mozilla/5.0 (Windows NT 10.0; Win64; x64) AppleWebKit/537.36 (KHTML, like Gecko) Chrome/137.0.0.0 Safari/537.36","WebKit","Chrome","137.0.0.0","Windows","10.0","https://app.prolific.com/","en-US,en;q=0.9","6814aa905ee9dc10b46bd758","683db6dfa200031b80f2a654","68650783f098e34caa7cee1e","6814aa905ee9dc10b46bd758","2025-07-02T10:52:34.096Z","","","","","","PrePerfQ","","","","","","","","","","","","","","","","","","","","","","","","","","","","","","","","","","","","","","50"
"4069","","<div style=""width:500px;"">
  <p>What best describes how you currently feel?</p>
  </div>","25","html-slider-response","48","717920","0.0-9.0-2.0","210","1","2025-07-02 10:40:37","80fe4187154257d5fb01684ea91b68b9","41.122.216.36","Mozilla/5.0 (Windows NT 10.0; Win64; x64) AppleWebKit/537.36 (KHTML, like Gecko) Chrome/137.0.0.0 Safari/537.36","WebKit","Chrome","137.0.0.0","Windows","10.0","https://app.prolific.com/","en-US,en;q=0.9","6814aa905ee9dc10b46bd758","683db6dfa200031b80f2a654","68650783f098e34caa7cee1e","6814aa905ee9dc10b46bd758","2025-07-02T10:52:38.167Z","","","","","","PreMotivationQ","","","","","","","","","","","","","","","","","","","","","","","","","","","","","","","","","","","","","","50"
"","","","","ctl-task-cpt","49","743256","0.0-10.0-0.0","210","1","2025-07-02 10:40:37","80fe4187154257d5fb01684ea91b68b9","41.122.216.36","Mozilla/5.0 (Windows NT 10.0; Win64; x64) AppleWebKit/537.36 (KHTML, like Gecko) Chrome/137.0.0.0 Safari/537.36","WebKit","Chrome","137.0.0.0","Windows","10.0","https://app.prolific.com/","en-US,en;q=0.9","6814aa905ee9dc10b46bd758","683db6dfa200031b80f2a654","68650783f098e34caa7cee1e","6814aa905ee9dc10b46bd758","2025-07-02T10:53:03.502Z","","","","","","","","","","","","","","","","win-only","1","g1:NE,g2:SW","1","1","0","721453.8","1580.7","6593.7","22296.4","1","4","4","6","1","-1","-1","0","0","0","5013","3000","-2460","[""up"",""right""]","{""num_key_presses"":3,""num_perfect"":3,""num_errors"":0,""num_randdir"":0,""num_randdir_good_moves"":0,""num_whilered"":0,""num_whileblue"":0,""num_blue"":1,""num_good_moves"":3}","[410.57142857142856,422.1808016640799,0.7,410.57142857142856,422.1808016640799,100.4,410.57142857142856,422.1808016640799,207,410.57142857142856,422.1808016640799,310.5,410.57142857142856,422.1808016640799,411.3,410.57142857142856,422.1808016640799,532.2,410.57142857142856,422.1808016640799,639.3,410.57142857142856,422.1808016640799,740.4,410.57142857142856,422.1808016640799,841.5,410.57142857142856,422.1808016640799,944.9,410.57142857142856,422.1808016640799,1046.2,443.57142857142856,389.1808016640799,1154.3,503.57142857142856,351.6808016640799,1254.8,512.5714285714286,350.1808016640799,1356.8,514.0714285714286,348.6808016640799,1460.1,496.07142857142856,336.6808016640799,1561,494.57142857142856,335.1808016640799,1670.3,494.57142857142856,332.1808016640799,1771.1,518.5714285714286,327.6808016640799,1875.6,509.57142857142856,362.1808016640799,1987.1,473.57142857142856,366.6808016640799,2091.4,473.57142857142856,347.1808016640799,2195,482.57142857142856,341.1808016640799,2295.1,500.57142857142856,360.6808016640799,2400.9,485.57142857142856,377.1808016640799,2504,484.07142857142856,368.1808016640799,2605.2,490.07142857142856,354.6808016640799,2706.9,500.57142857142856,353.1808016640799,2809.7,491.57142857142856,365.1808016640799,2911.7,482.57142857142856,360.6808016640799,3013.2,490.07142857142856,350.1808016640799,3125.2,493.07142857142856,348.6808016640799,3228.5,487.07142857142856,351.6808016640799,3340.1,485.57142857142856,351.6808016640799,3447.5,491.57142857142856,347.1808016640799,3550.4,494.57142857142856,347.1808016640799,3650.5,481.07142857142856,359.1808016640799,3755.3,479.57142857142856,359.1808016640799,3855.3,479.57142857142856,348.6808016640799,3955.6,485.57142857142856,347.1808016640799,4056.7,485.57142857142856,347.1808016640799,4157.5,485.57142857142856,347.1808016640799,4261.6,485.57142857142856,347.1808016640799,4363.6,485.57142857142856,347.1808016640799,4479,485.57142857142856,347.1808016640799,4580.1,485.57142857142856,347.1808016640799,4681.4,485.57142857142856,347.1808016640799,4789.6,485.57142857142856,347.1808016640799,4891.4,485.57142857142856,347.1808016640799,4992]","[5986.9,5986.9,3216.5,2026.7,743.7,""smooth"",""up"",""up"",""good_move"",9259.8,3271.7,1369.4,5988.1,1902.3,""smooth"",""right"",""right"",""good_move"",12665.6,3405.3,2365.6,9260.4,1039.6,""smooth"",""up"",""up"",""good_move""]","",""
"5104","","<div style=""width:500px;"">
  <p>What determined the result of this run?</p>
  </div>","46","html-slider-response","50","748361","0.0-10.0-1.0","210","1","2025-07-02 10:40:37","80fe4187154257d5fb01684ea91b68b9","41.122.216.36","Mozilla/5.0 (Windows NT 10.0; Win64; x64) AppleWebKit/537.36 (KHTML, like Gecko) Chrome/137.0.0.0 Safari/537.36","WebKit","Chrome","137.0.0.0","Windows","10.0","https://app.prolific.com/","en-US,en;q=0.9","6814aa905ee9dc10b46bd758","683db6dfa200031b80f2a654","68650783f098e34caa7cee1e","6814aa905ee9dc10b46bd758","2025-07-02T10:53:08.607Z","","","","","","AttribQ","","","","","","","","","","","","","","","","","","","","","","","","","","","","","","","","","","","","","","50"
"3625","","<div style=""width:500px;"">
  <p>How much control did you have over the ball?</p>
  </div>","45","html-slider-response","51","751988","0.0-10.0-2.0","210","1","2025-07-02 10:40:37","80fe4187154257d5fb01684ea91b68b9","41.122.216.36","Mozilla/5.0 (Windows NT 10.0; Win64; x64) AppleWebKit/537.36 (KHTML, like Gecko) Chrome/137.0.0.0 Safari/537.36","WebKit","Chrome","137.0.0.0","Windows","10.0","https://app.prolific.com/","en-US,en;q=0.9","6814aa905ee9dc10b46bd758","683db6dfa200031b80f2a654","68650783f098e34caa7cee1e","6814aa905ee9dc10b46bd758","2025-07-02T10:53:12.235Z","","","","","","ControlQ","","","","","","","","","","","","","","","","","","","","","","","","","","","","","","","","","","","","","","50"
"6250","","<div style=""width:500px;"">
  <p>How would you describe your current emotional state?</p>
  </div>","20","html-slider-response","52","758241","0.0-10.0-3.0","210","1","2025-07-02 10:40:37","80fe4187154257d5fb01684ea91b68b9","41.122.216.36","Mozilla/5.0 (Windows NT 10.0; Win64; x64) AppleWebKit/537.36 (KHTML, like Gecko) Chrome/137.0.0.0 Safari/537.36","WebKit","Chrome","137.0.0.0","Windows","10.0","https://app.prolific.com/","en-US,en;q=0.9","6814aa905ee9dc10b46bd758","683db6dfa200031b80f2a654","68650783f098e34caa7cee1e","6814aa905ee9dc10b46bd758","2025-07-02T10:53:18.487Z","","","","","","StressQ","","","","","","","","","","","","","","","","","","","","","","","","","","","","","","","","","","","","","","50"
"5335","","<div style=""width:500px;"">
  <p>What best describes how you currently feel?</p>
  </div>","39","html-slider-response","53","763578","0.0-10.0-4.0","210","1","2025-07-02 10:40:37","80fe4187154257d5fb01684ea91b68b9","41.122.216.36","Mozilla/5.0 (Windows NT 10.0; Win64; x64) AppleWebKit/537.36 (KHTML, like Gecko) Chrome/137.0.0.0 Safari/537.36","WebKit","Chrome","137.0.0.0","Windows","10.0","https://app.prolific.com/","en-US,en;q=0.9","6814aa905ee9dc10b46bd758","683db6dfa200031b80f2a654","68650783f098e34caa7cee1e","6814aa905ee9dc10b46bd758","2025-07-02T10:53:23.824Z","","","","","","MotivationQ","","","","","","","","","","","","","","","","","","","","","","","","","","","","","","","","","","","","","","50"
"","","","","ctl-task-cpt","54","795689","0.0-10.0-0.1","210","1","2025-07-02 10:40:37","80fe4187154257d5fb01684ea91b68b9","41.122.216.36","Mozilla/5.0 (Windows NT 10.0; Win64; x64) AppleWebKit/537.36 (KHTML, like Gecko) Chrome/137.0.0.0 Safari/537.36","WebKit","Chrome","137.0.0.0","Windows","10.0","https://app.prolific.com/","en-US,en;q=0.9","6814aa905ee9dc10b46bd758","683db6dfa200031b80f2a654","68650783f098e34caa7cee1e","6814aa905ee9dc10b46bd758","2025-07-02T10:53:55.935Z","","","","","","","","","","","","","","","","win-only","2","g1:SE,g2:NW","0.9","2","0","767102.8","3805","8806.1","29092.2","1","4","8","6","2","-8","-8","0","0","0","5001.1","3000","-2175","[""left"",""up""]","{""num_key_presses"":5,""num_perfect"":5,""num_errors"":0,""num_randdir"":0,""num_randdir_good_moves"":0,""num_whilered"":0,""num_whileblue"":0,""num_blue"":1,""num_good_moves"":5}","[422.57142857142856,411.6808016640799,0.5,422.57142857142856,411.6808016640799,101.1,422.57142857142856,411.6808016640799,206.6,422.57142857142856,411.6808016640799,306.6,422.57142857142856,411.6808016640799,407.5,422.57142857142856,411.6808016640799,511,422.57142857142856,411.6808016640799,620.5,422.57142857142856,411.6808016640799,720.5,422.57142857142856,411.6808016640799,821.4,422.57142857142856,411.6808016640799,941,370.07142857142856,296.1808016640799,1041.2,329.57142857142856,227.18080166407992,1146.3,326.57142857142856,224.18080166407992,1256.4,326.57142857142856,224.18080166407992,1368.5,335.57142857142856,227.18080166407992,1470.6,458.57142857142856,333.6808016640799,1571.2,485.57142857142856,414.6808016640799,1671.9,490.07142857142856,461.1808016640799,1788.3,481.07142857142856,470.1808016640799,1890.8,473.57142857142856,468.6808016640799,1993,472.07142857142856,468.6808016640799,2093,472.07142857142856,468.6808016640799,2196.8,472.07142857142856,468.6808016640799,2304.3,472.07142857142856,468.6808016640799,2405.4,472.07142857142856,468.6808016640799,2524,472.07142857142856,468.6808016640799,2636.6,472.07142857142856,468.6808016640799,2752.2,472.07142857142856,468.6808016640799,2855.6,472.07142857142856,468.6808016640799,2967.6,472.07142857142856,468.6808016640799,3071.3,472.07142857142856,468.6808016640799,3187.9,472.07142857142856,468.6808016640799,3291.6,472.07142857142856,468.6808016640799,3395.5,472.07142857142856,468.6808016640799,3502.5,472.07142857142856,468.6808016640799,3605.5,472.07142857142856,468.6808016640799,3707.3,472.07142857142856,468.6808016640799,3824.1,472.07142857142856,468.6808016640799,3925.6,472.07142857142856,468.6808016640799,4026.6,472.07142857142856,468.6808016640799,4129.6,472.07142857142856,468.6808016640799,4230.8,472.07142857142856,468.6808016640799,4333.7,472.07142857142856,468.6808016640799,4435.8,472.07142857142856,468.6808016640799,4536.2,472.07142857142856,468.6808016640799,4641.2,472.07142857142856,468.6808016640799,4749.5,472.07142857142856,468.6808016640799,4856.7,472.07142857142856,468.6808016640799,4960.6]","[1602.5,1602.5,1000,0,602.6,""smooth"",""up"",""up"",""good_move"",7217.7,5614.3,2369.1,4303.1,545.5,""smooth"",""up"",""up"",""good_move"",10818.5,3599.9,2646.2,7218.6,953.8,""smooth"",""up"",""up"",""good_move"",14091.9,3272.9,2098.3,10819,1174.6,""smooth"",""left"",""left"",""good_move"",17684.4,3591.8,2578.4,14092.7,1013.4,""smooth"",""left"",""left"",""good_move""]","",""
"3596","","<div style=""width:500px;"">
  <p>What determined the result of this run?</p>
  </div>","33","html-slider-response","55","799292","0.0-10.0-1.1","210","1","2025-07-02 10:40:37","80fe4187154257d5fb01684ea91b68b9","41.122.216.36","Mozilla/5.0 (Windows NT 10.0; Win64; x64) AppleWebKit/537.36 (KHTML, like Gecko) Chrome/137.0.0.0 Safari/537.36","WebKit","Chrome","137.0.0.0","Windows","10.0","https://app.prolific.com/","en-US,en;q=0.9","6814aa905ee9dc10b46bd758","683db6dfa200031b80f2a654","68650783f098e34caa7cee1e","6814aa905ee9dc10b46bd758","2025-07-02T10:53:59.538Z","","","","","","AttribQ","","","","","","","","","","","","","","","","","","","","","","","","","","","","","","","","","","","","","","50"
"3329","","<div style=""width:500px;"">
  <p>How much control did you have over the ball?</p>
  </div>","44","html-slider-response","56","802623","0.0-10.0-2.1","210","1","2025-07-02 10:40:37","80fe4187154257d5fb01684ea91b68b9","41.122.216.36","Mozilla/5.0 (Windows NT 10.0; Win64; x64) AppleWebKit/537.36 (KHTML, like Gecko) Chrome/137.0.0.0 Safari/537.36","WebKit","Chrome","137.0.0.0","Windows","10.0","https://app.prolific.com/","en-US,en;q=0.9","6814aa905ee9dc10b46bd758","683db6dfa200031b80f2a654","68650783f098e34caa7cee1e","6814aa905ee9dc10b46bd758","2025-07-02T10:54:02.869Z","","","","","","ControlQ","","","","","","","","","","","","","","","","","","","","","","","","","","","","","","","","","","","","","","50"
"4169","","<div style=""width:500px;"">
  <p>How would you describe your current emotional state?</p>
  </div>","58","html-slider-response","57","806793","0.0-10.0-3.1","210","1","2025-07-02 10:40:37","80fe4187154257d5fb01684ea91b68b9","41.122.216.36","Mozilla/5.0 (Windows NT 10.0; Win64; x64) AppleWebKit/537.36 (KHTML, like Gecko) Chrome/137.0.0.0 Safari/537.36","WebKit","Chrome","137.0.0.0","Windows","10.0","https://app.prolific.com/","en-US,en;q=0.9","6814aa905ee9dc10b46bd758","683db6dfa200031b80f2a654","68650783f098e34caa7cee1e","6814aa905ee9dc10b46bd758","2025-07-02T10:54:07.039Z","","","","","","StressQ","","","","","","","","","","","","","","","","","","","","","","","","","","","","","","","","","","","","","","50"
"11516","","<div style=""width:500px;"">
  <p>What best describes how you currently feel?</p>
  </div>","67","html-slider-response","58","818312","0.0-10.0-4.1","210","1","2025-07-02 10:40:37","80fe4187154257d5fb01684ea91b68b9","41.122.216.36","Mozilla/5.0 (Windows NT 10.0; Win64; x64) AppleWebKit/537.36 (KHTML, like Gecko) Chrome/137.0.0.0 Safari/537.36","WebKit","Chrome","137.0.0.0","Windows","10.0","https://app.prolific.com/","en-US,en;q=0.9","6814aa905ee9dc10b46bd758","683db6dfa200031b80f2a654","68650783f098e34caa7cee1e","6814aa905ee9dc10b46bd758","2025-07-02T10:54:18.559Z","","","","","","MotivationQ","","","","","","","","","","","","","","","","","","","","","","","","","","","","","","","","","","","","","","50"
"","","","","ctl-task-cpt","59","862974","0.0-10.0-0.2","210","1","2025-07-02 10:40:37","80fe4187154257d5fb01684ea91b68b9","41.122.216.36","Mozilla/5.0 (Windows NT 10.0; Win64; x64) AppleWebKit/537.36 (KHTML, like Gecko) Chrome/137.0.0.0 Safari/537.36","WebKit","Chrome","137.0.0.0","Windows","10.0","https://app.prolific.com/","en-US,en;q=0.9","6814aa905ee9dc10b46bd758","683db6dfa200031b80f2a654","68650783f098e34caa7cee1e","6814aa905ee9dc10b46bd758","2025-07-02T10:55:03.220Z","","","","","","","","","","","","","","","","win-only","2","g1:SE,g2:NW","0.8","3","0","821841.9","7325.2","12327.2","41637.7","1","4","8","6","2","-8","-8","0","0","0","5002","3000","-2130","[""left"",""up""]","{""num_key_presses"":5,""num_perfect"":3,""num_errors"":0,""num_randdir"":2,""num_randdir_good_moves"":2,""num_whilered"":0,""num_whileblue"":0,""num_blue"":3,""num_good_moves"":5}","[413.57142857142856,410.1808016640799,0.5,413.57142857142856,410.1808016640799,101.3,413.57142857142856,410.1808016640799,213,413.57142857142856,410.1808016640799,314.3,413.57142857142856,410.1808016640799,415.1,413.57142857142856,410.1808016640799,516.6,413.57142857142856,410.1808016640799,622.8,413.57142857142856,410.1808016640799,725.8,407.57142857142856,401.1808016640799,826.1,286.07142857142856,206.18080166407992,933.5,286.07142857142856,188.18080166407992,1035.2,286.07142857142856,188.18080166407992,1135.9,293.57142857142856,194.18080166407992,1248.2,472.07142857142856,398.1808016640799,1354.8,506.57142857142856,450.6808016640799,1455.1,499.07142857142856,465.6808016640799,1555.9,493.07142857142856,476.1808016640799,1666,491.57142857142856,477.6808016640799,1771.6,490.07142857142856,476.1808016640799,1875.9,490.07142857142856,476.1808016640799,1980.8,490.07142857142856,476.1808016640799,2084.1,490.07142857142856,476.1808016640799,2201.8,490.07142857142856,476.1808016640799,2311.1,490.07142857142856,476.1808016640799,2412.2,490.07142857142856,476.1808016640799,2520.5,490.07142857142856,476.1808016640799,2629.3,490.07142857142856,476.1808016640799,2731.2,490.07142857142856,476.1808016640799,2835.8,490.07142857142856,476.1808016640799,2936.5,490.07142857142856,476.1808016640799,3045.5,490.07142857142856,476.1808016640799,3152.1,490.07142857142856,476.1808016640799,3252.6,490.07142857142856,476.1808016640799,3359.6,490.07142857142856,476.1808016640799,3461.5,490.07142857142856,476.1808016640799,3566.8,490.07142857142856,476.1808016640799,3680.5,490.07142857142856,476.1808016640799,3781.8,490.07142857142856,476.1808016640799,3886,490.07142857142856,476.1808016640799,3991.5,490.07142857142856,476.1808016640799,4091.5,490.07142857142856,476.1808016640799,4195.5,490.07142857142856,476.1808016640799,4318,490.07142857142856,476.1808016640799,4428.6,490.07142857142856,476.1808016640799,4533.4,490.07142857142856,476.1808016640799,4638.2,490.07142857142856,476.1808016640799,4743.5,490.07142857142856,476.1808016640799,4846.9,490.07142857142856,476.1808016640799,4962.1]","[9238.4,9238.4,2465.4,6326.9,446.1,""smooth"",""up"",""up"",""good_move"",16256.6,7017.6,3080.3,12712.5,463.8,""smooth"",""up"",""up"",""good_move"",20166.3,3909.4,2297.6,16256.9,1611.8,""oops"",""up"",""left"",""good_move"",23409.8,3242.9,2231.2,20166.9,1011.7,""oops"",""up"",""up"",""good_move"",26180.8,2770.5,2047.5,23410.3,723,""smooth"",""up"",""left"",""good_move""]","",""
"34906","","<div style=""width:500px;"">
  <p>What determined the result of this run?</p>
  </div>","43","html-slider-response","60","897882","0.0-10.0-1.2","210","1","2025-07-02 10:40:37","80fe4187154257d5fb01684ea91b68b9","41.122.216.36","Mozilla/5.0 (Windows NT 10.0; Win64; x64) AppleWebKit/537.36 (KHTML, like Gecko) Chrome/137.0.0.0 Safari/537.36","WebKit","Chrome","137.0.0.0","Windows","10.0","https://app.prolific.com/","en-US,en;q=0.9","6814aa905ee9dc10b46bd758","683db6dfa200031b80f2a654","68650783f098e34caa7cee1e","6814aa905ee9dc10b46bd758","2025-07-02T10:55:38.128Z","","","","","","AttribQ","","","","","","","","","","","","","","","","","","","","","","","","","","","","","","","","","","","","","","50"
"18136","","<div style=""width:500px;"">
  <p>How much control did you have over the ball?</p>
  </div>","42","html-slider-response","61","916022","0.0-10.0-2.2","210","1","2025-07-02 10:40:37","80fe4187154257d5fb01684ea91b68b9","41.122.216.36","Mozilla/5.0 (Windows NT 10.0; Win64; x64) AppleWebKit/537.36 (KHTML, like Gecko) Chrome/137.0.0.0 Safari/537.36","WebKit","Chrome","137.0.0.0","Windows","10.0","https://app.prolific.com/","en-US,en;q=0.9","6814aa905ee9dc10b46bd758","683db6dfa200031b80f2a654","68650783f098e34caa7cee1e","6814aa905ee9dc10b46bd758","2025-07-02T10:55:56.268Z","","","","","","ControlQ","","","","","","","","","","","","","","","","","","","","","","","","","","","","","","","","","","","","","","50"
"4573","","<div style=""width:500px;"">
  <p>How would you describe your current emotional state?</p>
  </div>","57","html-slider-response","62","920600","0.0-10.0-3.2","210","1","2025-07-02 10:40:37","80fe4187154257d5fb01684ea91b68b9","41.122.216.36","Mozilla/5.0 (Windows NT 10.0; Win64; x64) AppleWebKit/537.36 (KHTML, like Gecko) Chrome/137.0.0.0 Safari/537.36","WebKit","Chrome","137.0.0.0","Windows","10.0","https://app.prolific.com/","en-US,en;q=0.9","6814aa905ee9dc10b46bd758","683db6dfa200031b80f2a654","68650783f098e34caa7cee1e","6814aa905ee9dc10b46bd758","2025-07-02T10:56:00.847Z","","","","","","StressQ","","","","","","","","","","","","","","","","","","","","","","","","","","","","","","","","","","","","","","50"
"3039","","<div style=""width:500px;"">
  <p>What best describes how you currently feel?</p>
  </div>","42","html-slider-response","63","923644","0.0-10.0-4.2","210","1","2025-07-02 10:40:37","80fe4187154257d5fb01684ea91b68b9","41.122.216.36","Mozilla/5.0 (Windows NT 10.0; Win64; x64) AppleWebKit/537.36 (KHTML, like Gecko) Chrome/137.0.0.0 Safari/537.36","WebKit","Chrome","137.0.0.0","Windows","10.0","https://app.prolific.com/","en-US,en;q=0.9","6814aa905ee9dc10b46bd758","683db6dfa200031b80f2a654","68650783f098e34caa7cee1e","6814aa905ee9dc10b46bd758","2025-07-02T10:56:03.890Z","","","","","","MotivationQ","","","","","","","","","","","","","","","","","","","","","","","","","","","","","","","","","","","","","","50"
"","","","","ctl-task-cpt","64","956017","0.0-10.0-0.3","210","1","2025-07-02 10:40:37","80fe4187154257d5fb01684ea91b68b9","41.122.216.36","Mozilla/5.0 (Windows NT 10.0; Win64; x64) AppleWebKit/537.36 (KHTML, like Gecko) Chrome/137.0.0.0 Safari/537.36","WebKit","Chrome","137.0.0.0","Windows","10.0","https://app.prolific.com/","en-US,en;q=0.9","6814aa905ee9dc10b46bd758","683db6dfa200031b80f2a654","68650783f098e34caa7cee1e","6814aa905ee9dc10b46bd758","2025-07-02T10:56:36.263Z","","","","","","","","","","","","","","","","win-only","3","g1:SW,g2:NE","0.7","4","0","927169.1","4945.7","9946.7","29328.8","1","4","4","6","1","1","1","1","0","0.007575757575757576","5001","3000","775","[""down"",""left""]","{""num_key_presses"":6,""num_perfect"":5,""num_errors"":0,""num_randdir"":1,""num_randdir_good_moves"":0,""num_whilered"":0,""num_whileblue"":0,""num_blue"":1,""num_good_moves"":5}","[416.57142857142856,413.1808016640799,0.4,416.57142857142856,413.1808016640799,119.8,416.57142857142856,413.1808016640799,227.2,416.57142857142856,413.1808016640799,328.5,416.57142857142856,413.1808016640799,441.4,416.57142857142856,413.1808016640799,561.3,416.57142857142856,413.1808016640799,662.1,425.57142857142856,399.6808016640799,765.7,433.07142857142856,386.1808016640799,867,424.07142857142856,396.6808016640799,986.7,395.57142857142856,449.1808016640799,1090.2,380.57142857142856,482.1808016640799,1204.4,370.07142857142856,491.1808016640799,1311,364.07142857142856,497.1808016640799,1416,356.57142857142856,504.6808016640799,1525.1,353.57142857142856,506.1808016640799,1629.7,353.57142857142856,506.1808016640799,1730.5,353.57142857142856,506.1808016640799,1833.6,353.57142857142856,506.1808016640799,1954.7,353.57142857142856,506.1808016640799,2055.3,353.57142857142856,506.1808016640799,2155.9,353.57142857142856,506.1808016640799,2261.4,353.57142857142856,506.1808016640799,2366.4,353.57142857142856,506.1808016640799,2471.4,353.57142857142856,506.1808016640799,2571.8,353.57142857142856,506.1808016640799,2672.9,353.57142857142856,506.1808016640799,2779.4,353.57142857142856,506.1808016640799,2880.8,353.57142857142856,506.1808016640799,2982.7,353.57142857142856,506.1808016640799,3084.3,353.57142857142856,506.1808016640799,3187.6,353.57142857142856,506.1808016640799,3316.1,353.57142857142856,506.1808016640799,3421.4,353.57142857142856,506.1808016640799,3528.2,353.57142857142856,506.1808016640799,3630.2,353.57142857142856,506.1808016640799,3733.1,353.57142857142856,506.1808016640799,3845.5,353.57142857142856,506.1808016640799,3947.1,353.57142857142856,506.1808016640799,4059.3,353.57142857142856,506.1808016640799,4161.7,353.57142857142856,506.1808016640799,4265.2,353.57142857142856,506.1808016640799,4365.4,353.57142857142856,506.1808016640799,4470.8,353.57142857142856,506.1808016640799,4575.2,353.57142857142856,506.1808016640799,4680.5,353.57142857142856,506.1808016640799,4787.3,353.57142857142856,506.1808016640799,4888.1,353.57142857142856,506.1808016640799,4990.3]","[1555.1,1555.2,1000,0,555.2,""smooth"",""down"",""down"",""good_move"",4774.2,3218.6,2157.4,1555.7,1061.1,""oops"",""left"",""up"",""bad_move"",7884.9,3109.9,2588.9,4775,521,""smooth"",""down"",""down"",""good_move"",10475.3,2590.1,2188.6,7885.2,401.5,""smooth"",""down"",""down"",""good_move"",13534.1,3058.3,2270.1,10475.8,788.2,""smooth"",""left"",""left"",""good_move"",19205.7,5670,1816.7,16824.4,564.6,""smooth"",""left"",""left"",""good_move""]","",""
"3430","","<div style=""width:500px;"">
  <p>What determined the result of this run?</p>
  </div>","60","html-slider-response","65","959449","0.0-10.0-1.3","210","1","2025-07-02 10:40:37","80fe4187154257d5fb01684ea91b68b9","41.122.216.36","Mozilla/5.0 (Windows NT 10.0; Win64; x64) AppleWebKit/537.36 (KHTML, like Gecko) Chrome/137.0.0.0 Safari/537.36","WebKit","Chrome","137.0.0.0","Windows","10.0","https://app.prolific.com/","en-US,en;q=0.9","6814aa905ee9dc10b46bd758","683db6dfa200031b80f2a654","68650783f098e34caa7cee1e","6814aa905ee9dc10b46bd758","2025-07-02T10:56:39.695Z","","","","","","AttribQ","","","","","","","","","","","","","","","","","","","","","","","","","","","","","","","","","","","","","","50"
"3637","","<div style=""width:500px;"">
  <p>How much control did you have over the ball?</p>
  </div>","56","html-slider-response","66","963088","0.0-10.0-2.3","210","1","2025-07-02 10:40:37","80fe4187154257d5fb01684ea91b68b9","41.122.216.36","Mozilla/5.0 (Windows NT 10.0; Win64; x64) AppleWebKit/537.36 (KHTML, like Gecko) Chrome/137.0.0.0 Safari/537.36","WebKit","Chrome","137.0.0.0","Windows","10.0","https://app.prolific.com/","en-US,en;q=0.9","6814aa905ee9dc10b46bd758","683db6dfa200031b80f2a654","68650783f098e34caa7cee1e","6814aa905ee9dc10b46bd758","2025-07-02T10:56:43.334Z","","","","","","ControlQ","","","","","","","","","","","","","","","","","","","","","","","","","","","","","","","","","","","","","","50"
"5165","","<div style=""width:500px;"">
  <p>How would you describe your current emotional state?</p>
  </div>","7","html-slider-response","67","968254","0.0-10.0-3.3","210","1","2025-07-02 10:40:37","80fe4187154257d5fb01684ea91b68b9","41.122.216.36","Mozilla/5.0 (Windows NT 10.0; Win64; x64) AppleWebKit/537.36 (KHTML, like Gecko) Chrome/137.0.0.0 Safari/537.36","WebKit","Chrome","137.0.0.0","Windows","10.0","https://app.prolific.com/","en-US,en;q=0.9","6814aa905ee9dc10b46bd758","683db6dfa200031b80f2a654","68650783f098e34caa7cee1e","6814aa905ee9dc10b46bd758","2025-07-02T10:56:48.501Z","","","","","","StressQ","","","","","","","","","","","","","","","","","","","","","","","","","","","","","","","","","","","","","","50"
"6980","","<div style=""width:500px;"">
  <p>What best describes how you currently feel?</p>
  </div>","63","html-slider-response","68","975236","0.0-10.0-4.3","210","1","2025-07-02 10:40:37","80fe4187154257d5fb01684ea91b68b9","41.122.216.36","Mozilla/5.0 (Windows NT 10.0; Win64; x64) AppleWebKit/537.36 (KHTML, like Gecko) Chrome/137.0.0.0 Safari/537.36","WebKit","Chrome","137.0.0.0","Windows","10.0","https://app.prolific.com/","en-US,en;q=0.9","6814aa905ee9dc10b46bd758","683db6dfa200031b80f2a654","68650783f098e34caa7cee1e","6814aa905ee9dc10b46bd758","2025-07-02T10:56:55.482Z","","","","","","MotivationQ","","","","","","","","","","","","","","","","","","","","","","","","","","","","","","","","","","","","","","50"
"","","","","ctl-task-cpt","69","1014208","0.0-10.0-0.4","210","1","2025-07-02 10:40:37","80fe4187154257d5fb01684ea91b68b9","41.122.216.36","Mozilla/5.0 (Windows NT 10.0; Win64; x64) AppleWebKit/537.36 (KHTML, like Gecko) Chrome/137.0.0.0 Safari/537.36","WebKit","Chrome","137.0.0.0","Windows","10.0","https://app.prolific.com/","en-US,en;q=0.9","6814aa905ee9dc10b46bd758","683db6dfa200031b80f2a654","68650783f098e34caa7cee1e","6814aa905ee9dc10b46bd758","2025-07-02T10:57:34.454Z","","","","","","","","","","","","","","","","win-only","0","g1:NW,g2:SE","0.6","5","0","978760.9","2919.9","7921.7","35949.4","1","4","8","6","2","-8","-8","0","1","0","5001.8","3000","-1645","[""down"",""right""]","{""num_key_presses"":6,""num_perfect"":2,""num_errors"":0,""num_randdir"":4,""num_randdir_good_moves"":3,""num_whilered"":0,""num_whileblue"":0,""num_blue"":2,""num_good_moves"":5}","[413.57142857142856,410.1808016640799,0.4,413.57142857142856,410.1808016640799,108.1,413.57142857142856,410.1808016640799,214,413.57142857142856,410.1808016640799,323.7,413.57142857142856,410.1808016640799,426.7,413.57142857142856,410.1808016640799,540.8,413.57142857142856,410.1808016640799,647.1,382.07142857142856,443.1808016640799,774.8,344.57142857142856,417.6808016640799,881,331.07142857142856,380.1808016640799,990.4,335.57142857142856,362.1808016640799,1105.8,335.57142857142856,362.1808016640799,1207.2,335.57142857142856,362.1808016640799,1313.4,335.57142857142856,362.1808016640799,1420.3,335.57142857142856,362.1808016640799,1521.3,350.57142857142856,336.6808016640799,1622,344.57142857142856,336.6808016640799,1754.4,334.07142857142856,350.1808016640799,1857.6,341.57142857142856,350.1808016640799,1960.8,346.07142857142856,347.1808016640799,2066.7,346.07142857142856,347.1808016640799,2173.2,346.07142857142856,347.1808016640799,2276.7,346.07142857142856,347.1808016640799,2393.4,346.07142857142856,347.1808016640799,2502.1,346.07142857142856,347.1808016640799,2606.4,346.07142857142856,347.1808016640799,2733.1,346.07142857142856,347.1808016640799,2861.6,346.07142857142856,347.1808016640799,2982.6,346.07142857142856,347.1808016640799,3087,346.07142857142856,347.1808016640799,3190.8,346.07142857142856,347.1808016640799,3291.9,346.07142857142856,347.1808016640799,3398.2,346.07142857142856,347.1808016640799,3504.5,346.07142857142856,347.1808016640799,3606.4,346.07142857142856,347.1808016640799,3711.7,346.07142857142856,347.1808016640799,3811.8,346.07142857142856,347.1808016640799,3915.5,346.07142857142856,347.1808016640799,4021.2,346.07142857142856,347.1808016640799,4127.8,346.07142857142856,347.1808016640799,4228.8,346.07142857142856,347.1808016640799,4343.3,346.07142857142856,347.1808016640799,4451.2,346.07142857142856,347.1808016640799,4570.7,346.07142857142856,347.1808016640799,4685.1,346.07142857142856,347.1808016640799,4807,346.07142857142856,347.1808016640799,4919.6]","[2392.9,2392.9,1000,0,1392.9,""oops"",""down"",""down"",""good_move"",8672.4,6277.4,2054.3,6156.3,461.8,""oops"",""right"",""down"",""good_move"",11783.4,3110.5,1985.3,8672.9,1125.2,""oops"",""right"",""up"",""bad_move"",14788,3003.9,2083.9,11784.1,920,""smooth"",""right"",""right"",""good_move"",17953,3164.4,2646.2,14788.6,518.2,""smooth"",""right"",""right"",""good_move"",24564.6,6611.3,2648.5,21311.9,604.2,""oops"",""right"",""down"",""good_move""]","",""
"67007","","<div style=""width:500px;"">
  <p>What determined the result of this run?</p>
  </div>","61","html-slider-response","70","1081217","0.0-10.0-1.4","210","1","2025-07-02 10:40:37","80fe4187154257d5fb01684ea91b68b9","41.122.216.36","Mozilla/5.0 (Windows NT 10.0; Win64; x64) AppleWebKit/537.36 (KHTML, like Gecko) Chrome/137.0.0.0 Safari/537.36","WebKit","Chrome","137.0.0.0","Windows","10.0","https://app.prolific.com/","en-US,en;q=0.9","6814aa905ee9dc10b46bd758","683db6dfa200031b80f2a654","68650783f098e34caa7cee1e","6814aa905ee9dc10b46bd758","2025-07-02T10:58:41.464Z","","","","","","AttribQ","","","","","","","","","","","","","","","","","","","","","","","","","","","","","","","","","","","","","","50"
"23895","","<div style=""width:500px;"">
  <p>How much control did you have over the ball?</p>
  </div>","63","html-slider-response","71","1105117","0.0-10.0-2.4","210","1","2025-07-02 10:40:37","80fe4187154257d5fb01684ea91b68b9","41.122.216.36","Mozilla/5.0 (Windows NT 10.0; Win64; x64) AppleWebKit/537.36 (KHTML, like Gecko) Chrome/137.0.0.0 Safari/537.36","WebKit","Chrome","137.0.0.0","Windows","10.0","https://app.prolific.com/","en-US,en;q=0.9","6814aa905ee9dc10b46bd758","683db6dfa200031b80f2a654","68650783f098e34caa7cee1e","6814aa905ee9dc10b46bd758","2025-07-02T10:59:05.363Z","","","","","","ControlQ","","","","","","","","","","","","","","","","","","","","","","","","","","","","","","","","","","","","","","50"
"17874","","<div style=""width:500px;"">
  <p>How would you describe your current emotional state?</p>
  </div>","31","html-slider-response","72","1122996","0.0-10.0-3.4","210","1","2025-07-02 10:40:37","80fe4187154257d5fb01684ea91b68b9","41.122.216.36","Mozilla/5.0 (Windows NT 10.0; Win64; x64) AppleWebKit/537.36 (KHTML, like Gecko) Chrome/137.0.0.0 Safari/537.36","WebKit","Chrome","137.0.0.0","Windows","10.0","https://app.prolific.com/","en-US,en;q=0.9","6814aa905ee9dc10b46bd758","683db6dfa200031b80f2a654","68650783f098e34caa7cee1e","6814aa905ee9dc10b46bd758","2025-07-02T10:59:23.244Z","","","","","","StressQ","","","","","","","","","","","","","","","","","","","","","","","","","","","","","","","","","","","","","","50"
"5627","","<div style=""width:500px;"">
  <p>What best describes how you currently feel?</p>
  </div>","73","html-slider-response","73","1128632","0.0-10.0-4.4","210","1","2025-07-02 10:40:37","80fe4187154257d5fb01684ea91b68b9","41.122.216.36","Mozilla/5.0 (Windows NT 10.0; Win64; x64) AppleWebKit/537.36 (KHTML, like Gecko) Chrome/137.0.0.0 Safari/537.36","WebKit","Chrome","137.0.0.0","Windows","10.0","https://app.prolific.com/","en-US,en;q=0.9","6814aa905ee9dc10b46bd758","683db6dfa200031b80f2a654","68650783f098e34caa7cee1e","6814aa905ee9dc10b46bd758","2025-07-02T10:59:28.878Z","","","","","","MotivationQ","","","","","","","","","","","","","","","","","","","","","","","","","","","","","","","","","","","","","","50"
"","","","","ctl-task-cpt","74","1176943","0.0-10.0-0.5","210","1","2025-07-02 10:40:37","80fe4187154257d5fb01684ea91b68b9","41.122.216.36","Mozilla/5.0 (Windows NT 10.0; Win64; x64) AppleWebKit/537.36 (KHTML, like Gecko) Chrome/137.0.0.0 Safari/537.36","WebKit","Chrome","137.0.0.0","Windows","10.0","https://app.prolific.com/","en-US,en;q=0.9","6814aa905ee9dc10b46bd758","683db6dfa200031b80f2a654","68650783f098e34caa7cee1e","6814aa905ee9dc10b46bd758","2025-07-02T11:00:17.189Z","","","","","","","","","","","","","","","","win-only","2","g1:SE,g2:NW","0.5","6","0","1132156.8","2336.2","7352.1","45298.8","1","4","4","6","1","1","0","0","0","0","5015.9","3000","145","[""down"",""right""]","{""num_key_presses"":10,""num_perfect"":4,""num_errors"":1,""num_randdir"":5,""num_randdir_good_moves"":2,""num_whilered"":0,""num_whileblue"":1,""num_blue"":3,""num_good_moves"":7}","[413.57142857142856,428.1808016640799,1.1,413.57142857142856,428.1808016640799,110.3,413.57142857142856,428.1808016640799,211.3,413.57142857142856,428.1808016640799,318.4,413.57142857142856,428.1808016640799,423.2,413.57142857142856,428.1808016640799,528.1,413.57142857142856,428.1808016640799,631.7,413.57142857142856,428.1808016640799,741.2,413.57142857142856,428.1808016640799,868.5,413.57142857142856,428.1808016640799,968.8,413.57142857142856,428.1808016640799,1087.1,413.57142857142856,428.1808016640799,1195.3,413.57142857142856,428.1808016640799,1299.8,413.57142857142856,428.1808016640799,1401.1,413.57142857142856,428.1808016640799,1525.4,413.57142857142856,428.1808016640799,1648.6,413.57142857142856,428.1808016640799,1751.1,413.57142857142856,428.1808016640799,1856.9,413.57142857142856,428.1808016640799,1990.5,413.57142857142856,428.1808016640799,2095.5,413.57142857142856,428.1808016640799,2201.3,413.57142857142856,428.1808016640799,2302.9,413.57142857142856,428.1808016640799,2415.1,413.57142857142856,428.1808016640799,2552.5,413.57142857142856,428.1808016640799,2674.3,413.57142857142856,428.1808016640799,2786,443.57142857142856,387.6808016640799,2911.6,467.57142857142856,374.1808016640799,3030.6,502.07142857142856,395.1808016640799,3140.4,505.07142857142856,444.6808016640799,3245.5,494.57142857142856,479.1808016640799,3385.6,488.57142857142856,494.1808016640799,3509.7,488.57142857142856,494.1808016640799,3645.7,488.57142857142856,494.1808016640799,3768.9,488.57142857142856,494.1808016640799,3871,488.57142857142856,494.1808016640799,3974.8,488.57142857142856,494.1808016640799,4088.9,488.57142857142856,494.1808016640799,4213,488.57142857142856,494.1808016640799,4315.3,488.57142857142856,494.1808016640799,4415.4,488.57142857142856,494.1808016640799,4555.9,488.57142857142856,494.1808016640799,4682.9,488.57142857142856,494.1808016640799,4785,488.57142857142856,494.1808016640799,4914.6]","[1576.9,1576.9,1000,0,576.9,""oops"",""up"",""up"",""bad_move"",5393.5,3814.4,2541,1579.1,1273.4,""oops"",""right"",""right"",""good_move"",8434.9,3040.1,2014.2,5394.9,1025.8,""oops"",""down"",""up"",""bad_move"",15686.7,7251.3,3094.9,12104.4,487.4,""while_blue"",""right"",""right"",""good_move"",18998.9,3311.7,2307.4,15687.2,1004.3,""oops"",""down"",""down"",""good_move"",21652.9,2653.5,2150.9,18999.5,502.5,""smooth"",""down"",""down"",""good_move"",24470.3,2816.8,2364.5,21653.5,452.3,""smooth"",""down"",""down"",""good_move"",31697.1,7226.2,2479.8,28745.6,471.7,""oops"",""down"",""left"",""bad_move"",34468.1,2770.4,2165.6,31697.7,604.8,""smooth"",""right"",""right"",""good_move"",37746.4,3277.5,2783.4,34468.9,494.1,""smooth"",""down"",""down"",""good_move""]","",""
"4387","","<div style=""width:500px;"">
  <p>What determined the result of this run?</p>
  </div>","76","html-slider-response","75","1181334","0.0-10.0-1.5","210","1","2025-07-02 10:40:37","80fe4187154257d5fb01684ea91b68b9","41.122.216.36","Mozilla/5.0 (Windows NT 10.0; Win64; x64) AppleWebKit/537.36 (KHTML, like Gecko) Chrome/137.0.0.0 Safari/537.36","WebKit","Chrome","137.0.0.0","Windows","10.0","https://app.prolific.com/","en-US,en;q=0.9","6814aa905ee9dc10b46bd758","683db6dfa200031b80f2a654","68650783f098e34caa7cee1e","6814aa905ee9dc10b46bd758","2025-07-02T11:00:21.580Z","","","","","","AttribQ","","","","","","","","","","","","","","","","","","","","","","","","","","","","","","","","","","","","","","50"
"3709","","<div style=""width:500px;"">
  <p>How much control did you have over the ball?</p>
  </div>","79","html-slider-response","76","1185050","0.0-10.0-2.5","210","1","2025-07-02 10:40:37","80fe4187154257d5fb01684ea91b68b9","41.122.216.36","Mozilla/5.0 (Windows NT 10.0; Win64; x64) AppleWebKit/537.36 (KHTML, like Gecko) Chrome/137.0.0.0 Safari/537.36","WebKit","Chrome","137.0.0.0","Windows","10.0","https://app.prolific.com/","en-US,en;q=0.9","6814aa905ee9dc10b46bd758","683db6dfa200031b80f2a654","68650783f098e34caa7cee1e","6814aa905ee9dc10b46bd758","2025-07-02T11:00:25.296Z","","","","","","ControlQ","","","","","","","","","","","","","","","","","","","","","","","","","","","","","","","","","","","","","","50"
"3054","","<div style=""width:500px;"">
  <p>How would you describe your current emotional state?</p>
  </div>","80","html-slider-response","77","1188106","0.0-10.0-3.5","210","1","2025-07-02 10:40:37","80fe4187154257d5fb01684ea91b68b9","41.122.216.36","Mozilla/5.0 (Windows NT 10.0; Win64; x64) AppleWebKit/537.36 (KHTML, like Gecko) Chrome/137.0.0.0 Safari/537.36","WebKit","Chrome","137.0.0.0","Windows","10.0","https://app.prolific.com/","en-US,en;q=0.9","6814aa905ee9dc10b46bd758","683db6dfa200031b80f2a654","68650783f098e34caa7cee1e","6814aa905ee9dc10b46bd758","2025-07-02T11:00:28.352Z","","","","","","StressQ","","","","","","","","","","","","","","","","","","","","","","","","","","","","","","","","","","","","","","50"
"3955","","<div style=""width:500px;"">
  <p>What best describes how you currently feel?</p>
  </div>","80","html-slider-response","78","1192064","0.0-10.0-4.5","210","1","2025-07-02 10:40:37","80fe4187154257d5fb01684ea91b68b9","41.122.216.36","Mozilla/5.0 (Windows NT 10.0; Win64; x64) AppleWebKit/537.36 (KHTML, like Gecko) Chrome/137.0.0.0 Safari/537.36","WebKit","Chrome","137.0.0.0","Windows","10.0","https://app.prolific.com/","en-US,en;q=0.9","6814aa905ee9dc10b46bd758","683db6dfa200031b80f2a654","68650783f098e34caa7cee1e","6814aa905ee9dc10b46bd758","2025-07-02T11:00:32.310Z","","","","","","MotivationQ","","","","","","","","","","","","","","","","","","","","","","","","","","","","","","","","","","","","","","50"
"","","","","ctl-task-cpt","79","1225465","0.0-10.0-0.6","210","1","2025-07-02 10:40:37","80fe4187154257d5fb01684ea91b68b9","41.122.216.36","Mozilla/5.0 (Windows NT 10.0; Win64; x64) AppleWebKit/537.36 (KHTML, like Gecko) Chrome/137.0.0.0 Safari/537.36","WebKit","Chrome","137.0.0.0","Windows","10.0","https://app.prolific.com/","en-US,en;q=0.9","6814aa905ee9dc10b46bd758","683db6dfa200031b80f2a654","68650783f098e34caa7cee1e","6814aa905ee9dc10b46bd758","2025-07-02T11:01:05.711Z","","","","","","","","","","","","","","","","win-only","3","g1:SW,g2:NE","0.4","7","0","1195589.6","2813","7817.8","30374.3","1","4","4","6","1","-1","-1","0","0","0","5004.8","3000","-1375","[""down"",""left""]","{""num_key_presses"":6,""num_perfect"":3,""num_errors"":0,""num_randdir"":3,""num_randdir_good_moves"":1,""num_whilered"":0,""num_whileblue"":0,""num_blue"":0,""num_good_moves"":4}","[413.57142857142856,423.6808016640799,0.4,413.57142857142856,423.6808016640799,104.7,413.57142857142856,423.6808016640799,208.1,413.57142857142856,423.6808016640799,311.5,413.57142857142856,423.6808016640799,454.2,413.57142857142856,423.6808016640799,575,413.57142857142856,423.6808016640799,677.1,413.57142857142856,423.6808016640799,777.3,416.57142857142856,419.1808016640799,891.7,425.57142857142856,410.1808016640799,1005.4,383.57142857142856,417.6808016640799,1142,359.57142857142856,443.1808016640799,1248.5,371.57142857142856,473.1808016640799,1356.3,416.57142857142856,455.1808016640799,1473.1,425.57142857142856,446.1808016640799,1595.2,413.57142857142856,429.6808016640799,1701.5,398.57142857142856,410.1808016640799,1802.3,388.07142857142856,393.6808016640799,1923.8,397.07142857142856,389.1808016640799,2041.7,391.07142857142856,431.1808016640799,2144.9,380.57142857142856,443.1808016640799,2256,380.57142857142856,443.1808016640799,2356.5,380.57142857142856,443.1808016640799,2458.6,380.57142857142856,443.1808016640799,2571.2,397.07142857142856,441.6808016640799,2677.7,383.57142857142856,476.1808016640799,2802.4,353.57142857142856,489.6808016640799,2903.6,346.07142857142856,494.1808016640799,3015.2,346.07142857142856,494.1808016640799,3142.6,346.07142857142856,494.1808016640799,3247.6,346.07142857142856,494.1808016640799,4353.8,346.07142857142856,494.1808016640799,4457.5,346.07142857142856,494.1808016640799,4559.5,346.07142857142856,494.1808016640799,4662.7,346.07142857142856,494.1808016640799,4763.7,346.07142857142856,494.1808016640799,4867.1,346.07142857142856,494.1808016640799,4983.5]","[3232.7,3232.7,1000,0,2232.7,""smooth"",""down"",""down"",""good_move"",6101.2,2867.7,2103.1,3233.5,764.6,""oops"",""down"",""right"",""bad_move"",9684.7,3582.9,2979.9,6101.9,603,""smooth"",""left"",""left"",""good_move"",12646.5,2961.3,1692.9,9685.2,1268.4,""oops"",""left"",""up"",""bad_move"",16389.7,3741.8,2855.9,12647.9,885.9,""smooth"",""down"",""down"",""good_move"",19147.2,2757,1582.6,16390.2,1174.4,""oops"",""down"",""left"",""good_move""]","",""
"61810","","<div style=""width:500px;"">
  <p>What determined the result of this run?</p>
  </div>","62","html-slider-response","80","1287279","0.0-10.0-1.6","210","1","2025-07-02 10:40:37","80fe4187154257d5fb01684ea91b68b9","41.122.216.36","Mozilla/5.0 (Windows NT 10.0; Win64; x64) AppleWebKit/537.36 (KHTML, like Gecko) Chrome/137.0.0.0 Safari/537.36","WebKit","Chrome","137.0.0.0","Windows","10.0","https://app.prolific.com/","en-US,en;q=0.9","6814aa905ee9dc10b46bd758","683db6dfa200031b80f2a654","68650783f098e34caa7cee1e","6814aa905ee9dc10b46bd758","2025-07-02T11:02:07.525Z","","","","","","AttribQ","","","","","","","","","","","","","","","","","","","","","","","","","","","","","","","","","","","","","","50"
"10916","","<div style=""width:500px;"">
  <p>How much control did you have over the ball?</p>
  </div>","38","html-slider-response","81","1298205","0.0-10.0-2.6","210","1","2025-07-02 10:40:37","80fe4187154257d5fb01684ea91b68b9","41.122.216.36","Mozilla/5.0 (Windows NT 10.0; Win64; x64) AppleWebKit/537.36 (KHTML, like Gecko) Chrome/137.0.0.0 Safari/537.36","WebKit","Chrome","137.0.0.0","Windows","10.0","https://app.prolific.com/","en-US,en;q=0.9","6814aa905ee9dc10b46bd758","683db6dfa200031b80f2a654","68650783f098e34caa7cee1e","6814aa905ee9dc10b46bd758","2025-07-02T11:02:18.451Z","","","","","","ControlQ","","","","","","","","","","","","","","","","","","","","","","","","","","","","","","","","","","","","","","50"
"6238","","<div style=""width:500px;"">
  <p>How would you describe your current emotional state?</p>
  </div>","57","html-slider-response","82","1304446","0.0-10.0-3.6","210","1","2025-07-02 10:40:37","80fe4187154257d5fb01684ea91b68b9","41.122.216.36","Mozilla/5.0 (Windows NT 10.0; Win64; x64) AppleWebKit/537.36 (KHTML, like Gecko) Chrome/137.0.0.0 Safari/537.36","WebKit","Chrome","137.0.0.0","Windows","10.0","https://app.prolific.com/","en-US,en;q=0.9","6814aa905ee9dc10b46bd758","683db6dfa200031b80f2a654","68650783f098e34caa7cee1e","6814aa905ee9dc10b46bd758","2025-07-02T11:02:24.692Z","","","","","","StressQ","","","","","","","","","","","","","","","","","","","","","","","","","","","","","","","","","","","","","","50"
"4045","","<div style=""width:500px;"">
  <p>What best describes how you currently feel?</p>
  </div>","43","html-slider-response","83","1308494","0.0-10.0-4.6","210","1","2025-07-02 10:40:37","80fe4187154257d5fb01684ea91b68b9","41.122.216.36","Mozilla/5.0 (Windows NT 10.0; Win64; x64) AppleWebKit/537.36 (KHTML, like Gecko) Chrome/137.0.0.0 Safari/537.36","WebKit","Chrome","137.0.0.0","Windows","10.0","https://app.prolific.com/","en-US,en;q=0.9","6814aa905ee9dc10b46bd758","683db6dfa200031b80f2a654","68650783f098e34caa7cee1e","6814aa905ee9dc10b46bd758","2025-07-02T11:02:28.740Z","","","","","","MotivationQ","","","","","","","","","","","","","","","","","","","","","","","","","","","","","","","","","","","","","","50"
"","","","","ctl-task-cpt","84","1340702","0.0-10.0-0.7","210","1","2025-07-02 10:40:37","80fe4187154257d5fb01684ea91b68b9","41.122.216.36","Mozilla/5.0 (Windows NT 10.0; Win64; x64) AppleWebKit/537.36 (KHTML, like Gecko) Chrome/137.0.0.0 Safari/537.36","WebKit","Chrome","137.0.0.0","Windows","10.0","https://app.prolific.com/","en-US,en;q=0.9","6814aa905ee9dc10b46bd758","683db6dfa200031b80f2a654","68650783f098e34caa7cee1e","6814aa905ee9dc10b46bd758","2025-07-02T11:03:00.948Z","","","","","","","","","","","","","","","","win-only","2","g1:SE,g2:NW","0.3","8","0","1312023.5","14864.7","19871.5","29175","1","4","8","6","1","-1","-1","0","0","0","5006.8","3000","-990","[""down"",""right""]","{""num_key_presses"":0,""num_perfect"":0,""num_errors"":0,""num_randdir"":0,""num_randdir_good_moves"":0,""num_whilered"":0,""num_whileblue"":0,""num_blue"":0,""num_good_moves"":0}","[413.57142857142856,413.1808016640799,0.3,413.57142857142856,413.1808016640799,102.4,413.57142857142856,413.1808016640799,224.6,413.57142857142856,413.1808016640799,329.2,413.57142857142856,413.1808016640799,433.6,413.57142857142856,413.1808016640799,561.6,413.57142857142856,413.1808016640799,688.3,457.07142857142856,431.1808016640799,812.4,475.07142857142856,482.1808016640799,949.5,452.57142857142856,482.1808016640799,1053.8,412.07142857142856,407.1808016640799,1170.5,410.57142857142856,372.6808016640799,1343.4,455.57142857142856,408.6808016640799,1452.8,458.57142857142856,443.1808016640799,1559.6,428.57142857142856,434.1808016640799,1714.8,451.07142857142856,428.1808016640799,1843.6,476.57142857142856,458.1808016640799,1953.3,476.57142857142856,471.6808016640799,2055.9,425.57142857142856,452.1808016640799,2179.2,418.07142857142856,432.6808016640799,2283.2,425.57142857142856,422.1808016640799,2388.6,458.57142857142856,455.1808016640799,2493.5,443.57142857142856,459.6808016640799,2650.7,422.57142857142856,432.6808016640799,2790,443.57142857142856,435.6808016640799,2903.2,466.07142857142856,458.1808016640799,3007.1,469.07142857142856,467.1808016640799,3109.8,443.57142857142856,452.1808016640799,3238.8,439.07142857142856,441.6808016640799,3360.3,440.57142857142856,431.1808016640799,3466.6,466.07142857142856,444.6808016640799,3615.9,457.07142857142856,458.1808016640799,3742.7,428.57142857142856,444.6808016640799,3842.7,416.57142857142856,416.1808016640799,3942.9,421.07142857142856,407.1808016640799,4043,457.07142857142856,431.1808016640799,4152.3,446.57142857142856,438.6808016640799,4252.8,428.57142857142856,423.6808016640799,4355.9,431.57142857142856,422.1808016640799,4468.3,467.57142857142856,449.1808016640799,4572,457.07142857142856,467.1808016640799,4712.9,431.57142857142856,449.1808016640799,4840.6,431.57142857142856,446.1808016640799,4972.1]","[]","",""