"rt","response_timestamp","stimulus","response","trial_type","trial_index","time_elapsed","internal_node_id","run_id","condition","recorded_at","source_code_version","ip","user_agent","device","browser","browser_version","platform","platform_version","referer","accept_language","PROLIFIC_PID","STUDY_ID","SESSION_ID","prolific_id","realtime","view_history","question_order","consent","success","question_id","eventType","responses","item_order","radio_event_ids","radio_event_times","key_event_times","mouse_event_times","straightlining","zigzagging","honeypot","which_type","canvas_config","goals_layout","control_level","trial_number","tutorial_trial_number","trial_start_time","phase1_start_time","phase2_start_time","phase3_start_time","goal_1_value","goal_1_distance","goal_2_value","goal_2_distance","goal_selected","outcome","outcome_total","participant_final_score","participant_initial_score","participant_final_score_prop","goal_choice_rt","allocated_time","allocated_time_remaining","goal_direction","counts","mouse_movements","key_presses","correct","slider_start"
"8753","1751453120801","<p style='font-size:40px;line-height:1.25'><strong>Welcome to the experiment!</strong></p><p style='font-size:1.1em;line-height:1.25'>Thank you for your interest in our experiment! Before you begin, it is important that we obtain your informed consent to participate in the study.</p><p style='font-size:1.1em;line-height:1.25'>On the next screen will be an <strong>information sheet</strong> for you to read. To participate in the study we need you to read this information sheet and the following consent form carefully. If you agree with all the statements, please click the <strong>I agree</strong> button.</p><p style='font-size:1.1em;line-height:1.25'>Press <strong>Next</strong> to read the information sheet.</p>","0","custom-html-button-response","0","8756","0.0-0.0","211","1","2025-07-02 10:45:10","80fe4187154257d5fb01684ea91b68b9","103.104.20.12","Mozilla/5.0 (Windows NT 10.0; Win64; x64) AppleWebKit/537.36 (KHTML, like Gecko) Chrome/129.0.0.0 Safari/537.36","WebKit","Chrome","129.0.0.0","Windows","10.0","https://app.prolific.com/","en-US,en;q=0.9","6818badffc8546af8aa3fec9","683db6dfa200031b80f2a654","68650755f02e1ac54934d329","6818badffc8546af8aa3fec9","2025-07-02T10:45:20.803Z","","","","","","","","","","","","","","","","","","","","","","","","","","","","","","","","","","","","","","","","","","","",""
"2460","","","","instructions","1","11218","0.0-1.0","211","1","2025-07-02 10:45:10","80fe4187154257d5fb01684ea91b68b9","103.104.20.12","Mozilla/5.0 (Windows NT 10.0; Win64; x64) AppleWebKit/537.36 (KHTML, like Gecko) Chrome/129.0.0.0 Safari/537.36","WebKit","Chrome","129.0.0.0","Windows","10.0","https://app.prolific.com/","en-US,en;q=0.9","6818badffc8546af8aa3fec9","683db6dfa200031b80f2a654","68650755f02e1ac54934d329","6818badffc8546af8aa3fec9","","[{""page_index"":0,""viewing_time"":1865},{""page_index"":1,""viewing_time"":594}]","","","","","","","","","","","","","","","","","","","","","","","","","","","","","","","","","","","","","","","","","","",""
"2285","","","{""Q0"":"""",""Q1"":"""",""Q2"":"""",""Q3"":"""",""Q4"":"""",""Q5"":"""",""Q6"":""I agree""}","survey-multi-choice","2","13507","0.0-2.0","211","1","2025-07-02 10:45:10","80fe4187154257d5fb01684ea91b68b9","103.104.20.12","Mozilla/5.0 (Windows NT 10.0; Win64; x64) AppleWebKit/537.36 (KHTML, like Gecko) Chrome/129.0.0.0 Safari/537.36","WebKit","Chrome","129.0.0.0","Windows","10.0","https://app.prolific.com/","en-US,en;q=0.9","6818badffc8546af8aa3fec9","683db6dfa200031b80f2a654","68650755f02e1ac54934d329","6818badffc8546af8aa3fec9","","","[0,1,2,3,4,5,6]","true","","","","","","","","","","","","","","","","","","","","","","","","","","","","","","","","","","","","","","","","",""
"1949","","","","fullscreen","3","16466","0.0-4.0","211","1","2025-07-02 10:45:10","80fe4187154257d5fb01684ea91b68b9","103.104.20.12","Mozilla/5.0 (Windows NT 10.0; Win64; x64) AppleWebKit/537.36 (KHTML, like Gecko) Chrome/129.0.0.0 Safari/537.36","WebKit","Chrome","129.0.0.0","Windows","10.0","https://app.prolific.com/","en-US,en;q=0.9","6818badffc8546af8aa3fec9","683db6dfa200031b80f2a654","68650755f02e1ac54934d329","6818badffc8546af8aa3fec9","","","","","true","","","","","","","","","","","","","","","","","","","","","","","","","","","","","","","","","","","","","","","",""
"1110","1751453129623"," <p style='font-size:1.1em;line-height:1.25'>Thank you for completing the consent form and closing all other tabs.</p><p style='font-size:1.1em;line-height:1.25'>We will now invite you to fill in some demographic information and questionnaires, before starting the game.<br>This will take about 5 minutes.<br></p><p style='font-size:1.1em;line-height:1.25'>Press the <strong>Next</strong> button to continue.</p>","0","custom-html-button-response","4","17577","0.0-5.0","211","1","2025-07-02 10:45:10","80fe4187154257d5fb01684ea91b68b9","103.104.20.12","Mozilla/5.0 (Windows NT 10.0; Win64; x64) AppleWebKit/537.36 (KHTML, like Gecko) Chrome/129.0.0.0 Safari/537.36","WebKit","Chrome","129.0.0.0","Windows","10.0","https://app.prolific.com/","en-US,en;q=0.9","6818badffc8546af8aa3fec9","683db6dfa200031b80f2a654","68650755f02e1ac54934d329","6818badffc8546af8aa3fec9","2025-07-02T10:45:29.624Z","","","","","","","","","","","","","","","","","","","","","","","","","","","","","","","","","","","","","","","","","","","",""
"1401","","","{""age"":""32""}","survey-text","5","18985","0.0-6.0-0.0","211","1","2025-07-02 10:45:10","80fe4187154257d5fb01684ea91b68b9","103.104.20.12","Mozilla/5.0 (Windows NT 10.0; Win64; x64) AppleWebKit/537.36 (KHTML, like Gecko) Chrome/129.0.0.0 Safari/537.36","WebKit","Chrome","129.0.0.0","Windows","10.0","https://app.prolific.com/","en-US,en;q=0.9","6818badffc8546af8aa3fec9","683db6dfa200031b80f2a654","68650755f02e1ac54934d329","6818badffc8546af8aa3fec9","","","","","","0","demographics","","","","","","","","","","","","","","","","","","","","","","","","","","","","","","","","","","","","","",""
"1262","","","{""gender_identity"":""male/man""}","survey-multi-choice","6","20248","0.0-6.0-1.0","211","1","2025-07-02 10:45:10","80fe4187154257d5fb01684ea91b68b9","103.104.20.12","Mozilla/5.0 (Windows NT 10.0; Win64; x64) AppleWebKit/537.36 (KHTML, like Gecko) Chrome/129.0.0.0 Safari/537.36","WebKit","Chrome","129.0.0.0","Windows","10.0","https://app.prolific.com/","en-US,en;q=0.9","6818badffc8546af8aa3fec9","683db6dfa200031b80f2a654","68650755f02e1ac54934d329","6818badffc8546af8aa3fec9","","","[0]","","","1","demographics","","","","","","","","","","","","","","","","","","","","","","","","","","","","","","","","","","","","","",""
"2619","","","{""assigned_sex"":""male""}","survey-multi-choice","7","22871","0.0-6.0-2.0","211","1","2025-07-02 10:45:10","80fe4187154257d5fb01684ea91b68b9","103.104.20.12","Mozilla/5.0 (Windows NT 10.0; Win64; x64) AppleWebKit/537.36 (KHTML, like Gecko) Chrome/129.0.0.0 Safari/537.36","WebKit","Chrome","129.0.0.0","Windows","10.0","https://app.prolific.com/","en-US,en;q=0.9","6818badffc8546af8aa3fec9","683db6dfa200031b80f2a654","68650755f02e1ac54934d329","6818badffc8546af8aa3fec9","","","[0]","","","2","demographics","","","","","","","","","","","","","","","","","","","","","","","","","","","","","","","","","","","","","",""
"2283","","","{""menstrual_cycle"":""No""}","survey-multi-choice","8","25158","0.0-6.0-3.0","211","1","2025-07-02 10:45:10","80fe4187154257d5fb01684ea91b68b9","103.104.20.12","Mozilla/5.0 (Windows NT 10.0; Win64; x64) AppleWebKit/537.36 (KHTML, like Gecko) Chrome/129.0.0.0 Safari/537.36","WebKit","Chrome","129.0.0.0","Windows","10.0","https://app.prolific.com/","en-US,en;q=0.9","6818badffc8546af8aa3fec9","683db6dfa200031b80f2a654","68650755f02e1ac54934d329","6818badffc8546af8aa3fec9","","","[0]","","","4","demographics","","","","","","","","","","","","","","","","","","","","","","","","","","","","","","","","","","","","","",""
"3770","","","{""education"":""Doctoral Degree (e.g., PhD)""}","survey-multi-choice","9","28933","0.0-6.0-4.0","211","1","2025-07-02 10:45:10","80fe4187154257d5fb01684ea91b68b9","103.104.20.12","Mozilla/5.0 (Windows NT 10.0; Win64; x64) AppleWebKit/537.36 (KHTML, like Gecko) Chrome/129.0.0.0 Safari/537.36","WebKit","Chrome","129.0.0.0","Windows","10.0","https://app.prolific.com/","en-US,en;q=0.9","6818badffc8546af8aa3fec9","683db6dfa200031b80f2a654","68650755f02e1ac54934d329","6818badffc8546af8aa3fec9","","","[0]","","","5","demographics","","","","","","","","","","","","","","","","","","","","","","","","","","","","","","","","","","","","","",""
"1804","","","{""education"":""Doctoral Degree (e.g., PhD)""}","survey-multi-choice","10","30741","0.0-6.0-5.0","211","1","2025-07-02 10:45:10","80fe4187154257d5fb01684ea91b68b9","103.104.20.12","Mozilla/5.0 (Windows NT 10.0; Win64; x64) AppleWebKit/537.36 (KHTML, like Gecko) Chrome/129.0.0.0 Safari/537.36","WebKit","Chrome","129.0.0.0","Windows","10.0","https://app.prolific.com/","en-US,en;q=0.9","6818badffc8546af8aa3fec9","683db6dfa200031b80f2a654","68650755f02e1ac54934d329","6818badffc8546af8aa3fec9","2025-07-02T10:45:42.787Z","","[0]","","","6","demographics","","","","","","","","","","","","","","","","","","","","","","","","","","","","","","","","","","","","","",""
"4215","","","{""mental_health_condition"":""no"",""mental_health_treatment"":""no"",""psychiatric_medication"":""no""}","survey-text","11","34961","0.0-7.0-0.0","211","1","2025-07-02 10:45:10","80fe4187154257d5fb01684ea91b68b9","103.104.20.12","Mozilla/5.0 (Windows NT 10.0; Win64; x64) AppleWebKit/537.36 (KHTML, like Gecko) Chrome/129.0.0.0 Safari/537.36","WebKit","Chrome","129.0.0.0","Windows","10.0","https://app.prolific.com/","en-US,en;q=0.9","6818badffc8546af8aa3fec9","683db6dfa200031b80f2a654","68650755f02e1ac54934d329","6818badffc8546af8aa3fec9","2025-07-02T10:45:47.007Z","","","","","1","mental_health","","","","","","","","","","","","","","","","","","","","","","","","","","","","","","","","","","","","","",""
"5386","","","{""depression_history"":[""No""]}","survey-multi-select","12","40349","0.0-7.0-1.0","211","1","2025-07-02 10:45:10","80fe4187154257d5fb01684ea91b68b9","103.104.20.12","Mozilla/5.0 (Windows NT 10.0; Win64; x64) AppleWebKit/537.36 (KHTML, like Gecko) Chrome/129.0.0.0 Safari/537.36","WebKit","Chrome","129.0.0.0","Windows","10.0","https://app.prolific.com/","en-US,en;q=0.9","6818badffc8546af8aa3fec9","683db6dfa200031b80f2a654","68650755f02e1ac54934d329","6818badffc8546af8aa3fec9","","","[0]","","","","mental_health","","","","","","","","","","","","","","","","","","","","","","","","","","","","","","","","","","","","","",""
"32674.09999999404","","","","survey-template","13","73030","0.0-7.0-3.0","211","1","2025-07-02 10:45:10","80fe4187154257d5fb01684ea91b68b9","103.104.20.12","Mozilla/5.0 (Windows NT 10.0; Win64; x64) AppleWebKit/537.36 (KHTML, like Gecko) Chrome/129.0.0.0 Safari/537.36","WebKit","Chrome","129.0.0.0","Windows","10.0","https://app.prolific.com/","en-US,en;q=0.9","6818badffc8546af8aa3fec9","683db6dfa200031b80f2a654","68650755f02e1ac54934d329","6818badffc8546af8aa3fec9","2025-07-02T10:46:25.076Z","","","","","","ius","{""Q01"":""1"",""Q02"":""1"",""Q03"":""0"",""Q04"":""0"",""Q05"":""0"",""Q06"":""0"",""Q07"":""0"",""Q08"":""0"",""Q09"":""1"",""Q10"":""0"",""Q11"":""0"",""Q12"":""2"",""Q13"":""0""}","[0,1,2,3,4,5,6,7,8,9,10,11,12]","[""Q01"",""Q02"",""Q03"",""Q04"",""Q05"",""Q05"",""Q06"",""Q06"",""Q07"",""Q08"",""Q09"",""Q09"",""Q10"",""Q11"",""Q12"",""Q13""]","[11527.09999999404,12848.700000017881,13816.300000011921,18755.40000000596,19582.5,19802.5,20655.30000001192,22100.30000001192,22653.40000000596,23721.20000001788,25809.30000001192,26783.59999999404,27809.40000000596,29069.5,30768.70000001788,32033.09999999404]","[]","[11527.09999999404,12848.700000017881,13816.300000011921,15409.700000017881,15913.5,17328.40000000596,17658.20000001788,17931,18480.20000001788,18755.40000000596,19098.5,19582.5,19802.5,20655.30000001192,21350.5,21711.09999999404,22100.30000001192,22653.40000000596,23721.20000001788,25809.30000001192,26783.59999999404,27809.40000000596,29069.5,30768.70000001788,32033.09999999404,32672.40000000596]","0.6923076923076923","0.25","0","","","","","","","","","","","","","","","","","","","","","","","","","","","","",""
"1325","1751453186405","<p style='font-size:1.1em;line-height:1.25'>In the following, we will ask you a few questions relating to your experiences over the past month.<br></p><p style='font-size:1.1em;line-height:1.25'>Press the <strong>Next</strong> button to continue.</p>","0","custom-html-button-response","14","74360","0.0-7.0-4.0","211","1","2025-07-02 10:45:10","80fe4187154257d5fb01684ea91b68b9","103.104.20.12","Mozilla/5.0 (Windows NT 10.0; Win64; x64) AppleWebKit/537.36 (KHTML, like Gecko) Chrome/129.0.0.0 Safari/537.36","WebKit","Chrome","129.0.0.0","Windows","10.0","https://app.prolific.com/","en-US,en;q=0.9","6818badffc8546af8aa3fec9","683db6dfa200031b80f2a654","68650755f02e1ac54934d329","6818badffc8546af8aa3fec9","2025-07-02T10:46:26.406Z","","","","","","","","","","","","","","","","","","","","","","","","","","","","","","","","","","","","","","","","","","","",""
"83711.70000001788","","","","survey-template","15","158077","0.0-7.0-5.0","211","1","2025-07-02 10:45:10","80fe4187154257d5fb01684ea91b68b9","103.104.20.12","Mozilla/5.0 (Windows NT 10.0; Win64; x64) AppleWebKit/537.36 (KHTML, like Gecko) Chrome/129.0.0.0 Safari/537.36","WebKit","Chrome","129.0.0.0","Windows","10.0","https://app.prolific.com/","en-US,en;q=0.9","6818badffc8546af8aa3fec9","683db6dfa200031b80f2a654","68650755f02e1ac54934d329","6818badffc8546af8aa3fec9","2025-07-02T10:47:50.123Z","","","","","","pss","{""Q01"":""1"",""Q02"":""0"",""Q03"":""1"",""Q04"":""3"",""Q05"":""1"",""Q06"":""0"",""Q07"":""0"",""Q08"":""1"",""Q09"":""1"",""Q10"":""0""}","[0,1,2,3,4,5,6,7,8,9]","[""Q01"",""Q02"",""Q03"",""Q04"",""Q05"",""Q05"",""Q06"",""Q07"",""Q08"",""Q09"",""Q10""]","[47753.60000002384,50331,50963.90000000596,51780.90000000596,53504.10000002384,56773.10000002384,71273.30000001192,75180.30000001192,76955.90000000596,80701,83094]","[]","[0,46889.20000001788,47753.60000002384,48560.10000002384,49064.40000000596,49634.5,50011.90000000596,50331,50963.90000000596,51780.90000000596,53020.20000001788,53504.10000002384,56458.90000000596,56773.10000002384,70927.30000001192,71273.30000001192,75180.30000001192,76955.90000000596,80701,82549.90000000596,82841.5,83094,83709.70000001788]","0.4","0.5555555555555556","0","","","","","","","","","","","","","","","","","","","","","","","","","","","","",""
"1307","1751453271434","<p style='font-size:1.1em;line-height:1.25'>Thank you for your answers! Now we will ask you a few more questions relating to your feelings in the last 24 hours.<br></p><p style='font-size:1.1em;line-height:1.25'>Press the <strong>Next</strong> button to continue.</p>","0","custom-html-button-response","16","159388","0.0-7.0-6.0","211","1","2025-07-02 10:45:10","80fe4187154257d5fb01684ea91b68b9","103.104.20.12","Mozilla/5.0 (Windows NT 10.0; Win64; x64) AppleWebKit/537.36 (KHTML, like Gecko) Chrome/129.0.0.0 Safari/537.36","WebKit","Chrome","129.0.0.0","Windows","10.0","https://app.prolific.com/","en-US,en;q=0.9","6818badffc8546af8aa3fec9","683db6dfa200031b80f2a654","68650755f02e1ac54934d329","6818badffc8546af8aa3fec9","2025-07-02T10:47:51.434Z","","","","","","","","","","","","","","","","","","","","","","","","","","","","","","","","","","","","","","","","","","","",""
"42559.59999999404","","","","survey-template","17","201954","0.0-7.0-7.0","211","1","2025-07-02 10:45:10","80fe4187154257d5fb01684ea91b68b9","103.104.20.12","Mozilla/5.0 (Windows NT 10.0; Win64; x64) AppleWebKit/537.36 (KHTML, like Gecko) Chrome/129.0.0.0 Safari/537.36","WebKit","Chrome","129.0.0.0","Windows","10.0","https://app.prolific.com/","en-US,en;q=0.9","6818badffc8546af8aa3fec9","683db6dfa200031b80f2a654","68650755f02e1ac54934d329","6818badffc8546af8aa3fec9","2025-07-02T10:48:34.000Z","","","","","","drsp","{""Q01"":""0"",""Q02"":""0"",""Q03"":""0"",""Q04"":""0"",""Q05"":""0"",""Q06"":""0"",""Q07"":""0"",""Q08"":""0"",""Q09"":""0"",""Q10"":""0"",""Q11"":""1"",""Q12"":""0"",""Q13"":""0"",""Q14"":""0"",""Q15"":""0"",""Q16"":""0"",""Q17"":""0"",""Q18"":""0"",""Q19"":""0"",""Q20"":""0"",""Q21"":""0""}","[0,1,2,3,4,5,6,7,8,9,10,11,12,13,14,15,16,17,18,19,20]","[""Q01"",""Q02"",""Q03"",""Q04"",""Q05"",""Q06"",""Q06"",""Q07"",""Q08"",""Q09"",""Q10"",""Q11"",""Q12"",""Q12"",""Q13"",""Q14"",""Q15"",""Q16"",""Q17"",""Q17"",""Q18"",""Q18"",""Q19"",""Q19"",""Q19"",""Q20"",""Q20"",""Q21"",""Q21""]","[20299,21110.5,21570.5,22170.40000000596,22841.80000001192,23752.70000001788,24010.59999999404,24713.80000001192,25443.80000001192,26555,29233.59999999404,31622.40000000596,32205.90000000596,32495.59999999404,33046.90000000596,33483.40000000596,34197.20000001788,36044.80000001192,36538.09999999404,36730.59999999404,37681.5,37823,39609.09999999404,39789,39968.70000001788,40812.80000001192,41069.09999999404,41549.5,41745.40000000596]","[]","[0.09999999403953552,20299,21110.5,21570.5,22170.40000000596,22552.20000001788,22841.80000001192,23216.20000001788,23498.40000000596,23752.70000001788,24010.59999999404,24300.20000001788,24713.80000001192,25037.70000001788,25443.80000001192,25792.20000001788,26405.30000001192,26555,28313.09999999404,28605.30000001192,29233.59999999404,30502.70000001788,31281,31622.40000000596,32205.90000000596,32495.59999999404,33046.90000000596,33483.40000000596,33810.80000001192,34197.20000001788,36044.80000001192,36328.70000001788,36538.09999999404,36730.59999999404,36933.20000001788,37135.70000001788,37298.09999999404,37483.70000001788,37681.5,37823,38028.70000001788,38336,38510.30000001192,38685,38871,39073.09999999404,39235.70000001788,39394.80000001192,39609.09999999404,39789,39968.70000001788,40614.40000000596,40812.80000001192,41069.09999999404,41340.40000000596,41549.5,41745.40000000596,42555.70000001788]","0.9523809523809523","0.1","0","","","","","","","","","","","","","","","","","","","","","","","","","","","","",""
"7819.4000000059605","","","","survey-template","18","209780","0.0-7.0-8.0","211","1","2025-07-02 10:45:10","80fe4187154257d5fb01684ea91b68b9","103.104.20.12","Mozilla/5.0 (Windows NT 10.0; Win64; x64) AppleWebKit/537.36 (KHTML, like Gecko) Chrome/129.0.0.0 Safari/537.36","WebKit","Chrome","129.0.0.0","Windows","10.0","https://app.prolific.com/","en-US,en;q=0.9","6818badffc8546af8aa3fec9","683db6dfa200031b80f2a654","68650755f02e1ac54934d329","6818badffc8546af8aa3fec9","2025-07-02T10:48:41.826Z","","","","","","stress","{""Q01"":""0"",""Q02"":""0"",""Q03"":""5""}","[0,1,2]","[""Q01"",""Q02"",""Q02"",""Q02"",""Q03""]","[1635.1000000238419,2334.100000023842,3875.800000011921,4560.300000011921,7472.600000023842]","[]","[1635.1000000238419,2334.100000023842,3875.800000011921,4560.300000011921,7086.200000017881,7472.600000023842,7818.4000000059605]","0.6666666666666666","0.5","0","","","","","","","","","","","","","","","","","","","","","","","","","","","","",""
"64326","","","","instructions","19","274110","0.0-8.0-0.0","211","1","2025-07-02 10:45:10","80fe4187154257d5fb01684ea91b68b9","103.104.20.12","Mozilla/5.0 (Windows NT 10.0; Win64; x64) AppleWebKit/537.36 (KHTML, like Gecko) Chrome/129.0.0.0 Safari/537.36","WebKit","Chrome","129.0.0.0","Windows","10.0","https://app.prolific.com/","en-US,en;q=0.9","6818badffc8546af8aa3fec9","683db6dfa200031b80f2a654","68650755f02e1ac54934d329","6818badffc8546af8aa3fec9","","[{""page_index"":0,""viewing_time"":33104},{""page_index"":1,""viewing_time"":3429},{""page_index"":2,""viewing_time"":1059},{""page_index"":1,""viewing_time"":10055},{""page_index"":2,""viewing_time"":3287},{""page_index"":3,""viewing_time"":13393}]","","","","","","","","","","","","","","","","","","","","","","","","","","","","","","","","","","","","","","","","","","",""
"","","","","ctl-task-cpt","20","297221","0.0-8.0-1.0","211","1","2025-07-02 10:45:10","80fe4187154257d5fb01684ea91b68b9","103.104.20.12","Mozilla/5.0 (Windows NT 10.0; Win64; x64) AppleWebKit/537.36 (KHTML, like Gecko) Chrome/129.0.0.0 Safari/537.36","WebKit","Chrome","129.0.0.0","Windows","10.0","https://app.prolific.com/","en-US,en;q=0.9","6818badffc8546af8aa3fec9","683db6dfa200031b80f2a654","68650755f02e1ac54934d329","6818badffc8546af8aa3fec9","","","","","","","","","","","","","","","","","win-only","0","g1:NW,g2:SE","1","0","1","276953.6","1403.6","5406.8","20105.1","2","4","4","6","1","2","-1","0","0","0","4003.2","4000","2390","[""left"",""up""]","{""num_key_presses"":7,""num_perfect"":4,""num_errors"":3,""num_randdir"":0,""num_randdir_good_moves"":0,""num_whilered"":0,""num_whileblue"":0,""num_blue"":0,""num_good_moves"":4}","[467.8571428571429,459.1071428571429,0.5,467.8571428571429,459.1071428571429,102.8,467.8571428571429,459.1071428571429,203.6,467.8571428571429,459.1071428571429,307.9,467.8571428571429,459.1071428571429,408.4,467.8571428571429,459.1071428571429,514.9,467.8571428571429,459.1071428571429,618.5,467.8571428571429,459.1071428571429,723.4,467.8571428571429,459.1071428571429,837,467.8571428571429,459.1071428571429,939.6,467.8571428571429,459.1071428571429,1042.3,467.8571428571429,459.1071428571429,1148.1,467.8571428571429,459.1071428571429,1248.8,467.8571428571429,459.1071428571429,1352.9,467.8571428571429,459.1071428571429,1458.1,467.8571428571429,459.1071428571429,1558.6,467.8571428571429,459.1071428571429,1662,467.8571428571429,459.1071428571429,1768.4,467.8571428571429,459.1071428571429,1872.7,467.8571428571429,459.1071428571429,1978.5,467.8571428571429,459.1071428571429,2082.2,467.8571428571429,459.1071428571429,2183.1,467.8571428571429,459.1071428571429,2283.4,467.8571428571429,459.1071428571429,2388,467.8571428571429,459.1071428571429,2492.6,467.8571428571429,459.1071428571429,2598,467.8571428571429,459.1071428571429,2703,467.8571428571429,459.1071428571429,2803.7,467.8571428571429,459.1071428571429,2907.7,467.8571428571429,459.1071428571429,3013.6,467.8571428571429,459.1071428571429,3118.1,467.8571428571429,459.1071428571429,3219.6,467.8571428571429,459.1071428571429,3322.5,467.8571428571429,459.1071428571429,3427.4,467.8571428571429,459.1071428571429,3533.2,467.8571428571429,459.1071428571429,3637.4,467.8571428571429,459.1071428571429,3737.5,467.8571428571429,459.1071428571429,3843.4,467.8571428571429,459.1071428571429,3947.8]","[326.2,326.2,1000,0,-673.8,""error"",""-"",""-"",""no_move"",4318.1,3991.8,2557.7,1328.7,431.8,""smooth"",""left"",""left"",""good_move"",4647,328.5,2768.9,4318.5,-2440.4,""error"",""-"",""-"",""no_move"",6082.7,1435.4,2388.3,5650.3,-1955.9,""error"",""-"",""-"",""no_move"",9654.5,3571.7,2176.9,7084.8,392.9,""smooth"",""up"",""up"",""good_move"",12452.6,2797.4,2389.3,9655.2,408.1,""smooth"",""left"",""left"",""good_move"",14608.4,2155.5,1725.6,12452.9,429.9,""smooth"",""up"",""up"",""good_move""]","",""
"4698","","","","instructions","21","301921","0.0-8.0-2.0","211","1","2025-07-02 10:45:10","80fe4187154257d5fb01684ea91b68b9","103.104.20.12","Mozilla/5.0 (Windows NT 10.0; Win64; x64) AppleWebKit/537.36 (KHTML, like Gecko) Chrome/129.0.0.0 Safari/537.36","WebKit","Chrome","129.0.0.0","Windows","10.0","https://app.prolific.com/","en-US,en;q=0.9","6818badffc8546af8aa3fec9","683db6dfa200031b80f2a654","68650755f02e1ac54934d329","6818badffc8546af8aa3fec9","","[{""page_index"":0,""viewing_time"":4697}]","","","","","","","","","","","","","","","","","","","","","","","","","","","","","","","","","","","","","","","","","","",""
"","","","","ctl-task-cpt","22","356983","0.0-8.0-3.0","211","1","2025-07-02 10:45:10","80fe4187154257d5fb01684ea91b68b9","103.104.20.12","Mozilla/5.0 (Windows NT 10.0; Win64; x64) AppleWebKit/537.36 (KHTML, like Gecko) Chrome/129.0.0.0 Safari/537.36","WebKit","Chrome","129.0.0.0","Windows","10.0","https://app.prolific.com/","en-US,en;q=0.9","6818badffc8546af8aa3fec9","683db6dfa200031b80f2a654","68650755f02e1ac54934d329","6818badffc8546af8aa3fec9","","","","","","","","","","","","","","","","","win-only","0","g1:NW,g2:SE","0.35","0","3","304761.6","995.9","4996.9","52042.3","2","4","8","6","2","-8","-9","0","0","0","649.3","4000","-2915","[""down"",""right""]","{""num_key_presses"":11,""num_perfect"":4,""num_errors"":1,""num_randdir"":6,""num_randdir_good_moves"":2,""num_whilered"":0,""num_whileblue"":1,""num_blue"":5,""num_good_moves"":6}","[469.1071428571429,456.6071428571429,0.4,469.1071428571429,456.6071428571429,102.3,469.1071428571429,456.6071428571429,205.8,469.1071428571429,461.6071428571429,305.8,607.8571428571429,635.3571428571429,406.4,831.6071428571429,817.8571428571429,511.6,842.8571428571429,844.1071428571429,617.2,844.1071428571429,844.1071428571429,726.3,844.1071428571429,844.1071428571429,829.7,844.1071428571429,844.1071428571429,930.4,1024.107142857143,776.6071428571429,1037.5,1159.107142857143,709.1071428571429,1140.7,1159.107142857143,709.1071428571429,1242.1,1159.107142857143,709.1071428571429,1345.8,1159.107142857143,709.1071428571429,1445.9,1159.107142857143,709.1071428571429,1551.3,1159.107142857143,709.1071428571429,1654.5,1159.107142857143,709.1071428571429,1756.2,1159.107142857143,709.1071428571429,1860.9,1159.107142857143,709.1071428571429,1961.4,1159.107142857143,709.1071428571429,2064.9,1159.107142857143,707.8571428571429,2165.5,1159.107142857143,707.8571428571429,2265.7,1159.107142857143,707.8571428571429,2372.5,1159.107142857143,707.8571428571429,2477.3,1159.107142857143,707.8571428571429,2581.8,1159.107142857143,707.8571428571429,2686.2,1159.107142857143,707.8571428571429,2787,1159.107142857143,707.8571428571429,2890.5,1159.107142857143,707.8571428571429,2990.7,1159.107142857143,707.8571428571429,3096.1,1159.107142857143,707.8571428571429,3200.8,1159.107142857143,707.8571428571429,3305.4,1159.107142857143,707.8571428571429,3411.4,1159.107142857143,707.8571428571429,3515.5,1159.107142857143,707.8571428571429,3615.8,1159.107142857143,707.8571428571429,3720.7,1159.107142857143,707.8571428571429,3825.3,1159.107142857143,707.8571428571429,3926.4]","[5583,5583,3166.4,2009.7,406.9,""smooth"",""down"",""down"",""good_move"",8939.9,3355.8,2985.2,5584.1,370.6,""oops"",""right"",""left"",""bad_move"",11775.9,2835.6,2369.2,8940.3,466.4,""while_blue"",""right"",""up"",""bad_move"",17496.5,5720.4,2108,15025.3,363.2,""smooth"",""right"",""right"",""good_move"",19998.1,2500.8,2112.9,17497.4,387.9,""oops"",""down"",""right"",""good_move"",23027.4,3028.8,2700.4,19998.6,328.4,""smooth"",""down"",""down"",""good_move"",29849.8,6821.8,2608.4,26779,462.4,""oops"",""right"",""up"",""bad_move"",33540.3,3689.8,3286.9,29850.6,402.9,""smooth"",""right"",""right"",""good_move"",36462.7,2922.1,2501.5,33540.7,420.6,""oops"",""down"",""up"",""bad_move"",39035.9,2572.8,2151.8,36463.1,421,""oops"",""down"",""right"",""good_move"",41978.9,2942.7,2574.7,39036.2,368.1,""oops"",""down"",""up"",""bad_move""]","",""
"7516","","","","instructions","23","364501","0.0-8.0-4.0","211","1","2025-07-02 10:45:10","80fe4187154257d5fb01684ea91b68b9","103.104.20.12","Mozilla/5.0 (Windows NT 10.0; Win64; x64) AppleWebKit/537.36 (KHTML, like Gecko) Chrome/129.0.0.0 Safari/537.36","WebKit","Chrome","129.0.0.0","Windows","10.0","https://app.prolific.com/","en-US,en;q=0.9","6818badffc8546af8aa3fec9","683db6dfa200031b80f2a654","68650755f02e1ac54934d329","6818badffc8546af8aa3fec9","","[{""page_index"":0,""viewing_time"":6158},{""page_index"":1,""viewing_time"":1357}]","","","","","","","","","","","","","","","","","","","","","","","","","","","","","","","","","","","","","","","","","","",""
"7872","","","{""green_ball"":[""Ball sometimes shakes and moves in a random direction""]}","survey-multi-select","24","372375","0.0-8.0-5.0-0.0","211","1","2025-07-02 10:45:10","80fe4187154257d5fb01684ea91b68b9","103.104.20.12","Mozilla/5.0 (Windows NT 10.0; Win64; x64) AppleWebKit/537.36 (KHTML, like Gecko) Chrome/129.0.0.0 Safari/537.36","WebKit","Chrome","129.0.0.0","Windows","10.0","https://app.prolific.com/","en-US,en;q=0.9","6818badffc8546af8aa3fec9","683db6dfa200031b80f2a654","68650755f02e1ac54934d329","6818badffc8546af8aa3fec9","","","[0]","","","","quiz","","","","","","","","","","","","","","","","","","","","","","","","","","","","","","","","","","","","","true",""
"865","","<p align='center'><b>CORRECT!</b> Indeed, the green ball may sometimes shake and move in a random direction.</p>","0","html-button-response","25","373247","0.0-8.0-5.0-1.0","211","1","2025-07-02 10:45:10","80fe4187154257d5fb01684ea91b68b9","103.104.20.12","Mozilla/5.0 (Windows NT 10.0; Win64; x64) AppleWebKit/537.36 (KHTML, like Gecko) Chrome/129.0.0.0 Safari/537.36","WebKit","Chrome","129.0.0.0","Windows","10.0","https://app.prolific.com/","en-US,en;q=0.9","6818badffc8546af8aa3fec9","683db6dfa200031b80f2a654","68650755f02e1ac54934d329","6818badffc8546af8aa3fec9","","","","","","","","","","","","","","","","","","","","","","","","","","","","","","","","","","","","","","","","","","","","",""
"3732","","","{""yellow_ball"":[""Ball doesn‘t move and I get -1 penalty point""]}","survey-multi-select","26","376983","0.0-8.0-6.0-0.0","211","1","2025-07-02 10:45:10","80fe4187154257d5fb01684ea91b68b9","103.104.20.12","Mozilla/5.0 (Windows NT 10.0; Win64; x64) AppleWebKit/537.36 (KHTML, like Gecko) Chrome/129.0.0.0 Safari/537.36","WebKit","Chrome","129.0.0.0","Windows","10.0","https://app.prolific.com/","en-US,en;q=0.9","6818badffc8546af8aa3fec9","683db6dfa200031b80f2a654","68650755f02e1ac54934d329","6818badffc8546af8aa3fec9","","","[0]","","","","quiz","","","","","","","","","","","","","","","","","","","","","","","","","","","","","","","","","","","","","true",""
"1017","","<p align='center'><b>CORRECT!</b> Indeed, the yellow ball never moves and you receive a penalty.</p>","0","html-button-response","27","378005","0.0-8.0-6.0-1.0","211","1","2025-07-02 10:45:10","80fe4187154257d5fb01684ea91b68b9","103.104.20.12","Mozilla/5.0 (Windows NT 10.0; Win64; x64) AppleWebKit/537.36 (KHTML, like Gecko) Chrome/129.0.0.0 Safari/537.36","WebKit","Chrome","129.0.0.0","Windows","10.0","https://app.prolific.com/","en-US,en;q=0.9","6818badffc8546af8aa3fec9","683db6dfa200031b80f2a654","68650755f02e1ac54934d329","6818badffc8546af8aa3fec9","","","","","","","","","","","","","","","","","","","","","","","","","","","","","","","","","","","","","","","","","","","","",""
"18792","","","{""blue_ball"":[""Ball always shakes and moves in a random direction""]}","survey-multi-select","28","396799","0.0-8.0-7.0-0.0","211","1","2025-07-02 10:45:10","80fe4187154257d5fb01684ea91b68b9","103.104.20.12","Mozilla/5.0 (Windows NT 10.0; Win64; x64) AppleWebKit/537.36 (KHTML, like Gecko) Chrome/129.0.0.0 Safari/537.36","WebKit","Chrome","129.0.0.0","Windows","10.0","https://app.prolific.com/","en-US,en;q=0.9","6818badffc8546af8aa3fec9","683db6dfa200031b80f2a654","68650755f02e1ac54934d329","6818badffc8546af8aa3fec9","","","[0]","","","","quiz","","","","","","","","","","","","","","","","","","","","","","","","","","","","","","","","","","","","","true",""
"884","","<p align='center'><b>CORRECT!</b> Indeed, the blue ball always shakes and moves in a random direction. Also there is a penalty of -1 point.</p>","0","html-button-response","29","397688","0.0-8.0-7.0-1.0","211","1","2025-07-02 10:45:10","80fe4187154257d5fb01684ea91b68b9","103.104.20.12","Mozilla/5.0 (Windows NT 10.0; Win64; x64) AppleWebKit/537.36 (KHTML, like Gecko) Chrome/129.0.0.0 Safari/537.36","WebKit","Chrome","129.0.0.0","Windows","10.0","https://app.prolific.com/","en-US,en;q=0.9","6818badffc8546af8aa3fec9","683db6dfa200031b80f2a654","68650755f02e1ac54934d329","6818badffc8546af8aa3fec9","","","","","","","","","","","","","","","","","","","","","","","","","","","","","","","","","","","","","","","","","","","","",""
"2821","","","{""bonus"":[""When I reach 50% of points""]}","survey-multi-select","30","400511","0.0-8.0-8.0-0.0","211","1","2025-07-02 10:45:10","80fe4187154257d5fb01684ea91b68b9","103.104.20.12","Mozilla/5.0 (Windows NT 10.0; Win64; x64) AppleWebKit/537.36 (KHTML, like Gecko) Chrome/129.0.0.0 Safari/537.36","WebKit","Chrome","129.0.0.0","Windows","10.0","https://app.prolific.com/","en-US,en;q=0.9","6818badffc8546af8aa3fec9","683db6dfa200031b80f2a654","68650755f02e1ac54934d329","6818badffc8546af8aa3fec9","","","[0]","","","","quiz","","","","","","","","","","","","","","","","","","","","","","","","","","","","","","","","","","","","","true",""
"810","","<p align='center'><b>CORRECT!</b> Indeed, you receive 2 pounds extra when you reach 50% of points.</p>","0","html-button-response","31","401326","0.0-8.0-8.0-1.0","211","1","2025-07-02 10:45:10","80fe4187154257d5fb01684ea91b68b9","103.104.20.12","Mozilla/5.0 (Windows NT 10.0; Win64; x64) AppleWebKit/537.36 (KHTML, like Gecko) Chrome/129.0.0.0 Safari/537.36","WebKit","Chrome","129.0.0.0","Windows","10.0","https://app.prolific.com/","en-US,en;q=0.9","6818badffc8546af8aa3fec9","683db6dfa200031b80f2a654","68650755f02e1ac54934d329","6818badffc8546af8aa3fec9","","","","","","","","","","","","","","","","","","","","","","","","","","","","","","","","","","","","","","","","","","","","",""
"1434","","","","instructions","32","402762","0.0-8.0-9.0","211","1","2025-07-02 10:45:10","80fe4187154257d5fb01684ea91b68b9","103.104.20.12","Mozilla/5.0 (Windows NT 10.0; Win64; x64) AppleWebKit/537.36 (KHTML, like Gecko) Chrome/129.0.0.0 Safari/537.36","WebKit","Chrome","129.0.0.0","Windows","10.0","https://app.prolific.com/","en-US,en;q=0.9","6818badffc8546af8aa3fec9","683db6dfa200031b80f2a654","68650755f02e1ac54934d329","6818badffc8546af8aa3fec9","","[{""page_index"":0,""viewing_time"":1434}]","","","","","","","","","","","","","","","","","","","","","","","","","","","","","","","","","","","","","","","","","","",""
"2549","","<p>Before you start with this game please answer the following three questions yourself. </p>
  <p>Through this game, we measure several aspects of your cognitive performance, such as reaction times, multi-tasking capabilities </p>
  <p>and the ability to assess the situation you are in.</p>
  <p></p>
  <p><b>How good do you usually are in such tasks?</b></p>","72","html-slider-response","33","405314","0.0-9.0-0.0","211","1","2025-07-02 10:45:10","80fe4187154257d5fb01684ea91b68b9","103.104.20.12","Mozilla/5.0 (Windows NT 10.0; Win64; x64) AppleWebKit/537.36 (KHTML, like Gecko) Chrome/129.0.0.0 Safari/537.36","WebKit","Chrome","129.0.0.0","Windows","10.0","https://app.prolific.com/","en-US,en;q=0.9","6818badffc8546af8aa3fec9","683db6dfa200031b80f2a654","68650755f02e1ac54934d329","6818badffc8546af8aa3fec9","2025-07-02T10:51:57.360Z","","","","","","PreSkillQ","","","","","","","","","","","","","","","","","","","","","","","","","","","","","","","","","","","","","","50"
"1914","","<div style=""width:500px;"">
  <p>How well do you think you will perform in this task compared to other participants?</p>
  </div>","81","html-slider-response","34","407230","0.0-9.0-1.0","211","1","2025-07-02 10:45:10","80fe4187154257d5fb01684ea91b68b9","103.104.20.12","Mozilla/5.0 (Windows NT 10.0; Win64; x64) AppleWebKit/537.36 (KHTML, like Gecko) Chrome/129.0.0.0 Safari/537.36","WebKit","Chrome","129.0.0.0","Windows","10.0","https://app.prolific.com/","en-US,en;q=0.9","6818badffc8546af8aa3fec9","683db6dfa200031b80f2a654","68650755f02e1ac54934d329","6818badffc8546af8aa3fec9","2025-07-02T10:51:59.276Z","","","","","","PrePerfQ","","","","","","","","","","","","","","","","","","","","","","","","","","","","","","","","","","","","","","50"
"1686","","<div style=""width:500px;"">
  <p>What best describes how you currently feel?</p>
  </div>","78","html-slider-response","35","408917","0.0-9.0-2.0","211","1","2025-07-02 10:45:10","80fe4187154257d5fb01684ea91b68b9","103.104.20.12","Mozilla/5.0 (Windows NT 10.0; Win64; x64) AppleWebKit/537.36 (KHTML, like Gecko) Chrome/129.0.0.0 Safari/537.36","WebKit","Chrome","129.0.0.0","Windows","10.0","https://app.prolific.com/","en-US,en;q=0.9","6818badffc8546af8aa3fec9","683db6dfa200031b80f2a654","68650755f02e1ac54934d329","6818badffc8546af8aa3fec9","2025-07-02T10:52:00.963Z","","","","","","PreMotivationQ","","","","","","","","","","","","","","","","","","","","","","","","","","","","","","","","","","","","","","50"
"","","","","ctl-task-cpt","36","439851","0.0-10.0-0.0","211","1","2025-07-02 10:45:10","80fe4187154257d5fb01684ea91b68b9","103.104.20.12","Mozilla/5.0 (Windows NT 10.0; Win64; x64) AppleWebKit/537.36 (KHTML, like Gecko) Chrome/129.0.0.0 Safari/537.36","WebKit","Chrome","129.0.0.0","Windows","10.0","https://app.prolific.com/","en-US,en;q=0.9","6818badffc8546af8aa3fec9","683db6dfa200031b80f2a654","68650755f02e1ac54934d329","6818badffc8546af8aa3fec9","2025-07-02T10:52:31.898Z","","","","","","","","","","","","","","","","win-only","3","g1:SW,g2:NE","1","1","0","411763","824.9","5829.8","27908.9","1","4","8","6","2","8","7","7","0","0.05303030303030303","1387.5","3000","550","[""up"",""right""]","{""num_key_presses"":8,""num_perfect"":7,""num_errors"":1,""num_randdir"":0,""num_randdir_good_moves"":0,""num_whilered"":0,""num_whileblue"":1,""num_blue"":1,""num_good_moves"":7}","[466.6071428571429,467.8571428571429,0.3,466.6071428571429,467.8571428571429,101.2,465.3571428571429,467.8571428571429,201.2,497.8571428571429,512.8571428571429,303.5,546.6071428571429,562.8571428571429,406.9,567.8571428571429,586.6071428571429,512.9,569.1071428571429,590.3571428571429,616,642.8571428571429,460.3571428571429,716.5,762.8571428571429,305.3571428571429,822.7,790.3571428571429,249.10714285714286,930.4,796.6071428571429,217.85714285714286,1036,802.8571428571429,180.35714285714286,1136.9,816.6071428571429,137.85714285714286,1237.7,854.1071428571429,57.85714285714286,1337.9,857.8571428571429,47.85714285714286,1445.5,857.8571428571429,47.85714285714286,1549,855.3571428571429,109.10714285714286,1651.2,910.3571428571429,226.60714285714286,1755.5,956.6071428571429,249.10714285714286,1856.8,1055.357142857143,237.85714285714286,1959,1055.357142857143,237.85714285714286,2062.5,1055.357142857143,237.85714285714286,2167,1055.357142857143,237.85714285714286,2270.2,1055.357142857143,237.85714285714286,2372.4,1055.357142857143,237.85714285714286,2472.8,1055.357142857143,237.85714285714286,2575.5,1055.357142857143,237.85714285714286,2676.2,1055.357142857143,237.85714285714286,2776.3,1055.357142857143,237.85714285714286,2877.8,1055.357142857143,237.85714285714286,2981.6,1055.357142857143,237.85714285714286,3087.1,1055.357142857143,237.85714285714286,3187.2,1055.357142857143,237.85714285714286,3288.2,1055.357142857143,237.85714285714286,3404.1,1055.357142857143,237.85714285714286,3506.4,1055.357142857143,237.85714285714286,3606.9,1055.357142857143,237.85714285714286,3710.6,1055.357142857143,237.85714285714286,3810.6,1055.357142857143,237.85714285714286,3911.1,1055.357142857143,237.85714285714286,4011.1,1055.357142857143,237.85714285714286,4116.1,1055.357142857143,237.85714285714286,4222.5,1055.357142857143,237.85714285714286,4325.7,1055.357142857143,237.85714285714286,4426.9,1055.357142857143,237.85714285714286,4531,1055.357142857143,237.85714285714286,4631.9,1055.357142857143,237.85714285714286,4736.9,1055.357142857143,237.85714285714286,4838.4,1055.357142857143,237.85714285714286,4941.5]","[1405.3,1405.3,1000,0,405.3,""smooth"",""right"",""right"",""good_move"",4419.6,3013.4,2667.3,1406.2,346.1,""smooth"",""up"",""up"",""good_move"",7541.3,3120,2765.1,4421.3,354.9,""smooth"",""up"",""up"",""good_move"",10885.4,3343.6,2970.7,7541.8,372.9,""while_blue"",""right"",""left"",""bad_move"",13689.3,2802.8,2321.4,10886.5,481.4,""smooth"",""right"",""right"",""good_move"",16482.4,2792.9,2398.6,13689.5,394.3,""smooth"",""right"",""right"",""good_move"",19034.3,2551.6,2186.2,16482.7,365.4,""smooth"",""right"",""right"",""good_move"",21962.6,2927.8,2513.4,19034.9,414.3,""smooth"",""up"",""up"",""good_move""]","",""
"2459","","<div style=""width:500px;"">
  <p>What determined the result of this run?</p>
  </div>","100","html-slider-response","37","442313","0.0-10.0-1.0","211","1","2025-07-02 10:45:10","80fe4187154257d5fb01684ea91b68b9","103.104.20.12","Mozilla/5.0 (Windows NT 10.0; Win64; x64) AppleWebKit/537.36 (KHTML, like Gecko) Chrome/129.0.0.0 Safari/537.36","WebKit","Chrome","129.0.0.0","Windows","10.0","https://app.prolific.com/","en-US,en;q=0.9","6818badffc8546af8aa3fec9","683db6dfa200031b80f2a654","68650755f02e1ac54934d329","6818badffc8546af8aa3fec9","2025-07-02T10:52:34.360Z","","","","","","AttribQ","","","","","","","","","","","","","","","","","","","","","","","","","","","","","","","","","","","","","","50"
"3057","","<div style=""width:500px;"">
  <p>How much control did you have over the ball?</p>
  </div>","97","html-slider-response","38","445372","0.0-10.0-2.0","211","1","2025-07-02 10:45:10","80fe4187154257d5fb01684ea91b68b9","103.104.20.12","Mozilla/5.0 (Windows NT 10.0; Win64; x64) AppleWebKit/537.36 (KHTML, like Gecko) Chrome/129.0.0.0 Safari/537.36","WebKit","Chrome","129.0.0.0","Windows","10.0","https://app.prolific.com/","en-US,en;q=0.9","6818badffc8546af8aa3fec9","683db6dfa200031b80f2a654","68650755f02e1ac54934d329","6818badffc8546af8aa3fec9","2025-07-02T10:52:37.418Z","","","","","","ControlQ","","","","","","","","","","","","","","","","","","","","","","","","","","","","","","","","","","","","","","50"
"2792","","<div style=""width:500px;"">
  <p>How would you describe your current emotional state?</p>
  </div>","0","html-slider-response","39","448166","0.0-10.0-3.0","211","1","2025-07-02 10:45:10","80fe4187154257d5fb01684ea91b68b9","103.104.20.12","Mozilla/5.0 (Windows NT 10.0; Win64; x64) AppleWebKit/537.36 (KHTML, like Gecko) Chrome/129.0.0.0 Safari/537.36","WebKit","Chrome","129.0.0.0","Windows","10.0","https://app.prolific.com/","en-US,en;q=0.9","6818badffc8546af8aa3fec9","683db6dfa200031b80f2a654","68650755f02e1ac54934d329","6818badffc8546af8aa3fec9","2025-07-02T10:52:40.213Z","","","","","","StressQ","","","","","","","","","","","","","","","","","","","","","","","","","","","","","","","","","","","","","","50"
"1799","","<div style=""width:500px;"">
  <p>What best describes how you currently feel?</p>
  </div>","93","html-slider-response","40","449968","0.0-10.0-4.0","211","1","2025-07-02 10:45:10","80fe4187154257d5fb01684ea91b68b9","103.104.20.12","Mozilla/5.0 (Windows NT 10.0; Win64; x64) AppleWebKit/537.36 (KHTML, like Gecko) Chrome/129.0.0.0 Safari/537.36","WebKit","Chrome","129.0.0.0","Windows","10.0","https://app.prolific.com/","en-US,en;q=0.9","6818badffc8546af8aa3fec9","683db6dfa200031b80f2a654","68650755f02e1ac54934d329","6818badffc8546af8aa3fec9","2025-07-02T10:52:42.014Z","","","","","","MotivationQ","","","","","","","","","","","","","","","","","","","","","","","","","","","","","","","","","","","","","","50"
"","","","","ctl-task-cpt","41","476742","0.0-10.0-0.1","211","1","2025-07-02 10:45:10","80fe4187154257d5fb01684ea91b68b9","103.104.20.12","Mozilla/5.0 (Windows NT 10.0; Win64; x64) AppleWebKit/537.36 (KHTML, like Gecko) Chrome/129.0.0.0 Safari/537.36","WebKit","Chrome","129.0.0.0","Windows","10.0","https://app.prolific.com/","en-US,en;q=0.9","6818badffc8546af8aa3fec9","683db6dfa200031b80f2a654","68650755f02e1ac54934d329","6818badffc8546af8aa3fec9","2025-07-02T10:53:08.788Z","","","","","","","","","","","","","","","","win-only","1","g1:NE,g2:SW","0.9","2","0","452813","716.4","5716.9","23741.8","1","4","4","6","2","4","3","10","7","0.07575757575757576","934","3000","1105","[""down"",""left""]","{""num_key_presses"":6,""num_perfect"":5,""num_errors"":1,""num_randdir"":0,""num_randdir_good_moves"":0,""num_whilered"":0,""num_whileblue"":1,""num_blue"":2,""num_good_moves"":6}","[465.3571428571429,455.3571428571429,0.3,464.1071428571429,459.1071428571429,104.4,462.8571428571429,459.1071428571429,205.3,462.8571428571429,459.1071428571429,305.4,487.8571428571429,440.3571428571429,421.5,517.8571428571429,411.6071428571429,522.5,217.85714285714286,662.8571428571429,624.9,55.35714285714286,802.8571428571429,734,52.85714285714286,805.3571428571429,834.6,52.85714285714286,807.8571428571429,938.6,52.85714285714286,807.8571428571429,1039.8,225.35714285714286,622.8571428571429,1146,394.1071428571429,347.8571428571429,1257.6,399.1071428571429,240.35714285714286,1361.6,399.1071428571429,239.10714285714286,1472.7,399.1071428571429,239.10714285714286,1582.5,399.1071428571429,239.10714285714286,1685.2,399.1071428571429,239.10714285714286,1785.2,399.1071428571429,239.10714285714286,1889.6,399.1071428571429,239.10714285714286,1996.8,399.1071428571429,239.10714285714286,2099.5,399.1071428571429,239.10714285714286,2204.7,399.1071428571429,239.10714285714286,2305,399.1071428571429,239.10714285714286,2407.9,399.1071428571429,239.10714285714286,2510.2,399.1071428571429,239.10714285714286,2611.8,399.1071428571429,239.10714285714286,2714.2,399.1071428571429,239.10714285714286,2815,399.1071428571429,239.10714285714286,2921.6,399.1071428571429,239.10714285714286,3024.2,399.1071428571429,239.10714285714286,3125.8,399.1071428571429,239.10714285714286,3229.2,399.1071428571429,239.10714285714286,3330,399.1071428571429,239.10714285714286,3437,399.1071428571429,239.10714285714286,3537.4,399.1071428571429,239.10714285714286,3640.6,399.1071428571429,239.10714285714286,3740.9,399.1071428571429,239.10714285714286,3849.4,399.1071428571429,239.10714285714286,3954.1,399.1071428571429,239.10714285714286,4054.5,399.1071428571429,239.10714285714286,4165.3,399.1071428571429,239.10714285714286,4270.4,399.1071428571429,239.10714285714286,4376.1,399.1071428571429,239.10714285714286,4479.6,399.1071428571429,239.10714285714286,4580.2,399.1071428571429,239.10714285714286,4686.9,399.1071428571429,239.10714285714286,4789.6,399.1071428571429,239.10714285714286,4890.1,399.1071428571429,239.10714285714286,4990.1]","[1394.7,1394.7,1000,0,394.7,""smooth"",""left"",""left"",""good_move"",4420.7,3025.1,2637.1,1395.6,388,""smooth"",""left"",""left"",""good_move"",9390.4,4969.4,1499.8,7520.4,370.2,""smooth"",""down"",""down"",""good_move"",12396.3,3004.3,2356.9,9392,647.4,""smooth"",""down"",""down"",""good_move"",15148.3,2751.6,2370.9,12396.7,380.8,""while_blue"",""down"",""down"",""good_move"",17913.2,2764.4,2226.8,15148.8,537.6,""smooth"",""left"",""left"",""good_move""]","",""
"14526","","<div style=""width:500px;"">
  <p>What determined the result of this run?</p>
  </div>","84","html-slider-response","42","491273","0.0-10.0-1.1","211","1","2025-07-02 10:45:10","80fe4187154257d5fb01684ea91b68b9","103.104.20.12","Mozilla/5.0 (Windows NT 10.0; Win64; x64) AppleWebKit/537.36 (KHTML, like Gecko) Chrome/129.0.0.0 Safari/537.36","WebKit","Chrome","129.0.0.0","Windows","10.0","https://app.prolific.com/","en-US,en;q=0.9","6818badffc8546af8aa3fec9","683db6dfa200031b80f2a654","68650755f02e1ac54934d329","6818badffc8546af8aa3fec9","2025-07-02T10:53:23.319Z","","","","","","AttribQ","","","","","","","","","","","","","","","","","","","","","","","","","","","","","","","","","","","","","","50"
"5758","","<div style=""width:500px;"">
  <p>How much control did you have over the ball?</p>
  </div>","78","html-slider-response","43","497033","0.0-10.0-2.1","211","1","2025-07-02 10:45:10","80fe4187154257d5fb01684ea91b68b9","103.104.20.12","Mozilla/5.0 (Windows NT 10.0; Win64; x64) AppleWebKit/537.36 (KHTML, like Gecko) Chrome/129.0.0.0 Safari/537.36","WebKit","Chrome","129.0.0.0","Windows","10.0","https://app.prolific.com/","en-US,en;q=0.9","6818badffc8546af8aa3fec9","683db6dfa200031b80f2a654","68650755f02e1ac54934d329","6818badffc8546af8aa3fec9","2025-07-02T10:53:29.080Z","","","","","","ControlQ","","","","","","","","","","","","","","","","","","","","","","","","","","","","","","","","","","","","","","50"
"2959","","<div style=""width:500px;"">
  <p>How would you describe your current emotional state?</p>
  </div>","1","html-slider-response","44","499996","0.0-10.0-3.1","211","1","2025-07-02 10:45:10","80fe4187154257d5fb01684ea91b68b9","103.104.20.12","Mozilla/5.0 (Windows NT 10.0; Win64; x64) AppleWebKit/537.36 (KHTML, like Gecko) Chrome/129.0.0.0 Safari/537.36","WebKit","Chrome","129.0.0.0","Windows","10.0","https://app.prolific.com/","en-US,en;q=0.9","6818badffc8546af8aa3fec9","683db6dfa200031b80f2a654","68650755f02e1ac54934d329","6818badffc8546af8aa3fec9","2025-07-02T10:53:32.042Z","","","","","","StressQ","","","","","","","","","","","","","","","","","","","","","","","","","","","","","","","","","","","","","","50"
"2972","","<div style=""width:500px;"">
  <p>What best describes how you currently feel?</p>
  </div>","100","html-slider-response","45","502971","0.0-10.0-4.1","211","1","2025-07-02 10:45:10","80fe4187154257d5fb01684ea91b68b9","103.104.20.12","Mozilla/5.0 (Windows NT 10.0; Win64; x64) AppleWebKit/537.36 (KHTML, like Gecko) Chrome/129.0.0.0 Safari/537.36","WebKit","Chrome","129.0.0.0","Windows","10.0","https://app.prolific.com/","en-US,en;q=0.9","6818badffc8546af8aa3fec9","683db6dfa200031b80f2a654","68650755f02e1ac54934d329","6818badffc8546af8aa3fec9","2025-07-02T10:53:35.017Z","","","","","","MotivationQ","","","","","","","","","","","","","","","","","","","","","","","","","","","","","","","","","","","","","","50"
"","","","","ctl-task-cpt","46","543889","0.0-10.0-0.2","211","1","2025-07-02 10:45:10","80fe4187154257d5fb01684ea91b68b9","103.104.20.12","Mozilla/5.0 (Windows NT 10.0; Win64; x64) AppleWebKit/537.36 (KHTML, like Gecko) Chrome/129.0.0.0 Safari/537.36","WebKit","Chrome","129.0.0.0","Windows","10.0","https://app.prolific.com/","en-US,en;q=0.9","6818badffc8546af8aa3fec9","683db6dfa200031b80f2a654","68650755f02e1ac54934d329","6818badffc8546af8aa3fec9","2025-07-02T10:54:15.936Z","","","","","","","","","","","","","","","","win-only","1","g1:NE,g2:SW","0.8","3","0","505818.3","3032.2","8040.5","37890.3","1","4","4","6","2","4","3","13","10","0.09848484848484848","1051.6","3000","930","[""down"",""left""]","{""num_key_presses"":8,""num_perfect"":7,""num_errors"":1,""num_randdir"":0,""num_randdir_good_moves"":0,""num_whilered"":0,""num_whileblue"":1,""num_blue"":3,""num_good_moves"":7}","[464.1071428571429,471.6071428571429,0.4,464.1071428571429,471.6071428571429,100.2,464.1071428571429,471.6071428571429,203.8,464.1071428571429,471.6071428571429,306.8,464.1071428571429,471.6071428571429,412.3,465.3571428571429,480.3571428571429,515.3,502.8571428571429,585.3571428571429,619.1,139.10714285714286,825.3571428571429,724.1,50.35714285714286,885.3571428571429,830.1,45.35714285714286,865.3571428571429,938.2,45.35714285714286,865.3571428571429,1039.4,45.35714285714286,865.3571428571429,1142.4,45.35714285714286,865.3571428571429,1259.3,45.35714285714286,865.3571428571429,1360.5,45.35714285714286,865.3571428571429,1468.7,45.35714285714286,865.3571428571429,1572.1,45.35714285714286,865.3571428571429,1675.7,45.35714285714286,865.3571428571429,1780.7,45.35714285714286,865.3571428571429,1886.5,45.35714285714286,865.3571428571429,2000.1,45.35714285714286,865.3571428571429,2103.1,45.35714285714286,865.3571428571429,2205.6,45.35714285714286,865.3571428571429,2309.8,45.35714285714286,865.3571428571429,2411.4,45.35714285714286,865.3571428571429,2513.6,45.35714285714286,865.3571428571429,2628.8,45.35714285714286,865.3571428571429,2737.6,45.35714285714286,865.3571428571429,2853.2,45.35714285714286,865.3571428571429,2954.7,45.35714285714286,865.3571428571429,3060.9,45.35714285714286,865.3571428571429,3162.2,45.35714285714286,865.3571428571429,3270.5,45.35714285714286,865.3571428571429,3371.6,45.35714285714286,865.3571428571429,3482,45.35714285714286,865.3571428571429,3582.5,45.35714285714286,865.3571428571429,3693.3,45.35714285714286,865.3571428571429,3797.6,45.35714285714286,865.3571428571429,3902.5,45.35714285714286,865.3571428571429,4015,45.35714285714286,865.3571428571429,4120.4,45.35714285714286,865.3571428571429,4227.5,45.35714285714286,865.3571428571429,4330.5,45.35714285714286,865.3571428571429,4431.9,45.35714285714286,865.3571428571429,4536,45.35714285714286,865.3571428571429,4639.4,45.35714285714286,865.3571428571429,4747,45.35714285714286,865.3571428571429,4851.9,45.35714285714286,865.3571428571429,4955]","[1393.7,1393.7,1000,0,393.7,""smooth"",""down"",""down"",""good_move"",3703.7,2309.3,1911.4,1394.4,397.9,""smooth"",""down"",""down"",""good_move"",10441.6,6737.4,3184.7,6815.6,441.3,""smooth"",""left"",""left"",""good_move"",14029.7,3587.3,3172.4,10442.4,414.9,""smooth"",""left"",""left"",""good_move"",17022.1,2991.8,2593.3,14030.3,398.5,""smooth"",""down"",""down"",""good_move"",19910.3,2887.8,2479.7,17022.5,408.1,""while_blue"",""left"",""right"",""bad_move"",23180.7,3268.9,2697.2,19911.8,571.7,""smooth"",""left"",""left"",""good_move"",29678.1,6497.1,2869.3,26408.7,400.1,""smooth"",""left"",""left"",""good_move""]","",""
"1692","","<div style=""width:500px;"">
  <p>What determined the result of this run?</p>
  </div>","97","html-slider-response","47","545584","0.0-10.0-1.2","211","1","2025-07-02 10:45:10","80fe4187154257d5fb01684ea91b68b9","103.104.20.12","Mozilla/5.0 (Windows NT 10.0; Win64; x64) AppleWebKit/537.36 (KHTML, like Gecko) Chrome/129.0.0.0 Safari/537.36","WebKit","Chrome","129.0.0.0","Windows","10.0","https://app.prolific.com/","en-US,en;q=0.9","6818badffc8546af8aa3fec9","683db6dfa200031b80f2a654","68650755f02e1ac54934d329","6818badffc8546af8aa3fec9","2025-07-02T10:54:17.630Z","","","","","","AttribQ","","","","","","","","","","","","","","","","","","","","","","","","","","","","","","","","","","","","","","50"
"2072","","<div style=""width:500px;"">
  <p>How much control did you have over the ball?</p>
  </div>","100","html-slider-response","48","547657","0.0-10.0-2.2","211","1","2025-07-02 10:45:10","80fe4187154257d5fb01684ea91b68b9","103.104.20.12","Mozilla/5.0 (Windows NT 10.0; Win64; x64) AppleWebKit/537.36 (KHTML, like Gecko) Chrome/129.0.0.0 Safari/537.36","WebKit","Chrome","129.0.0.0","Windows","10.0","https://app.prolific.com/","en-US,en;q=0.9","6818badffc8546af8aa3fec9","683db6dfa200031b80f2a654","68650755f02e1ac54934d329","6818badffc8546af8aa3fec9","2025-07-02T10:54:19.703Z","","","","","","ControlQ","","","","","","","","","","","","","","","","","","","","","","","","","","","","","","","","","","","","","","50"
"6784","","<div style=""width:500px;"">
  <p>How would you describe your current emotional state?</p>
  </div>","0","html-slider-response","49","554442","0.0-10.0-3.2","211","1","2025-07-02 10:45:10","80fe4187154257d5fb01684ea91b68b9","103.104.20.12","Mozilla/5.0 (Windows NT 10.0; Win64; x64) AppleWebKit/537.36 (KHTML, like Gecko) Chrome/129.0.0.0 Safari/537.36","WebKit","Chrome","129.0.0.0","Windows","10.0","https://app.prolific.com/","en-US,en;q=0.9","6818badffc8546af8aa3fec9","683db6dfa200031b80f2a654","68650755f02e1ac54934d329","6818badffc8546af8aa3fec9","2025-07-02T10:54:26.488Z","","","","","","StressQ","","","","","","","","","","","","","","","","","","","","","","","","","","","","","","","","","","","","","","50"
"2375","","<div style=""width:500px;"">
  <p>What best describes how you currently feel?</p>
  </div>","100","html-slider-response","50","556820","0.0-10.0-4.2","211","1","2025-07-02 10:45:10","80fe4187154257d5fb01684ea91b68b9","103.104.20.12","Mozilla/5.0 (Windows NT 10.0; Win64; x64) AppleWebKit/537.36 (KHTML, like Gecko) Chrome/129.0.0.0 Safari/537.36","WebKit","Chrome","129.0.0.0","Windows","10.0","https://app.prolific.com/","en-US,en;q=0.9","6818badffc8546af8aa3fec9","683db6dfa200031b80f2a654","68650755f02e1ac54934d329","6818badffc8546af8aa3fec9","2025-07-02T10:54:28.866Z","","","","","","MotivationQ","","","","","","","","","","","","","","","","","","","","","","","","","","","","","","","","","","","","","","50"
"","","","","ctl-task-cpt","51","585283","0.0-10.0-0.3","211","1","2025-07-02 10:45:10","80fe4187154257d5fb01684ea91b68b9","103.104.20.12","Mozilla/5.0 (Windows NT 10.0; Win64; x64) AppleWebKit/537.36 (KHTML, like Gecko) Chrome/129.0.0.0 Safari/537.36","WebKit","Chrome","129.0.0.0","Windows","10.0","https://app.prolific.com/","en-US,en;q=0.9","6818badffc8546af8aa3fec9","683db6dfa200031b80f2a654","68650755f02e1ac54934d329","6818badffc8546af8aa3fec9","2025-07-02T10:54:57.330Z","","","","","","","","","","","","","","","","win-only","0","g1:NW,g2:SE","0.7","4","0","559665.4","904.9","5910.9","25435.2","1","4","8","6","2","8","8","21","13","0.1590909090909091","783.6","3000","1275","[""down"",""right""]","{""num_key_presses"":6,""num_perfect"":5,""num_errors"":0,""num_randdir"":1,""num_randdir_good_moves"":1,""num_whilered"":0,""num_whileblue"":0,""num_blue"":1,""num_good_moves"":6}","[452.8571428571429,461.6071428571429,0.2,455.3571428571429,461.6071428571429,107.4,467.8571428571429,457.8571428571429,212.2,475.3571428571429,454.1071428571429,315.2,475.3571428571429,457.8571428571429,418.3,622.8571428571429,680.3571428571429,523.3,789.1071428571429,857.8571428571429,628.3,827.8571428571429,851.6071428571429,729.4,834.1071428571429,840.3571428571429,841.3,834.1071428571429,840.3571428571429,945.8,834.1071428571429,840.3571428571429,1048.8,834.1071428571429,840.3571428571429,1153.5,832.8571428571429,842.8571428571429,1255.4,832.8571428571429,842.8571428571429,1356.9,832.8571428571429,842.8571428571429,1457,832.8571428571429,842.8571428571429,1575.5,832.8571428571429,842.8571428571429,1676.7,832.8571428571429,842.8571428571429,1776.8,825.3571428571429,842.8571428571429,1886.8,825.3571428571429,842.8571428571429,1992.4,825.3571428571429,842.8571428571429,2095.9,825.3571428571429,842.8571428571429,2196.7,825.3571428571429,842.8571428571429,2312.6,825.3571428571429,842.8571428571429,2421.2,825.3571428571429,842.8571428571429,2528.7,825.3571428571429,842.8571428571429,2637.3,825.3571428571429,842.8571428571429,2739.7,825.3571428571429,842.8571428571429,2841.7,825.3571428571429,842.8571428571429,2943.3,825.3571428571429,842.8571428571429,3045.9,825.3571428571429,842.8571428571429,3156.2,825.3571428571429,842.8571428571429,3271.7,825.3571428571429,842.8571428571429,3376.5,825.3571428571429,842.8571428571429,3477.2,825.3571428571429,842.8571428571429,3585.4,825.3571428571429,842.8571428571429,3697.4,825.3571428571429,842.8571428571429,3797.5,825.3571428571429,842.8571428571429,3906.1,825.3571428571429,842.8571428571429,4008.2,825.3571428571429,842.8571428571429,4111.2,825.3571428571429,842.8571428571429,4212.3,825.3571428571429,842.8571428571429,4319.2,825.3571428571429,842.8571428571429,4426.9,825.3571428571429,842.8571428571429,4539.5,825.3571428571429,842.8571428571429,4640.7,825.3571428571429,842.8571428571429,4741.5,825.3571428571429,842.8571428571429,4849.4,825.3571428571429,842.8571428571429,4952.6]","[1426.8,1426.9,1000,0,426.9,""smooth"",""down"",""down"",""good_move"",4738.3,3310.6,2885,1427.7,425.6,""smooth"",""down"",""down"",""good_move"",7165.4,2426.5,1980.2,4739,446.3,""smooth"",""right"",""right"",""good_move"",13414,6247.9,2524.2,10444.6,445.3,""smooth"",""right"",""right"",""good_move"",16347.8,2933.3,2408.2,13414.5,525.1,""oops"",""down"",""right"",""good_move"",19395.2,3047.1,2689.1,16348.2,357.9,""smooth"",""down"",""down"",""good_move""]","",""
"17271","","<div style=""width:500px;"">
  <p>What determined the result of this run?</p>
  </div>","100","html-slider-response","52","602561","0.0-10.0-1.3","211","1","2025-07-02 10:45:10","80fe4187154257d5fb01684ea91b68b9","103.104.20.12","Mozilla/5.0 (Windows NT 10.0; Win64; x64) AppleWebKit/537.36 (KHTML, like Gecko) Chrome/129.0.0.0 Safari/537.36","WebKit","Chrome","129.0.0.0","Windows","10.0","https://app.prolific.com/","en-US,en;q=0.9","6818badffc8546af8aa3fec9","683db6dfa200031b80f2a654","68650755f02e1ac54934d329","6818badffc8546af8aa3fec9","2025-07-02T10:55:14.608Z","","","","","","AttribQ","","","","","","","","","","","","","","","","","","","","","","","","","","","","","","","","","","","","","","50"
"2066","","<div style=""width:500px;"">
  <p>How much control did you have over the ball?</p>
  </div>","100","html-slider-response","53","604629","0.0-10.0-2.3","211","1","2025-07-02 10:45:10","80fe4187154257d5fb01684ea91b68b9","103.104.20.12","Mozilla/5.0 (Windows NT 10.0; Win64; x64) AppleWebKit/537.36 (KHTML, like Gecko) Chrome/129.0.0.0 Safari/537.36","WebKit","Chrome","129.0.0.0","Windows","10.0","https://app.prolific.com/","en-US,en;q=0.9","6818badffc8546af8aa3fec9","683db6dfa200031b80f2a654","68650755f02e1ac54934d329","6818badffc8546af8aa3fec9","2025-07-02T10:55:16.675Z","","","","","","ControlQ","","","","","","","","","","","","","","","","","","","","","","","","","","","","","","","","","","","","","","50"
"1083","","<div style=""width:500px;"">
  <p>How would you describe your current emotional state?</p>
  </div>","0","html-slider-response","54","605716","0.0-10.0-3.3","211","1","2025-07-02 10:45:10","80fe4187154257d5fb01684ea91b68b9","103.104.20.12","Mozilla/5.0 (Windows NT 10.0; Win64; x64) AppleWebKit/537.36 (KHTML, like Gecko) Chrome/129.0.0.0 Safari/537.36","WebKit","Chrome","129.0.0.0","Windows","10.0","https://app.prolific.com/","en-US,en;q=0.9","6818badffc8546af8aa3fec9","683db6dfa200031b80f2a654","68650755f02e1ac54934d329","6818badffc8546af8aa3fec9","2025-07-02T10:55:17.762Z","","","","","","StressQ","","","","","","","","","","","","","","","","","","","","","","","","","","","","","","","","","","","","","","50"
"1632","","<div style=""width:500px;"">
  <p>What best describes how you currently feel?</p>
  </div>","100","html-slider-response","55","607350","0.0-10.0-4.3","211","1","2025-07-02 10:45:10","80fe4187154257d5fb01684ea91b68b9","103.104.20.12","Mozilla/5.0 (Windows NT 10.0; Win64; x64) AppleWebKit/537.36 (KHTML, like Gecko) Chrome/129.0.0.0 Safari/537.36","WebKit","Chrome","129.0.0.0","Windows","10.0","https://app.prolific.com/","en-US,en;q=0.9","6818badffc8546af8aa3fec9","683db6dfa200031b80f2a654","68650755f02e1ac54934d329","6818badffc8546af8aa3fec9","2025-07-02T10:55:19.396Z","","","","","","MotivationQ","","","","","","","","","","","","","","","","","","","","","","","","","","","","","","","","","","","","","","50"
"","","","","ctl-task-cpt","56","637034","0.0-10.0-0.4","211","1","2025-07-02 10:45:10","80fe4187154257d5fb01684ea91b68b9","103.104.20.12","Mozilla/5.0 (Windows NT 10.0; Win64; x64) AppleWebKit/537.36 (KHTML, like Gecko) Chrome/129.0.0.0 Safari/537.36","WebKit","Chrome","129.0.0.0","Windows","10.0","https://app.prolific.com/","en-US,en;q=0.9","6818badffc8546af8aa3fec9","683db6dfa200031b80f2a654","68650755f02e1ac54934d329","6818badffc8546af8aa3fec9","2025-07-02T10:55:49.081Z","","","","","","","","","","","","","","","","win-only","1","g1:NE,g2:SW","0.6","5","0","610193.6","796.1","5797.3","26646.4","1","4","4","6","2","4","4","25","21","0.1893939393939394","836.9","3000","1400","[""down"",""left""]","{""num_key_presses"":8,""num_perfect"":6,""num_errors"":0,""num_randdir"":2,""num_randdir_good_moves"":1,""num_whilered"":0,""num_whileblue"":0,""num_blue"":0,""num_good_moves"":7}","[474.1071428571429,462.8571428571429,0.5,474.1071428571429,462.8571428571429,117.9,474.1071428571429,462.8571428571429,222.3,474.1071428571429,462.8571428571429,326,501.6071428571429,456.6071428571429,430,457.8571428571429,522.8571428571429,531,182.85714285714286,789.1071428571429,631.2,137.85714285714286,796.6071428571429,748.2,99.10714285714286,811.6071428571429,851.9,99.10714285714286,811.6071428571429,955.7,99.10714285714286,811.6071428571429,1058.8,99.10714285714286,811.6071428571429,1160.9,99.10714285714286,811.6071428571429,1266.1,99.10714285714286,811.6071428571429,1368,99.10714285714286,811.6071428571429,1468.4,99.10714285714286,812.8571428571429,1570.3,99.10714285714286,815.3571428571429,1676.6,95.35714285714286,831.6071428571429,1783.7,92.85714285714286,836.6071428571429,1887.9,92.85714285714286,837.8571428571429,1991.8,87.85714285714286,842.8571428571429,2096.2,87.85714285714286,842.8571428571429,2197.8,87.85714285714286,842.8571428571429,2300.6,87.85714285714286,844.1071428571429,2403.6,87.85714285714286,844.1071428571429,2511.5,87.85714285714286,844.1071428571429,2617,87.85714285714286,844.1071428571429,2721.8,115.35714285714286,835.3571428571429,2822,225.35714285714286,765.3571428571429,2922.5,297.8571428571429,661.6071428571429,3028.7,302.8571428571429,650.3571428571429,3133.4,302.8571428571429,650.3571428571429,3242.2,302.8571428571429,650.3571428571429,3346,302.8571428571429,650.3571428571429,3456.9,302.8571428571429,650.3571428571429,3562.8,302.8571428571429,650.3571428571429,3663.1,302.8571428571429,650.3571428571429,3769.5,302.8571428571429,650.3571428571429,3872.7,302.8571428571429,650.3571428571429,3975.1,302.8571428571429,650.3571428571429,4075.1,302.8571428571429,650.3571428571429,4185.9,302.8571428571429,650.3571428571429,4292.3,302.8571428571429,650.3571428571429,4398.8,302.8571428571429,650.3571428571429,4499.2,302.8571428571429,650.3571428571429,4601,302.8571428571429,650.3571428571429,4706.6,302.8571428571429,650.3571428571429,4808.1,302.8571428571429,650.3571428571429,4911.9]","[1433.8,1433.8,1000,0,433.8,""oops"",""down"",""right"",""bad_move"",4352.9,2918,2504.7,1434.9,413.3,""smooth"",""down"",""down"",""good_move"",7212.2,2858.7,2490.8,4353.6,367.8,""smooth"",""down"",""down"",""good_move"",10313.4,3100.9,2470,7212.5,630.9,""smooth"",""down"",""down"",""good_move"",13034.5,2720.7,2358.7,10313.8,362,""smooth"",""left"",""left"",""good_move"",15812.4,2777,2431.5,13035.4,345.5,""smooth"",""left"",""left"",""good_move"",17979.6,2166.7,1197.6,15812.9,969.1,""smooth"",""left"",""left"",""good_move"",20696,2716.1,2346.4,17979.9,369.7,""oops"",""left"",""left"",""good_move""]","",""
"1980","","<div style=""width:500px;"">
  <p>What determined the result of this run?</p>
  </div>","100","html-slider-response","57","639017","0.0-10.0-1.4","211","1","2025-07-02 10:45:10","80fe4187154257d5fb01684ea91b68b9","103.104.20.12","Mozilla/5.0 (Windows NT 10.0; Win64; x64) AppleWebKit/537.36 (KHTML, like Gecko) Chrome/129.0.0.0 Safari/537.36","WebKit","Chrome","129.0.0.0","Windows","10.0","https://app.prolific.com/","en-US,en;q=0.9","6818badffc8546af8aa3fec9","683db6dfa200031b80f2a654","68650755f02e1ac54934d329","6818badffc8546af8aa3fec9","2025-07-02T10:55:51.063Z","","","","","","AttribQ","","","","","","","","","","","","","","","","","","","","","","","","","","","","","","","","","","","","","","50"
"1751","","<div style=""width:500px;"">
  <p>How much control did you have over the ball?</p>
  </div>","85","html-slider-response","58","640770","0.0-10.0-2.4","211","1","2025-07-02 10:45:10","80fe4187154257d5fb01684ea91b68b9","103.104.20.12","Mozilla/5.0 (Windows NT 10.0; Win64; x64) AppleWebKit/537.36 (KHTML, like Gecko) Chrome/129.0.0.0 Safari/537.36","WebKit","Chrome","129.0.0.0","Windows","10.0","https://app.prolific.com/","en-US,en;q=0.9","6818badffc8546af8aa3fec9","683db6dfa200031b80f2a654","68650755f02e1ac54934d329","6818badffc8546af8aa3fec9","2025-07-02T10:55:52.817Z","","","","","","ControlQ","","","","","","","","","","","","","","","","","","","","","","","","","","","","","","","","","","","","","","50"
"1955","","<div style=""width:500px;"">
  <p>How would you describe your current emotional state?</p>
  </div>","10","html-slider-response","59","642728","0.0-10.0-3.4","211","1","2025-07-02 10:45:10","80fe4187154257d5fb01684ea91b68b9","103.104.20.12","Mozilla/5.0 (Windows NT 10.0; Win64; x64) AppleWebKit/537.36 (KHTML, like Gecko) Chrome/129.0.0.0 Safari/537.36","WebKit","Chrome","129.0.0.0","Windows","10.0","https://app.prolific.com/","en-US,en;q=0.9","6818badffc8546af8aa3fec9","683db6dfa200031b80f2a654","68650755f02e1ac54934d329","6818badffc8546af8aa3fec9","2025-07-02T10:55:54.775Z","","","","","","StressQ","","","","","","","","","","","","","","","","","","","","","","","","","","","","","","","","","","","","","","50"
"1494","","<div style=""width:500px;"">
  <p>What best describes how you currently feel?</p>
  </div>","92","html-slider-response","60","644225","0.0-10.0-4.4","211","1","2025-07-02 10:45:10","80fe4187154257d5fb01684ea91b68b9","103.104.20.12","Mozilla/5.0 (Windows NT 10.0; Win64; x64) AppleWebKit/537.36 (KHTML, like Gecko) Chrome/129.0.0.0 Safari/537.36","WebKit","Chrome","129.0.0.0","Windows","10.0","https://app.prolific.com/","en-US,en;q=0.9","6818badffc8546af8aa3fec9","683db6dfa200031b80f2a654","68650755f02e1ac54934d329","6818badffc8546af8aa3fec9","2025-07-02T10:55:56.271Z","","","","","","MotivationQ","","","","","","","","","","","","","","","","","","","","","","","","","","","","","","","","","","","","","","50"
"","","","","ctl-task-cpt","61","692006","0.0-10.0-0.5","211","1","2025-07-02 10:45:10","80fe4187154257d5fb01684ea91b68b9","103.104.20.12","Mozilla/5.0 (Windows NT 10.0; Win64; x64) AppleWebKit/537.36 (KHTML, like Gecko) Chrome/129.0.0.0 Safari/537.36","WebKit","Chrome","129.0.0.0","Windows","10.0","https://app.prolific.com/","en-US,en;q=0.9","6818badffc8546af8aa3fec9","683db6dfa200031b80f2a654","68650755f02e1ac54934d329","6818badffc8546af8aa3fec9","2025-07-02T10:56:44.053Z","","","","","","","","","","","","","","","","win-only","0","g1:NW,g2:SE","0.5","6","0","647068.9","923.4","5929.3","44755.3","1","4","8","6","2","8","7","32","25","0.24242424242424243","734.7","3000","940","[""down"",""right""]","{""num_key_presses"":9,""num_perfect"":4,""num_errors"":1,""num_randdir"":4,""num_randdir_good_moves"":3,""num_whilered"":0,""num_whileblue"":0,""num_blue"":4,""num_good_moves"":7}","[459.1071428571429,466.6071428571429,0.5,459.1071428571429,466.6071428571429,104.9,459.1071428571429,466.6071428571429,205.4,459.1071428571429,466.6071428571429,316.5,459.1071428571429,466.6071428571429,419.6,537.8571428571429,567.8571428571429,525.5,757.8571428571429,757.8571428571429,628.7,801.6071428571429,787.8571428571429,731,801.6071428571429,787.8571428571429,839.4,801.6071428571429,787.8571428571429,942.4,802.8571428571429,791.6071428571429,1048.4,845.3571428571429,820.3571428571429,1156.3,844.1071428571429,820.3571428571429,1258.3,844.1071428571429,820.3571428571429,1372,844.1071428571429,820.3571428571429,1472.9,844.1071428571429,820.3571428571429,1574.4,844.1071428571429,820.3571428571429,1677.6,844.1071428571429,820.3571428571429,1778.4,844.1071428571429,820.3571428571429,1880.8,844.1071428571429,820.3571428571429,1988.1,844.1071428571429,820.3571428571429,2090.3,844.1071428571429,820.3571428571429,2202,844.1071428571429,820.3571428571429,2307.4,844.1071428571429,820.3571428571429,2407.9,844.1071428571429,820.3571428571429,2508.3,844.1071428571429,820.3571428571429,2622.7,844.1071428571429,820.3571428571429,2728.6,844.1071428571429,820.3571428571429,2829.6,844.1071428571429,820.3571428571429,2941.7,844.1071428571429,820.3571428571429,3045,844.1071428571429,820.3571428571429,3157,844.1071428571429,820.3571428571429,3264.7,844.1071428571429,820.3571428571429,3379.2,844.1071428571429,820.3571428571429,3493.3,844.1071428571429,820.3571428571429,3604.7,844.1071428571429,820.3571428571429,3728.2,844.1071428571429,820.3571428571429,3833.5,844.1071428571429,820.3571428571429,3946.6,844.1071428571429,820.3571428571429,4053.9,844.1071428571429,820.3571428571429,4158.1,844.1071428571429,820.3571428571429,4277.8,844.1071428571429,820.3571428571429,4388.6,844.1071428571429,820.3571428571429,4491.4,844.1071428571429,820.3571428571429,4591.7,844.1071428571429,820.3571428571429,4705.2,844.1071428571429,820.3571428571429,4815.7,844.1071428571429,820.3571428571429,4932.6]","[522.3,522.3,1000,0,-477.7,""error"",""-"",""-"",""no_move"",7546.4,7023.8,2773.2,4342,431.2,""smooth"",""down"",""down"",""good_move"",10719.9,3171.4,2581.7,7548.5,589.7,""oops"",""down"",""up"",""bad_move"",17456.4,6736,2915.2,14123.4,417.8,""smooth"",""down"",""down"",""good_move"",28106.3,10649.6,2613,25095.5,397.8,""smooth"",""down"",""down"",""good_move"",31103.9,2995.7,2221.1,28108.3,774.7,""oops"",""down"",""right"",""good_move"",33840.2,2735,2316.3,31105.2,418.7,""oops"",""down"",""right"",""good_move"",36784.9,2944.3,2525.2,33840.6,419.1,""smooth"",""down"",""down"",""good_move"",38671.2,1885.9,1441,36785.3,444.9,""oops"",""right"",""right"",""good_move""]","",""
"2749","","<div style=""width:500px;"">
  <p>What determined the result of this run?</p>
  </div>","100","html-slider-response","62","694759","0.0-10.0-1.5","211","1","2025-07-02 10:45:10","80fe4187154257d5fb01684ea91b68b9","103.104.20.12","Mozilla/5.0 (Windows NT 10.0; Win64; x64) AppleWebKit/537.36 (KHTML, like Gecko) Chrome/129.0.0.0 Safari/537.36","WebKit","Chrome","129.0.0.0","Windows","10.0","https://app.prolific.com/","en-US,en;q=0.9","6818badffc8546af8aa3fec9","683db6dfa200031b80f2a654","68650755f02e1ac54934d329","6818badffc8546af8aa3fec9","2025-07-02T10:56:46.805Z","","","","","","AttribQ","","","","","","","","","","","","","","","","","","","","","","","","","","","","","","","","","","","","","","50"
"2194","","<div style=""width:500px;"">
  <p>How much control did you have over the ball?</p>
  </div>","82","html-slider-response","63","696954","0.0-10.0-2.5","211","1","2025-07-02 10:45:10","80fe4187154257d5fb01684ea91b68b9","103.104.20.12","Mozilla/5.0 (Windows NT 10.0; Win64; x64) AppleWebKit/537.36 (KHTML, like Gecko) Chrome/129.0.0.0 Safari/537.36","WebKit","Chrome","129.0.0.0","Windows","10.0","https://app.prolific.com/","en-US,en;q=0.9","6818badffc8546af8aa3fec9","683db6dfa200031b80f2a654","68650755f02e1ac54934d329","6818badffc8546af8aa3fec9","2025-07-02T10:56:49.000Z","","","","","","ControlQ","","","","","","","","","","","","","","","","","","","","","","","","","","","","","","","","","","","","","","50"
"3290","","<div style=""width:500px;"">
  <p>How would you describe your current emotional state?</p>
  </div>","10","html-slider-response","64","700245","0.0-10.0-3.5","211","1","2025-07-02 10:45:10","80fe4187154257d5fb01684ea91b68b9","103.104.20.12","Mozilla/5.0 (Windows NT 10.0; Win64; x64) AppleWebKit/537.36 (KHTML, like Gecko) Chrome/129.0.0.0 Safari/537.36","WebKit","Chrome","129.0.0.0","Windows","10.0","https://app.prolific.com/","en-US,en;q=0.9","6818badffc8546af8aa3fec9","683db6dfa200031b80f2a654","68650755f02e1ac54934d329","6818badffc8546af8aa3fec9","2025-07-02T10:56:52.292Z","","","","","","StressQ","","","","","","","","","","","","","","","","","","","","","","","","","","","","","","","","","","","","","","50"
"2798","","<div style=""width:500px;"">
  <p>What best describes how you currently feel?</p>
  </div>","97","html-slider-response","65","703045","0.0-10.0-4.5","211","1","2025-07-02 10:45:10","80fe4187154257d5fb01684ea91b68b9","103.104.20.12","Mozilla/5.0 (Windows NT 10.0; Win64; x64) AppleWebKit/537.36 (KHTML, like Gecko) Chrome/129.0.0.0 Safari/537.36","WebKit","Chrome","129.0.0.0","Windows","10.0","https://app.prolific.com/","en-US,en;q=0.9","6818badffc8546af8aa3fec9","683db6dfa200031b80f2a654","68650755f02e1ac54934d329","6818badffc8546af8aa3fec9","2025-07-02T10:56:55.092Z","","","","","","MotivationQ","","","","","","","","","","","","","","","","","","","","","","","","","","","","","","","","","","","","","","50"
"","","","","ctl-task-cpt","66","769889","0.0-10.0-0.6","211","1","2025-07-02 10:45:10","80fe4187154257d5fb01684ea91b68b9","103.104.20.12","Mozilla/5.0 (Windows NT 10.0; Win64; x64) AppleWebKit/537.36 (KHTML, like Gecko) Chrome/129.0.0.0 Safari/537.36","WebKit","Chrome","129.0.0.0","Windows","10.0","https://app.prolific.com/","en-US,en;q=0.9","6818badffc8546af8aa3fec9","683db6dfa200031b80f2a654","68650755f02e1ac54934d329","6818badffc8546af8aa3fec9","2025-07-02T10:58:01.935Z","","","","","","","","","","","","","","","","win-only","3","g1:SW,g2:NE","0.4","7","0","705893.2","1238.7","6240.9","63821.7","1","4","4","6","2","-4","-5","27","32","0.20454545454545456","1181.5","3000","-1360","[""up"",""right""]","{""num_key_presses"":15,""num_perfect"":5,""num_errors"":1,""num_randdir"":9,""num_randdir_good_moves"":4,""num_whilered"":0,""num_whileblue"":1,""num_blue"":4,""num_good_moves"":9}","[455.3571428571429,462.8571428571429,0.9,455.3571428571429,462.8571428571429,105.6,455.3571428571429,462.8571428571429,207.5,455.3571428571429,462.8571428571429,309.8,455.3571428571429,462.8571428571429,429.3,472.8571428571429,514.1071428571429,542.9,416.6071428571429,630.3571428571429,649.3,949.1071428571429,12.857142857142861,751.7,965.3571428571429,-2.142857142857139,867.4,957.8571428571429,2.857142857142861,969.9,881.6071428571429,40.35714285714286,1071.7,881.6071428571429,40.35714285714286,1179.4,881.6071428571429,40.35714285714286,1281.9,881.6071428571429,40.35714285714286,1389.1,881.6071428571429,40.35714285714286,1490,881.6071428571429,40.35714285714286,1595.8,881.6071428571429,40.35714285714286,1703.6,881.6071428571429,40.35714285714286,1806.1,881.6071428571429,40.35714285714286,1911.3,881.6071428571429,40.35714285714286,2022.5,881.6071428571429,40.35714285714286,2124.2,881.6071428571429,40.35714285714286,2225.5,881.6071428571429,40.35714285714286,2332,881.6071428571429,40.35714285714286,2451.8,881.6071428571429,40.35714285714286,2556.2,881.6071428571429,40.35714285714286,2659.2,881.6071428571429,40.35714285714286,2765.8,881.6071428571429,40.35714285714286,2869.4,881.6071428571429,40.35714285714286,2969.4,881.6071428571429,40.35714285714286,3079.4,881.6071428571429,40.35714285714286,3182.2,881.6071428571429,40.35714285714286,3284,881.6071428571429,40.35714285714286,3395.9,881.6071428571429,40.35714285714286,3497.7,881.6071428571429,40.35714285714286,3612.2,881.6071428571429,40.35714285714286,3718.4,881.6071428571429,40.35714285714286,3823.4,870.3571428571429,55.35714285714286,3933.8,590.3571428571429,377.8571428571429,4040.6,464.1071428571429,497.8571428571429,4144.8,464.1071428571429,497.8571428571429,4245.1,464.1071428571429,497.8571428571429,4353.2,464.1071428571429,497.8571428571429,4463.2,464.1071428571429,497.8571428571429,4563.5,464.1071428571429,497.8571428571429,4679.2,464.1071428571429,497.8571428571429,4781.8,464.1071428571429,497.8571428571429,4883,464.1071428571429,497.8571428571429,4983.9]","[1525.6,1525.6,1000,0,525.6,""oops"",""right"",""right"",""good_move"",8321.8,6795.1,2160.9,5687.5,473.4,""oops"",""up"",""left"",""bad_move"",11463.7,3140.8,2628.5,8322.9,512.3,""oops"",""up"",""right"",""good_move"",14725.5,3261.6,2867.3,11463.9,394.3,""oops"",""up"",""up"",""good_move"",18268.8,3541.6,3145,14727.3,396.5,""smooth"",""up"",""up"",""good_move"",21510.8,3241.8,2758.7,18269.1,483.1,""smooth"",""up"",""up"",""good_move"",24406.3,2895.1,2487.2,21511.2,407.9,""oops"",""right"",""right"",""good_move"",27112.4,2705.7,2304.5,24406.7,401.2,""while_blue"",""right"",""down"",""bad_move"",30215.5,3101.7,2648.5,27113.8,453.2,""smooth"",""up"",""up"",""good_move"",32960.9,2745.1,2331.7,30215.9,413.4,""oops"",""right"",""down"",""bad_move"",35766.1,2804.6,2382.8,32961.5,421.8,""smooth"",""up"",""up"",""good_move"",38777.8,3011.2,2530.3,35766.6,480.9,""oops"",""right"",""down"",""bad_move"",41781.5,3003.5,2615.6,38778,387.9,""oops"",""up"",""down"",""bad_move"",44635.8,2853.9,2393.4,41781.9,460.5,""smooth"",""up"",""up"",""good_move"",54500.4,9864.2,2729.2,51434.4,336.8,""oops"",""up"",""left"",""bad_move""]","",""
"254162","","<div style=""width:500px;"">
  <p>What determined the result of this run?</p>
  </div>","80","html-slider-response","67","1024056","0.0-10.0-1.6","211","1","2025-07-02 10:45:10","80fe4187154257d5fb01684ea91b68b9","103.104.20.12","Mozilla/5.0 (Windows NT 10.0; Win64; x64) AppleWebKit/537.36 (KHTML, like Gecko) Chrome/129.0.0.0 Safari/537.36","WebKit","Chrome","129.0.0.0","Windows","10.0","https://app.prolific.com/","en-US,en;q=0.9","6818badffc8546af8aa3fec9","683db6dfa200031b80f2a654","68650755f02e1ac54934d329","6818badffc8546af8aa3fec9","2025-07-02T11:02:16.103Z","","","","","","AttribQ","","","","","","","","","","","","","","","","","","","","","","","","","","","","","","","","","","","","","","50"
"1722","","<div style=""width:500px;"">
  <p>How much control did you have over the ball?</p>
  </div>","63","html-slider-response","68","1025781","0.0-10.0-2.6","211","1","2025-07-02 10:45:10","80fe4187154257d5fb01684ea91b68b9","103.104.20.12","Mozilla/5.0 (Windows NT 10.0; Win64; x64) AppleWebKit/537.36 (KHTML, like Gecko) Chrome/129.0.0.0 Safari/537.36","WebKit","Chrome","129.0.0.0","Windows","10.0","https://app.prolific.com/","en-US,en;q=0.9","6818badffc8546af8aa3fec9","683db6dfa200031b80f2a654","68650755f02e1ac54934d329","6818badffc8546af8aa3fec9","2025-07-02T11:02:17.827Z","","","","","","ControlQ","","","","","","","","","","","","","","","","","","","","","","","","","","","","","","","","","","","","","","50"
"1746","","<div style=""width:500px;"">
  <p>How would you describe your current emotional state?</p>
  </div>","40","html-slider-response","69","1027530","0.0-10.0-3.6","211","1","2025-07-02 10:45:10","80fe4187154257d5fb01684ea91b68b9","103.104.20.12","Mozilla/5.0 (Windows NT 10.0; Win64; x64) AppleWebKit/537.36 (KHTML, like Gecko) Chrome/129.0.0.0 Safari/537.36","WebKit","Chrome","129.0.0.0","Windows","10.0","https://app.prolific.com/","en-US,en;q=0.9","6818badffc8546af8aa3fec9","683db6dfa200031b80f2a654","68650755f02e1ac54934d329","6818badffc8546af8aa3fec9","2025-07-02T11:02:19.577Z","","","","","","StressQ","","","","","","","","","","","","","","","","","","","","","","","","","","","","","","","","","","","","","","50"
"1833","","<div style=""width:500px;"">
  <p>What best describes how you currently feel?</p>
  </div>","80","html-slider-response","70","1029368","0.0-10.0-4.6","211","1","2025-07-02 10:45:10","80fe4187154257d5fb01684ea91b68b9","103.104.20.12","Mozilla/5.0 (Windows NT 10.0; Win64; x64) AppleWebKit/537.36 (KHTML, like Gecko) Chrome/129.0.0.0 Safari/537.36","WebKit","Chrome","129.0.0.0","Windows","10.0","https://app.prolific.com/","en-US,en;q=0.9","6818badffc8546af8aa3fec9","683db6dfa200031b80f2a654","68650755f02e1ac54934d329","6818badffc8546af8aa3fec9","2025-07-02T11:02:21.414Z","","","","","","MotivationQ","","","","","","","","","","","","","","","","","","","","","","","","","","","","","","","","","","","","","","50"
"","","","","ctl-task-cpt","71","1101723","0.0-10.0-0.7","211","1","2025-07-02 10:45:10","80fe4187154257d5fb01684ea91b68b9","103.104.20.12","Mozilla/5.0 (Windows NT 10.0; Win64; x64) AppleWebKit/537.36 (KHTML, like Gecko) Chrome/129.0.0.0 Safari/537.36","WebKit","Chrome","129.0.0.0","Windows","10.0","https://app.prolific.com/","en-US,en;q=0.9","6818badffc8546af8aa3fec9","683db6dfa200031b80f2a654","68650755f02e1ac54934d329","6818badffc8546af8aa3fec9","2025-07-02T11:03:33.771Z","","","","","","","","","","","","","","","","win-only","0","g1:NW,g2:SE","0.3","8","0","1032213.5","1023","6025","69324.1","1","4","8","6","2","-8","-12","15","27","0.11363636363636363","777.2","3000","-1530","[""down"",""right""]","{""num_key_presses"":16,""num_perfect"":3,""num_errors"":4,""num_randdir"":9,""num_randdir_good_moves"":4,""num_whilered"":0,""num_whileblue"":4,""num_blue"":8,""num_good_moves"":9}","[462.8571428571429,465.3571428571429,0.5,462.8571428571429,465.3571428571429,100.6,462.8571428571429,464.1071428571429,211.1,462.8571428571429,464.1071428571429,313.3,462.8571428571429,464.1071428571429,413.8,502.8571428571429,547.8571428571429,515.3,769.1071428571429,785.3571428571429,631.1,827.8571428571429,817.8571428571429,741.4,827.8571428571429,817.8571428571429,848.2,827.8571428571429,817.8571428571429,958.6,839.1071428571429,739.1071428571429,1060.5,820.3571428571429,576.6071428571429,1168.9,820.3571428571429,576.6071428571429,1269,820.3571428571429,576.6071428571429,1386.8,820.3571428571429,576.6071428571429,1490.5,820.3571428571429,575.3571428571429,1596.8,820.3571428571429,575.3571428571429,1697.1,820.3571428571429,575.3571428571429,1802.9,820.3571428571429,575.3571428571429,1909.5,820.3571428571429,575.3571428571429,2017.1,820.3571428571429,575.3571428571429,2124.7,820.3571428571429,575.3571428571429,2224.8,820.3571428571429,575.3571428571429,2331.7,820.3571428571429,575.3571428571429,2442.3,820.3571428571429,575.3571428571429,2542.5,820.3571428571429,575.3571428571429,2644.5,820.3571428571429,575.3571428571429,2749.2,820.3571428571429,575.3571428571429,2855.9,820.3571428571429,575.3571428571429,2957.7,820.3571428571429,575.3571428571429,3058,820.3571428571429,575.3571428571429,3168.5,820.3571428571429,575.3571428571429,3270.6,820.3571428571429,575.3571428571429,3391.4,820.3571428571429,575.3571428571429,3493.3,820.3571428571429,575.3571428571429,3594.9,820.3571428571429,575.3571428571429,3699.6,820.3571428571429,575.3571428571429,3799.6,820.3571428571429,575.3571428571429,3901.7,820.3571428571429,575.3571428571429,4010.9,820.3571428571429,575.3571428571429,4117.4,820.3571428571429,575.3571428571429,4233.5,820.3571428571429,575.3571428571429,4356.5,820.3571428571429,575.3571428571429,4470.6,820.3571428571429,575.3571428571429,4575.4,820.3571428571429,575.3571428571429,4676.8,820.3571428571429,575.3571428571429,4783.7,820.3571428571429,575.3571428571429,4889]","[1481.3,1481.3,1000,0,481.3,""oops"",""down"",""left"",""bad_move"",8656,7173.6,3151.7,5056.4,448,""oops"",""down"",""right"",""good_move"",11786.6,3129.6,2698.3,8657,431.3,""smooth"",""down"",""down"",""good_move"",17581.8,5794.4,2058.7,15042.1,481.1,""oops"",""down"",""left"",""bad_move"",23842.3,6259.5,2600.5,20777.5,464.3,""oops"",""down"",""up"",""bad_move"",30243.2,6400.1,2263.1,27377.2,602.9,""oops"",""down"",""down"",""good_move"",32907.7,2664,2200,30243.8,464,""while_blue"",""right"",""down"",""good_move"",35757.5,2849.3,2169.3,32908.2,680,""oops"",""down"",""down"",""good_move"",38646.1,2887.8,2314,35758.4,573.7,""smooth"",""down"",""left"",""bad_move"",41965.4,3315.6,2769.3,38649.8,546.3,""oops"",""right"",""up"",""bad_move"",44962,2995.8,2564.5,41966.3,431.2,""while_blue"",""right"",""right"",""good_move"",47450.1,2487.4,1995.8,44962.7,491.6,""smooth"",""right"",""right"",""good_move"",51017.5,3566.8,3145.5,47450.7,421.3,""oops"",""right"",""right"",""good_move"",53741.6,2723.9,2349,51017.8,374.8,""oops"",""right"",""left"",""bad_move"",57141,3397.2,2682.1,53743.8,715.1,""while_blue"",""right"",""down"",""good_move"",59937.9,2796.5,2407.6,57141.5,388.8,""while_blue"",""right"",""left"",""bad_move""]","",""
"18314","","<div style=""width:500px;"">
  <p>What determined the result of this run?</p>
  </div>","12","html-slider-response","72","1120044","0.0-10.0-1.7","211","1","2025-07-02 10:45:10","80fe4187154257d5fb01684ea91b68b9","103.104.20.12","Mozilla/5.0 (Windows NT 10.0; Win64; x64) AppleWebKit/537.36 (KHTML, like Gecko) Chrome/129.0.0.0 Safari/537.36","WebKit","Chrome","129.0.0.0","Windows","10.0","https://app.prolific.com/","en-US,en;q=0.9","6818badffc8546af8aa3fec9","683db6dfa200031b80f2a654","68650755f02e1ac54934d329","6818badffc8546af8aa3fec9","2025-07-02T11:03:52.091Z","","","","","","AttribQ","","","","","","","","","","","","","","","","","","","","","","","","","","","","","","","","","","","","","","50"
"2496","","<div style=""width:500px;"">
  <p>How much control did you have over the ball?</p>
  </div>","28","html-slider-response","73","1122545","0.0-10.0-2.7","211","1","2025-07-02 10:45:10","80fe4187154257d5fb01684ea91b68b9","103.104.20.12","Mozilla/5.0 (Windows NT 10.0; Win64; x64) AppleWebKit/537.36 (KHTML, like Gecko) Chrome/129.0.0.0 Safari/537.36","WebKit","Chrome","129.0.0.0","Windows","10.0","https://app.prolific.com/","en-US,en;q=0.9","6818badffc8546af8aa3fec9","683db6dfa200031b80f2a654","68650755f02e1ac54934d329","6818badffc8546af8aa3fec9","2025-07-02T11:03:54.591Z","","","","","","ControlQ","","","","","","","","","","","","","","","","","","","","","","","","","","","","","","","","","","","","","","50"
"2111","","<div style=""width:500px;"">
  <p>How would you describe your current emotional state?</p>
  </div>","29","html-slider-response","74","1124657","0.0-10.0-3.7","211","1","2025-07-02 10:45:10","80fe4187154257d5fb01684ea91b68b9","103.104.20.12","Mozilla/5.0 (Windows NT 10.0; Win64; x64) AppleWebKit/537.36 (KHTML, like Gecko) Chrome/129.0.0.0 Safari/537.36","WebKit","Chrome","129.0.0.0","Windows","10.0","https://app.prolific.com/","en-US,en;q=0.9","6818badffc8546af8aa3fec9","683db6dfa200031b80f2a654","68650755f02e1ac54934d329","6818badffc8546af8aa3fec9","2025-07-02T11:03:56.703Z","","","","","","StressQ","","","","","","","","","","","","","","","","","","","","","","","","","","","","","","","","","","","","","","50"
"1927","","<div style=""width:500px;"">
  <p>What best describes how you currently feel?</p>
  </div>","75","html-slider-response","75","1126586","0.0-10.0-4.7","211","1","2025-07-02 10:45:10","80fe4187154257d5fb01684ea91b68b9","103.104.20.12","Mozilla/5.0 (Windows NT 10.0; Win64; x64) AppleWebKit/537.36 (KHTML, like Gecko) Chrome/129.0.0.0 Safari/537.36","WebKit","Chrome","129.0.0.0","Windows","10.0","https://app.prolific.com/","en-US,en;q=0.9","6818badffc8546af8aa3fec9","683db6dfa200031b80f2a654","68650755f02e1ac54934d329","6818badffc8546af8aa3fec9","2025-07-02T11:03:58.632Z","","","","","","MotivationQ","","","","","","","","","","","","","","","","","","","","","","","","","","","","","","","","","","","","","","50"
"","","","","ctl-task-cpt","76","1166253","0.0-10.0-0.8","211","1","2025-07-02 10:45:10","80fe4187154257d5fb01684ea91b68b9","103.104.20.12","Mozilla/5.0 (Windows NT 10.0; Win64; x64) AppleWebKit/537.36 (KHTML, like Gecko) Chrome/129.0.0.0 Safari/537.36","WebKit","Chrome","129.0.0.0","Windows","10.0","https://app.prolific.com/","en-US,en;q=0.9","6818badffc8546af8aa3fec9","683db6dfa200031b80f2a654","68650755f02e1ac54934d329","6818badffc8546af8aa3fec9","2025-07-02T11:04:38.301Z","","","","","","","","","","","","","","","","win-only","1","g1:NE,g2:SW","0.4","9","0","1129434.2","1011.1","6016.9","36627.3","1","4","4","6","2","4","4","19","15","0.14393939393939395","1145.7","3000","1280","[""down"",""left""]","{""num_key_presses"":8,""num_perfect"":3,""num_errors"":0,""num_randdir"":5,""num_randdir_good_moves"":4,""num_whilered"":0,""num_whileblue"":0,""num_blue"":2,""num_good_moves"":7}","[462.8571428571429,456.6071428571429,0.3,462.8571428571429,456.6071428571429,106.1,462.8571428571429,456.6071428571429,208.5,462.8571428571429,456.6071428571429,329,462.8571428571429,456.6071428571429,435.4,462.8571428571429,456.6071428571429,536.4,579.1071428571429,460.3571428571429,636.5,677.8571428571429,490.3571428571429,741.5,302.8571428571429,722.8571428571429,844,146.60714285714286,769.1071428571429,949,117.85714285714286,799.1071428571429,1050.8,92.85714285714286,834.1071428571429,1158.1,92.85714285714286,834.1071428571429,1273.3,92.85714285714286,834.1071428571429,1389.8,92.85714285714286,834.1071428571429,1493,92.85714285714286,834.1071428571429,1604.7,92.85714285714286,834.1071428571429,1723.6,92.85714285714286,834.1071428571429,1829.1,92.85714285714286,834.1071428571429,1933.1,92.85714285714286,834.1071428571429,2035.3,92.85714285714286,834.1071428571429,2137.7,92.85714285714286,834.1071428571429,2238.1,92.85714285714286,834.1071428571429,2352,92.85714285714286,834.1071428571429,2462.1,92.85714285714286,834.1071428571429,2570.1,92.85714285714286,834.1071428571429,2671.4,92.85714285714286,834.1071428571429,2775.7,92.85714285714286,834.1071428571429,2875.9,92.85714285714286,834.1071428571429,2991.1,92.85714285714286,834.1071428571429,3105.1,92.85714285714286,834.1071428571429,3205.7,92.85714285714286,834.1071428571429,3314.8,92.85714285714286,834.1071428571429,3430.6,92.85714285714286,834.1071428571429,3533.2,92.85714285714286,834.1071428571429,3648.1,92.85714285714286,834.1071428571429,3748.3,92.85714285714286,834.1071428571429,3864.7,92.85714285714286,834.1071428571429,3966.2,92.85714285714286,834.1071428571429,4068.1,92.85714285714286,834.1071428571429,4178.4,92.85714285714286,834.1071428571429,4283.6,92.85714285714286,834.1071428571429,4402,92.85714285714286,834.1071428571429,4508.2,92.85714285714286,834.1071428571429,4612,92.85714285714286,834.1071428571429,4714.1,92.85714285714286,834.1071428571429,4825.7,92.85714285714286,834.1071428571429,4927.1]","[1704,1704.1,1000,0,704.1,""oops"",""down"",""down"",""good_move"",4140.5,2435,2009.6,1705.6,425.3,""smooth"",""down"",""down"",""good_move"",6737.6,2596.7,2160.6,4140.9,436.1,""smooth"",""down"",""down"",""good_move"",17595.4,10857.5,3590.2,13494,511.2,""oops"",""left"",""left"",""good_move"",20659.5,3062.6,2388.9,17597,673.6,""smooth"",""left"",""left"",""good_move"",23689.2,3029.4,2318,20659.8,711.4,""oops"",""left"",""up"",""bad_move"",27158.4,3466.2,2983.9,23692.3,482.2,""oops"",""down"",""down"",""good_move"",30401.3,3241.7,2795.5,27159.6,446.2,""oops"",""left"",""left"",""good_move""]","",""
"2671","","<div style=""width:500px;"">
  <p>What determined the result of this run?</p>
  </div>","78","html-slider-response","77","1168930","0.0-10.0-1.8","211","1","2025-07-02 10:45:10","80fe4187154257d5fb01684ea91b68b9","103.104.20.12","Mozilla/5.0 (Windows NT 10.0; Win64; x64) AppleWebKit/537.36 (KHTML, like Gecko) Chrome/129.0.0.0 Safari/537.36","WebKit","Chrome","129.0.0.0","Windows","10.0","https://app.prolific.com/","en-US,en;q=0.9","6818badffc8546af8aa3fec9","683db6dfa200031b80f2a654","68650755f02e1ac54934d329","6818badffc8546af8aa3fec9","2025-07-02T11:04:40.976Z","","","","","","AttribQ","","","","","","","","","","","","","","","","","","","","","","","","","","","","","","","","","","","","","","50"
"2160","","<div style=""width:500px;"">
  <p>How much control did you have over the ball?</p>
  </div>","82","html-slider-response","78","1171092","0.0-10.0-2.8","211","1","2025-07-02 10:45:10","80fe4187154257d5fb01684ea91b68b9","103.104.20.12","Mozilla/5.0 (Windows NT 10.0; Win64; x64) AppleWebKit/537.36 (KHTML, like Gecko) Chrome/129.0.0.0 Safari/537.36","WebKit","Chrome","129.0.0.0","Windows","10.0","https://app.prolific.com/","en-US,en;q=0.9","6818badffc8546af8aa3fec9","683db6dfa200031b80f2a654","68650755f02e1ac54934d329","6818badffc8546af8aa3fec9","2025-07-02T11:04:43.138Z","","","","","","ControlQ","","","","","","","","","","","","","","","","","","","","","","","","","","","","","","","","","","","","","","50"
"2799","","<div style=""width:500px;"">
  <p>How would you describe your current emotional state?</p>
  </div>","9","html-slider-response","79","1173893","0.0-10.0-3.8","211","1","2025-07-02 10:45:10","80fe4187154257d5fb01684ea91b68b9","103.104.20.12","Mozilla/5.0 (Windows NT 10.0; Win64; x64) AppleWebKit/537.36 (KHTML, like Gecko) Chrome/129.0.0.0 Safari/537.36","WebKit","Chrome","129.0.0.0","Windows","10.0","https://app.prolific.com/","en-US,en;q=0.9","6818badffc8546af8aa3fec9","683db6dfa200031b80f2a654","68650755f02e1ac54934d329","6818badffc8546af8aa3fec9","2025-07-02T11:04:45.939Z","","","","","","StressQ","","","","","","","","","","","","","","","","","","","","","","","","","","","","","","","","","","","","","","50"
"1867","","<div style=""width:500px;"">
  <p>What best describes how you currently feel?</p>
  </div>","99","html-slider-response","80","1175762","0.0-10.0-4.8","211","1","2025-07-02 10:45:10","80fe4187154257d5fb01684ea91b68b9","103.104.20.12","Mozilla/5.0 (Windows NT 10.0; Win64; x64) AppleWebKit/537.36 (KHTML, like Gecko) Chrome/129.0.0.0 Safari/537.36","WebKit","Chrome","129.0.0.0","Windows","10.0","https://app.prolific.com/","en-US,en;q=0.9","6818badffc8546af8aa3fec9","683db6dfa200031b80f2a654","68650755f02e1ac54934d329","6818badffc8546af8aa3fec9","2025-07-02T11:04:47.808Z","","","","","","MotivationQ","","","","","","","","","","","","","","","","","","","","","","","","","","","","","","","","","","","","","","50"
"","","","","ctl-task-cpt","81","1233973","0.0-10.0-0.9","211","1","2025-07-02 10:45:10","80fe4187154257d5fb01684ea91b68b9","103.104.20.12","Mozilla/5.0 (Windows NT 10.0; Win64; x64) AppleWebKit/537.36 (KHTML, like Gecko) Chrome/129.0.0.0 Safari/537.36","WebKit","Chrome","129.0.0.0","Windows","10.0","https://app.prolific.com/","en-US,en;q=0.9","6818badffc8546af8aa3fec9","683db6dfa200031b80f2a654","68650755f02e1ac54934d329","6818badffc8546af8aa3fec9","2025-07-02T11:05:46.019Z","","","","","","","","","","","","","","","","win-only","2","g1:SE,g2:NW","0.5","10","0","1178608","1578.6","6583.5","55178","1","4","8","6","2","8","8","27","19","0.20454545454545456","1134.6","3000","145","[""left"",""up""]","{""num_key_presses"":14,""num_perfect"":5,""num_errors"":0,""num_randdir"":9,""num_randdir_good_moves"":5,""num_whilered"":0,""num_whileblue"":0,""num_blue"":2,""num_good_moves"":10}","[452.8571428571429,462.8571428571429,0.9,452.8571428571429,462.8571428571429,105.9,452.8571428571429,462.8571428571429,215.7,452.8571428571429,462.8571428571429,319.5,531.6071428571429,512.8571428571429,427.1,716.6071428571429,701.6071428571429,529.8,562.8571428571429,647.8571428571429,639.5,10.357142857142861,7.857142857142861,745.7,16.60714285714286,27.85714285714286,847.9,57.85714285714286,52.85714285714286,969.3,59.10714285714286,55.35714285714286,1069.8,57.85714285714286,55.35714285714286,1171.7,57.85714285714286,55.35714285714286,1281.6,57.85714285714286,55.35714285714286,1390.7,57.85714285714286,55.35714285714286,1495.3,57.85714285714286,55.35714285714286,1603.6,57.85714285714286,55.35714285714286,1711.2,57.85714285714286,55.35714285714286,1843.9,57.85714285714286,55.35714285714286,1948.7,57.85714285714286,55.35714285714286,2059,57.85714285714286,55.35714285714286,2163.1,57.85714285714286,55.35714285714286,2271.4,57.85714285714286,55.35714285714286,2375.9,57.85714285714286,55.35714285714286,2478.8,57.85714285714286,55.35714285714286,2580.8,57.85714285714286,55.35714285714286,2684.9,57.85714285714286,55.35714285714286,2797.2,57.85714285714286,55.35714285714286,2904,57.85714285714286,55.35714285714286,3005.6,57.85714285714286,55.35714285714286,3112.3,57.85714285714286,55.35714285714286,3214.6,57.85714285714286,55.35714285714286,3316.4,57.85714285714286,55.35714285714286,3430.9,57.85714285714286,55.35714285714286,3531.6,57.85714285714286,55.35714285714286,3635.4,57.85714285714286,55.35714285714286,3742.9,57.85714285714286,55.35714285714286,3853.4,57.85714285714286,55.35714285714286,3958.8,57.85714285714286,55.35714285714286,4059.8,57.85714285714286,55.35714285714286,4164.6,57.85714285714286,55.35714285714286,4268.8,57.85714285714286,55.35714285714286,4370.8,57.85714285714286,55.35714285714286,4475.7,57.85714285714286,55.35714285714286,4591.1,57.85714285714286,55.35714285714286,4691.9,57.85714285714286,55.35714285714286,4792.3,57.85714285714286,55.35714285714286,4895.6]","[5912.4,5912.4,3382,2005.4,525.1,""oops"",""left"",""right"",""bad_move"",9227.1,3313.3,2779.5,5913.8,533.8,""oops"",""left"",""left"",""good_move"",12771.3,3543.3,2995.4,9228,547.9,""smooth"",""left"",""left"",""good_move"",15793,3021.2,2256.5,12771.8,764.7,""smooth"",""left"",""left"",""good_move"",18767.6,2974.2,2548.1,15793.4,426.1,""oops"",""up"",""down"",""bad_move"",21209.8,2440.9,1987.4,18768.9,453.5,""smooth"",""up"",""up"",""good_move"",24779.9,3569.6,3155.1,21210.3,414.5,""oops"",""up"",""down"",""bad_move"",27136.2,2355.4,1925.5,24780.9,429.9,""smooth"",""up"",""up"",""good_move"",30207.5,3070.8,2702.5,27136.7,368.3,""smooth"",""left"",""left"",""good_move"",37082.1,6873.3,3102.7,33594,385.4,""oops"",""up"",""down"",""bad_move"",40463.1,3379.8,2465.4,37083.3,914.4,""oops"",""up"",""up"",""good_move"",43321.6,2857.8,2277.4,40463.8,580.4,""oops"",""up"",""up"",""good_move"",45939.1,2616.4,2063.1,43322.8,553.3,""oops"",""up"",""up"",""good_move"",48402.9,2463.4,2023.5,45939.5,439.9,""oops"",""up"",""up"",""good_move""]","",""
"1492","","<div style=""width:500px;"">
  <p>What determined the result of this run?</p>
