"rt","response_timestamp","stimulus","response","trial_type","trial_index","time_elapsed","internal_node_id","run_id","condition","recorded_at","source_code_version","ip","user_agent","device","browser","browser_version","platform","platform_version","referer","accept_language","PROLIFIC_PID","STUDY_ID","SESSION_ID","WEEK","BATCH","prolific_id","week","batch","realtime","success","responses","item_order","radio_event_ids","radio_event_times","key_event_times","mouse_event_times","straightlining","zigzagging","honeypot","eventType","view_history","slider_start","which_type","canvas_config","goals_layout","control_level","trial_number","tutorial_trial_number","trial_start_time","phase1_start_time","phase2_start_time","phase3_start_time","goal_1_value","goal_1_distance","goal_2_value","goal_2_distance","goal_selected","outcome","outcome_total","participant_final_score","participant_initial_score","participant_final_score_prop","goal_choice_rt","allocated_time","allocated_time_remaining","goal_direction","counts","mouse_movements","key_presses","question_order","question_id"
"2791","1752657308531","<p style='font-size:40px;line-height:1.25'><strong>Welcome to the experiment!</strong></p><p style='font-size:1.1em;line-height:1.25'>Thank you for participanting in our experiment again! You will be asked to play the Dysfunctional Ball Game again. We will briefly recap the rules before we start.</p><p style='font-size:1.1em;line-height:1.25'>Press <strong>Next</strong> to continue.</p>","0","custom-html-button-response","0","2797","0.0-0.0","89","1","2025-07-16 09:15:04","1f75c3e559b7213887762d5229550c2b","2.97.13.138","Mozilla/5.0 (Macintosh; Intel Mac OS X 10_15_7) AppleWebKit/605.1.15 (KHTML, like Gecko) Version/18.3.1 Safari/605.1.15","Macintosh","Safari","18.3.1","OS X","10_15_7","https://app.prolific.com/","en-GB,en;q=0.9","5c63e773f9b6300001c9ce20","686e379bc37a29ffa5cdc956","68776d8f5e21f20f528fa4a9","1","1","5c63e773f9b6300001c9ce20","1","1","2025-07-16T09:15:08.533Z","","","","","","","","","","","","","","","","","","","","","","","","","","","","","","","","","","","","","","","","","",""
"1937","","","","fullscreen","1","5741","0.0-1.0","89","1","2025-07-16 09:15:04","1f75c3e559b7213887762d5229550c2b","2.97.13.138","Mozilla/5.0 (Macintosh; Intel Mac OS X 10_15_7) AppleWebKit/605.1.15 (KHTML, like Gecko) Version/18.3.1 Safari/605.1.15","Macintosh","Safari","18.3.1","OS X","10_15_7","https://app.prolific.com/","en-GB,en;q=0.9","5c63e773f9b6300001c9ce20","686e379bc37a29ffa5cdc956","68776d8f5e21f20f528fa4a9","1","1","5c63e773f9b6300001c9ce20","1","1","","true","","","","","","","","","","","","","","","","","","","","","","","","","","","","","","","","","","","","","","","","",""
"1615","1752657313092","<p style='font-size:1.1em;line-height:1.25'>In the following, we will ask you a few questions relating to your feelings in the last 24 hours.<br></p><p style='font-size:1.1em;line-height:1.25'>Press the <strong>Next</strong> button to continue.</p>","0","custom-html-button-response","2","7357","0.0-2.0-0.0","89","1","2025-07-16 09:15:04","1f75c3e559b7213887762d5229550c2b","2.97.13.138","Mozilla/5.0 (Macintosh; Intel Mac OS X 10_15_7) AppleWebKit/605.1.15 (KHTML, like Gecko) Version/18.3.1 Safari/605.1.15","Macintosh","Safari","18.3.1","OS X","10_15_7","https://app.prolific.com/","en-GB,en;q=0.9","5c63e773f9b6300001c9ce20","686e379bc37a29ffa5cdc956","68776d8f5e21f20f528fa4a9","1","1","5c63e773f9b6300001c9ce20","1","1","2025-07-16T09:15:13.093Z","","","","","","","","","","","","","","","","","","","","","","","","","","","","","","","","","","","","","","","","","",""
"42248","","","","survey-template","3","49617","0.0-2.0-1.0","89","1","2025-07-16 09:15:04","1f75c3e559b7213887762d5229550c2b","2.97.13.138","Mozilla/5.0 (Macintosh; Intel Mac OS X 10_15_7) AppleWebKit/605.1.15 (KHTML, like Gecko) Version/18.3.1 Safari/605.1.15","Macintosh","Safari","18.3.1","OS X","10_15_7","https://app.prolific.com/","en-GB,en;q=0.9","5c63e773f9b6300001c9ce20","686e379bc37a29ffa5cdc956","68776d8f5e21f20f528fa4a9","1","1","5c63e773f9b6300001c9ce20","1","1","2025-07-16T09:15:55.353Z","","{""Q01"":""3"",""Q02"":""2"",""Q03"":""3"",""Q04"":""2"",""Q05"":""1"",""Q06"":""1"",""Q07"":""2"",""Q08"":""0"",""Q09"":""3"",""Q10"":""2"",""Q11"":""3"",""Q12"":""1"",""Q13"":""5"",""Q14"":""1"",""Q15"":""3"",""Q16"":""3"",""Q17"":""1"",""Q18"":""0"",""Q19"":""3"",""Q20"":""1"",""Q21"":""2"",""Q22"":""0""}","[0,1,2,3,4,5,6,7,8,9,10,11,12,13,14,15,16,17,18,19,20,21]","[""Q01"",""Q02"",""Q03"",""Q04"",""Q05"",""Q06"",""Q07"",""Q08"",""Q09"",""Q10"",""Q11"",""Q12"",""Q13"",""Q14"",""Q15"",""Q16"",""Q17"",""Q18"",""Q19"",""Q20"",""Q21"",""Q21"",""Q22""]","[2901,4338.000000000002,6536,7906,9152,10532.000000000004,11878.000000000004,13467,15398,17279,18803,20397,23685.000000000007,25537,27062,28297,30232,31389,33683,35720,37353,38806,40511]","[]","[0,2901,4338.000000000002,6536,7906,9152,10532.000000000004,11878.000000000004,13467,15398,17279,18803,20397,23685.000000000007,25537,27062,28297,30232,31389,33683,35720,37353,38806,40511,42231]","0.3181818181818182","0.42857142857142855","0","drsp","","","","","","","","","","","","","","","","","","","","","","","","","","","","","","",""
"7602.999999999993","","","","survey-template","4","57224","0.0-2.0-2.0","89","1","2025-07-16 09:15:04","1f75c3e559b7213887762d5229550c2b","2.97.13.138","Mozilla/5.0 (Macintosh; Intel Mac OS X 10_15_7) AppleWebKit/605.1.15 (KHTML, like Gecko) Version/18.3.1 Safari/605.1.15","Macintosh","Safari","18.3.1","OS X","10_15_7","https://app.prolific.com/","en-GB,en;q=0.9","5c63e773f9b6300001c9ce20","686e379bc37a29ffa5cdc956","68776d8f5e21f20f528fa4a9","1","1","5c63e773f9b6300001c9ce20","1","1","2025-07-16T09:16:02.959Z","","{""Q01"":""2"",""Q02"":""3"",""Q03"":""1""}","[0,1,2]","[""Q01"",""Q02"",""Q03""]","[2878,4508.999999999993,6370.999999999993]","[]","[2878,4508.999999999993,6370.999999999993,7596.999999999993]","0.6666666666666666","0.5","0","stress","","","","","","","","","","","","","","","","","","","","","","","","","","","","","","",""
"22293","","","","instructions","5","79520","0.0-3.0-0.0","89","1","2025-07-16 09:15:04","1f75c3e559b7213887762d5229550c2b","2.97.13.138","Mozilla/5.0 (Macintosh; Intel Mac OS X 10_15_7) AppleWebKit/605.1.15 (KHTML, like Gecko) Version/18.3.1 Safari/605.1.15","Macintosh","Safari","18.3.1","OS X","10_15_7","https://app.prolific.com/","en-GB,en;q=0.9","5c63e773f9b6300001c9ce20","686e379bc37a29ffa5cdc956","68776d8f5e21f20f528fa4a9","1","1","5c63e773f9b6300001c9ce20","1","1","","","","","","","","","","","","","[{""page_index"":0,""viewing_time"":22290}]","","","","","","","","","","","","","","","","","","","","","","","","","","","","","",""
"3487","","<p>Before you start with this game please answer the following three questions yourself. </p>
  <p>Through this game, we measure several aspects of your cognitive performance, such as reaction times, multi-tasking capabilities </p>
  <p>and the ability to assess the situation you are in.</p>
  <p></p>
  <p><b>How good do you usually are in such tasks?</b></p>","17","html-slider-response","6","83011","0.0-4.0-0.0","89","1","2025-07-16 09:15:04","1f75c3e559b7213887762d5229550c2b","2.97.13.138","Mozilla/5.0 (Macintosh; Intel Mac OS X 10_15_7) AppleWebKit/605.1.15 (KHTML, like Gecko) Version/18.3.1 Safari/605.1.15","Macintosh","Safari","18.3.1","OS X","10_15_7","https://app.prolific.com/","en-GB,en;q=0.9","5c63e773f9b6300001c9ce20","686e379bc37a29ffa5cdc956","68776d8f5e21f20f528fa4a9","1","1","5c63e773f9b6300001c9ce20","1","1","2025-07-16T09:16:28.746Z","","","","","","","","","","","PreSkillQ","","50","","","","","","","","","","","","","","","","","","","","","","","","","","","","",""
"3128","","<div style=""width:500px;"">
  <p>How well do you think you will perform in this task compared to other participants?</p>
  </div>","13","html-slider-response","7","86142","0.0-4.0-1.0","89","1","2025-07-16 09:15:04","1f75c3e559b7213887762d5229550c2b","2.97.13.138","Mozilla/5.0 (Macintosh; Intel Mac OS X 10_15_7) AppleWebKit/605.1.15 (KHTML, like Gecko) Version/18.3.1 Safari/605.1.15","Macintosh","Safari","18.3.1","OS X","10_15_7","https://app.prolific.com/","en-GB,en;q=0.9","5c63e773f9b6300001c9ce20","686e379bc37a29ffa5cdc956","68776d8f5e21f20f528fa4a9","1","1","5c63e773f9b6300001c9ce20","1","1","2025-07-16T09:16:31.877Z","","","","","","","","","","","PrePerfQ","","50","","","","","","","","","","","","","","","","","","","","","","","","","","","","",""
"3411","","<div style=""width:500px;"">
  <p>What best describes how you currently feel?</p>
  </div>","41","html-slider-response","8","89555","0.0-4.0-2.0","89","1","2025-07-16 09:15:04","1f75c3e559b7213887762d5229550c2b","2.97.13.138","Mozilla/5.0 (Macintosh; Intel Mac OS X 10_15_7) AppleWebKit/605.1.15 (KHTML, like Gecko) Version/18.3.1 Safari/605.1.15","Macintosh","Safari","18.3.1","OS X","10_15_7","https://app.prolific.com/","en-GB,en;q=0.9","5c63e773f9b6300001c9ce20","686e379bc37a29ffa5cdc956","68776d8f5e21f20f528fa4a9","1","1","5c63e773f9b6300001c9ce20","1","1","2025-07-16T09:16:35.290Z","","","","","","","","","","","PreMotivationQ","","50","","","","","","","","","","","","","","","","","","","","","","","","","","","","",""
"","","","","ctl-task-cpt","9","111258","0.0-5.0-0.0","89","1","2025-07-16 09:15:04","1f75c3e559b7213887762d5229550c2b","2.97.13.138","Mozilla/5.0 (Macintosh; Intel Mac OS X 10_15_7) AppleWebKit/605.1.15 (KHTML, like Gecko) Version/18.3.1 Safari/605.1.15","Macintosh","Safari","18.3.1","OS X","10_15_7","https://app.prolific.com/","en-GB,en;q=0.9","5c63e773f9b6300001c9ce20","686e379bc37a29ffa5cdc956","68776d8f5e21f20f528fa4a9","1","1","5c63e773f9b6300001c9ce20","1","1","2025-07-16T09:16:56.993Z","","","","","","","","","","","","","","win-only","3","g1:SW,g2:NE","1","1","0","91332","1646","6648","18671","1","4","4","6","1","1","1","1","0","0.007575757575757576","2841","3000","1715","[""down"",""left""]","{""num_key_presses"":4,""num_perfect"":4,""num_errors"":0,""num_randdir"":0,""num_randdir_good_moves"":0,""num_whilered"":0,""num_whileblue"":0,""num_blue"":0,""num_good_moves"":4}","[690.2857142857143,693.2857142857143,40,690.2857142857143,693.2857142857143,131,942.2857142857143,723.2857142857143,233,1838.2857142857142,811.2857142857143,336,1872.2857142857142,813.2857142857143,440,1872.2857142857142,813.2857142857143,544,1872.2857142857142,813.2857142857143,645,1872.2857142857142,813.2857142857143,746,1872.2857142857142,813.2857142857143,846,1872.2857142857142,813.2857142857143,947,1872.2857142857142,813.2857142857143,1047,1872.2857142857142,813.2857142857143,1151,1872.2857142857142,813.2857142857143,1255,1872.2857142857142,813.2857142857143,1357,1872.2857142857142,813.2857142857143,1461,1872.2857142857142,813.2857142857143,1561,1872.2857142857142,813.2857142857143,1663,1872.2857142857142,813.2857142857143,1764,1810.2857142857142,847.2857142857143,1867,1528.2857142857142,903.2857142857143,1968,1308.2857142857142,957.2857142857143,2089,1264.2857142857142,967.2857142857143,2194,868.2857142857143,1139.2857142857142,2296,-71.71428571428571,1289.2857142857142,2397,-93.71428571428571,1303.2857142857142,2497,-135.71428571428572,1319.2857142857142,2601,14.285714285714292,1291.2857142857142,2703,104.28571428571429,1283.2857142857142,2814,104.28571428571429,1283.2857142857142,2917,104.28571428571429,1283.2857142857142,3019,104.28571428571429,1283.2857142857142,3122,-13.714285714285708,1201.2857142857142,3228,-251.71428571428572,1065.2857142857142,3330,-251.71428571428572,1065.2857142857142,3430,-251.71428571428572,1065.2857142857142,3534,-251.71428571428572,1065.2857142857142,3634,-251.71428571428572,1065.2857142857142,3739,-251.71428571428572,1065.2857142857142,3846,-251.71428571428572,1065.2857142857142,3946,-251.71428571428572,1065.2857142857142,4050,-251.71428571428572,1065.2857142857142,4151,-251.71428571428572,1065.2857142857142,4256,-251.71428571428572,1065.2857142857142,4359,-251.71428571428572,1065.2857142857142,4464,-251.71428571428572,1065.2857142857142,4568,-251.71428571428572,1065.2857142857142,4671,-251.71428571428572,1065.2857142857142,4778,-251.71428571428572,1065.2857142857142,4880,-251.71428571428572,1065.2857142857142,4985]","[1533,1533,1000,0,533,""smooth"",""left"",""left"",""good_move"",5196,3662,3225,1534,437,""smooth"",""down"",""down"",""good_move"",8527,3330,2938.1,5197,391.9,""smooth"",""down"",""down"",""good_move"",11843,3315,2874,8528,441,""smooth"",""left"",""left"",""good_move""]","",""
"3388","","<div style=""width:500px;"">
  <p>What determined the result of this run?</p>
  </div>","74","html-slider-response","10","114648","0.0-5.0-1.0","89","1","2025-07-16 09:15:04","1f75c3e559b7213887762d5229550c2b","2.97.13.138","Mozilla/5.0 (Macintosh; Intel Mac OS X 10_15_7) AppleWebKit/605.1.15 (KHTML, like Gecko) Version/18.3.1 Safari/605.1.15","Macintosh","Safari","18.3.1","OS X","10_15_7","https://app.prolific.com/","en-GB,en;q=0.9","5c63e773f9b6300001c9ce20","686e379bc37a29ffa5cdc956","68776d8f5e21f20f528fa4a9","1","1","5c63e773f9b6300001c9ce20","1","1","2025-07-16T09:17:00.383Z","","","","","","","","","","","AttribQ","","50","","","","","","","","","","","","","","","","","","","","","","","","","","","","",""
"3161","","<div style=""width:500px;"">
  <p>How much control did you have over the ball?</p>
  </div>","95","html-slider-response","11","117811","0.0-5.0-2.0","89","1","2025-07-16 09:15:04","1f75c3e559b7213887762d5229550c2b","2.97.13.138","Mozilla/5.0 (Macintosh; Intel Mac OS X 10_15_7) AppleWebKit/605.1.15 (KHTML, like Gecko) Version/18.3.1 Safari/605.1.15","Macintosh","Safari","18.3.1","OS X","10_15_7","https://app.prolific.com/","en-GB,en;q=0.9","5c63e773f9b6300001c9ce20","686e379bc37a29ffa5cdc956","68776d8f5e21f20f528fa4a9","1","1","5c63e773f9b6300001c9ce20","1","1","2025-07-16T09:17:03.546Z","","","","","","","","","","","ControlQ","","50","","","","","","","","","","","","","","","","","","","","","","","","","","","","",""
"3101","","<div style=""width:500px;"">
  <p>How would you describe your current emotional state?</p>
  </div>","47","html-slider-response","12","120918","0.0-5.0-3.0","89","1","2025-07-16 09:15:04","1f75c3e559b7213887762d5229550c2b","2.97.13.138","Mozilla/5.0 (Macintosh; Intel Mac OS X 10_15_7) AppleWebKit/605.1.15 (KHTML, like Gecko) Version/18.3.1 Safari/605.1.15","Macintosh","Safari","18.3.1","OS X","10_15_7","https://app.prolific.com/","en-GB,en;q=0.9","5c63e773f9b6300001c9ce20","686e379bc37a29ffa5cdc956","68776d8f5e21f20f528fa4a9","1","1","5c63e773f9b6300001c9ce20","1","1","2025-07-16T09:17:06.653Z","","","","","","","","","","","StressQ","","50","","","","","","","","","","","","","","","","","","","","","","","","","","","","",""
"2991","","<div style=""width:500px;"">
  <p>What best describes how you currently feel?</p>
  </div>","44","html-slider-response","13","123910","0.0-5.0-4.0","89","1","2025-07-16 09:15:04","1f75c3e559b7213887762d5229550c2b","2.97.13.138","Mozilla/5.0 (Macintosh; Intel Mac OS X 10_15_7) AppleWebKit/605.1.15 (KHTML, like Gecko) Version/18.3.1 Safari/605.1.15","Macintosh","Safari","18.3.1","OS X","10_15_7","https://app.prolific.com/","en-GB,en;q=0.9","5c63e773f9b6300001c9ce20","686e379bc37a29ffa5cdc956","68776d8f5e21f20f528fa4a9","1","1","5c63e773f9b6300001c9ce20","1","1","2025-07-16T09:17:09.645Z","","","","","","","","","","","MotivationQ","","50","","","","","","","","","","","","","","","","","","","","","","","","","","","","",""
"","","","","ctl-task-cpt","14","148979","0.0-5.0-0.1","89","1","2025-07-16 09:15:04","1f75c3e559b7213887762d5229550c2b","2.97.13.138","Mozilla/5.0 (Macintosh; Intel Mac OS X 10_15_7) AppleWebKit/605.1.15 (KHTML, like Gecko) Version/18.3.1 Safari/605.1.15","Macintosh","Safari","18.3.1","OS X","10_15_7","https://app.prolific.com/","en-GB,en;q=0.9","5c63e773f9b6300001c9ce20","686e379bc37a29ffa5cdc956","68776d8f5e21f20f528fa4a9","1","1","5c63e773f9b6300001c9ce20","1","1","2025-07-16T09:17:34.714Z","","","","","","","","","","","","","","win-only","2","g1:SE,g2:NW","0.9","2","0","125658","1272","6279","22064","1","4","8","6","2","8","8","9","1","0.06818181818181818","2102","3000","1115","[""left"",""up""]","{""num_key_presses"":6,""num_perfect"":6,""num_errors"":0,""num_randdir"":0,""num_randdir_good_moves"":0,""num_whilered"":0,""num_whileblue"":0,""num_blue"":0,""num_good_moves"":6}","[696.2857142857143,687.2857142857143,1,696.2857142857143,687.2857142857143,209,726.2857142857143,687.2857142857143,357,1184.2857142857142,751.2857142857143,459,1308.2857142857142,781.2857142857143,560,1308.2857142857142,781.2857142857143,665,1308.2857142857142,781.2857142857143,766,1308.2857142857142,781.2857142857143,868,1308.2857142857142,781.2857142857143,972,1308.2857142857142,781.2857142857143,1076,1298.2857142857142,739.2857142857143,1178,462.2857142857143,355.2857142857143,1279,-81.71428571428571,79.28571428571429,1382,-145.71428571428572,47.28571428571429,1485,-99.71428571428571,45.28571428571429,1587,184.28571428571428,119.28571428571429,1695,190.28571428571428,121.28571428571429,1795,190.28571428571428,121.28571428571429,1898,176.28571428571428,125.28571428571429,2002,168.28571428571428,127.28571428571429,2110,154.28571428571428,127.28571428571429,2215,-71.71428571428571,225.28571428571428,2321,-291.7142857142857,467.2857142857143,2425,-291.7142857142857,467.2857142857143,2529,-291.7142857142857,467.2857142857143,2633,-291.7142857142857,467.2857142857143,2735,-291.7142857142857,467.2857142857143,2838,-291.7142857142857,467.2857142857143,2942,-291.7142857142857,467.2857142857143,3080,-291.7142857142857,467.2857142857143,3183,-291.7142857142857,467.2857142857143,3284,-291.7142857142857,467.2857142857143,3398,-291.7142857142857,467.2857142857143,3499,-291.7142857142857,467.2857142857143,3602,-291.7142857142857,467.2857142857143,3705,-291.7142857142857,467.2857142857143,3807,-291.7142857142857,467.2857142857143,3909,-291.7142857142857,467.2857142857143,4011,-291.7142857142857,467.2857142857143,4158,-291.7142857142857,467.2857142857143,4260,-291.7142857142857,467.2857142857143,4385,-291.7142857142857,467.2857142857143,4487,-291.7142857142857,467.2857142857143,4596,-291.7142857142857,467.2857142857143,4696,-291.7142857142857,467.2857142857143,4800,-291.7142857142857,467.2857142857143,4900]","[1478,1478,1000,0,478,""smooth"",""left"",""left"",""good_move"",3580,2101,1656.7,1479,444.3,""smooth"",""up"",""up"",""good_move"",6010,2429,2011.4,3581,417.6,""smooth"",""up"",""up"",""good_move"",9221,3211,2804.7,6010,406.3,""smooth"",""left"",""left"",""good_move"",12654,3432,3005.5,9222,426.5,""smooth"",""up"",""up"",""good_move"",15609,2955,2516.1,12654,438.9,""smooth"",""left"",""left"",""good_move""]","",""
"3500","","<div style=""width:500px;"">
  <p>What determined the result of this run?</p>
  </div>","30","html-slider-response","15","152481","0.0-5.0-1.1","89","1","2025-07-16 09:15:04","1f75c3e559b7213887762d5229550c2b","2.97.13.138","Mozilla/5.0 (Macintosh; Intel Mac OS X 10_15_7) AppleWebKit/605.1.15 (KHTML, like Gecko) Version/18.3.1 Safari/605.1.15","Macintosh","Safari","18.3.1","OS X","10_15_7","https://app.prolific.com/","en-GB,en;q=0.9","5c63e773f9b6300001c9ce20","686e379bc37a29ffa5cdc956","68776d8f5e21f20f528fa4a9","1","1","5c63e773f9b6300001c9ce20","1","1","2025-07-16T09:17:38.216Z","","","","","","","","","","","AttribQ","","50","","","","","","","","","","","","","","","","","","","","","","","","","","","","",""
"1974","","<div style=""width:500px;"">
  <p>How much control did you have over the ball?</p>
  </div>","100","html-slider-response","16","154456","0.0-5.0-2.1","89","1","2025-07-16 09:15:04","1f75c3e559b7213887762d5229550c2b","2.97.13.138","Mozilla/5.0 (Macintosh; Intel Mac OS X 10_15_7) AppleWebKit/605.1.15 (KHTML, like Gecko) Version/18.3.1 Safari/605.1.15","Macintosh","Safari","18.3.1","OS X","10_15_7","https://app.prolific.com/","en-GB,en;q=0.9","5c63e773f9b6300001c9ce20","686e379bc37a29ffa5cdc956","68776d8f5e21f20f528fa4a9","1","1","5c63e773f9b6300001c9ce20","1","1","2025-07-16T09:17:40.191Z","","","","","","","","","","","ControlQ","","50","","","","","","","","","","","","","","","","","","","","","","","","","","","","",""
"3408","","<div style=""width:500px;"">
  <p>How would you describe your current emotional state?</p>
  </div>","50","html-slider-response","17","157866","0.0-5.0-3.1","89","1","2025-07-16 09:15:04","1f75c3e559b7213887762d5229550c2b","2.97.13.138","Mozilla/5.0 (Macintosh; Intel Mac OS X 10_15_7) AppleWebKit/605.1.15 (KHTML, like Gecko) Version/18.3.1 Safari/605.1.15","Macintosh","Safari","18.3.1","OS X","10_15_7","https://app.prolific.com/","en-GB,en;q=0.9","5c63e773f9b6300001c9ce20","686e379bc37a29ffa5cdc956","68776d8f5e21f20f528fa4a9","1","1","5c63e773f9b6300001c9ce20","1","1","2025-07-16T09:17:43.601Z","","","","","","","","","","","StressQ","","50","","","","","","","","","","","","","","","","","","","","","","","","","","","","",""
"3033","","<div style=""width:500px;"">
  <p>What best describes how you currently feel?</p>
  </div>","46","html-slider-response","18","160899","0.0-5.0-4.1","89","1","2025-07-16 09:15:04","1f75c3e559b7213887762d5229550c2b","2.97.13.138","Mozilla/5.0 (Macintosh; Intel Mac OS X 10_15_7) AppleWebKit/605.1.15 (KHTML, like Gecko) Version/18.3.1 Safari/605.1.15","Macintosh","Safari","18.3.1","OS X","10_15_7","https://app.prolific.com/","en-GB,en;q=0.9","5c63e773f9b6300001c9ce20","686e379bc37a29ffa5cdc956","68776d8f5e21f20f528fa4a9","1","1","5c63e773f9b6300001c9ce20","1","1","2025-07-16T09:17:46.635Z","","","","","","","","","","","MotivationQ","","50","","","","","","","","","","","","","","","","","","","","","","","","","","","","",""
"","","","","ctl-task-cpt","19","198508","0.0-5.0-0.2","89","1","2025-07-16 09:15:04","1f75c3e559b7213887762d5229550c2b","2.97.13.138","Mozilla/5.0 (Macintosh; Intel Mac OS X 10_15_7) AppleWebKit/605.1.15 (KHTML, like Gecko) Version/18.3.1 Safari/605.1.15","Macintosh","Safari","18.3.1","OS X","10_15_7","https://app.prolific.com/","en-GB,en;q=0.9","5c63e773f9b6300001c9ce20","686e379bc37a29ffa5cdc956","68776d8f5e21f20f528fa4a9","1","1","5c63e773f9b6300001c9ce20","1","1","2025-07-16T09:18:24.243Z","","","","","","","","","","","","","","win-only","2","g1:SE,g2:NW","0.8","3","0","162646","1052","6054","34605","1","4","4","6","1","1","1","10","9","0.07575757575757576","896","3000","1810","[""down"",""right""]","{""num_key_presses"":4,""num_perfect"":4,""num_errors"":0,""num_randdir"":0,""num_randdir_good_moves"":0,""num_whilered"":0,""num_whileblue"":0,""num_blue"":5,""num_good_moves"":4}","[684.2857142857143,689.2857142857143,2,684.2857142857143,689.2857142857143,119,684.2857142857143,689.2857142857143,219,684.2857142857143,689.2857142857143,330,684.2857142857143,689.2857142857143,440,824.2857142857143,803.2857142857143,542,1142.2857142857142,1137.2857142857142,643,1204.2857142857142,1211.2857142857142,762,1206.2857142857142,1213.2857142857142,865,1206.2857142857142,1213.2857142857142,975,1206.2857142857142,1213.2857142857142,1081,1206.2857142857142,1213.2857142857142,1185,1466.2857142857142,1147.2857142857142,1287,1602.2857142857142,1107.2857142857142,1392,1604.2857142857142,1107.2857142857142,1497,1604.2857142857142,1107.2857142857142,1597,1604.2857142857142,1107.2857142857142,1700,1604.2857142857142,1107.2857142857142,1804,1604.2857142857142,1107.2857142857142,1913,1604.2857142857142,1107.2857142857142,2017,1604.2857142857142,1107.2857142857142,2124,1604.2857142857142,1107.2857142857142,2227,1604.2857142857142,1107.2857142857142,2332,1604.2857142857142,1107.2857142857142,2432,1604.2857142857142,1107.2857142857142,2535,1604.2857142857142,1107.2857142857142,2636,1604.2857142857142,1107.2857142857142,2746,1604.2857142857142,1107.2857142857142,2849,1604.2857142857142,1107.2857142857142,2952,1604.2857142857142,1107.2857142857142,3085,1604.2857142857142,1107.2857142857142,3186,1604.2857142857142,1107.2857142857142,3292,1604.2857142857142,1107.2857142857142,3394,1604.2857142857142,1107.2857142857142,3496,1604.2857142857142,1107.2857142857142,3597,1604.2857142857142,1107.2857142857142,3700,1604.2857142857142,1107.2857142857142,3800,1604.2857142857142,1107.2857142857142,3903,1604.2857142857142,1107.2857142857142,4003,1604.2857142857142,1107.2857142857142,4108,1604.2857142857142,1107.2857142857142,4210,1604.2857142857142,1107.2857142857142,4314,1604.2857142857142,1107.2857142857142,4414,1604.2857142857142,1107.2857142857142,4518,1604.2857142857142,1107.2857142857142,4625,1604.2857142857142,1107.2857142857142,4726,1604.2857142857142,1107.2857142857142,4829,1604.2857142857142,1107.2857142857142,4934]","[1532,1533,1000,0,533,""smooth"",""down"",""down"",""good_move"",8745,7212,2511.3,5725,508.7,""smooth"",""right"",""right"",""good_move"",24747,16001,3029.1,21199,518.9,""smooth"",""right"",""right"",""good_move"",28380,3632,3004.3,24748,627.7,""smooth"",""down"",""down"",""good_move""]","",""
"3601","","<div style=""width:500px;"">
  <p>What determined the result of this run?</p>
  </div>","42","html-slider-response","20","202110","0.0-5.0-1.2","89","1","2025-07-16 09:15:04","1f75c3e559b7213887762d5229550c2b","2.97.13.138","Mozilla/5.0 (Macintosh; Intel Mac OS X 10_15_7) AppleWebKit/605.1.15 (KHTML, like Gecko) Version/18.3.1 Safari/605.1.15","Macintosh","Safari","18.3.1","OS X","10_15_7","https://app.prolific.com/","en-GB,en;q=0.9","5c63e773f9b6300001c9ce20","686e379bc37a29ffa5cdc956","68776d8f5e21f20f528fa4a9","1","1","5c63e773f9b6300001c9ce20","1","1","2025-07-16T09:18:27.845Z","","","","","","","","","","","AttribQ","","50","","","","","","","","","","","","","","","","","","","","","","","","","","","","",""
"2639","","<div style=""width:500px;"">
  <p>How much control did you have over the ball?</p>
  </div>","68","html-slider-response","21","204751","0.0-5.0-2.2","89","1","2025-07-16 09:15:04","1f75c3e559b7213887762d5229550c2b","2.97.13.138","Mozilla/5.0 (Macintosh; Intel Mac OS X 10_15_7) AppleWebKit/605.1.15 (KHTML, like Gecko) Version/18.3.1 Safari/605.1.15","Macintosh","Safari","18.3.1","OS X","10_15_7","https://app.prolific.com/","en-GB,en;q=0.9","5c63e773f9b6300001c9ce20","686e379bc37a29ffa5cdc956","68776d8f5e21f20f528fa4a9","1","1","5c63e773f9b6300001c9ce20","1","1","2025-07-16T09:18:30.486Z","","","","","","","","","","","ControlQ","","50","","","","","","","","","","","","","","","","","","","","","","","","","","","","",""
"2152","","<div style=""width:500px;"">
  <p>How would you describe your current emotional state?</p>
  </div>","46","html-slider-response","22","206904","0.0-5.0-3.2","89","1","2025-07-16 09:15:04","1f75c3e559b7213887762d5229550c2b","2.97.13.138","Mozilla/5.0 (Macintosh; Intel Mac OS X 10_15_7) AppleWebKit/605.1.15 (KHTML, like Gecko) Version/18.3.1 Safari/605.1.15","Macintosh","Safari","18.3.1","OS X","10_15_7","https://app.prolific.com/","en-GB,en;q=0.9","5c63e773f9b6300001c9ce20","686e379bc37a29ffa5cdc956","68776d8f5e21f20f528fa4a9","1","1","5c63e773f9b6300001c9ce20","1","1","2025-07-16T09:18:32.639Z","","","","","","","","","","","StressQ","","50","","","","","","","","","","","","","","","","","","","","","","","","","","","","",""
"2923","","<div style=""width:500px;"">
  <p>What best describes how you currently feel?</p>
  </div>","41","html-slider-response","23","209828","0.0-5.0-4.2","89","1","2025-07-16 09:15:04","1f75c3e559b7213887762d5229550c2b","2.97.13.138","Mozilla/5.0 (Macintosh; Intel Mac OS X 10_15_7) AppleWebKit/605.1.15 (KHTML, like Gecko) Version/18.3.1 Safari/605.1.15","Macintosh","Safari","18.3.1","OS X","10_15_7","https://app.prolific.com/","en-GB,en;q=0.9","5c63e773f9b6300001c9ce20","686e379bc37a29ffa5cdc956","68776d8f5e21f20f528fa4a9","1","1","5c63e773f9b6300001c9ce20","1","1","2025-07-16T09:18:35.563Z","","","","","","","","","","","MotivationQ","","50","","","","","","","","","","","","","","","","","","","","","","","","","","","","",""
"","","","","ctl-task-cpt","24","249169","0.0-5.0-0.3","89","1","2025-07-16 09:15:04","1f75c3e559b7213887762d5229550c2b","2.97.13.138","Mozilla/5.0 (Macintosh; Intel Mac OS X 10_15_7) AppleWebKit/605.1.15 (KHTML, like Gecko) Version/18.3.1 Safari/605.1.15","Macintosh","Safari","18.3.1","OS X","10_15_7","https://app.prolific.com/","en-GB,en;q=0.9","5c63e773f9b6300001c9ce20","686e379bc37a29ffa5cdc956","68776d8f5e21f20f528fa4a9","1","1","5c63e773f9b6300001c9ce20","1","1","2025-07-16T09:19:14.904Z","","","","","","","","","","","","","","win-only","2","g1:SE,g2:NW","0.7","4","0","211574","1074","6084","36336","1","4","8","6","2","8","8","18","10","0.13636363636363635","1081","3000","1035","[""left"",""up""]","{""num_key_presses"":8,""num_perfect"":5,""num_errors"":0,""num_randdir"":3,""num_randdir_good_moves"":2,""num_whilered"":0,""num_whileblue"":0,""num_blue"":2,""num_good_moves"":7}","[688.2857142857143,713.2857142857143,3,688.2857142857143,713.2857142857143,108,688.2857142857143,713.2857142857143,208,688.2857142857143,713.2857142857143,316,688.2857142857143,713.2857142857143,443,688.2857142857143,713.2857142857143,546,688.2857142857143,713.2857142857143,652,508.2857142857143,481.2857142857143,764,230.28571428571428,169.28571428571428,866,212.28571428571428,153.28571428571428,968,196.28571428571428,151.28571428571428,1080,196.28571428571428,151.28571428571428,1180,196.28571428571428,151.28571428571428,1282,-41.71428571428571,363.2857142857143,1385,-223.71428571428572,545.2857142857143,1495,-223.71428571428572,547.2857142857143,1600,-223.71428571428572,547.2857142857143,1700,-223.71428571428572,547.2857142857143,1803,-223.71428571428572,547.2857142857143,1906,-223.71428571428572,547.2857142857143,2010,-223.71428571428572,547.2857142857143,2137,-223.71428571428572,547.2857142857143,2249,-223.71428571428572,547.2857142857143,2350,-223.71428571428572,547.2857142857143,2450,-223.71428571428572,547.2857142857143,2560,-223.71428571428572,547.2857142857143,2661,-223.71428571428572,547.2857142857143,2766,-223.71428571428572,547.2857142857143,2876,-223.71428571428572,547.2857142857143,2979,-223.71428571428572,547.2857142857143,3083,-223.71428571428572,547.2857142857143,3230,-223.71428571428572,547.2857142857143,3333,-223.71428571428572,547.2857142857143,3436,-223.71428571428572,547.2857142857143,3542,-223.71428571428572,547.2857142857143,3657,-223.71428571428572,547.2857142857143,3765,-223.71428571428572,547.2857142857143,3865,-223.71428571428572,547.2857142857143,3975,-223.71428571428572,547.2857142857143,4084,-223.71428571428572,547.2857142857143,4184,-223.71428571428572,547.2857142857143,4303,-223.71428571428572,547.2857142857143,4412,-223.71428571428572,547.2857142857143,4519,-223.71428571428572,547.2857142857143,4628,-223.71428571428572,547.2857142857143,4730,-223.71428571428572,547.2857142857143,4840,-223.71428571428572,547.2857142857143,4946]","[1537,1537,1000,0,537,""oops"",""left"",""left"",""good_move"",4935,3397,2879.6,1538,517.4,""oops"",""up"",""right"",""bad_move"",6837,1901,1330.8,4936,570.2,""smooth"",""left"",""left"",""good_move"",14191,7353,3175.6,10569,446.4,""smooth"",""left"",""left"",""good_move"",16822,2630,2076,14192,554,""smooth"",""up"",""up"",""good_move"",19999,3176,2745.3,16823,430.7,""smooth"",""up"",""up"",""good_move"",26302,6302,2670.4,23138,493.6,""oops"",""left"",""up"",""good_move"",30054,3751,3102.2,26303,648.8,""smooth"",""left"",""left"",""good_move""]","",""
"2782","","<div style=""width:500px;"">
  <p>What determined the result of this run?</p>
  </div>","64","html-slider-response","25","251953","0.0-5.0-1.3","89","1","2025-07-16 09:15:04","1f75c3e559b7213887762d5229550c2b","2.97.13.138","Mozilla/5.0 (Macintosh; Intel Mac OS X 10_15_7) AppleWebKit/605.1.15 (KHTML, like Gecko) Version/18.3.1 Safari/605.1.15","Macintosh","Safari","18.3.1","OS X","10_15_7","https://app.prolific.com/","en-GB,en;q=0.9","5c63e773f9b6300001c9ce20","686e379bc37a29ffa5cdc956","68776d8f5e21f20f528fa4a9","1","1","5c63e773f9b6300001c9ce20","1","1","2025-07-16T09:19:17.688Z","","","","","","","","","","","AttribQ","","50","","","","","","","","","","","","","","","","","","","","","","","","","","","","",""
"4237","","<div style=""width:500px;"">
  <p>How much control did you have over the ball?</p>
  </div>","57","html-slider-response","26","256191","0.0-5.0-2.3","89","1","2025-07-16 09:15:04","1f75c3e559b7213887762d5229550c2b","2.97.13.138","Mozilla/5.0 (Macintosh; Intel Mac OS X 10_15_7) AppleWebKit/605.1.15 (KHTML, like Gecko) Version/18.3.1 Safari/605.1.15","Macintosh","Safari","18.3.1","OS X","10_15_7","https://app.prolific.com/","en-GB,en;q=0.9","5c63e773f9b6300001c9ce20","686e379bc37a29ffa5cdc956","68776d8f5e21f20f528fa4a9","1","1","5c63e773f9b6300001c9ce20","1","1","2025-07-16T09:19:21.926Z","","","","","","","","","","","ControlQ","","50","","","","","","","","","","","","","","","","","","","","","","","","","","","","",""
"6569","","<div style=""width:500px;"">
  <p>How would you describe your current emotional state?</p>
  </div>","45","html-slider-response","27","262761","0.0-5.0-3.3","89","1","2025-07-16 09:15:04","1f75c3e559b7213887762d5229550c2b","2.97.13.138","Mozilla/5.0 (Macintosh; Intel Mac OS X 10_15_7) AppleWebKit/605.1.15 (KHTML, like Gecko) Version/18.3.1 Safari/605.1.15","Macintosh","Safari","18.3.1","OS X","10_15_7","https://app.prolific.com/","en-GB,en;q=0.9","5c63e773f9b6300001c9ce20","686e379bc37a29ffa5cdc956","68776d8f5e21f20f528fa4a9","1","1","5c63e773f9b6300001c9ce20","1","1","2025-07-16T09:19:28.496Z","","","","","","","","","","","StressQ","","50","","","","","","","","","","","","","","","","","","","","","","","","","","","","",""
"6860","","<div style=""width:500px;"">
  <p>What best describes how you currently feel?</p>
  </div>","40","html-slider-response","28","269621","0.0-5.0-4.3","89","1","2025-07-16 09:15:04","1f75c3e559b7213887762d5229550c2b","2.97.13.138","Mozilla/5.0 (Macintosh; Intel Mac OS X 10_15_7) AppleWebKit/605.1.15 (KHTML, like Gecko) Version/18.3.1 Safari/605.1.15","Macintosh","Safari","18.3.1","OS X","10_15_7","https://app.prolific.com/","en-GB,en;q=0.9","5c63e773f9b6300001c9ce20","686e379bc37a29ffa5cdc956","68776d8f5e21f20f528fa4a9","1","1","5c63e773f9b6300001c9ce20","1","1","2025-07-16T09:19:35.356Z","","","","","","","","","","","MotivationQ","","50","","","","","","","","","","","","","","","","","","","","","","","","","","","","",""
"","","","","ctl-task-cpt","29","296835","0.0-5.0-0.4","89","1","2025-07-16 09:15:04","1f75c3e559b7213887762d5229550c2b","2.97.13.138","Mozilla/5.0 (Macintosh; Intel Mac OS X 10_15_7) AppleWebKit/605.1.15 (KHTML, like Gecko) Version/18.3.1 Safari/605.1.15","Macintosh","Safari","18.3.1","OS X","10_15_7","https://app.prolific.com/","en-GB,en;q=0.9","5c63e773f9b6300001c9ce20","686e379bc37a29ffa5cdc956","68776d8f5e21f20f528fa4a9","1","1","5c63e773f9b6300001c9ce20","1","1","2025-07-16T09:20:02.570Z","","","","","","","","","","","","","","win-only","2","g1:SE,g2:NW","0.6","5","0","271366","7749","12766","24197","1","4","4","6","1","1","1","19","18","0.14393939393939395","953","3000","2150","[""down"",""right""]","{""num_key_presses"":4,""num_perfect"":4,""num_errors"":0,""num_randdir"":0,""num_randdir_good_moves"":0,""num_whilered"":0,""num_whileblue"":0,""num_blue"":0,""num_good_moves"":4}","[694.2857142857143,705.2857142857143,1,694.2857142857143,705.2857142857143,107,694.2857142857143,705.2857142857143,207,694.2857142857143,705.2857142857143,323,694.2857142857143,705.2857142857143,424,718.2857142857143,719.2857142857143,539,1124.2857142857142,1105.2857142857142,639,1206.2857142857142,1217.2857142857142,754,1230.2857142857142,1253.2857142857142,870,1230.2857142857142,1255.2857142857142,999,1230.2857142857142,1255.2857142857142,1101,1234.2857142857142,1255.2857142857142,1221,1626.2857142857142,1091.2857142857142,1326,1694.2857142857142,1057.2857142857142,1447,1694.2857142857142,1057.2857142857142,1561,1694.2857142857142,1057.2857142857142,1670,1694.2857142857142,1057.2857142857142,1781,1694.2857142857142,1057.2857142857142,1890,1694.2857142857142,1057.2857142857142,2019,1694.2857142857142,1057.2857142857142,2119,1694.2857142857142,1057.2857142857142,2222,1694.2857142857142,1057.2857142857142,2344,1694.2857142857142,1057.2857142857142,2446,1694.2857142857142,1057.2857142857142,2570,1694.2857142857142,1057.2857142857142,2674,1694.2857142857142,1057.2857142857142,2785,1694.2857142857142,1057.2857142857142,2891,1694.2857142857142,1057.2857142857142,2997,1694.2857142857142,1057.2857142857142,3109,1694.2857142857142,1057.2857142857142,3211,1694.2857142857142,1057.2857142857142,3317,1694.2857142857142,1057.2857142857142,3428,1694.2857142857142,1057.2857142857142,3537,1694.2857142857142,1057.2857142857142,3643,1694.2857142857142,1057.2857142857142,3744,1694.2857142857142,1057.2857142857142,3865,1694.2857142857142,1057.2857142857142,3965,1694.2857142857142,1057.2857142857142,4132,1694.2857142857142,1057.2857142857142,4240,1694.2857142857142,1057.2857142857142,4341,1694.2857142857142,1057.2857142857142,4443,1694.2857142857142,1057.2857142857142,4546,1694.2857142857142,1057.2857142857142,4646,1694.2857142857142,1057.2857142857142,4748,1694.2857142857142,1057.2857142857142,4858,1694.2857142857142,1057.2857142857142,4967]","[1567,1567,1000,0,567,""smooth"",""right"",""right"",""good_move"",4553,2985,2388,1568,597,""smooth"",""down"",""down"",""good_move"",8006,3452,2892.4,4554,559.6,""smooth"",""right"",""right"",""good_move"",11226,3219,2744.1,8007,474.9,""smooth"",""down"",""down"",""good_move""]","",""
"2943","","<div style=""width:500px;"">
  <p>What determined the result of this run?</p>
  </div>","68","html-slider-response","30","299780","0.0-5.0-1.4","89","1","2025-07-16 09:15:04","1f75c3e559b7213887762d5229550c2b","2.97.13.138","Mozilla/5.0 (Macintosh; Intel Mac OS X 10_15_7) AppleWebKit/605.1.15 (KHTML, like Gecko) Version/18.3.1 Safari/605.1.15","Macintosh","Safari","18.3.1","OS X","10_15_7","https://app.prolific.com/","en-GB,en;q=0.9","5c63e773f9b6300001c9ce20","686e379bc37a29ffa5cdc956","68776d8f5e21f20f528fa4a9","1","1","5c63e773f9b6300001c9ce20","1","1","2025-07-16T09:20:05.515Z","","","","","","","","","","","AttribQ","","50","","","","","","","","","","","","","","","","","","","","","","","","","","","","",""
"6306","","<div style=""width:500px;"">
  <p>How much control did you have over the ball?</p>
  </div>","98","html-slider-response","31","306088","0.0-5.0-2.4","89","1","2025-07-16 09:15:04","1f75c3e559b7213887762d5229550c2b","2.97.13.138","Mozilla/5.0 (Macintosh; Intel Mac OS X 10_15_7) AppleWebKit/605.1.15 (KHTML, like Gecko) Version/18.3.1 Safari/605.1.15","Macintosh","Safari","18.3.1","OS X","10_15_7","https://app.prolific.com/","en-GB,en;q=0.9","5c63e773f9b6300001c9ce20","686e379bc37a29ffa5cdc956","68776d8f5e21f20f528fa4a9","1","1","5c63e773f9b6300001c9ce20","1","1","2025-07-16T09:20:11.823Z","","","","","","","","","","","ControlQ","","50","","","","","","","","","","","","","","","","","","","","","","","","","","","","",""
"9394","","<div style=""width:500px;"">
  <p>How would you describe your current emotional state?</p>
  </div>","35","html-slider-response","32","315484","0.0-5.0-3.4","89","1","2025-07-16 09:15:04","1f75c3e559b7213887762d5229550c2b","2.97.13.138","Mozilla/5.0 (Macintosh; Intel Mac OS X 10_15_7) AppleWebKit/605.1.15 (KHTML, like Gecko) Version/18.3.1 Safari/605.1.15","Macintosh","Safari","18.3.1","OS X","10_15_7","https://app.prolific.com/","en-GB,en;q=0.9","5c63e773f9b6300001c9ce20","686e379bc37a29ffa5cdc956","68776d8f5e21f20f528fa4a9","1","1","5c63e773f9b6300001c9ce20","1","1","2025-07-16T09:20:21.220Z","","","","","","","","","","","StressQ","","50","","","","","","","","","","","","","","","","","","","","","","","","","","","","",""
"10771","","<div style=""width:500px;"">
  <p>What best describes how you currently feel?</p>
  </div>","44","html-slider-response","33","326257","0.0-5.0-4.4","89","1","2025-07-16 09:15:04","1f75c3e559b7213887762d5229550c2b","2.97.13.138","Mozilla/5.0 (Macintosh; Intel Mac OS X 10_15_7) AppleWebKit/605.1.15 (KHTML, like Gecko) Version/18.3.1 Safari/605.1.15","Macintosh","Safari","18.3.1","OS X","10_15_7","https://app.prolific.com/","en-GB,en;q=0.9","5c63e773f9b6300001c9ce20","686e379bc37a29ffa5cdc956","68776d8f5e21f20f528fa4a9","1","1","5c63e773f9b6300001c9ce20","1","1","2025-07-16T09:20:31.992Z","","","","","","","","","","","MotivationQ","","50","","","","","","","","","","","","","","","","","","","","","","","","","","","","",""
"","","","","ctl-task-cpt","34","409751","0.0-5.0-0.5","89","1","2025-07-16 09:15:04","1f75c3e559b7213887762d5229550c2b","2.97.13.138","Mozilla/5.0 (Macintosh; Intel Mac OS X 10_15_7) AppleWebKit/605.1.15 (KHTML, like Gecko) Version/18.3.1 Safari/605.1.15","Macintosh","Safari","18.3.1","OS X","10_15_7","https://app.prolific.com/","en-GB,en;q=0.9","5c63e773f9b6300001c9ce20","686e379bc37a29ffa5cdc956","68776d8f5e21f20f528fa4a9","1","1","5c63e773f9b6300001c9ce20","1","1","2025-07-16T09:21:55.487Z","","","","","","","","","","","","","","win-only","1","g1:NE,g2:SW","0.5","6","0","327999","8202","13214","80483","1","4","8","6","1","-1","-1","18","19","0.13636363636363635","1534","3000","-1135","[""up"",""right""]","{""num_key_presses"":17,""num_perfect"":10,""num_errors"":0,""num_randdir"":7,""num_randdir_good_moves"":0,""num_whilered"":0,""num_whileblue"":0,""num_blue"":5,""num_good_moves"":9}","[694.2857142857143,699.2857142857143,2,694.2857142857143,699.2857142857143,110,694.2857142857143,699.2857142857143,234,694.2857142857143,699.2857142857143,343,694.2857142857143,699.2857142857143,447,694.2857142857143,699.2857142857143,547,694.2857142857143,699.2857142857143,663,694.2857142857143,699.2857142857143,786,694.2857142857143,699.2857142857143,910,694.2857142857143,699.2857142857143,1013,694.2857142857143,699.2857142857143,1129,1074.2857142857142,349.2857142857143,1229,1308.2857142857142,173.28571428571428,1343,1328.2857142857142,133.28571428571428,1459,1328.2857142857142,127.28571428571429,1596,1328.2857142857142,127.28571428571429,1729,1474.2857142857142,213.28571428571428,1877,1720.2857142857142,401.2857142857143,1978,1720.2857142857142,403.2857142857143,2083,1720.2857142857142,403.2857142857143,2200,1720.2857142857142,403.2857142857143,2318,1720.2857142857142,403.2857142857143,2424,1720.2857142857142,403.2857142857143,2525,1720.2857142857142,403.2857142857143,2629,1720.2857142857142,403.2857142857143,2734,1720.2857142857142,403.2857142857143,2847,1720.2857142857142,403.2857142857143,2948,1720.2857142857142,403.2857142857143,3090,1720.2857142857142,403.2857142857143,3190,1720.2857142857142,403.2857142857143,3290,1720.2857142857142,403.2857142857143,3393,1720.2857142857142,403.2857142857143,3496,1720.2857142857142,403.2857142857143,3598,1720.2857142857142,403.2857142857143,3729,1720.2857142857142,403.2857142857143,3832,1720.2857142857142,403.2857142857143,3932,1720.2857142857142,403.2857142857143,4048,1720.2857142857142,403.2857142857143,4159,1720.2857142857142,403.2857142857143,4263,1720.2857142857142,403.2857142857143,4366,1720.2857142857142,403.2857142857143,4476,1720.2857142857142,403.2857142857143,4577,1720.2857142857142,403.2857142857143,4678,1720.2857142857142,403.2857142857143,4779,1720.2857142857142,403.2857142857143,4887]","[1582,1582,1000,0,582,""oops"",""up"",""left"",""bad_move"",4698,3116,1832.2,1582,1283.8,""oops"",""right"",""down"",""bad_move"",9780,5081,1497.1,7762,520.9,""oops"",""up"",""left"",""bad_move"",12868,3087,2561.8,9781,525.2,""oops"",""up"",""left"",""bad_move"",19183,6314,2322.6,16411,449.4,""smooth"",""down"",""down"",""bad_move"",22500,3316,2768.7,19184,547.3,""oops"",""right"",""down"",""bad_move"",25183,2682,2059.9,22501,622.1,""smooth"",""up"",""up"",""good_move"",28636,3452,3033.2,25184,418.8,""smooth"",""up"",""up"",""good_move"",31408,2772,2110.6,28636,661.4,""smooth"",""right"",""right"",""good_move"",41334,9924,2617.6,38212,504.4,""smooth"",""up"",""up"",""good_move"",44399,3063,2626.1,41336,436.9,""smooth"",""right"",""right"",""good_move"",47233,2833,2229.1,44400,603.9,""smooth"",""up"",""up"",""good_move"",50561,3327,2928.9,47234,398.1,""oops"",""right"",""down"",""bad_move"",53090,2527,2069.8,50563,457.2,""oops"",""right"",""down"",""bad_move"",55501,2410,1936.2,53091,473.8,""smooth"",""up"",""up"",""good_move"",62098,6596,2783.1,58860,454.9,""smooth"",""up"",""up"",""good_move"",64844,2745,2295.8,62099,450.2,""smooth"",""right"",""right"",""good_move""]","",""
"4297","","<div style=""width:500px;"">
  <p>What determined the result of this run?</p>
  </div>","19","html-slider-response","35","414051","0.0-5.0-1.5","89","1","2025-07-16 09:15:04","1f75c3e559b7213887762d5229550c2b","2.97.13.138","Mozilla/5.0 (Macintosh; Intel Mac OS X 10_15_7) AppleWebKit/605.1.15 (KHTML, like Gecko) Version/18.3.1 Safari/605.1.15","Macintosh","Safari","18.3.1","OS X","10_15_7","https://app.prolific.com/","en-GB,en;q=0.9","5c63e773f9b6300001c9ce20","686e379bc37a29ffa5cdc956","68776d8f5e21f20f528fa4a9","1","1","5c63e773f9b6300001c9ce20","1","1","2025-07-16T09:21:59.786Z","","","","","","","","","","","AttribQ","","50","","","","","","","","","","","","","","","","","","","","","","","","","","","","",""
"7594","","<div style=""width:500px;"">
  <p>How much control did you have over the ball?</p>
  </div>","16","html-slider-response","36","421646","0.0-5.0-2.5","89","1","2025-07-16 09:15:04","1f75c3e559b7213887762d5229550c2b","2.97.13.138","Mozilla/5.0 (Macintosh; Intel Mac OS X 10_15_7) AppleWebKit/605.1.15 (KHTML, like Gecko) Version/18.3.1 Safari/605.1.15","Macintosh","Safari","18.3.1","OS X","10_15_7","https://app.prolific.com/","en-GB,en;q=0.9","5c63e773f9b6300001c9ce20","686e379bc37a29ffa5cdc956","68776d8f5e21f20f528fa4a9","1","1","5c63e773f9b6300001c9ce20","1","1","2025-07-16T09:22:07.381Z","","","","","","","","","","","ControlQ","","50","","","","","","","","","","","","","","","","","","","","","","","","","","","","",""
"9606","","<div style=""width:500px;"">
  <p>How would you describe your current emotional state?</p>
  </div>","58","html-slider-response","37","431253","0.0-5.0-3.5","89","1","2025-07-16 09:15:04","1f75c3e559b7213887762d5229550c2b","2.97.13.138","Mozilla/5.0 (Macintosh; Intel Mac OS X 10_15_7) AppleWebKit/605.1.15 (KHTML, like Gecko) Version/18.3.1 Safari/605.1.15","Macintosh","Safari","18.3.1","OS X","10_15_7","https://app.prolific.com/","en-GB,en;q=0.9","5c63e773f9b6300001c9ce20","686e379bc37a29ffa5cdc956","68776d8f5e21f20f528fa4a9","1","1","5c63e773f9b6300001c9ce20","1","1","2025-07-16T09:22:16.988Z","","","","","","","","","","","StressQ","","50","","","","","","","","","","","","","","","","","","","","","","","","","","","","",""
"7711","","<div style=""width:500px;"">
  <p>What best describes how you currently feel?</p>
  </div>","41","html-slider-response","38","438967","0.0-5.0-4.5","89","1","2025-07-16 09:15:04","1f75c3e559b7213887762d5229550c2b","2.97.13.138","Mozilla/5.0 (Macintosh; Intel Mac OS X 10_15_7) AppleWebKit/605.1.15 (KHTML, like Gecko) Version/18.3.1 Safari/605.1.15","Macintosh","Safari","18.3.1","OS X","10_15_7","https://app.prolific.com/","en-GB,en;q=0.9","5c63e773f9b6300001c9ce20","686e379bc37a29ffa5cdc956","68776d8f5e21f20f528fa4a9","1","1","5c63e773f9b6300001c9ce20","1","1","2025-07-16T09:22:24.702Z","","","","","","","","","","","MotivationQ","","50","","","","","","","","","","","","","","","","","","","","","","","","","","","","",""
"","","","","ctl-task-cpt","39","506109","0.0-5.0-0.6","89","1","2025-07-16 09:15:04","1f75c3e559b7213887762d5229550c2b","2.97.13.138","Mozilla/5.0 (Macintosh; Intel Mac OS X 10_15_7) AppleWebKit/605.1.15 (KHTML, like Gecko) Version/18.3.1 Safari/605.1.15","Macintosh","Safari","18.3.1","OS X","10_15_7","https://app.prolific.com/","en-GB,en;q=0.9","5c63e773f9b6300001c9ce20","686e379bc37a29ffa5cdc956","68776d8f5e21f20f528fa4a9","1","1","5c63e773f9b6300001c9ce20","1","1","2025-07-16T09:23:31.844Z","","","","","","","","","","","","","","win-only","2","g1:SE,g2:NW","0.4","7","0","440706","6645","11670","64122","1","4","8","6","1","1","1","19","18","0.14393939393939395","1015","3000","605","[""down"",""right""]","{""num_key_presses"":14,""num_perfect"":8,""num_errors"":0,""num_randdir"":6,""num_randdir_good_moves"":1,""num_whilered"":0,""num_whileblue"":0,""num_blue"":2,""num_good_moves"":9}","[704.2857142857143,687.2857142857143,1,704.2857142857143,687.2857142857143,105,704.2857142857143,687.2857142857143,208,704.2857142857143,687.2857142857143,310,704.2857142857143,687.2857142857143,426,704.2857142857143,687.2857142857143,535,1224.2857142857142,1181.2857142857142,653,1358.2857142857142,1359.2857142857142,765,1360.2857142857142,1359.2857142857142,894,1360.2857142857142,1359.2857142857142,998,1360.2857142857142,1359.2857142857142,1162,1520.2857142857142,1111.2857142857142,1271,1590.2857142857142,1015.2857142857143,1375,1590.2857142857142,1005.2857142857143,1484,1590.2857142857142,1005.2857142857143,1592,1590.2857142857142,1005.2857142857143,1697,1590.2857142857142,1005.2857142857143,1813,1590.2857142857142,1005.2857142857143,1927,1590.2857142857142,1005.2857142857143,2029,1590.2857142857142,1005.2857142857143,2130,1590.2857142857142,1005.2857142857143,2234,1590.2857142857142,1005.2857142857143,2341,1590.2857142857142,1005.2857142857143,2442,1590.2857142857142,1005.2857142857143,2546,1590.2857142857142,1005.2857142857143,2674,1590.2857142857142,1005.2857142857143,2775,1590.2857142857142,1005.2857142857143,2904,1590.2857142857142,1005.2857142857143,3008,1590.2857142857142,1005.2857142857143,3173,1590.2857142857142,1005.2857142857143,3295,1590.2857142857142,1005.2857142857143,3410,1590.2857142857142,1005.2857142857143,3531,1590.2857142857142,1005.2857142857143,3671,1590.2857142857142,1005.2857142857143,3775,1590.2857142857142,1005.2857142857143,3879,1590.2857142857142,1005.2857142857143,3982,1590.2857142857142,1005.2857142857143,4108,1590.2857142857142,1005.2857142857143,4208,1590.2857142857142,1005.2857142857143,4326,1590.2857142857142,1005.2857142857143,4430,1590.2857142857142,1005.2857142857143,4548,1590.2857142857142,1005.2857142857143,4664,1590.2857142857142,1005.2857142857143,4805,1590.2857142857142,1005.2857142857143,4907]","[1552,1552,1000,0,552,""oops"",""down"",""up"",""bad_move"",5314,3761,3274.8,1553,486.2,""smooth"",""right"",""right"",""good_move"",9535,4219,3569.6,5316,649.4,""oops"",""down"",""left"",""bad_move"",13532,3996,3461,9536,535,""oops"",""right"",""left"",""bad_move"",16751,3218,2367.8,13533,850.2,""smooth"",""down"",""down"",""good_move"",19187,2434,1904.4,16753,529.6,""smooth"",""right"",""right"",""good_move"",22392,3204,2687.5,19188,516.5,""oops"",""down"",""up"",""bad_move"",25742,3348,2851.2,22394,496.8,""smooth"",""down"",""down"",""good_move"",28713,2969,2346.9,25744,622.1,""oops"",""down"",""down"",""good_move"",39417,10702,2726.9,36197,493.1,""oops"",""right"",""left"",""bad_move"",42643,3224,2044.9,39419,1179.1,""smooth"",""right"",""right"",""good_move"",45149,2504,1800.8,42645,703.2,""smooth"",""right"",""right"",""good_move"",48407,3256,2699.2,45151,556.8,""smooth"",""down"",""down"",""good_move"",52188,3779,3271.8,48409,507.2,""smooth"",""right"",""right"",""good_move""]","",""
"4187","","<div style=""width:500px;"">
  <p>What determined the result of this run?</p>
  </div>","44","html-slider-response","40","510298","0.0-5.0-1.6","89","1","2025-07-16 09:15:04","1f75c3e559b7213887762d5229550c2b","2.97.13.138","Mozilla/5.0 (Macintosh; Intel Mac OS X 10_15_7) AppleWebKit/605.1.15 (KHTML, like Gecko) Version/18.3.1 Safari/605.1.15","Macintosh","Safari","18.3.1","OS X","10_15_7","https://app.prolific.com/","en-GB,en;q=0.9","5c63e773f9b6300001c9ce20","686e379bc37a29ffa5cdc956","68776d8f5e21f20f528fa4a9","1","1","5c63e773f9b6300001c9ce20","1","1","2025-07-16T09:23:36.033Z","","","","","","","","","","","AttribQ","","50","","","","","","","","","","","","","","","","","","","","","","","","","","","","",""
"9508","","<div style=""width:500px;"">
  <p>How much control did you have over the ball?</p>
  </div>","38","html-slider-response","41","519807","0.0-5.0-2.6","89","1","2025-07-16 09:15:04","1f75c3e559b7213887762d5229550c2b","2.97.13.138","Mozilla/5.0 (Macintosh; Intel Mac OS X 10_15_7) AppleWebKit/605.1.15 (KHTML, like Gecko) Version/18.3.1 Safari/605.1.15","Macintosh","Safari","18.3.1","OS X","10_15_7","https://app.prolific.com/","en-GB,en;q=0.9","5c63e773f9b6300001c9ce20","686e379bc37a29ffa5cdc956","68776d8f5e21f20f528fa4a9","1","1","5c63e773f9b6300001c9ce20","1","1","2025-07-16T09:23:45.542Z","","","","","","","","","","","ControlQ","","50","","","","","","","","","","","","","","","","","","","","","","","","","","","","",""
"11647","","<div style=""width:500px;"">
  <p>How would you describe your current emotional state?</p>
  </div>","55","html-slider-response","42","531456","0.0-5.0-3.6","89","1","2025-07-16 09:15:04","1f75c3e559b7213887762d5229550c2b","2.97.13.138","Mozilla/5.0 (Macintosh; Intel Mac OS X 10_15_7) AppleWebKit/605.1.15 (KHTML, like Gecko) Version/18.3.1 Safari/605.1.15","Macintosh","Safari","18.3.1","OS X","10_15_7","https://app.prolific.com/","en-GB,en;q=0.9","5c63e773f9b6300001c9ce20","686e379bc37a29ffa5cdc956","68776d8f5e21f20f528fa4a9","1","1","5c63e773f9b6300001c9ce20","1","1","2025-07-16T09:23:57.191Z","","","","","","","","","","","StressQ","","50","","","","","","","","","","","","","","","","","","","","","","","","","","","","",""
"16289","","<div style=""width:500px;"">
  <p>What best describes how you currently feel?</p>
  </div>","38","html-slider-response","43","547747","0.0-5.0-4.6","89","1","2025-07-16 09:15:04","1f75c3e559b7213887762d5229550c2b","2.97.13.138","Mozilla/5.0 (Macintosh; Intel Mac OS X 10_15_7) AppleWebKit/605.1.15 (KHTML, like Gecko) Version/18.3.1 Safari/605.1.15","Macintosh","Safari","18.3.1","OS X","10_15_7","https://app.prolific.com/","en-GB,en;q=0.9","5c63e773f9b6300001c9ce20","686e379bc37a29ffa5cdc956","68776d8f5e21f20f528fa4a9","1","1","5c63e773f9b6300001c9ce20","1","1","2025-07-16T09:24:13.482Z","","","","","","","","","","","MotivationQ","","50","","","","","","","","","","","","","","","","","","","","","","","","","","","","",""
"","","","","ctl-task-cpt","44","592757","0.0-5.0-0.7","89","1","2025-07-16 09:15:04","1f75c3e559b7213887762d5229550c2b","2.97.13.138","Mozilla/5.0 (Macintosh; Intel Mac OS X 10_15_7) AppleWebKit/605.1.15 (KHTML, like Gecko) Version/18.3.1 Safari/605.1.15","Macintosh","Safari","18.3.1","OS X","10_15_7","https://app.prolific.com/","en-GB,en;q=0.9","5c63e773f9b6300001c9ce20","686e379bc37a29ffa5cdc956","68776d8f5e21f20f528fa4a9","1","1","5c63e773f9b6300001c9ce20","1","1","2025-07-16T09:24:58.493Z","","","","","","","","","","","","","","win-only","1","g1:NE,g2:SW","0.3","8","0","549483","7089","12133","41985","1","4","4","6","1","1","1","20","19","0.15151515151515152","1223","3000","2075","[""up"",""right""]","{""num_key_presses"":6,""num_perfect"":3,""num_errors"":0,""num_randdir"":3,""num_randdir_good_moves"":2,""num_whilered"":0,""num_whileblue"":0,""num_blue"":3,""num_good_moves"":5}","[692.2857142857143,697.2857142857143,1,692.2857142857143,697.2857142857143,100,692.2857142857143,697.2857142857143,207,692.2857142857143,697.2857142857143,322,692.2857142857143,697.2857142857143,435,692.2857142857143,697.2857142857143,542,692.2857142857143,697.2857142857143,670,692.2857142857143,697.2857142857143,771,740.2857142857143,653.2857142857143,889,1226.2857142857142,173.28571428571428,1022,1238.2857142857142,147.28571428571428,1143,1238.2857142857142,147.28571428571428,1294,1282.2857142857142,173.28571428571428,1402,1558.2857142857142,451.2857142857143,1546,1570.2857142857142,473.2857142857143,1674,1570.2857142857142,473.2857142857143,1821,1570.2857142857142,473.2857142857143,1927,1570.2857142857142,473.2857142857143,2041,1570.2857142857142,473.2857142857143,2150,1570.2857142857142,473.2857142857143,2253,1570.2857142857142,473.2857142857143,2365,1570.2857142857142,473.2857142857143,2515,1570.2857142857142,473.2857142857143,2624,1570.2857142857142,473.2857142857143,2729,1570.2857142857142,473.2857142857143,2853,1570.2857142857142,473.2857142857143,2959,1570.2857142857142,473.2857142857143,3074,1570.2857142857142,473.2857142857143,3174,1570.2857142857142,473.2857142857143,3283,1570.2857142857142,473.2857142857143,3422,1570.2857142857142,473.2857142857143,3522,1570.2857142857142,473.2857142857143,3623,1570.2857142857142,473.2857142857143,3748,1570.2857142857142,473.2857142857143,3859,1570.2857142857142,473.2857142857143,3960,1570.2857142857142,473.2857142857143,4099,1570.2857142857142,473.2857142857143,4204,1570.2857142857142,473.2857142857143,4325,1570.2857142857142,473.2857142857143,4466,1570.2857142857142,473.2857142857143,4570,1570.2857142857142,473.2857142857143,4696,1570.2857142857142,473.2857142857143,4797,1570.2857142857142,473.2857142857143,4908]","[5046,5046,2550.8,2048,447.2,""smooth"",""up"",""up"",""good_move"",8400,3353,2774.4,5047,578.6,""smooth"",""right"",""right"",""good_move"",15843,7442,2692.5,12615,535.5,""smooth"",""up"",""up"",""good_move"",19504,3658,2314.9,15846,1343.1,""oops"",""right"",""down"",""bad_move"",25954,6448,2069.9,23386,498.1,""oops"",""right"",""right"",""good_move"",29490,3535,2975.5,25955,559.5,""oops"",""up"",""up"",""good_move""]","",""
"4836","","<div style=""width:500px;"">
  <p>What determined the result of this run?</p>
  </div>","35","html-slider-response","45","597596","0.0-5.0-1.7","89","1","2025-07-16 09:15:04","1f75c3e559b7213887762d5229550c2b","2.97.13.138","Mozilla/5.0 (Macintosh; Intel Mac OS X 10_15_7) AppleWebKit/605.1.15 (KHTML, like Gecko) Version/18.3.1 Safari/605.1.15","Macintosh","Safari","18.3.1","OS X","10_15_7","https://app.prolific.com/","en-GB,en;q=0.9","5c63e773f9b6300001c9ce20","686e379bc37a29ffa5cdc956","68776d8f5e21f20f528fa4a9","1","1","5c63e773f9b6300001c9ce20","1","1","2025-07-16T09:25:03.331Z","","","","","","","","","","","AttribQ","","50","","","","","","","","","","","","","","","","","","","","","","","","","","","","",""
"59318","","<div style=""width:500px;"">
  <p>How much control did you have over the ball?</p>
  </div>","58","html-slider-response","46","656918","0.0-5.0-2.7","89","1","2025-07-16 09:15:04","1f75c3e559b7213887762d5229550c2b","2.97.13.138","Mozilla/5.0 (Macintosh; Intel Mac OS X 10_15_7) AppleWebKit/605.1.15 (KHTML, like Gecko) Version/18.3.1 Safari/605.1.15","Macintosh","Safari","18.3.1","OS X","10_15_7","https://app.prolific.com/","en-GB,en;q=0.9","5c63e773f9b6300001c9ce20","686e379bc37a29ffa5cdc956","68776d8f5e21f20f528fa4a9","1","1","5c63e773f9b6300001c9ce20","1","1","2025-07-16T09:26:02.653Z","","","","","","","","","","","ControlQ","","50","","","","","","","","","","","","","","","","","","","","","","","","","","","","",""
"53872","","<div style=""width:500px;"">
  <p>How would you describe your current emotional state?</p>
  </div>","71","html-slider-response","47","710792","0.0-5.0-3.7","89","1","2025-07-16 09:15:04","1f75c3e559b7213887762d5229550c2b","2.97.13.138","Mozilla/5.0 (Macintosh; Intel Mac OS X 10_15_7) AppleWebKit/605.1.15 (KHTML, like Gecko) Version/18.3.1 Safari/605.1.15","Macintosh","Safari","18.3.1","OS X","10_15_7","https://app.prolific.com/","en-GB,en;q=0.9","5c63e773f9b6300001c9ce20","686e379bc37a29ffa5cdc956","68776d8f5e21f20f528fa4a9","1","1","5c63e773f9b6300001c9ce20","1","1","2025-07-16T09:26:56.527Z","","","","","","","","","","","StressQ","","50","","","","","","","","","","","","","","","","","","","","","","","","","","","","",""
"16846","","<div style=""width:500px;"">
  <p>What best describes how you currently feel?</p>
  </div>","30","html-slider-response","48","727640","0.0-5.0-4.7","89","1","2025-07-16 09:15:04","1f75c3e559b7213887762d5229550c2b","2.97.13.138","Mozilla/5.0 (Macintosh; Intel Mac OS X 10_15_7) AppleWebKit/605.1.15 (KHTML, like Gecko) Version/18.3.1 Safari/605.1.15","Macintosh","Safari","18.3.1","OS X","10_15_7","https://app.prolific.com/","en-GB,en;q=0.9","5c63e773f9b6300001c9ce20","686e379bc37a29ffa5cdc956","68776d8f5e21f20f528fa4a9","1","1","5c63e773f9b6300001c9ce20","1","1","2025-07-16T09:27:13.375Z","","","","","","","","","","","MotivationQ","","50","","","","","","","","","","","","","","","","","","","","","","","","","","","","",""
"","","","","ctl-task-cpt","49","755361","0.0-5.0-0.8","89","1","2025-07-16 09:15:04","1f75c3e559b7213887762d5229550c2b","2.97.13.138","Mozilla/5.0 (Macintosh; Intel Mac OS X 10_15_7) AppleWebKit/605.1.15 (KHTML, like Gecko) Version/18.3.1 Safari/605.1.15","Macintosh","Safari","18.3.1","OS X","10_15_7","https://app.prolific.com/","en-GB,en;q=0.9","5c63e773f9b6300001c9ce20","686e379bc37a29ffa5cdc956","68776d8f5e21f20f528fa4a9","1","1","5c63e773f9b6300001c9ce20","1","1","2025-07-16T09:27:41.096Z","","","","","","","","","","","","","","win-only","3","g1:SW,g2:NE","0.2","9","0","729372","7802","12826","24689","1","4","8","6","1","1","1","21","20","0.1590909090909091","1219","3000","2460","[""down"",""left""]","{""num_key_presses"":4,""num_perfect"":2,""num_errors"":0,""num_randdir"":2,""num_randdir_good_moves"":2,""num_whilered"":0,""num_whileblue"":0,""num_blue"":0,""num_good_moves"":4}","[692.2857142857143,707.2857142857143,1,692.2857142857143,707.2857142857143,106,692.2857142857143,707.2857142857143,226,692.2857142857143,707.2857142857143,345,692.2857142857143,707.2857142857143,470,692.2857142857143,707.2857142857143,579,682.2857142857143,717.2857142857143,681,318.2857142857143,1145.2857142857142,802,198.28571428571428,1239.2857142857142,942,184.28571428571428,1253.2857142857142,1054,180.28571428571428,1253.2857142857142,1192,180.28571428571428,1253.2857142857142,1293,180.28571428571428,1253.2857142857142,1417,178.28571428571428,1253.2857142857142,1530,-11.714285714285708,1217.2857142857142,1634,-195.71428571428572,1165.2857142857142,1792,-195.71428571428572,1165.2857142857142,1931,-195.71428571428572,1165.2857142857142,2081,-195.71428571428572,1165.2857142857142,2187,-195.71428571428572,1165.2857142857142,2298,-195.71428571428572,1165.2857142857142,2400,-195.71428571428572,1165.2857142857142,2535,-195.71428571428572,1165.2857142857142,2668,-195.71428571428572,1165.2857142857142,2789,-195.71428571428572,1165.2857142857142,2919,-195.71428571428572,1165.2857142857142,3066,-195.71428571428572,1165.2857142857142,3181,-195.71428571428572,1165.2857142857142,3316,-195.71428571428572,1165.2857142857142,3418,-195.71428571428572,1165.2857142857142,3528,-195.71428571428572,1165.2857142857142,3644,-195.71428571428572,1165.2857142857142,3792,-195.71428571428572,1165.2857142857142,3926,-195.71428571428572,1165.2857142857142,4040,-195.71428571428572,1165.2857142857142,4152,-195.71428571428572,1165.2857142857142,4340,-195.71428571428572,1165.2857142857142,4492,-195.71428571428572,1165.2857142857142,4609,-195.71428571428572,1165.2857142857142,4727,-195.71428571428572,1165.2857142857142,4831,-195.71428571428572,1165.2857142857142,4977]","[1519,1519,1000,0,519,""smooth"",""left"",""left"",""good_move"",5161,3640,2752.4,1521,887.6,""smooth"",""down"",""down"",""good_move"",7853,2691,2210.3,5162,480.7,""oops"",""left"",""left"",""good_move"",11561,3707,2440.6,7854,1266.4,""oops"",""down"",""down"",""good_move""]","",""
"4274","","<div style=""width:500px;"">
  <p>What determined the result of this run?</p>
  </div>","79","html-slider-response","50","759637","0.0-5.0-1.8","89","1","2025-07-16 09:15:04","1f75c3e559b7213887762d5229550c2b","2.97.13.138","Mozilla/5.0 (Macintosh; Intel Mac OS X 10_15_7) AppleWebKit/605.1.15 (KHTML, like Gecko) Version/18.3.1 Safari/605.1.15","Macintosh","Safari","18.3.1","OS X","10_15_7","https://app.prolific.com/","en-GB,en;q=0.9","5c63e773f9b6300001c9ce20","686e379bc37a29ffa5cdc956","68776d8f5e21f20f528fa4a9","1","1","5c63e773f9b6300001c9ce20","1","1","2025-07-16T09:27:45.372Z","","","","","","","","","","","AttribQ","","50","","","","","","","","","","","","","","","","","","","","","","","","","","","","",""
"12463","","<div style=""width:500px;"">
  <p>How much control did you have over the ball?</p>
  </div>","95","html-slider-response","51","772102","0.0-5.0-2.8","89","1","2025-07-16 09:15:04","1f75c3e559b7213887762d5229550c2b","2.97.13.138","Mozilla/5.0 (Macintosh; Intel Mac OS X 10_15_7) AppleWebKit/605.1.15 (KHTML, like Gecko) Version/18.3.1 Safari/605.1.15","Macintosh","Safari","18.3.1","OS X","10_15_7","https://app.prolific.com/","en-GB,en;q=0.9","5c63e773f9b6300001c9ce20","686e379bc37a29ffa5cdc956","68776d8f5e21f20f528fa4a9","1","1","5c63e773f9b6300001c9ce20","1","1","2025-07-16T09:27:57.837Z","","","","","","","","","","","ControlQ","","50","","","","","","","","","","","","","","","","","","","","","","","","","","","","",""
"9155","","<div style=""width:500px;"">
  <p>How would you describe your current emotional state?</p>
  </div>","62","html-slider-response","52","781258","0.0-5.0-3.8","89","1","2025-07-16 09:15:04","1f75c3e559b7213887762d5229550c2b","2.97.13.138","Mozilla/5.0 (Macintosh; Intel Mac OS X 10_15_7) AppleWebKit/605.1.15 (KHTML, like Gecko) Version/18.3.1 Safari/605.1.15","Macintosh","Safari","18.3.1","OS X","10_15_7","https://app.prolific.com/","en-GB,en;q=0.9","5c63e773f9b6300001c9ce20","686e379bc37a29ffa5cdc956","68776d8f5e21f20f528fa4a9","1","1","5c63e773f9b6300001c9ce20","1","1","2025-07-16T09:28:06.993Z","","","","","","","","","","","StressQ","","50","","","","","","","","","","","","","","","","","","","","","","","","","","","","",""
"12134","","<div style=""width:500px;"">
  <p>What best describes how you currently feel?</p>
  </div>","36","html-slider-response","53","793393","0.0-5.0-4.8","89","1","2025-07-16 09:15:04","1f75c3e559b7213887762d5229550c2b","2.97.13.138","Mozilla/5.0 (Macintosh; Intel Mac OS X 10_15_7) AppleWebKit/605.1.15 (KHTML, like Gecko) Version/18.3.1 Safari/605.1.15","Macintosh","Safari","18.3.1","OS X","10_15_7","https://app.prolific.com/","en-GB,en;q=0.9","5c63e773f9b6300001c9ce20","686e379bc37a29ffa5cdc956","68776d8f5e21f20f528fa4a9","1","1","5c63e773f9b6300001c9ce20","1","1","2025-07-16T09:28:19.128Z","","","","","","","","","","","MotivationQ","","50","","","","","","","","","","","","","","","","","","","","","","","","","","","","",""
"","","","","ctl-task-cpt","54","833070","0.0-5.0-0.9","89","1","2025-07-16 09:15:04","1f75c3e559b7213887762d5229550c2b","2.97.13.138","Mozilla/5.0 (Macintosh; Intel Mac OS X 10_15_7) AppleWebKit/605.1.15 (KHTML, like Gecko) Version/18.3.1 Safari/605.1.15","Macintosh","Safari","18.3.1","OS X","10_15_7","https://app.prolific.com/","en-GB,en;q=0.9","5c63e773f9b6300001c9ce20","686e379bc37a29ffa5cdc956","68776d8f5e21f20f528fa4a9","1","1","5c63e773f9b6300001c9ce20","1","1","2025-07-16T09:28:58.805Z","","","","","","","","","","","","","","win-only","0","g1:NW,g2:SE","0.4","10","0","795124","6476","11489","36660","1","4","4","6","1","1","1","22","21","0.16666666666666666","1670","3000","2520","[""left"",""up""]","{""num_key_presses"":4,""num_perfect"":4,""num_errors"":0,""num_randdir"":0,""num_randdir_good_moves"":0,""num_whilered"":0,""num_whileblue"":0,""num_blue"":3,""num_good_moves"":4}","[698.2857142857143,687.2857142857143,2,698.2857142857143,687.2857142857143,109,698.2857142857143,687.2857142857143,234,698.2857142857143,687.2857142857143,341,698.2857142857143,687.2857142857143,455,698.2857142857143,687.2857142857143,558,698.2857142857143,687.2857142857143,671,984.2857142857143,841.2857142857143,818,1208.2857142857142,1029.2857142857142,922,360.2857142857143,453.2857142857143,1063,360.2857142857143,453.2857142857143,1167,360.2857142857143,453.2857142857143,1271,336.2857142857143,393.2857142857143,1382,170.28571428571428,151.28571428571428,1484,156.28571428571428,141.28571428571428,1586,156.28571428571428,141.28571428571428,1723,156.28571428571428,141.28571428571428,1850,156.28571428571428,141.28571428571428,1973,-51.71428571428571,409.2857142857143,2076,-153.71428571428572,527.2857142857143,2226,-159.71428571428572,527.2857142857143,2342,-159.71428571428572,527.2857142857143,2482,-159.71428571428572,527.2857142857143,2636,-159.71428571428572,527.2857142857143,2766,-159.71428571428572,527.2857142857143,2890,-159.71428571428572,527.2857142857143,3032,-159.71428571428572,527.2857142857143,3154,-159.71428571428572,527.2857142857143,3343,-159.71428571428572,527.2857142857143,3469,-159.71428571428572,527.2857142857143,3607,-159.71428571428572,527.2857142857143,3724,-159.71428571428572,527.2857142857143,3851,-159.71428571428572,527.2857142857143,3974,-159.71428571428572,527.2857142857143,4077,-159.71428571428572,527.2857142857143,4240,-159.71428571428572,527.2857142857143,4370,-159.71428571428572,527.2857142857143,4480,-159.71428571428572,527.2857142857143,4610,-159.71428571428572,527.2857142857143,4710,-159.71428571428572,527.2857142857143,4826,-159.71428571428572,527.2857142857143,4956]","[1492,1492,1000,0,492,""smooth"",""left"",""left"",""good_move"",9453,7960,2943.3,5990,519.7,""smooth"",""up"",""up"",""good_move"",13368,3914,2923.2,9454,990.8,""smooth"",""left"",""left"",""good_move"",24815,11445,2242.2,22019,553.8,""smooth"",""up"",""up"",""good_move""]","",""
"34376","","<div style=""width:500px;"">
  <p>What determined the result of this run?</p>
  </div>","41","html-slider-response","55","867448","0.0-5.0-1.9","89","1","2025-07-16 09:15:04","1f75c3e559b7213887762d5229550c2b","2.97.13.138","Mozilla/5.0 (Macintosh; Intel Mac OS X 10_15_7) AppleWebKit/605.1.15 (KHTML, like Gecko) Version/18.3.1 Safari/605.1.15","Macintosh","Safari","18.3.1","OS X","10_15_7","https://app.prolific.com/","en-GB,en;q=0.9","5c63e773f9b6300001c9ce20","686e379bc37a29ffa5cdc956","68776d8f5e21f20f528fa4a9","1","1","5c63e773f9b6300001c9ce20","1","1","2025-07-16T09:29:33.183Z","","","","","","","","","","","AttribQ","","50","","","","","","","","","","","","","","","","","","","","","","","","","","","","",""
"14139","","<div style=""width:500px;"">
  <p>How much control did you have over the ball?</p>
  </div>","81","html-slider-response","56","881588","0.0-5.0-2.9","89","1","2025-07-16 09:15:04","1f75c3e559b7213887762d5229550c2b","2.97.13.138","Mozilla/5.0 (Macintosh; Intel Mac OS X 10_15_7) AppleWebKit/605.1.15 (KHTML, like Gecko) Version/18.3.1 Safari/605.1.15","Macintosh","Safari","18.3.1","OS X","10_15_7","https://app.prolific.com/","en-GB,en;q=0.9","5c63e773f9b6300001c9ce20","686e379bc37a29ffa5cdc956","68776d8f5e21f20f528fa4a9","1","1","5c63e773f9b6300001c9ce20","1","1","2025-07-16T09:29:47.323Z","","","","","","","","","","","ControlQ","","50","","","","","","","","","","","","","","","","","","","","","","","","","","","","",""
"16862","","<div style=""width:500px;"">
  <p>How would you describe your current emotional state?</p>
  </div>","77","html-slider-response","57","898452","0.0-5.0-3.9","89","1","2025-07-16 09:15:04","1f75c3e559b7213887762d5229550c2b","2.97.13.138","Mozilla/5.0 (Macintosh; Intel Mac OS X 10_15_7) AppleWebKit/605.1.15 (KHTML, like Gecko) Version/18.3.1 Safari/605.1.15","Macintosh","Safari","18.3.1","OS X","10_15_7","https://app.prolific.com/","en-GB,en;q=0.9","5c63e773f9b6300001c9ce20","686e379bc37a29ffa5cdc956","68776d8f5e21f20f528fa4a9","1","1","5c63e773f9b6300001c9ce20","1","1","2025-07-16T09:30:04.187Z","","","","","","","","","","","StressQ","","50","","","","","","","","","","","","","","","","","","","","","","","","","","","","",""
"18585","","<div style=""width:500px;"">
  <p>What best describes how you currently feel?</p>
  </div>","32","html-slider-response","58","917037","0.0-5.0-4.9","89","1","2025-07-16 09:15:04","1f75c3e559b7213887762d5229550c2b","2.97.13.138","Mozilla/5.0 (Macintosh; Intel Mac OS X 10_15_7) AppleWebKit/605.1.15 (KHTML, like Gecko) Version/18.3.1 Safari/605.1.15","Macintosh","Safari","18.3.1","OS X","10_15_7","https://app.prolific.com/","en-GB,en;q=0.9","5c63e773f9b6300001c9ce20","686e379bc37a29ffa5cdc956","68776d8f5e21f20f528fa4a9","1","1","5c63e773f9b6300001c9ce20","1","1","2025-07-16T09:30:22.772Z","","","","","","","","","","","MotivationQ","","50","","","","","","","","","","","","","","","","","","","","","","","","","","","","",""
"","","","","ctl-task-cpt","59","944668","0.0-5.0-0.10","89","1","2025-07-16 09:15:04","1f75c3e559b7213887762d5229550c2b","2.97.13.138","Mozilla/5.0 (Macintosh; Intel Mac OS X 10_15_7) AppleWebKit/605.1.15 (KHTML, like Gecko) Version/18.3.1 Safari/605.1.15","Macintosh","Safari","18.3.1","OS X","10_15_7","https://app.prolific.com/","en-GB,en;q=0.9","5c63e773f9b6300001c9ce20","686e379bc37a29ffa5cdc956","68776d8f5e21f20f528fa4a9","1","1","5c63e773f9b6300001c9ce20","1","1","2025-07-16T09:30:50.403Z","","","","","","","","","","","","","","win-only","1","g1:NE,g2:SW","0.5","11","0","918765","5919","10967","24624","1","4","8","6","1","1","1","23","22","0.17424242424242425","1144","3000","2510","[""up"",""right""]","{""num_key_presses"":4,""num_perfect"":4,""num_errors"":0,""num_randdir"":0,""num_randdir_good_moves"":0,""num_whilered"":0,""num_whileblue"":0,""num_blue"":0,""num_good_moves"":4}","[680.2857142857143,703.2857142857143,1,682.2857142857143,703.2857142857143,109,682.2857142857143,703.2857142857143,214,682.2857142857143,703.2857142857143,365,682.2857142857143,703.2857142857143,495,682.2857142857143,701.2857142857143,653,1088.2857142857142,355.2857142857143,763,1208.2857142857142,233.28571428571428,865,1258.2857142857142,189.28571428571428,1001,1270.2857142857142,177.28571428571428,1117,1270.2857142857142,177.28571428571428,1227,1442.2857142857142,357.2857142857143,1344,1464.2857142857142,437.2857142857143,1472,1464.2857142857142,443.2857142857143,1575,1464.2857142857142,443.2857142857143,1738,1464.2857142857142,443.2857142857143,1877,1464.2857142857142,443.2857142857143,2009,1464.2857142857142,443.2857142857143,2121,1464.2857142857142,443.2857142857143,2276,1464.2857142857142,443.2857142857143,2436,1464.2857142857142,443.2857142857143,2549,1464.2857142857142,443.2857142857143,2682,1464.2857142857142,443.2857142857143,2793,1464.2857142857142,443.2857142857143,2929,1464.2857142857142,443.2857142857143,3079,1464.2857142857142,443.2857142857143,3216,1464.2857142857142,443.2857142857143,3351,1464.2857142857142,443.2857142857143,3453,1464.2857142857142,443.2857142857143,3568,1464.2857142857142,443.2857142857143,3671,1464.2857142857142,443.2857142857143,3772,1464.2857142857142,443.2857142857143,3879,1464.2857142857142,443.2857142857143,4007,1464.2857142857142,443.2857142857143,4146,1464.2857142857142,443.2857142857143,4247,1464.2857142857142,443.2857142857143,4374,1464.2857142857142,443.2857142857143,4508,1464.2857142857142,443.2857142857143,4635,1464.2857142857142,443.2857142857143,4742,1464.2857142857142,443.2857142857143,4880,1464.2857142857142,443.2857142857143,4980]","[1506,1506,1000,0,506,""smooth"",""up"",""up"",""good_move"",5857,4350,2274.1,1507,2075.9,""smooth"",""right"",""right"",""good_move"",9038,3180,2624.2,5858,555.8,""smooth"",""up"",""up"",""good_move"",13247,4207,2155,9040,2052,""smooth"",""right"",""right"",""good_move""]","",""
"9852","","<div style=""width:500px;"">
  <p>What determined the result of this run?</p>
  </div>","41","html-slider-response","60","954520","0.0-5.0-1.10","89","1","2025-07-16 09:15:04","1f75c3e559b7213887762d5229550c2b","2.97.13.138","Mozilla/5.0 (Macintosh; Intel Mac OS X 10_15_7) AppleWebKit/605.1.15 (KHTML, like Gecko) Version/18.3.1 Safari/605.1.15","Macintosh","Safari","18.3.1","OS X","10_15_7","https://app.prolific.com/","en-GB,en;q=0.9","5c63e773f9b6300001c9ce20","686e379bc37a29ffa5cdc956","68776d8f5e21f20f528fa4a9","1","1","5c63e773f9b6300001c9ce20","1","1","2025-07-16T09:31:00.255Z","","","","","","","","","","","AttribQ","","50","","","","","","","","","","","","","","","","","","","","","","","","","","","","",""
"11925","","<div style=""width:500px;"">
  <p>How much control did you have over the ball?</p>
  </div>","95","html-slider-response","61","966447","0.0-5.0-2.10","89","1","2025-07-16 09:15:04","1f75c3e559b7213887762d5229550c2b","2.97.13.138","Mozilla/5.0 (Macintosh; Intel Mac OS X 10_15_7) AppleWebKit/605.1.15 (KHTML, like Gecko) Version/18.3.1 Safari/605.1.15","Macintosh","Safari","18.3.1","OS X","10_15_7","https://app.prolific.com/","en-GB,en;q=0.9","5c63e773f9b6300001c9ce20","686e379bc37a29ffa5cdc956","68776d8f5e21f20f528fa4a9","1","1","5c63e773f9b6300001c9ce20","1","1","2025-07-16T09:31:12.182Z","","","","","","","","","","","ControlQ","","50","","","","","","","","","","","","","","","","","","","","","","","","","","","","",""
"10717","","<div style=""width:500px;"">
  <p>How would you describe your current emotional state?</p>
  </div>","66","html-slider-response","62","977167","0.0-5.0-3.10","89","1","2025-07-16 09:15:04","1f75c3e559b7213887762d5229550c2b","2.97.13.138","Mozilla/5.0 (Macintosh; Intel Mac OS X 10_15_7) AppleWebKit/605.1.15 (KHTML, like Gecko) Version/18.3.1 Safari/605.1.15","Macintosh","Safari","18.3.1","OS X","10_15_7","https://app.prolific.com/","en-GB,en;q=0.9","5c63e773f9b6300001c9ce20","686e379bc37a29ffa5cdc956","68776d8f5e21f20f528fa4a9","1","1","5c63e773f9b6300001c9ce20","1","1","2025-07-16T09:31:22.902Z","","","","","","","","","","","StressQ","","50","","","","","","","","","","","","","","","","","","","","","","","","","","","","",""
"9273","","<div style=""width:500px;"">
  <p>What best describes how you currently feel?</p>
  </div>","32","html-slider-response","63","986441","0.0-5.0-4.10","89","1","2025-07-16 09:15:04","1f75c3e559b7213887762d5229550c2b","2.97.13.138","Mozilla/5.0 (Macintosh; Intel Mac OS X 10_15_7) AppleWebKit/605.1.15 (KHTML, like Gecko) Version/18.3.1 Safari/605.1.15","Macintosh","Safari","18.3.1","OS X","10_15_7","https://app.prolific.com/","en-GB,en;q=0.9","5c63e773f9b6300001c9ce20","686e379bc37a29ffa5cdc956","68776d8f5e21f20f528fa4a9","1","1","5c63e773f9b6300001c9ce20","1","1","2025-07-16T09:31:32.176Z","","","","","","","","","","","MotivationQ","","50","","","","","","","","","","","","","","","","","","","","","","","","","","","","",""
"","","","","ctl-task-cpt","64","1061178","0.0-5.0-0.11","89","1","2025-07-16 09:15:04","1f75c3e559b7213887762d5229550c2b","2.97.13.138","Mozilla/5.0 (Macintosh; Intel Mac OS X 10_15_7) AppleWebKit/605.1.15 (KHTML, like Gecko) Version/18.3.1 Safari/605.1.15","Macintosh","Safari","18.3.1","OS X","10_15_7","https://app.prolific.com/","en-GB,en;q=0.9","5c63e773f9b6300001c9ce20","686e379bc37a29ffa5cdc956","68776d8f5e21f20f528fa4a9","1","1","5c63e773f9b6300001c9ce20","1","1","2025-07-16T09:32:46.913Z","","","","","","","","","","","","","","win-only","3","g1:SW,g2:NE","0.6","12","0","988167","6424","11445","71668","1","4","4","6","1","1","1","24","23","0.18181818181818182","1327","3000","1325","[""down"",""left""]","{""num_key_presses"":14,""num_perfect"":9,""num_errors"":0,""num_randdir"":5,""num_randdir_good_moves"":1,""num_whilered"":0,""num_whileblue"":0,""num_blue"":3,""num_good_moves"":9}","[684.2857142857143,693.2857142857143,2,684.2857142857143,693.2857142857143,110,684.2857142857143,693.2857142857143,256,684.2857142857143,693.2857142857143,411,684.2857142857143,693.2857142857143,537,684.2857142857143,693.2857142857143,640,664.2857142857143,709.2857142857143,761,268.2857142857143,1153.2857142857142,863,232.28571428571428,1173.2857142857142,985,228.28571428571428,1173.2857142857142,1085,228.28571428571428,1173.2857142857142,1212,228.28571428571428,1173.2857142857142,1391,228.28571428571428,1173.2857142857142,1523,228.28571428571428,1173.2857142857142,1623,182.28571428571428,1159.2857142857142,1728,-173.71428571428572,977.2857142857143,1836,-177.71428571428572,967.2857142857143,1939,-177.71428571428572,967.2857142857143,2045,-177.71428571428572,967.2857142857143,2164,-177.71428571428572,967.2857142857143,2278,-177.71428571428572,967.2857142857143,2383,-177.71428571428572,967.2857142857143,2487,-177.71428571428572,967.2857142857143,2600,-177.71428571428572,967.2857142857143,2722,-177.71428571428572,967.2857142857143,2825,-177.71428571428572,967.2857142857143,2943,-177.71428571428572,967.2857142857143,3061,-177.71428571428572,967.2857142857143,3328,-177.71428571428572,967.2857142857143,3434,-177.71428571428572,967.2857142857143,3544,-177.71428571428572,967.2857142857143,3660,-177.71428571428572,967.2857142857143,3912,-177.71428571428572,967.2857142857143,4030,-177.71428571428572,967.2857142857143,4182,-177.71428571428572,967.2857142857143,4351,-177.71428571428572,967.2857142857143,4464,-177.71428571428572,967.2857142857143,4610,-177.71428571428572,967.2857142857143,4711,-177.71428571428572,967.2857142857143,4842,-177.71428571428572,967.2857142857143,4960]","[1529,1529,1000,0,529,""oops"",""left"",""right"",""bad_move"",4669,3139,2581,1530,558,""smooth"",""down"",""down"",""good_move"",7614,2943,2316.1,4671,626.9,""smooth"",""left"",""left"",""good_move"",12009,4393,2603.6,7616,1789.4,""smooth"",""down"",""down"",""good_move"",15713,3702,3152.2,12011,549.8,""oops"",""left"",""right"",""bad_move"",18898,3183,2402.4,15715,780.6,""smooth"",""up"",""up"",""bad_move"",23514,4613,1893.7,18901,2719.3,""smooth"",""left"",""left"",""good_move"",27929,4414,2216.7,23515,2197.3,""oops"",""left"",""down"",""good_move"",30582,2652,2143.7,27930,508.3,""smooth"",""left"",""left"",""good_move"",35051,4467,2600.1,30584,1866.9,""oops"",""left"",""right"",""bad_move"",41141,6089,2019.3,38582,539.7,""smooth"",""left"",""left"",""good_move"",49975,8833,3068.5,46368,538.5,""oops"",""left"",""right"",""bad_move"",52218,2241,1195,49977,1046,""smooth"",""left"",""left"",""good_move"",59879,7660,2194.6,57166,518.4,""smooth"",""left"",""left"",""good_move""]","",""
"13216","","<div style=""width:500px;"">
  <p>What determined the result of this run?</p>
  </div>","30","html-slider-response","65","1074395","0.0-5.0-1.11","89","1","2025-07-16 09:15:04","1f75c3e559b7213887762d5229550c2b","2.97.13.138","Mozilla/5.0 (Macintosh; Intel Mac OS X 10_15_7) AppleWebKit/605.1.15 (KHTML, like Gecko) Version/18.3.1 Safari/605.1.15","Macintosh","Safari","18.3.1","OS X","10_15_7","https://app.prolific.com/","en-GB,en;q=0.9","5c63e773f9b6300001c9ce20","686e379bc37a29ffa5cdc956","68776d8f5e21f20f528fa4a9","1","1","5c63e773f9b6300001c9ce20","1","1","2025-07-16T09:33:00.131Z","","","","","","","","","","","AttribQ","","50","","","","","","","","","","","","","","","","","","","","","","","","","","","","",""
"31356","","<div style=""width:500px;"">
  <p>How much control did you have over the ball?</p>
  </div>","33","html-slider-response","66","1105753","0.0-5.0-2.11","89","1","2025-07-16 09:15:04","1f75c3e559b7213887762d5229550c2b","2.97.13.138","Mozilla/5.0 (Macintosh; Intel Mac OS X 10_15_7) AppleWebKit/605.1.15 (KHTML, like Gecko) Version/18.3.1 Safari/605.1.15","Macintosh","Safari","18.3.1","OS X","10_15_7","https://app.prolific.com/","en-GB,en;q=0.9","5c63e773f9b6300001c9ce20","686e379bc37a29ffa5cdc956","68776d8f5e21f20f528fa4a9","1","1","5c63e773f9b6300001c9ce20","1","1","2025-07-16T09:33:31.488Z","","","","","","","","","","","ControlQ","","50","","","","","","","","","","","","","","","","","","","","","","","","","","","","",""
"11719","","<div style=""width:500px;"">
  <p>How would you describe your current emotional state?</p>
  </div>","77","html-slider-response","67","1117474","0.0-5.0-3.11","89","1","2025-07-16 09:15:04","1f75c3e559b7213887762d5229550c2b","2.97.13.138","Mozilla/5.0 (Macintosh; Intel Mac OS X 10_15_7) AppleWebKit/605.1.15 (KHTML, like Gecko) Version/18.3.1 Safari/605.1.15","Macintosh","Safari","18.3.1","OS X","10_15_7","https://app.prolific.com/","en-GB,en;q=0.9","5c63e773f9b6300001c9ce20","686e379bc37a29ffa5cdc956","68776d8f5e21f20f528fa4a9","1","1","5c63e773f9b6300001c9ce20","1","1","2025-07-16T09:33:43.209Z","","","","","","","","","","","StressQ","","50","","","","","","","","","","","","","","","","","","","","","","","","","","","","",""
"13258","","<div style=""width:500px;"">
  <p>What best describes how you currently feel?</p>
  </div>","29","html-slider-response","68","1130733","0.0-5.0-4.11","89","1","2025-07-16 09:15:04","1f75c3e559b7213887762d5229550c2b","2.97.13.138","Mozilla/5.0 (Macintosh; Intel Mac OS X 10_15_7) AppleWebKit/605.1.15 (KHTML, like Gecko) Version/18.3.1 Safari/605.1.15","Macintosh","Safari","18.3.1","OS X","10_15_7","https://app.prolific.com/","en-GB,en;q=0.9","5c63e773f9b6300001c9ce20","686e379bc37a29ffa5cdc956","68776d8f5e21f20f528fa4a9","1","1","5c63e773f9b6300001c9ce20","1","1","2025-07-16T09:33:56.468Z","","","","","","","","","","","MotivationQ","","50","","","","","","","","","","","","","","","","","","","","","","","","","","","","",""
"","","","","ctl-task-cpt","69","1163382","0.0-5.0-0.12","89","1","2025-07-16 09:15:04","1f75c3e559b7213887762d5229550c2b","2.97.13.138","Mozilla/5.0 (Macintosh; Intel Mac OS X 10_15_7) AppleWebKit/605.1.15 (KHTML, like Gecko) Version/18.3.1 Safari/605.1.15","Macintosh","Safari","18.3.1","OS X","10_15_7","https://app.prolific.com/","en-GB,en;q=0.9","5c63e773f9b6300001c9ce20","686e379bc37a29ffa5cdc956","68776d8f5e21f20f528fa4a9","1","1","5c63e773f9b6300001c9ce20","1","1","2025-07-16T09:34:29.117Z","","","","","","","","","","","","","","win-only","2","g1:SE,g2:NW","0.7","13","0","1132455","6075","11113","29644","1","4","4","6","1","1","1","25","24","0.1893939393939394","1657","3000","2585","[""down"",""right""]","{""num_key_presses"":4,""num_perfect"":4,""num_errors"":0,""num_randdir"":0,""num_randdir_good_moves"":0,""num_whilered"":0,""num_whileblue"":0,""num_blue"":2,""num_good_moves"":4}","[696.2857142857143,705.2857142857143,2,696.2857142857143,703.2857142857143,127,696.2857142857143,703.2857142857143,272,696.2857142857143,703.2857142857143,415,336.2857142857143,791.2857142857143,602,-25.714285714285708,881.2857142857143,726,-25.714285714285708,881.2857142857143,840,378.2857142857143,1105.2857142857142,943,980.2857142857143,1369.2857142857142,1103,1074.2857142857142,1385.2857142857142,1228,1164.2857142857142,1347.2857142857142,1329,1238.2857142857142,1297.2857142857142,1473,1238.2857142857142,1297.2857142857142,1575,1238.2857142857142,1297.2857142857142,1720,1570.2857142857142,1205.2857142857142,1827,1570.2857142857142,1205.2857142857142,1985,1570.2857142857142,1205.2857142857142,2125,1570.2857142857142,1205.2857142857142,2274,1570.2857142857142,1205.2857142857142,2399,1570.2857142857142,1205.2857142857142,2539,1570.2857142857142,1205.2857142857142,2642,1570.2857142857142,1205.2857142857142,2770,1570.2857142857142,1205.2857142857142,2872,1570.2857142857142,1205.2857142857142,2991,1570.2857142857142,1205.2857142857142,3129,1570.2857142857142,1205.2857142857142,3287,1570.2857142857142,1205.2857142857142,3398,1570.2857142857142,1205.2857142857142,3534,1570.2857142857142,1205.2857142857142,3674,1570.2857142857142,1205.2857142857142,3796,1570.2857142857142,1205.2857142857142,3962,1570.2857142857142,1205.2857142857142,4070,1570.2857142857142,1205.2857142857142,4200,1570.2857142857142,1205.2857142857142,4303,1570.2857142857142,1205.2857142857142,4417,1570.2857142857142,1205.2857142857142,4538,1570.2857142857142,1205.2857142857142,4643,1570.2857142857142,1205.2857142857142,4786,1570.2857142857142,1205.2857142857142,4888,1570.2857142857142,1205.2857142857142,4989]","[1582,1582,1000,0,582,""smooth"",""down"",""down"",""good_move"",4409,2826,2274.1,1583,551.9,""smooth"",""right"",""right"",""good_move"",15001,10590,2723.4,11736,541.6,""smooth"",""down"",""down"",""good_move"",18059,3056,2500.9,15003,555.1,""smooth"",""right"",""right"",""good_move""]","",""
"10000","","<div style=""width:500px;"">
  <p>What determined the result of this run?</p>
  </div>","32","html-slider-response","70","1173383","0.0-5.0-1.12","89","1","2025-07-16 09:15:04","1f75c3e559b7213887762d5229550c2b","2.97.13.138","Mozilla/5.0 (Macintosh; Intel Mac OS X 10_15_7) AppleWebKit/605.1.15 (KHTML, like Gecko) Version/18.3.1 Safari/605.1.15","Macintosh","Safari","18.3.1","OS X","10_15_7","https://app.prolific.com/","en-GB,en;q=0.9","5c63e773f9b6300001c9ce20","686e379bc37a29ffa5cdc956","68776d8f5e21f20f528fa4a9","1","1","5c63e773f9b6300001c9ce20","1","1","2025-07-16T09:34:39.118Z","","","","","","","","","","","AttribQ","","50","","","","","","","","","","","","","","","","","","","","","","","","","","","","",""
"17756","","<div style=""width:500px;"">
  <p>How much control did you have over the ball?</p>
  </div>","86","html-slider-response","71","1191141","0.0-5.0-2.12","89","1","2025-07-16 09:15:04","1f75c3e559b7213887762d5229550c2b","2.97.13.138","Mozilla/5.0 (Macintosh; Intel Mac OS X 10_15_7) AppleWebKit/605.1.15 (KHTML, like Gecko) Version/18.3.1 Safari/605.1.15","Macintosh","Safari","18.3.1","OS X","10_15_7","https://app.prolific.com/","en-GB,en;q=0.9","5c63e773f9b6300001c9ce20","686e379bc37a29ffa5cdc956","68776d8f5e21f20f528fa4a9","1","1","5c63e773f9b6300001c9ce20","1","1","2025-07-16T09:34:56.876Z","","","","","","","","","","","ControlQ","","50","","","","","","","","","","","","","","","","","","","","","","","","","","","","",""
"12811","","<div style=""width:500px;"">
  <p>How would you describe your current emotional state?</p>
  </div>","69","html-slider-response","72","1203953","0.0-5.0-3.12","89","1","2025-07-16 09:15:04","1f75c3e559b7213887762d5229550c2b","2.97.13.138","Mozilla/5.0 (Macintosh; Intel Mac OS X 10_15_7) AppleWebKit/605.1.15 (KHTML, like Gecko) Version/18.3.1 Safari/605.1.15","Macintosh","Safari","18.3.1","OS X","10_15_7","https://app.prolific.com/","en-GB,en;q=0.9","5c63e773f9b6300001c9ce20","686e379bc37a29ffa5cdc956","68776d8f5e21f20f528fa4a9","1","1","5c63e773f9b6300001c9ce20","1","1","2025-07-16T09:35:09.688Z","","","","","","","","","","","StressQ","","50","","","","","","","","","","","","","","","","","","","","","","","","","","","","",""
"12086","","<div style=""width:500px;"">
  <p>What best describes how you currently feel?</p>
  </div>","35","html-slider-response","73","1216041","0.0-5.0-4.12","89","1","2025-07-16 09:15:04","1f75c3e559b7213887762d5229550c2b","2.97.13.138","Mozilla/5.0 (Macintosh; Intel Mac OS X 10_15_7) AppleWebKit/605.1.15 (KHTML, like Gecko) Version/18.3.1 Safari/605.1.15","Macintosh","Safari","18.3.1","OS X","10_15_7","https://app.prolific.com/","en-GB,en;q=0.9","5c63e773f9b6300001c9ce20","686e379bc37a29ffa5cdc956","68776d8f5e21f20f528fa4a9","1","1","5c63e773f9b6300001c9ce20","1","1","2025-07-16T09:35:21.776Z","","","","","","","","","","","MotivationQ","","50","","","","","","","","","","","","","","","","","","","","","","","","","","","","",""
"","","","","ctl-task-cpt","74","1269465","0.0-5.0-0.13","89","1","2025-07-16 09:15:04","1f75c3e559b7213887762d5229550c2b","2.97.13.138","Mozilla/5.0 (Macintosh; Intel Mac OS X 10_15_7) AppleWebKit/605.1.15 (KHTML, like Gecko) Version/18.3.1 Safari/605.1.15","Macintosh","Safari","18.3.1","OS X","10_15_7","https://app.prolific.com/","en-GB,en;q=0.9","5c63e773f9b6300001c9ce20","686e379bc37a29ffa5cdc956","68776d8f5e21f20f528fa4a9","1","1","5c63e773f9b6300001c9ce20","1","1","2025-07-16T09:36:15.200Z","","","","","","","","","","","","","","win-only","0","g1:NW,g2:SE","0.8","14","0","1217760","7009","12055","50377","1","4","8","6","1","1","1","26","25","0.19696969696969696","1583","3000","2475","[""left"",""up""]","{""num_key_presses"":6,""num_perfect"":4,""num_errors"":0,""num_randdir"":2,""num_randdir_good_moves"":1,""num_whilered"":0,""num_whileblue"":0,""num_blue"":3,""num_good_moves"":5}","[700.2857142857143,675.2857142857143,5,700.2857142857143,675.2857142857143,127,700.2857142857143,675.2857142857143,231,700.2857142857143,675.2857142857143,357,700.2857142857143,675.2857142857143,485,700.2857142857143,675.2857142857143,590,700.2857142857143,675.2857142857143,744,700.2857142857143,673.2857142857143,897,390.2857142857143,349.2857142857143,1000,234.28571428571428,165.28571428571428,1237,154.28571428571428,135.28571428571428,1359,154.28571428571428,135.28571428571428,1637,154.28571428571428,135.28571428571428,1745,154.28571428571428,135.28571428571428,1865,154.28571428571428,135.28571428571428,2002,154.28571428571428,135.28571428571428,2114,154.28571428571428,135.28571428571428,2234,154.28571428571428,135.28571428571428,2353,154.28571428571428,135.28571428571428,2569,154.28571428571428,135.28571428571428,2679,154.28571428571428,135.28571428571428,2801,154.28571428571428,135.28571428571428,2902,154.28571428571428,135.28571428571428,3035,154.28571428571428,135.28571428571428,3459,154.28571428571428,135.28571428571428,3665,154.28571428571428,135.28571428571428,3795,154.28571428571428,135.28571428571428,3900,154.28571428571428,135.28571428571428,4015,154.28571428571428,135.28571428571428,4157,154.28571428571428,135.28571428571428,4295,154.28571428571428,135.28571428571428,4402,154.28571428571428,135.28571428571428,4595,154.28571428571428,135.28571428571428,4782,154.28571428571428,135.28571428571428,4885,154.28571428571428,135.28571428571428,4999]","[1562,1562,1000,0,562,""oops"",""left"",""right"",""bad_move"",8755,7192,2458.4,5745,551.6,""smooth"",""up"",""up"",""good_move"",13897,5141,2631.1,8756,2509.9,""oops"",""left"",""left"",""good_move"",23248,9348,3246.1,19523,478.9,""smooth"",""left"",""left"",""good_move"",28486,5235,3036.3,23251,2198.7,""smooth"",""up"",""up"",""good_move"",37767,9278,3223.8,34103,440.2,""smooth"",""left"",""left"",""good_move""]","",""
"12061","","<div style=""width:500px;"">
  <p>What determined the result of this run?</p>
  </div>","34","html-slider-response","75","1281527","0.0-5.0-1.13","89","1","2025-07-16 09:15:04","1f75c3e559b7213887762d5229550c2b","2.97.13.138","Mozilla/5.0 (Macintosh; Intel Mac OS X 10_15_7) AppleWebKit/605.1.15 (KHTML, like Gecko) Version/18.3.1 Safari/605.1.15","Macintosh","Safari","18.3.1","OS X","10_15_7","https://app.prolific.com/","en-GB,en;q=0.9","5c63e773f9b6300001c9ce20","686e379bc37a29ffa5cdc956","68776d8f5e21f20f528fa4a9","1","1","5c63e773f9b6300001c9ce20","1","1","2025-07-16T09:36:27.262Z","","","","","","","","","","","AttribQ","","50","","","","","","","","","","","","","","","","","","","","","","","","","","","","",""
"11764","","<div style=""width:500px;"">
  <p>How much control did you have over the ball?</p>
  </div>","73","html-slider-response","76","1293293","0.0-5.0-2.13","89","1","2025-07-16 09:15:04","1f75c3e559b7213887762d5229550c2b","2.97.13.138","Mozilla/5.0 (Macintosh; Intel Mac OS X 10_15_7) AppleWebKit/605.1.15 (KHTML, like Gecko) Version/18.3.1 Safari/605.1.15","Macintosh","Safari","18.3.1","OS X","10_15_7","https://app.prolific.com/","en-GB,en;q=0.9","5c63e773f9b6300001c9ce20","686e379bc37a29ffa5cdc956","68776d8f5e21f20f528fa4a9","1","1","5c63e773f9b6300001c9ce20","1","1","2025-07-16T09:36:39.028Z","","","","","","","","","","","ControlQ","","50","","","","","","","","","","","","","","","","","","","","","","","","","","","","",""
"10799","","<div style=""width:500px;"">
  <p>How would you describe your current emotional state?</p>
  </div>","66","html-slider-response","77","1304095","0.0-5.0-3.13","89","1","2025-07-16 09:15:04","1f75c3e559b7213887762d5229550c2b","2.97.13.138","Mozilla/5.0 (Macintosh; Intel Mac OS X 10_15_7) AppleWebKit/605.1.15 (KHTML, like Gecko) Version/18.3.1 Safari/605.1.15","Macintosh","Safari","18.3.1","OS X","10_15_7","https://app.prolific.com/","en-GB,en;q=0.9","5c63e773f9b6300001c9ce20","686e379bc37a29ffa5cdc956","68776d8f5e21f20f528fa4a9","1","1","5c63e773f9b6300001c9ce20","1","1","2025-07-16T09:36:49.830Z","","","","","","","","","","","StressQ","","50","","","","","","","","","","","","","","","","","","","","","","","","","","","","",""
"41798","","<div style=""width:500px;"">
  <p>What best describes how you currently feel?</p>
  </div>","34","html-slider-response","78","1345896","0.0-5.0-4.13","89","1","2025-07-16 09:15:04","1f75c3e559b7213887762d5229550c2b","2.97.13.138","Mozilla/5.0 (Macintosh; Intel Mac OS X 10_15_7) AppleWebKit/605.1.15 (KHTML, like Gecko) Version/18.3.1 Safari/605.1.15","Macintosh","Safari","18.3.1","OS X","10_15_7","https://app.prolific.com/","en-GB,en;q=0.9","5c63e773f9b6300001c9ce20","686e379bc37a29ffa5cdc956","68776d8f5e21f20f528fa4a9","1","1","5c63e773f9b6300001c9ce20","1","1","2025-07-16T09:37:31.631Z","","","","","","","","","","","MotivationQ","","50","","","","","","","","","","","","","","","","","","","","","","","","","","","","",""
"","","","","ctl-task-cpt","79","1393142","0.0-5.0-0.14","89","1","2025-07-16 09:15:04","1f75c3e559b7213887762d5229550c2b","2.97.13.138","Mozilla/5.0 (Macintosh; Intel Mac OS X 10_15_7) AppleWebKit/605.1.15 (KHTML, like Gecko) Version/18.3.1 Safari/605.1.15","Macintosh","Safari","18.3.1","OS X","10_15_7","https://app.prolific.com/","en-GB,en;q=0.9","5c63e773f9b6300001c9ce20","686e379bc37a29ffa5cdc956","68776d8f5e21f20f528fa4a9","1","1","5c63e773f9b6300001c9ce20","1","1","2025-07-16T09:38:18.877Z","","","","","","","","","","","","","","win-only","2","g1:SE,g2:NW","0.9","15","0","1347612","5996","11029","44210","1","4","4","6","1","1","1","27","26","0.20454545454545456","1136","3000","2410","[""down"",""right""]","{""num_key_presses"":6,""num_perfect"":5,""num_errors"":0,""num_randdir"":1,""num_randdir_good_moves"":0,""num_whilered"":0,""num_whileblue"":0,""num_blue"":4,""num_good_moves"":5}","[688.2857142857143,693.2857142857143,1,688.2857142857143,693.2857142857143,103,688.2857142857143,693.2857142857143,220,688.2857142857143,693.2857142857143,342,688.2857142857143,693.2857142857143,487,688.2857142857143,693.2857142857143,590,914.2857142857143,805.2857142857143,821,1342.2857142857142,1287.2857142857142,923,1344.2857142857142,1293.2857142857142,1065,1344.2857142857142,1293.2857142857142,1202,648.2857142857143,991.2857142857143,1321,-203.71428571428572,753.2857142857143,1436,-279.7142857142857,723.2857142857143,1619,-279.7142857142857,723.2857142857143,1725,-279.7142857142857,723.2857142857143,1844,-279.7142857142857,723.2857142857143,1959,-279.7142857142857,723.2857142857143,2061,-279.7142857142857,723.2857142857143,2199,-279.7142857142857,723.2857142857143,2306,-279.7142857142857,723.2857142857143,2409,-279.7142857142857,723.2857142857143,2513,-279.7142857142857,723.2857142857143,2673,-279.7142857142857,723.2857142857143,2802,-279.7142857142857,723.2857142857143,2972,-279.7142857142857,723.2857142857143,3096,-279.7142857142857,723.2857142857143,3208,-279.7142857142857,723.2857142857143,3308,-279.7142857142857,723.2857142857143,3448,-279.7142857142857,723.2857142857143,3551,-279.7142857142857,723.2857142857143,3722,-279.7142857142857,723.2857142857143,3835,-279.7142857142857,723.2857142857143,3971,-279.7142857142857,723.2857142857143,4076,-279.7142857142857,723.2857142857143,4195,-279.7142857142857,723.2857142857143,4327,-279.7142857142857,723.2857142857143,4436,-279.7142857142857,723.2857142857143,4547,-279.7142857142857,723.2857142857143,4658,-279.7142857142857,723.2857142857143,4777,-279.7142857142857,723.2857142857143,4880,-279.7142857142857,723.2857142857143,4990]","[8114,8114,2739.3,4856,518.7,""oops"",""right"",""up"",""bad_move"",13682,5567,2369.5,8115,3197.5,""smooth"",""right"",""right"",""good_move"",16338,2654,2030.7,13684,623.3,""smooth"",""right"",""right"",""good_move"",26114,9774,2166.9,23342,605.1,""smooth"",""down"",""down"",""good_move"",29607,3491,2829.7,26116,661.3,""smooth"",""down"",""down"",""good_move"",32596,2987,2377.1,29609,609.9,""smooth"",""down"",""down"",""good_move""]","",""
"26360","","<div style=""width:500px;"">
  <p>What determined the result of this run?</p>
  </div>","36","html-slider-response","80","1419504","0.0-5.0-1.14","89","1","2025-07-16 09:15:04","1f75c3e559b7213887762d5229550c2b","2.97.13.138","Mozilla/5.0 (Macintosh; Intel Mac OS X 10_15_7) AppleWebKit/605.1.15 (KHTML, like Gecko) Version/18.3.1 Safari/605.1.15","Macintosh","Safari","18.3.1","OS X","10_15_7","https://app.prolific.com/","en-GB,en;q=0.9","5c63e773f9b6300001c9ce20","686e379bc37a29ffa5cdc956","68776d8f5e21f20f528fa4a9","1","1","5c63e773f9b6300001c9ce20","1","1","2025-07-16T09:38:45.239Z","","","","","","","","","","","AttribQ","","50","","","","","","","","","","","","","","","","","","","","","","","","","","","","",""
