"rt","response_timestamp","stimulus","response","trial_type","trial_index","time_elapsed","internal_node_id","run_id","condition","recorded_at","source_code_version","ip","user_agent","device","browser","browser_version","platform","platform_version","referer","accept_language","PROLIFIC_PID","STUDY_ID","SESSION_ID","WEEK","prolific_id","week","realtime","success","responses","item_order","radio_event_ids","radio_event_times","key_event_times","mouse_event_times","straightlining","zigzagging","honeypot","eventType","view_history","slider_start","which_type","canvas_config","goals_layout","control_level","trial_number","tutorial_trial_number","trial_start_time","phase1_start_time","phase2_start_time","phase3_start_time","goal_1_value","goal_1_distance","goal_2_value","goal_2_distance","goal_selected","outcome","outcome_total","participant_final_score","participant_initial_score","participant_final_score_prop","goal_choice_rt","allocated_time","allocated_time_remaining","goal_direction","counts","mouse_movements","key_presses","question_order","question_id"
"3264","1752056348326","<p style='font-size:40px;line-height:1.25'><strong>Welcome to the experiment!</strong></p><p style='font-size:1.1em;line-height:1.25'>Thank you for participanting in our experiment again! You will be asked to play the Dysfunctional Ball Game again. We will briefly recap the rules before we start.</p><p style='font-size:1.1em;line-height:1.25'>Press <strong>Next</strong> to continue.</p>","0","custom-html-button-response","0","3265","0.0-0.0","25","1","2025-07-09 10:19:04","01610cd0009c79a99da7d0a3353eb402","188.146.154.183","Mozilla/5.0 (Windows NT 10.0; Win64; x64) AppleWebKit/537.36 (KHTML, like Gecko) Chrome/138.0.0.0 Safari/537.36","WebKit","Chrome","138.0.0.0","Windows","10.0","https://app.prolific.com/","pl-PL,pl;q=0.9,en-US;q=0.8,en;q=0.7","66a16e0b41e98cb469f12b0b","683db7602f5db6a34d12d064","686e41fe79f4a32726c2309f","1","66a16e0b41e98cb469f12b0b","1","2025-07-09T10:19:08.326Z","","","","","","","","","","","","","","","","","","","","","","","","","","","","","","","","","","","","","","","","","",""
"1887","","","","fullscreen","1","6168","0.0-1.0","25","1","2025-07-09 10:19:04","01610cd0009c79a99da7d0a3353eb402","188.146.154.183","Mozilla/5.0 (Windows NT 10.0; Win64; x64) AppleWebKit/537.36 (KHTML, like Gecko) Chrome/138.0.0.0 Safari/537.36","WebKit","Chrome","138.0.0.0","Windows","10.0","https://app.prolific.com/","pl-PL,pl;q=0.9,en-US;q=0.8,en;q=0.7","66a16e0b41e98cb469f12b0b","683db7602f5db6a34d12d064","686e41fe79f4a32726c2309f","1","66a16e0b41e98cb469f12b0b","1","","true","","","","","","","","","","","","","","","","","","","","","","","","","","","","","","","","","","","","","","","","",""
"3348","1752056354577","<p style='font-size:1.1em;line-height:1.25'>In the following, we will ask you a few questions relating to your feelings in the last 24 hours.<br></p><p style='font-size:1.1em;line-height:1.25'>Press the <strong>Next</strong> button to continue.</p>","0","custom-html-button-response","2","9516","0.0-2.0-0.0","25","1","2025-07-09 10:19:04","01610cd0009c79a99da7d0a3353eb402","188.146.154.183","Mozilla/5.0 (Windows NT 10.0; Win64; x64) AppleWebKit/537.36 (KHTML, like Gecko) Chrome/138.0.0.0 Safari/537.36","WebKit","Chrome","138.0.0.0","Windows","10.0","https://app.prolific.com/","pl-PL,pl;q=0.9,en-US;q=0.8,en;q=0.7","66a16e0b41e98cb469f12b0b","683db7602f5db6a34d12d064","686e41fe79f4a32726c2309f","1","66a16e0b41e98cb469f12b0b","1","2025-07-09T10:19:14.578Z","","","","","","","","","","","","","","","","","","","","","","","","","","","","","","","","","","","","","","","","","",""
"51111.30000001192","","","","survey-template","3","60631","0.0-2.0-1.0","25","1","2025-07-09 10:19:04","01610cd0009c79a99da7d0a3353eb402","188.146.154.183","Mozilla/5.0 (Windows NT 10.0; Win64; x64) AppleWebKit/537.36 (KHTML, like Gecko) Chrome/138.0.0.0 Safari/537.36","WebKit","Chrome","138.0.0.0","Windows","10.0","https://app.prolific.com/","pl-PL,pl;q=0.9,en-US;q=0.8,en;q=0.7","66a16e0b41e98cb469f12b0b","683db7602f5db6a34d12d064","686e41fe79f4a32726c2309f","1","66a16e0b41e98cb469f12b0b","1","2025-07-09T10:20:05.692Z","","{""Q01"":""2"",""Q02"":""1"",""Q03"":""3"",""Q04"":""3"",""Q05"":""2"",""Q06"":""3"",""Q07"":""2"",""Q08"":""1"",""Q09"":""3"",""Q10"":""3"",""Q11"":""3"",""Q12"":""3"",""Q13"":""5"",""Q14"":""2"",""Q15"":""2"",""Q16"":""2"",""Q17"":""0"",""Q18"":""0"",""Q19"":""0"",""Q20"":""0"",""Q21"":""0"",""Q22"":""0""}","[0,1,2,3,4,5,6,7,8,9,10,11,12,13,14,15,16,17,18,19,20,21]","[""Q08"",""Q07"",""Q06"",""Q05"",""Q03"",""Q04"",""Q02"",""Q01"",""Q12"",""Q11"",""Q10"",""Q09"",""Q18"",""Q17"",""Q16"",""Q15"",""Q14"",""Q13"",""Q22"",""Q22"",""Q21"",""Q20"",""Q19""]","[4184.600000023842,6217.600000023842,7339.300000011921,8562.200000047684,11841.400000035763,12702.600000023842,15678.700000047684,16640.200000047684,20150.30000001192,21765.200000047684,22971.5,24705.700000047684,26951.900000035763,28352.200000047684,30743.200000047684,32483.700000047684,34236.200000047684,37003.60000002384,41762,42700.5,45223.5,46196.90000003576,47847.90000003576]","[]","[0.10000002384185791,3328.5,4184.600000023842,6217.600000023842,7339.300000011921,8562.200000047684,9607.200000047684,10746.300000011921,11258.700000047684,11841.400000035763,12702.600000023842,14529,14993.5,15678.700000047684,16640.200000047684,20150.30000001192,21765.200000047684,22971.5,24705.700000047684,26951.900000035763,28352.200000047684,29626.80000001192,30386.900000035763,30743.200000047684,32483.700000047684,34236.200000047684,36509.90000003576,37003.60000002384,41762,42700.5,43701.30000001192,44830.200000047684,45223.5,46196.90000003576,47847.90000003576,51108.30000001192]","0.3181818181818182","0.23809523809523808","0","drsp","","","","","","","","","","","","","","","","","","","","","","","","","","","","","","",""
"12990.699999988079","","","","survey-template","4","73623","0.0-2.0-2.0","25","1","2025-07-09 10:19:04","01610cd0009c79a99da7d0a3353eb402","188.146.154.183","Mozilla/5.0 (Windows NT 10.0; Win64; x64) AppleWebKit/537.36 (KHTML, like Gecko) Chrome/138.0.0.0 Safari/537.36","WebKit","Chrome","138.0.0.0","Windows","10.0","https://app.prolific.com/","pl-PL,pl;q=0.9,en-US;q=0.8,en;q=0.7","66a16e0b41e98cb469f12b0b","683db7602f5db6a34d12d064","686e41fe79f4a32726c2309f","1","66a16e0b41e98cb469f12b0b","1","2025-07-09T10:20:18.684Z","","{""Q01"":""1"",""Q02"":""2"",""Q03"":""1""}","[0,1,2]","[""Q01"",""Q02"",""Q03""]","[4273.900000035763,5802.100000023842,11009.300000011921]","[]","[3283.100000023842,4273.900000035763,5353.600000023842,5802.100000023842,11009.300000011921,12990.199999988079]","0.6666666666666666","0","0","stress","","","","","","","","","","","","","","","","","","","","","","","","","","","","","","",""
"7991","","","","instructions","5","81615","0.0-3.0-0.0","25","1","2025-07-09 10:19:04","01610cd0009c79a99da7d0a3353eb402","188.146.154.183","Mozilla/5.0 (Windows NT 10.0; Win64; x64) AppleWebKit/537.36 (KHTML, like Gecko) Chrome/138.0.0.0 Safari/537.36","WebKit","Chrome","138.0.0.0","Windows","10.0","https://app.prolific.com/","pl-PL,pl;q=0.9,en-US;q=0.8,en;q=0.7","66a16e0b41e98cb469f12b0b","683db7602f5db6a34d12d064","686e41fe79f4a32726c2309f","1","66a16e0b41e98cb469f12b0b","1","","","","","","","","","","","","","[{""page_index"":0,""viewing_time"":7991}]","","","","","","","","","","","","","","","","","","","","","","","","","","","","","",""
"3421","","<p>Before you start with this game please answer the following three questions yourself. </p>
  <p>Through this game, we measure several aspects of your cognitive performance, such as reaction times, multi-tasking capabilities </p>
  <p>and the ability to assess the situation you are in.</p>
  <p></p>
  <p><b>How good do you usually are in such tasks?</b></p>","44","html-slider-response","6","85037","0.0-4.0-0.0","25","1","2025-07-09 10:19:04","01610cd0009c79a99da7d0a3353eb402","188.146.154.183","Mozilla/5.0 (Windows NT 10.0; Win64; x64) AppleWebKit/537.36 (KHTML, like Gecko) Chrome/138.0.0.0 Safari/537.36","WebKit","Chrome","138.0.0.0","Windows","10.0","https://app.prolific.com/","pl-PL,pl;q=0.9,en-US;q=0.8,en;q=0.7","66a16e0b41e98cb469f12b0b","683db7602f5db6a34d12d064","686e41fe79f4a32726c2309f","1","66a16e0b41e98cb469f12b0b","1","2025-07-09T10:20:30.098Z","","","","","","","","","","","PreSkillQ","","50","","","","","","","","","","","","","","","","","","","","","","","","","","","","",""
"2897","","<div style=""width:500px;"">
  <p>How well do you think you will perform in this task compared to other participants?</p>
  </div>","31","html-slider-response","7","87935","0.0-4.0-1.0","25","1","2025-07-09 10:19:04","01610cd0009c79a99da7d0a3353eb402","188.146.154.183","Mozilla/5.0 (Windows NT 10.0; Win64; x64) AppleWebKit/537.36 (KHTML, like Gecko) Chrome/138.0.0.0 Safari/537.36","WebKit","Chrome","138.0.0.0","Windows","10.0","https://app.prolific.com/","pl-PL,pl;q=0.9,en-US;q=0.8,en;q=0.7","66a16e0b41e98cb469f12b0b","683db7602f5db6a34d12d064","686e41fe79f4a32726c2309f","1","66a16e0b41e98cb469f12b0b","1","2025-07-09T10:20:32.996Z","","","","","","","","","","","PrePerfQ","","50","","","","","","","","","","","","","","","","","","","","","","","","","","","","",""
"3121","","<div style=""width:500px;"">
  <p>What best describes how you currently feel?</p>
  </div>","59","html-slider-response","8","91057","0.0-4.0-2.0","25","1","2025-07-09 10:19:04","01610cd0009c79a99da7d0a3353eb402","188.146.154.183","Mozilla/5.0 (Windows NT 10.0; Win64; x64) AppleWebKit/537.36 (KHTML, like Gecko) Chrome/138.0.0.0 Safari/537.36","WebKit","Chrome","138.0.0.0","Windows","10.0","https://app.prolific.com/","pl-PL,pl;q=0.9,en-US;q=0.8,en;q=0.7","66a16e0b41e98cb469f12b0b","683db7602f5db6a34d12d064","686e41fe79f4a32726c2309f","1","66a16e0b41e98cb469f12b0b","1","2025-07-09T10:20:36.118Z","","","","","","","","","","","PreMotivationQ","","50","","","","","","","","","","","","","","","","","","","","","","","","","","","","",""
"","","","","ctl-task-cpt","9","120102","0.0-5.0-0.0","25","1","2025-07-09 10:19:04","01610cd0009c79a99da7d0a3353eb402","188.146.154.183","Mozilla/5.0 (Windows NT 10.0; Win64; x64) AppleWebKit/537.36 (KHTML, like Gecko) Chrome/138.0.0.0 Safari/537.36","WebKit","Chrome","138.0.0.0","Windows","10.0","https://app.prolific.com/","pl-PL,pl;q=0.9,en-US;q=0.8,en;q=0.7","66a16e0b41e98cb469f12b0b","683db7602f5db6a34d12d064","686e41fe79f4a32726c2309f","1","66a16e0b41e98cb469f12b0b","1","2025-07-09T10:21:05.163Z","","","","","","","","","","","","","","win-only","1","g1:NE,g2:SW","1","1","0","92653.7","2375.2","7377.1","26038.2","1","4","8","6","1","1","0","0","0","0","921.6","3000","885","[""up"",""right""]","{""num_key_presses"":6,""num_perfect"":5,""num_errors"":1,""num_randdir"":0,""num_randdir_good_moves"":0,""num_whilered"":0,""num_whileblue"":1,""num_blue"":2,""num_good_moves"":5}","[562.3881982245919,563.5318887401033,0.2,562.3881982245919,563.5318887401033,100.4,562.3881982245919,563.5318887401033,201.3,562.3881982245919,563.5318887401033,305.3,739.488202063131,411.73188544992695,405.6,832.9882040896889,327.0318836141039,510.6,966.0882069745537,175.23188032392753,610.9,1069.4882092156884,24.531877057592993,711,1067.2882091680046,26.73187710527671,811,1063.988209096479,28.931877152960425,911.8,1061.7882090487954,30.031877176802283,1016.6,1061.7882090487954,30.031877176802283,1121.2,1061.7882090487954,30.031877176802283,1226.5,1061.7882090487954,30.031877176802283,1330.3,1028.7882083335396,160.93188001398337,1430.8,1025.488208262014,212.6318811345507,1531.9,1025.488208262014,212.6318811345507,1635.9,1025.488208262014,212.6318811345507,1740.8,1025.488208262014,212.6318811345507,1841.8,1025.488208262014,212.6318811345507,1945.5,1025.488208262014,212.6318811345507,2050.3,1025.488208262014,212.6318811345507,2150.4,1025.488208262014,212.6318811345507,2250.4,1025.488208262014,212.6318811345507,2350.9,1033.188208428907,237.93188168291343,2455.1,1033.188208428907,239.03188170675529,2555.2,1034.288208452749,243.43188180212272,2656.4,1034.288208452749,251.13188196901572,2760.8,1034.288208452749,251.13188196901572,2861.1,1034.288208452749,251.13188196901572,2965.8,1034.288208452749,251.13188196901572,3070.3,1034.288208452749,252.23188199285758,3171.4,1034.288208452749,252.23188199285758,3271.8,1034.288208452749,252.23188199285758,3376.4,1034.288208452749,252.23188199285758,3481,1034.288208452749,252.23188199285758,3585.8,1034.288208452749,252.23188199285758,3690.3,1034.288208452749,252.23188199285758,3796.1,1034.288208452749,252.23188199285758,3900.1,1034.288208452749,252.23188199285758,4000.7,1034.288208452749,252.23188199285758,4105.7,1034.288208452749,252.23188199285758,4210.5,1034.288208452749,252.23188199285758,4311.5,1034.288208452749,252.23188199285758,4415.5,1034.288208452749,252.23188199285758,4515.8,1034.288208452749,252.23188199285758,4620.5,1034.288208452749,252.23188199285758,4721,1034.288208452749,252.23188199285758,4825.3,1034.288208452749,252.23188199285758,4925.3]","[4295.9,4295.9,1865.6,2004.6,425.7,""smooth"",""up"",""up"",""good_move"",6782.4,2486.2,2095.2,4296.2,391,""smooth"",""up"",""up"",""good_move"",9631,2848.4,2456.3,6782.6,392.1,""while_blue"",""right"",""down"",""bad_move"",12677.7,3046.4,2538.6,9631.3,507.8,""smooth"",""up"",""up"",""good_move"",16102.3,3424.2,2994.3,12678.1,429.9,""smooth"",""right"",""right"",""good_move"",18550.4,2447.9,2059,16102.5,388.9,""smooth"",""right"",""right"",""good_move""]","",""
"3360","","<div style=""width:500px;"">
  <p>What determined the result of this run?</p>
  </div>","78","html-slider-response","10","123463","0.0-5.0-1.0","25","1","2025-07-09 10:19:04","01610cd0009c79a99da7d0a3353eb402","188.146.154.183","Mozilla/5.0 (Windows NT 10.0; Win64; x64) AppleWebKit/537.36 (KHTML, like Gecko) Chrome/138.0.0.0 Safari/537.36","WebKit","Chrome","138.0.0.0","Windows","10.0","https://app.prolific.com/","pl-PL,pl;q=0.9,en-US;q=0.8,en;q=0.7","66a16e0b41e98cb469f12b0b","683db7602f5db6a34d12d064","686e41fe79f4a32726c2309f","1","66a16e0b41e98cb469f12b0b","1","2025-07-09T10:21:08.524Z","","","","","","","","","","","AttribQ","","50","","","","","","","","","","","","","","","","","","","","","","","","","","","","",""
"3174","","<div style=""width:500px;"">
  <p>How much control did you have over the ball?</p>
  </div>","44","html-slider-response","11","126638","0.0-5.0-2.0","25","1","2025-07-09 10:19:04","01610cd0009c79a99da7d0a3353eb402","188.146.154.183","Mozilla/5.0 (Windows NT 10.0; Win64; x64) AppleWebKit/537.36 (KHTML, like Gecko) Chrome/138.0.0.0 Safari/537.36","WebKit","Chrome","138.0.0.0","Windows","10.0","https://app.prolific.com/","pl-PL,pl;q=0.9,en-US;q=0.8,en;q=0.7","66a16e0b41e98cb469f12b0b","683db7602f5db6a34d12d064","686e41fe79f4a32726c2309f","1","66a16e0b41e98cb469f12b0b","1","2025-07-09T10:21:11.699Z","","","","","","","","","","","ControlQ","","50","","","","","","","","","","","","","","","","","","","","","","","","","","","","",""
"2490","","<div style=""width:500px;"">
  <p>How would you describe your current emotional state?</p>
  </div>","70","html-slider-response","12","129129","0.0-5.0-3.0","25","1","2025-07-09 10:19:04","01610cd0009c79a99da7d0a3353eb402","188.146.154.183","Mozilla/5.0 (Windows NT 10.0; Win64; x64) AppleWebKit/537.36 (KHTML, like Gecko) Chrome/138.0.0.0 Safari/537.36","WebKit","Chrome","138.0.0.0","Windows","10.0","https://app.prolific.com/","pl-PL,pl;q=0.9,en-US;q=0.8,en;q=0.7","66a16e0b41e98cb469f12b0b","683db7602f5db6a34d12d064","686e41fe79f4a32726c2309f","1","66a16e0b41e98cb469f12b0b","1","2025-07-09T10:21:14.190Z","","","","","","","","","","","StressQ","","50","","","","","","","","","","","","","","","","","","","","","","","","","","","","",""
"2868","","<div style=""width:500px;"">
  <p>What best describes how you currently feel?</p>
  </div>","68","html-slider-response","13","131998","0.0-5.0-4.0","25","1","2025-07-09 10:19:04","01610cd0009c79a99da7d0a3353eb402","188.146.154.183","Mozilla/5.0 (Windows NT 10.0; Win64; x64) AppleWebKit/537.36 (KHTML, like Gecko) Chrome/138.0.0.0 Safari/537.36","WebKit","Chrome","138.0.0.0","Windows","10.0","https://app.prolific.com/","pl-PL,pl;q=0.9,en-US;q=0.8,en;q=0.7","66a16e0b41e98cb469f12b0b","683db7602f5db6a34d12d064","686e41fe79f4a32726c2309f","1","66a16e0b41e98cb469f12b0b","1","2025-07-09T10:21:17.059Z","","","","","","","","","","","MotivationQ","","50","","","","","","","","","","","","","","","","","","","","","","","","","","","","",""
"","","","","ctl-task-cpt","14","167400","0.0-5.0-0.1","25","1","2025-07-09 10:19:04","01610cd0009c79a99da7d0a3353eb402","188.146.154.183","Mozilla/5.0 (Windows NT 10.0; Win64; x64) AppleWebKit/537.36 (KHTML, like Gecko) Chrome/138.0.0.0 Safari/537.36","WebKit","Chrome","138.0.0.0","Windows","10.0","https://app.prolific.com/","pl-PL,pl;q=0.9,en-US;q=0.8,en;q=0.7","66a16e0b41e98cb469f12b0b","683db7602f5db6a34d12d064","686e41fe79f4a32726c2309f","1","66a16e0b41e98cb469f12b0b","1","2025-07-09T10:21:52.461Z","","","","","","","","","","","","","","win-only","1","g1:NE,g2:SW","0.9","2","0","133592.7","906.5","5906.9","32387","1","4","4","6","2","4","4","4","0","0.030303030303030304","940.1","3000","330","[""down"",""left""]","{""num_key_presses"":6,""num_perfect"":5,""num_errors"":0,""num_randdir"":1,""num_randdir_good_moves"":1,""num_whilered"":0,""num_whileblue"":0,""num_blue"":3,""num_good_moves"":6}","[556.8881981053826,551.4318884778429,0.2,556.8881981053826,551.4318884778429,105.5,556.8881981053826,551.4318884778429,210.7,556.8881981053826,551.4318884778429,315.4,449.0881957688805,690.031891481917,419.6,220.28819080977408,891.331895844977,519.9,128.98818883089987,1011.2318984437395,624,106.98818835406271,1035.4318989682604,724.8,106.98818835406271,1035.4318989682604,829,106.98818835406271,1035.4318989682604,930,106.98818835406271,1035.4318989682604,1034.7,106.98818835406271,1035.4318989682604,1134.7,127.88818880705801,996.9318981337954,1234.8,178.48818990378348,900.1318960357119,1339.6,346.7881935515877,607.5318896937777,1444.4,351.18819364695514,604.2318896222521,1545.8,384.1881943622109,583.3318891692568,1649.4,396.2881946244713,564.6318887639452,1755.3,400.68819471983875,558.031888620894,1860,431.48819538741077,529.4318880010057,1964.5,473.28819629340137,472.23188676122913,2064.9,474.3881963172432,472.23188676122913,2165,474.3881963172432,472.23188676122913,2265.2,474.3881963172432,472.23188676122913,2365.3,474.3881963172432,472.23188676122913,2469.2,474.3881963172432,472.23188676122913,2569.5,474.3881963172432,472.23188676122913,2673.9,474.3881963172432,472.23188676122913,2774,474.3881963172432,472.23188676122913,2874.7,474.3881963172432,472.23188676122913,2975.3,474.3881963172432,472.23188676122913,3080.4,474.3881963172432,472.23188676122913,3184.9,474.3881963172432,472.23188676122913,3285.6,474.3881963172432,472.23188676122913,3389,474.3881963172432,472.23188676122913,3489.4,474.3881963172432,472.23188676122913,3593.8,474.3881963172432,472.23188676122913,3695.1,474.3881963172432,472.23188676122913,3799.2,474.3881963172432,472.23188676122913,3899.5,474.3881963172432,472.23188676122913,4004.2,474.3881963172432,472.23188676122913,4108.8,474.3881963172432,472.23188676122913,4209.8,474.3881963172432,472.23188676122913,4314.7,474.3881963172432,472.23188676122913,4419.4,474.3881963172432,472.23188676122913,4519.7,474.3881963172432,472.23188676122913,4619.8,474.3881963172432,472.23188676122913,4720.2,474.3881963172432,472.23188676122913,4824.3,474.3881963172432,472.23188676122913,4930.2]","[1536.5,1536.5,1000,0,536.5,""smooth"",""down"",""down"",""good_move"",12573.5,11036.8,2614,9529.1,430.4,""smooth"",""down"",""down"",""good_move"",15589.8,3016.3,2588.3,12573.5,428,""smooth"",""left"",""left"",""good_move"",17885,2294.9,1840.3,15590.1,454.6,""smooth"",""left"",""left"",""good_move"",23728.4,5843.2,1770.3,21489.5,468.6,""oops"",""left"",""left"",""good_move"",26390.4,2661.8,2281,23728.6,380.8,""smooth"",""down"",""down"",""good_move""]","",""
"2773","","<div style=""width:500px;"">
  <p>What determined the result of this run?</p>
  </div>","24","html-slider-response","15","170174","0.0-5.0-1.1","25","1","2025-07-09 10:19:04","01610cd0009c79a99da7d0a3353eb402","188.146.154.183","Mozilla/5.0 (Windows NT 10.0; Win64; x64) AppleWebKit/537.36 (KHTML, like Gecko) Chrome/138.0.0.0 Safari/537.36","WebKit","Chrome","138.0.0.0","Windows","10.0","https://app.prolific.com/","pl-PL,pl;q=0.9,en-US;q=0.8,en;q=0.7","66a16e0b41e98cb469f12b0b","683db7602f5db6a34d12d064","686e41fe79f4a32726c2309f","1","66a16e0b41e98cb469f12b0b","1","2025-07-09T10:21:55.235Z","","","","","","","","","","","AttribQ","","50","","","","","","","","","","","","","","","","","","","","","","","","","","","","",""
"2477","","<div style=""width:500px;"">
  <p>How much control did you have over the ball?</p>
  </div>","21","html-slider-response","16","172652","0.0-5.0-2.1","25","1","2025-07-09 10:19:04","01610cd0009c79a99da7d0a3353eb402","188.146.154.183","Mozilla/5.0 (Windows NT 10.0; Win64; x64) AppleWebKit/537.36 (KHTML, like Gecko) Chrome/138.0.0.0 Safari/537.36","WebKit","Chrome","138.0.0.0","Windows","10.0","https://app.prolific.com/","pl-PL,pl;q=0.9,en-US;q=0.8,en;q=0.7","66a16e0b41e98cb469f12b0b","683db7602f5db6a34d12d064","686e41fe79f4a32726c2309f","1","66a16e0b41e98cb469f12b0b","1","2025-07-09T10:21:57.713Z","","","","","","","","","","","ControlQ","","50","","","","","","","","","","","","","","","","","","","","","","","","","","","","",""
"2859","","<div style=""width:500px;"">
  <p>How would you describe your current emotional state?</p>
  </div>","22","html-slider-response","17","175512","0.0-5.0-3.1","25","1","2025-07-09 10:19:04","01610cd0009c79a99da7d0a3353eb402","188.146.154.183","Mozilla/5.0 (Windows NT 10.0; Win64; x64) AppleWebKit/537.36 (KHTML, like Gecko) Chrome/138.0.0.0 Safari/537.36","WebKit","Chrome","138.0.0.0","Windows","10.0","https://app.prolific.com/","pl-PL,pl;q=0.9,en-US;q=0.8,en;q=0.7","66a16e0b41e98cb469f12b0b","683db7602f5db6a34d12d064","686e41fe79f4a32726c2309f","1","66a16e0b41e98cb469f12b0b","1","2025-07-09T10:22:00.573Z","","","","","","","","","","","StressQ","","50","","","","","","","","","","","","","","","","","","","","","","","","","","","","",""
"2069","","<div style=""width:500px;"">
  <p>What best describes how you currently feel?</p>
  </div>","70","html-slider-response","18","177582","0.0-5.0-4.1","25","1","2025-07-09 10:19:04","01610cd0009c79a99da7d0a3353eb402","188.146.154.183","Mozilla/5.0 (Windows NT 10.0; Win64; x64) AppleWebKit/537.36 (KHTML, like Gecko) Chrome/138.0.0.0 Safari/537.36","WebKit","Chrome","138.0.0.0","Windows","10.0","https://app.prolific.com/","pl-PL,pl;q=0.9,en-US;q=0.8,en;q=0.7","66a16e0b41e98cb469f12b0b","683db7602f5db6a34d12d064","686e41fe79f4a32726c2309f","1","66a16e0b41e98cb469f12b0b","1","2025-07-09T10:22:02.643Z","","","","","","","","","","","MotivationQ","","50","","","","","","","","","","","","","","","","","","","","","","","","","","","","",""
"","","","","ctl-task-cpt","19","215447","0.0-5.0-0.2","25","1","2025-07-09 10:19:04","01610cd0009c79a99da7d0a3353eb402","188.146.154.183","Mozilla/5.0 (Windows NT 10.0; Win64; x64) AppleWebKit/537.36 (KHTML, like Gecko) Chrome/138.0.0.0 Safari/537.36","WebKit","Chrome","138.0.0.0","Windows","10.0","https://app.prolific.com/","pl-PL,pl;q=0.9,en-US;q=0.8,en;q=0.7","66a16e0b41e98cb469f12b0b","683db7602f5db6a34d12d064","686e41fe79f4a32726c2309f","1","66a16e0b41e98cb469f12b0b","1","2025-07-09T10:22:40.508Z","","","","","","","","","","","","","","win-only","2","g1:SE,g2:NW","0.8","3","0","179177.7","961.7","5966.1","34856.1","1","4","8","6","2","-8","-8","0","4","0","1481.6","3000","-2975","[""left"",""up""]","{""num_key_presses"":7,""num_perfect"":5,""num_errors"":0,""num_randdir"":2,""num_randdir_good_moves"":1,""num_whilered"":0,""num_whileblue"":0,""num_blue"":2,""num_good_moves"":6}","[544.7881978431221,551.4318884778429,0.2,544.7881978431221,551.4318884778429,105.1,544.7881978431221,551.4318884778429,205.1,544.7881978431221,551.4318884778429,309.8,544.7881978431221,551.4318884778429,415.4,544.7881978431221,551.4318884778429,519.1,515.088197199392,497.53188730959187,619.5,-63.51181534142526,-97.56812558885323,719.8,-63.51181534142526,-97.56812558885323,824.9,-63.51181534142526,-97.56812558885323,930.1,-63.51181534142526,-96.46812556501138,1034.3,1.388186065244355,-31.56812415834176,1135.3,53.08818718581168,47.63187755827201,1238.8,59.688187328862824,56.43187774900687,1341.3,72.88818761496512,69.63187803510917,1444,75.08818766264883,69.63187803510917,1544,75.08818766264883,69.63187803510917,1649,75.08818766264883,69.63187803510917,1750.1,78.38818773417441,83.93187834505332,1854.7,130.08818885474173,162.03188003782523,1959.6,236.78819116740195,236.83188165907157,2064.4,603.0881991067406,470.0318867135454,2165.3,603.0881991067406,470.0318867135454,2269.9,605.2881991544243,465.631886618178,2374.5,605.2881991544243,465.631886618178,2479.7,647.0882000604149,440.33188606981525,2579.8,669.0882005372521,423.8318857121874,2680.6,669.0882005372521,423.8318857121874,2783.9,669.0882005372521,423.8318857121874,2888.7,669.0882005372521,422.7318856883455,2994.7,670.1882005610939,422.7318856883455,3098.9,670.1882005610939,422.7318856883455,3203.7,670.1882005610939,422.7318856883455,3305.1,670.1882005610939,422.7318856883455,3408.5,670.1882005610939,422.7318856883455,3509.9,670.1882005610939,422.7318856883455,3610.1,670.1882005610939,422.7318856883455,3714.6,670.1882005610939,422.7318856883455,3818.8,670.1882005610939,422.7318856883455,3919.2,670.1882005610939,422.7318856883455,4024.7,670.1882005610939,422.7318856883455,4129.6,670.1882005610939,422.7318856883455,4234.2,670.1882005610939,422.7318856883455,4339.3,670.1882005610939,422.7318856883455,4444.5,670.1882005610939,422.7318856883455,4544.8,670.1882005610939,422.7318856883455,4649,670.1882005610939,422.7318856883455,4749.8,670.1882005610939,422.7318856883455,4849.9,670.1882005610939,422.7318856883455,4954.5]","[1428.7,1428.7,1000,0,428.7,""smooth"",""up"",""up"",""good_move"",3808.8,2379.9,1985.8,1428.9,394.1,""smooth"",""up"",""up"",""good_move"",15144.7,11335.7,3025.7,11689.4,429.6,""oops"",""left"",""down"",""bad_move"",17957.2,2812.3,2320,15144.9,492.4,""smooth"",""left"",""left"",""good_move"",20754.4,2797,2403.2,17957.4,393.8,""smooth"",""left"",""left"",""good_move"",23956.2,3201.6,2732.3,20754.6,469.3,""smooth"",""up"",""up"",""good_move"",26516.1,2559.7,2152.2,23956.4,407.5,""oops"",""up"",""up"",""good_move""]","",""
"2935","","<div style=""width:500px;"">
  <p>What determined the result of this run?</p>
  </div>","14","html-slider-response","20","218383","0.0-5.0-1.2","25","1","2025-07-09 10:19:04","01610cd0009c79a99da7d0a3353eb402","188.146.154.183","Mozilla/5.0 (Windows NT 10.0; Win64; x64) AppleWebKit/537.36 (KHTML, like Gecko) Chrome/138.0.0.0 Safari/537.36","WebKit","Chrome","138.0.0.0","Windows","10.0","https://app.prolific.com/","pl-PL,pl;q=0.9,en-US;q=0.8,en;q=0.7","66a16e0b41e98cb469f12b0b","683db7602f5db6a34d12d064","686e41fe79f4a32726c2309f","1","66a16e0b41e98cb469f12b0b","1","2025-07-09T10:22:43.444Z","","","","","","","","","","","AttribQ","","50","","","","","","","","","","","","","","","","","","","","","","","","","","","","",""
"3088","","<div style=""width:500px;"">
  <p>How much control did you have over the ball?</p>
  </div>","5","html-slider-response","21","221471","0.0-5.0-2.2","25","1","2025-07-09 10:19:04","01610cd0009c79a99da7d0a3353eb402","188.146.154.183","Mozilla/5.0 (Windows NT 10.0; Win64; x64) AppleWebKit/537.36 (KHTML, like Gecko) Chrome/138.0.0.0 Safari/537.36","WebKit","Chrome","138.0.0.0","Windows","10.0","https://app.prolific.com/","pl-PL,pl;q=0.9,en-US;q=0.8,en;q=0.7","66a16e0b41e98cb469f12b0b","683db7602f5db6a34d12d064","686e41fe79f4a32726c2309f","1","66a16e0b41e98cb469f12b0b","1","2025-07-09T10:22:46.532Z","","","","","","","","","","","ControlQ","","50","","","","","","","","","","","","","","","","","","","","","","","","","","","","",""
"1980","","<div style=""width:500px;"">
  <p>How would you describe your current emotional state?</p>
  </div>","93","html-slider-response","22","223451","0.0-5.0-3.2","25","1","2025-07-09 10:19:04","01610cd0009c79a99da7d0a3353eb402","188.146.154.183","Mozilla/5.0 (Windows NT 10.0; Win64; x64) AppleWebKit/537.36 (KHTML, like Gecko) Chrome/138.0.0.0 Safari/537.36","WebKit","Chrome","138.0.0.0","Windows","10.0","https://app.prolific.com/","pl-PL,pl;q=0.9,en-US;q=0.8,en;q=0.7","66a16e0b41e98cb469f12b0b","683db7602f5db6a34d12d064","686e41fe79f4a32726c2309f","1","66a16e0b41e98cb469f12b0b","1","2025-07-09T10:22:48.513Z","","","","","","","","","","","StressQ","","50","","","","","","","","","","","","","","","","","","","","","","","","","","","","",""
"1919","","<div style=""width:500px;"">
  <p>What best describes how you currently feel?</p>
  </div>","81","html-slider-response","23","225371","0.0-5.0-4.2","25","1","2025-07-09 10:19:04","01610cd0009c79a99da7d0a3353eb402","188.146.154.183","Mozilla/5.0 (Windows NT 10.0; Win64; x64) AppleWebKit/537.36 (KHTML, like Gecko) Chrome/138.0.0.0 Safari/537.36","WebKit","Chrome","138.0.0.0","Windows","10.0","https://app.prolific.com/","pl-PL,pl;q=0.9,en-US;q=0.8,en;q=0.7","66a16e0b41e98cb469f12b0b","683db7602f5db6a34d12d064","686e41fe79f4a32726c2309f","1","66a16e0b41e98cb469f12b0b","1","2025-07-09T10:22:50.432Z","","","","","","","","","","","MotivationQ","","50","","","","","","","","","","","","","","","","","","","","","","","","","","","","",""
"","","","","ctl-task-cpt","24","254622","0.0-5.0-0.3","25","1","2025-07-09 10:19:04","01610cd0009c79a99da7d0a3353eb402","188.146.154.183","Mozilla/5.0 (Windows NT 10.0; Win64; x64) AppleWebKit/537.36 (KHTML, like Gecko) Chrome/138.0.0.0 Safari/537.36","WebKit","Chrome","138.0.0.0","Windows","10.0","https://app.prolific.com/","pl-PL,pl;q=0.9,en-US;q=0.8,en;q=0.7","66a16e0b41e98cb469f12b0b","683db7602f5db6a34d12d064","686e41fe79f4a32726c2309f","1","66a16e0b41e98cb469f12b0b","1","2025-07-09T10:23:19.683Z","","","","","","","","","","","","","","win-only","1","g1:NE,g2:SW","0.7","4","0","226967.1","1771.9","6776.8","26243.4","1","4","4","6","1","1","1","1","0","0.007575757575757576","1745.9","3000","645","[""up"",""right""]","{""num_key_presses"":6,""num_perfect"":4,""num_errors"":0,""num_randdir"":2,""num_randdir_good_moves"":1,""num_whilered"":0,""num_whileblue"":0,""num_blue"":1,""num_good_moves"":5}","[562.3881982245919,554.7318885493685,0.1,562.3881982245919,554.7318885493685,104.3,562.3881982245919,554.7318885493685,205,562.3881982245919,554.7318885493685,309.1,565.6881982961174,548.1318884063173,409.1,594.2881989160057,527.231887953322,510.1,543.6881978192803,577.8318890500475,613.8,280.78819212107624,869.3318953681398,714.1,94.88818809180228,1040.9318990874697,820.3,94.88818809180228,1040.9318990874697,925.2,94.88818809180228,1040.9318990874697,1026.7,94.88818809180228,1039.8318990636278,1129,94.88818809180228,1039.8318990636278,1229.7,108.08818837790457,1021.1318986583162,1329.8,541.4881977715966,587.7318892646242,1433.9,951.7882066646096,165.3318801093508,1534.3,985.8882074037072,126.83187927488578,1634.3,995.7882076182839,120.23187913183463,1738.9,995.7882076182839,119.13187910799277,1844.2,995.7882076182839,119.13187910799277,1945.2,995.7882076182839,122.43187917951835,2049,1067.2882091680046,266.5318823028017,2150.3,1234.488212791967,333.63188375715504,2255.3,1235.588212815809,333.63188375715504,2362.2,1235.588212815809,333.63188375715504,2464,1235.588212815809,333.63188375715504,2569.9,1235.588212815809,333.63188375715504,2673.6,1235.588212815809,333.63188375715504,2773.8,1235.588212815809,333.63188375715504,2876.4,1235.588212815809,333.63188375715504,2980.4,1235.588212815809,333.63188375715504,3085.7,1235.588212815809,333.63188375715504,3189.1,1235.588212815809,333.63188375715504,3289.4,1235.588212815809,333.63188375715504,3394.3,1235.588212815809,333.63188375715504,3499,1235.588212815809,333.63188375715504,3600.1,1235.588212815809,333.63188375715504,3703.7,1235.588212815809,333.63188375715504,3809.3,1235.588212815809,333.63188375715504,3915.8,1235.588212815809,333.63188375715504,4019.3,1235.588212815809,333.63188375715504,4124,1235.588212815809,333.63188375715504,4224.2,1235.588212815809,333.63188375715504,4324.2,1235.588212815809,333.63188375715504,4428.5,1235.588212815809,333.63188375715504,4529,1235.588212815809,333.63188375715504,4629.1,1235.588212815809,333.63188375715504,4729.3,1235.588212815809,333.63188375715504,4829.4,1234.488212791967,333.63188375715504,4930.3]","[1412.3,1412.3,1000,0,412.3,""oops"",""up"",""down"",""bad_move"",4255.7,2843.1,2393.1,1412.6,450,""smooth"",""up"",""up"",""good_move"",11470.4,7214.4,3065.2,7998.4,406.8,""smooth"",""up"",""up"",""good_move"",14292.4,2821.8,2413.9,11470.6,408,""smooth"",""right"",""right"",""good_move"",16785,2492.3,2084.8,14292.7,407.5,""oops"",""up"",""up"",""good_move"",19370,2584.8,2250.2,16785.2,334.6,""smooth"",""right"",""right"",""good_move""]","",""
"2716","","<div style=""width:500px;"">
  <p>What determined the result of this run?</p>
  </div>","3","html-slider-response","25","257339","0.0-5.0-1.3","25","1","2025-07-09 10:19:04","01610cd0009c79a99da7d0a3353eb402","188.146.154.183","Mozilla/5.0 (Windows NT 10.0; Win64; x64) AppleWebKit/537.36 (KHTML, like Gecko) Chrome/138.0.0.0 Safari/537.36","WebKit","Chrome","138.0.0.0","Windows","10.0","https://app.prolific.com/","pl-PL,pl;q=0.9,en-US;q=0.8,en;q=0.7","66a16e0b41e98cb469f12b0b","683db7602f5db6a34d12d064","686e41fe79f4a32726c2309f","1","66a16e0b41e98cb469f12b0b","1","2025-07-09T10:23:22.400Z","","","","","","","","","","","AttribQ","","50","","","","","","","","","","","","","","","","","","","","","","","","","","","","",""
"10799","","<div style=""width:500px;"">
  <p>How much control did you have over the ball?</p>
  </div>","13","html-slider-response","26","268139","0.0-5.0-2.3","25","1","2025-07-09 10:19:04","01610cd0009c79a99da7d0a3353eb402","188.146.154.183","Mozilla/5.0 (Windows NT 10.0; Win64; x64) AppleWebKit/537.36 (KHTML, like Gecko) Chrome/138.0.0.0 Safari/537.36","WebKit","Chrome","138.0.0.0","Windows","10.0","https://app.prolific.com/","pl-PL,pl;q=0.9,en-US;q=0.8,en;q=0.7","66a16e0b41e98cb469f12b0b","683db7602f5db6a34d12d064","686e41fe79f4a32726c2309f","1","66a16e0b41e98cb469f12b0b","1","2025-07-09T10:23:33.200Z","","","","","","","","","","","ControlQ","","50","","","","","","","","","","","","","","","","","","","","","","","","","","","","",""
"2338","","<div style=""width:500px;"">
  <p>How would you describe your current emotional state?</p>
  </div>","90","html-slider-response","27","270477","0.0-5.0-3.3","25","1","2025-07-09 10:19:04","01610cd0009c79a99da7d0a3353eb402","188.146.154.183","Mozilla/5.0 (Windows NT 10.0; Win64; x64) AppleWebKit/537.36 (KHTML, like Gecko) Chrome/138.0.0.0 Safari/537.36","WebKit","Chrome","138.0.0.0","Windows","10.0","https://app.prolific.com/","pl-PL,pl;q=0.9,en-US;q=0.8,en;q=0.7","66a16e0b41e98cb469f12b0b","683db7602f5db6a34d12d064","686e41fe79f4a32726c2309f","1","66a16e0b41e98cb469f12b0b","1","2025-07-09T10:23:35.538Z","","","","","","","","","","","StressQ","","50","","","","","","","","","","","","","","","","","","","","","","","","","","","","",""
"1952","","<div style=""width:500px;"">
  <p>What best describes how you currently feel?</p>
  </div>","75","html-slider-response","28","272431","0.0-5.0-4.3","25","1","2025-07-09 10:19:04","01610cd0009c79a99da7d0a3353eb402","188.146.154.183","Mozilla/5.0 (Windows NT 10.0; Win64; x64) AppleWebKit/537.36 (KHTML, like Gecko) Chrome/138.0.0.0 Safari/537.36","WebKit","Chrome","138.0.0.0","Windows","10.0","https://app.prolific.com/","pl-PL,pl;q=0.9,en-US;q=0.8,en;q=0.7","66a16e0b41e98cb469f12b0b","683db7602f5db6a34d12d064","686e41fe79f4a32726c2309f","1","66a16e0b41e98cb469f12b0b","1","2025-07-09T10:23:37.492Z","","","","","","","","","","","MotivationQ","","50","","","","","","","","","","","","","","","","","","","","","","","","","","","","",""
"","","","","ctl-task-cpt","29","301910","0.0-5.0-0.4","25","1","2025-07-09 10:19:04","01610cd0009c79a99da7d0a3353eb402","188.146.154.183","Mozilla/5.0 (Windows NT 10.0; Win64; x64) AppleWebKit/537.36 (KHTML, like Gecko) Chrome/138.0.0.0 Safari/537.36","WebKit","Chrome","138.0.0.0","Windows","10.0","https://app.prolific.com/","pl-PL,pl;q=0.9,en-US;q=0.8,en;q=0.7","66a16e0b41e98cb469f12b0b","683db7602f5db6a34d12d064","686e41fe79f4a32726c2309f","1","66a16e0b41e98cb469f12b0b","1","2025-07-09T10:24:06.971Z","","","","","","","","","","","","","","win-only","0","g1:NW,g2:SE","0.6","5","0","274026.4","1228.3","6231.6","26468.9","1","4","8","6","2","8","8","9","1","0.06818181818181818","1115.6","3000","835","[""down"",""right""]","{""num_key_presses"":6,""num_perfect"":5,""num_errors"":0,""num_randdir"":1,""num_randdir_good_moves"":1,""num_whilered"":0,""num_whileblue"":0,""num_blue"":1,""num_good_moves"":6}","[562.3881982245919,562.4318887162615,0.2,562.3881982245919,562.4318887162615,102,562.3881982245919,562.4318887162615,202.9,562.3881982245919,563.5318887401033,306.9,534.8881976285454,593.2318893838335,408.1,517.2881972470757,597.6318894792009,512.7,520.5881973186013,627.3318901229311,612.7,726.2882017770287,842.9318947959352,717.6,869.2882048764702,891.331895844977,817.7,991.3882075229164,948.5318970847536,922.6,1022.1882081904885,979.3318977523256,1022.7,1022.1882081904885,979.3318977523256,1124.5,1022.1882081904885,979.3318977523256,1227.3,1021.0882081666466,979.3318977523256,1327.6,1024.3882082381722,935.3318967986513,1427.8,997.9882076659676,738.4318925309587,1528.2,948.488206593084,552.5318885016848,1633.4,940.788206426191,527.231887953322,1738.5,940.788206426191,527.231887953322,1842.5,940.788206426191,527.231887953322,1948.4,940.788206426191,527.231887953322,2048.4,940.788206426191,527.231887953322,2152.4,940.788206426191,527.231887953322,2255.2,940.788206426191,527.231887953322,2357.7,940.788206426191,527.231887953322,2460.9,940.788206426191,527.231887953322,2563.7,940.788206426191,527.231887953322,2667.3,940.788206426191,527.231887953322,2768.2,940.788206426191,527.231887953322,2873,940.788206426191,527.231887953322,2973.2,940.788206426191,527.231887953322,3078.8,940.788206426191,527.231887953322,3182.6,940.788206426191,527.231887953322,3283,940.788206426191,527.231887953322,3384.2,940.788206426191,527.231887953322,3486.2,940.788206426191,527.231887953322,3590.3,940.788206426191,527.231887953322,3690.7,940.788206426191,527.231887953322,3792.9,940.788206426191,527.231887953322,3898.2,940.788206426191,527.231887953322,4002.6,940.788206426191,527.231887953322,4108,940.788206426191,527.231887953322,4208.1,940.788206426191,527.231887953322,4308.3,940.788206426191,527.231887953322,4408.5,940.788206426191,527.231887953322,4512.3,940.788206426191,527.231887953322,4612.8,940.788206426191,527.231887953322,4718.4,940.788206426191,527.231887953322,4822.8,940.788206426191,527.231887953322,4923]","[1442.5,1442.6,1000,0,442.6,""smooth"",""down"",""down"",""good_move"",8103.5,6660.8,2569,5170.3,364.3,""oops"",""down"",""right"",""good_move"",11600.6,3496.9,3138,8103.7,358.9,""smooth"",""down"",""down"",""good_move"",14839.3,3238.4,2877.6,11600.9,360.8,""smooth"",""right"",""right"",""good_move"",17363.8,2524.2,2154,14839.6,370.2,""smooth"",""down"",""down"",""good_move"",20142.1,2778.1,2416.9,17364,361.2,""smooth"",""right"",""right"",""good_move""]","",""
"1961","","<div style=""width:500px;"">
  <p>What determined the result of this run?</p>
  </div>","8","html-slider-response","30","303873","0.0-5.0-1.4","25","1","2025-07-09 10:19:04","01610cd0009c79a99da7d0a3353eb402","188.146.154.183","Mozilla/5.0 (Windows NT 10.0; Win64; x64) AppleWebKit/537.36 (KHTML, like Gecko) Chrome/138.0.0.0 Safari/537.36","WebKit","Chrome","138.0.0.0","Windows","10.0","https://app.prolific.com/","pl-PL,pl;q=0.9,en-US;q=0.8,en;q=0.7","66a16e0b41e98cb469f12b0b","683db7602f5db6a34d12d064","686e41fe79f4a32726c2309f","1","66a16e0b41e98cb469f12b0b","1","2025-07-09T10:24:08.934Z","","","","","","","","","","","AttribQ","","50","","","","","","","","","","","","","","","","","","","","","","","","","","","","",""
"2030","","<div style=""width:500px;"">
  <p>How much control did you have over the ball?</p>
  </div>","15","html-slider-response","31","305904","0.0-5.0-2.4","25","1","2025-07-09 10:19:04","01610cd0009c79a99da7d0a3353eb402","188.146.154.183","Mozilla/5.0 (Windows NT 10.0; Win64; x64) AppleWebKit/537.36 (KHTML, like Gecko) Chrome/138.0.0.0 Safari/537.36","WebKit","Chrome","138.0.0.0","Windows","10.0","https://app.prolific.com/","pl-PL,pl;q=0.9,en-US;q=0.8,en;q=0.7","66a16e0b41e98cb469f12b0b","683db7602f5db6a34d12d064","686e41fe79f4a32726c2309f","1","66a16e0b41e98cb469f12b0b","1","2025-07-09T10:24:10.965Z","","","","","","","","","","","ControlQ","","50","","","","","","","","","","","","","","","","","","","","","","","","","","","","",""
"1820","","<div style=""width:500px;"">
  <p>How would you describe your current emotional state?</p>
  </div>","76","html-slider-response","32","307724","0.0-5.0-3.4","25","1","2025-07-09 10:19:04","01610cd0009c79a99da7d0a3353eb402","188.146.154.183","Mozilla/5.0 (Windows NT 10.0; Win64; x64) AppleWebKit/537.36 (KHTML, like Gecko) Chrome/138.0.0.0 Safari/537.36","WebKit","Chrome","138.0.0.0","Windows","10.0","https://app.prolific.com/","pl-PL,pl;q=0.9,en-US;q=0.8,en;q=0.7","66a16e0b41e98cb469f12b0b","683db7602f5db6a34d12d064","686e41fe79f4a32726c2309f","1","66a16e0b41e98cb469f12b0b","1","2025-07-09T10:24:12.785Z","","","","","","","","","","","StressQ","","50","","","","","","","","","","","","","","","","","","","","","","","","","","","","",""
"2363","","<div style=""width:500px;"">
  <p>What best describes how you currently feel?</p>
  </div>","72","html-slider-response","33","310088","0.0-5.0-4.4","25","1","2025-07-09 10:19:04","01610cd0009c79a99da7d0a3353eb402","188.146.154.183","Mozilla/5.0 (Windows NT 10.0; Win64; x64) AppleWebKit/537.36 (KHTML, like Gecko) Chrome/138.0.0.0 Safari/537.36","WebKit","Chrome","138.0.0.0","Windows","10.0","https://app.prolific.com/","pl-PL,pl;q=0.9,en-US;q=0.8,en;q=0.7","66a16e0b41e98cb469f12b0b","683db7602f5db6a34d12d064","686e41fe79f4a32726c2309f","1","66a16e0b41e98cb469f12b0b","1","2025-07-09T10:24:15.149Z","","","","","","","","","","","MotivationQ","","50","","","","","","","","","","","","","","","","","","","","","","","","","","","","",""
"","","","","ctl-task-cpt","34","349163","0.0-5.0-0.5","25","1","2025-07-09 10:19:04","01610cd0009c79a99da7d0a3353eb402","188.146.154.183","Mozilla/5.0 (Windows NT 10.0; Win64; x64) AppleWebKit/537.36 (KHTML, like Gecko) Chrome/138.0.0.0 Safari/537.36","WebKit","Chrome","138.0.0.0","Windows","10.0","https://app.prolific.com/","pl-PL,pl;q=0.9,en-US;q=0.8,en;q=0.7","66a16e0b41e98cb469f12b0b","683db7602f5db6a34d12d064","686e41fe79f4a32726c2309f","1","66a16e0b41e98cb469f12b0b","1","2025-07-09T10:24:54.224Z","","","","","","","","","","","","","","win-only","0","g1:NW,g2:SE","0.5","6","0","311683.7","818.6","5821.4","36056.4","1","4","4","6","2","-4","-5","4","9","0.030303030303030304","1006.6","3000","-2650","[""down"",""right""]","{""num_key_presses"":9,""num_perfect"":4,""num_errors"":1,""num_randdir"":4,""num_randdir_good_moves"":2,""num_whilered"":0,""num_whileblue"":0,""num_blue"":2,""num_good_moves"":6}","[552.4881980100151,570.1318888831545,0.2,552.4881980100151,570.1318888831545,102.2,556.8881981053826,563.5318887401033,202.8,556.8881981053826,563.5318887401033,302.9,548.0881979146477,563.5318887401033,407.2,-4.111814053964935,148.83187975172294,507.8,1010.088207928228,1031.031898872893,608.5,1089.2882096448418,1109.1319005656649,711.9,1098.0882098355767,1124.5319008994509,813.5,1051.8882088342186,1058.5318994689394,918.1,1049.688208786535,1054.131899373572,1019.6,1049.688208786535,1055.2318993974138,1121.3,1049.688208786535,1055.2318993974138,1224.9,1116.7882102408882,905.6318961549212,1328,1220.188212482023,532.7318880725313,1428.4,1220.188212482023,523.9318878817965,1530.5,1220.188212482023,523.9318878817965,1634.1,1221.2882125058647,525.0318879056383,1737.6,1221.2882125058647,525.0318879056383,1840.2,1221.2882125058647,525.0318879056383,1942.5,1221.2882125058647,533.8318880963732,2046.6,1221.2882125058647,533.8318880963732,2149.1,1221.2882125058647,533.8318880963732,2254.6,1221.2882125058647,533.8318880963732,2358.6,1221.2882125058647,533.8318880963732,2462.5,1221.2882125058647,533.8318880963732,2563.7,1221.2882125058647,533.8318880963732,2669.2,1221.2882125058647,533.8318880963732,2769.8,1221.2882125058647,533.8318880963732,2871.2,1221.2882125058647,533.8318880963732,2971.7,1221.2882125058647,533.8318880963732,3073,1221.2882125058647,533.8318880963732,3174,1216.8882124104973,543.7318883109499,3278.4,1219.088212458181,545.9318883586336,3383.3,1215.7882123866555,544.8318883347918,3493,1214.6882123628136,548.1318884063173,3594.6,1214.6882123628136,548.1318884063173,3696.3,1214.6882123628136,548.1318884063173,3800,1214.6882123628136,548.1318884063173,3902.8,1214.6882123628136,548.1318884063173,4003.1,1214.6882123628136,548.1318884063173,4105.1,1214.6882123628136,548.1318884063173,4207,1214.6882123628136,548.1318884063173,4310,1214.6882123628136,548.1318884063173,4412.9,1214.6882123628136,548.1318884063173,4519,1214.6882123628136,548.1318884063173,4621.3,1214.6882123628136,548.1318884063173,4724.6,1214.6882123628136,548.1318884063173,4827.9,1214.6882123628136,548.1318884063173,4930]","[1365.9,1365.9,1000,0,365.9,""oops"",""down"",""down"",""good_move"",9897.1,8530.9,2491.6,7009.9,395.6,""oops"",""down"",""up"",""bad_move"",12415.1,2517.6,2080,9897.5,437.6,""smooth"",""right"",""right"",""good_move"",15758.1,3342.7,3013.9,12415.4,328.8,""smooth"",""right"",""right"",""good_move"",17841.1,2082.9,1704.2,15758.2,378.7,""oops"",""right"",""down"",""good_move"",19931.8,2090.4,1713.4,17841.4,377,""smooth"",""right"",""right"",""good_move"",22474.8,2542.9,2113.3,19931.9,429.6,""oops"",""down"",""left"",""bad_move"",24398.6,1923.6,1550.8,22475,372.8,""smooth"",""down"",""down"",""good_move"",26302.3,1903.6,2094.7,24398.7,-191.1,""error"",""-"",""-"",""no_move""]","",""
"4007","","<div style=""width:500px;"">
  <p>What determined the result of this run?</p>
  </div>","0","html-slider-response","35","353170","0.0-5.0-1.5","25","1","2025-07-09 10:19:04","01610cd0009c79a99da7d0a3353eb402","188.146.154.183","Mozilla/5.0 (Windows NT 10.0; Win64; x64) AppleWebKit/537.36 (KHTML, like Gecko) Chrome/138.0.0.0 Safari/537.36","WebKit","Chrome","138.0.0.0","Windows","10.0","https://app.prolific.com/","pl-PL,pl;q=0.9,en-US;q=0.8,en;q=0.7","66a16e0b41e98cb469f12b0b","683db7602f5db6a34d12d064","686e41fe79f4a32726c2309f","1","66a16e0b41e98cb469f12b0b","1","2025-07-09T10:24:58.231Z","","","","","","","","","","","AttribQ","","50","","","","","","","","","","","","","","","","","","","","","","","","","","","","",""
"5331","","<div style=""width:500px;"">
  <p>How much control did you have over the ball?</p>
  </div>","0","html-slider-response","36","358502","0.0-5.0-2.5","25","1","2025-07-09 10:19:04","01610cd0009c79a99da7d0a3353eb402","188.146.154.183","Mozilla/5.0 (Windows NT 10.0; Win64; x64) AppleWebKit/537.36 (KHTML, like Gecko) Chrome/138.0.0.0 Safari/537.36","WebKit","Chrome","138.0.0.0","Windows","10.0","https://app.prolific.com/","pl-PL,pl;q=0.9,en-US;q=0.8,en;q=0.7","66a16e0b41e98cb469f12b0b","683db7602f5db6a34d12d064","686e41fe79f4a32726c2309f","1","66a16e0b41e98cb469f12b0b","1","2025-07-09T10:25:03.563Z","","","","","","","","","","","ControlQ","","50","","","","","","","","","","","","","","","","","","","","","","","","","","","","",""
"2894","","<div style=""width:500px;"">
  <p>How would you describe your current emotional state?</p>
  </div>","100","html-slider-response","37","361397","0.0-5.0-3.5","25","1","2025-07-09 10:19:04","01610cd0009c79a99da7d0a3353eb402","188.146.154.183","Mozilla/5.0 (Windows NT 10.0; Win64; x64) AppleWebKit/537.36 (KHTML, like Gecko) Chrome/138.0.0.0 Safari/537.36","WebKit","Chrome","138.0.0.0","Windows","10.0","https://app.prolific.com/","pl-PL,pl;q=0.9,en-US;q=0.8,en;q=0.7","66a16e0b41e98cb469f12b0b","683db7602f5db6a34d12d064","686e41fe79f4a32726c2309f","1","66a16e0b41e98cb469f12b0b","1","2025-07-09T10:25:06.458Z","","","","","","","","","","","StressQ","","50","","","","","","","","","","","","","","","","","","","","","","","","","","","","",""
"3488","","<div style=""width:500px;"">
  <p>What best describes how you currently feel?</p>
  </div>","32","html-slider-response","38","364886","0.0-5.0-4.5","25","1","2025-07-09 10:19:04","01610cd0009c79a99da7d0a3353eb402","188.146.154.183","Mozilla/5.0 (Windows NT 10.0; Win64; x64) AppleWebKit/537.36 (KHTML, like Gecko) Chrome/138.0.0.0 Safari/537.36","WebKit","Chrome","138.0.0.0","Windows","10.0","https://app.prolific.com/","pl-PL,pl;q=0.9,en-US;q=0.8,en;q=0.7","66a16e0b41e98cb469f12b0b","683db7602f5db6a34d12d064","686e41fe79f4a32726c2309f","1","66a16e0b41e98cb469f12b0b","1","2025-07-09T10:25:09.947Z","","","","","","","","","","","MotivationQ","","50","","","","","","","","","","","","","","","","","","","","","","","","","","","","",""
"","","","","ctl-task-cpt","39","405698","0.0-5.0-0.6","25","1","2025-07-09 10:19:04","01610cd0009c79a99da7d0a3353eb402","188.146.154.183","Mozilla/5.0 (Windows NT 10.0; Win64; x64) AppleWebKit/537.36 (KHTML, like Gecko) Chrome/138.0.0.0 Safari/537.36","WebKit","Chrome","138.0.0.0","Windows","10.0","https://app.prolific.com/","pl-PL,pl;q=0.9,en-US;q=0.8,en;q=0.7","66a16e0b41e98cb469f12b0b","683db7602f5db6a34d12d064","686e41fe79f4a32726c2309f","1","66a16e0b41e98cb469f12b0b","1","2025-07-09T10:25:50.759Z","","","","","","","","","","","","","","win-only","2","g1:SE,g2:NW","0.4","7","0","366481.6","915.7","5916.2","37791.3","1","4","8","6","2","-8","-9","0","4","0","1236.8","3000","-3015","[""left"",""up""]","{""num_key_presses"":8,""num_perfect"":2,""num_errors"":1,""num_randdir"":5,""num_randdir_good_moves"":0,""num_whilered"":0,""num_whileblue"":1,""num_blue"":3,""num_good_moves"":2}","[554.6881980576989,554.7318885493685,0.2,554.6881980576989,554.7318885493685,116.8,554.6881980576989,554.7318885493685,222.3,554.6881980576989,554.7318885493685,327.5,506.2881970086571,575.6318890023638,431.8,456.7881959357735,602.0318895745684,531.9,351.18819364695514,489.83188714269886,636,189.48819014220206,114.73187901262534,739.9,138.8881890454766,5.831876652281409,844.2,116.88818856863944,5.831876652281409,946,110.28818842558829,26.73187710527671,1051.5,132.28818890242545,76.23187817816031,1152.4,132.28818890242545,78.43187822584403,1256.7,132.28818890242545,78.43187822584403,1357.1,132.28818890242545,78.43187822584403,1462.2,133.3881889262673,80.63187827352775,1566.7,344.588193503904,309.43188323263416,1671.4,409.4881949105736,361.1318843532015,1775.8,506.2881970086571,361.1318843532015,1880.9,577.7881985583779,360.0318843293596,1980.9,584.388198701429,360.0318843293596,2094.5,584.388198701429,360.0318843293596,2196.3,584.388198701429,360.0318843293596,2299.9,584.388198701429,360.0318843293596,2400.3,658.0882002988335,367.73188449625263,2503,741.6882021108147,361.1318843532015,2606.6,793.388203231382,360.0318843293596,2710.7,825.2882039227959,366.6318844724108,2813,825.2882039227959,366.6318844724108,2918.3,825.2882039227959,366.6318844724108,3020.1,825.2882039227959,366.6318844724108,3127.3,825.2882039227959,366.6318844724108,3229.3,825.2882039227959,366.6318844724108,3331,825.2882039227959,366.6318844724108,3431.9,825.2882039227959,366.6318844724108,3535.8,825.2882039227959,366.6318844724108,3641.3,825.2882039227959,366.6318844724108,3744.8,825.2882039227959,366.6318844724108,3846.6,825.2882039227959,366.6318844724108,3947.2,825.2882039227959,366.6318844724108,4049.8,825.2882039227959,366.6318844724108,4152.1,828.5882039943215,366.6318844724108,4256,828.5882039943215,366.6318844724108,4360.1,828.5882039943215,366.6318844724108,4461.1,828.5882039943215,366.6318844724108,4561.1,828.5882039943215,366.6318844724108,4662.2,828.5882039943215,366.6318844724108,4766.8,828.5882039943215,366.6318844724108,4870,828.5882039943215,366.6318844724108,4970.4]","[1435.3,1435.3,1000,0,435.3,""smooth"",""up"",""up"",""good_move"",4602.1,3166.5,2768.2,1435.6,398.3,""while_blue"",""up"",""right"",""bad_move"",7166.1,2563.8,2157.7,4602.3,406.1,""oops"",""left"",""right"",""bad_move"",11421.6,4255.4,3841.4,7166.2,414,""oops"",""up"",""down"",""bad_move"",14204.5,2782.7,2366.2,11421.8,416.5,""oops"",""up"",""down"",""bad_move"",20291.6,6087,2296.8,17534.5,460.3,""smooth"",""left"",""left"",""good_move"",26205,5913.2,1953.4,23819.4,432.2,""oops"",""left"",""down"",""bad_move"",29111.7,2906.6,2519.6,26205.1,387,""oops"",""up"",""right"",""bad_move""]","",""
"30247","","<div style=""width:500px;"">
  <p>What determined the result of this run?</p>
  </div>","1","html-slider-response","40","435946","0.0-5.0-1.6","25","1","2025-07-09 10:19:04","01610cd0009c79a99da7d0a3353eb402","188.146.154.183","Mozilla/5.0 (Windows NT 10.0; Win64; x64) AppleWebKit/537.36 (KHTML, like Gecko) Chrome/138.0.0.0 Safari/537.36","WebKit","Chrome","138.0.0.0","Windows","10.0","https://app.prolific.com/","pl-PL,pl;q=0.9,en-US;q=0.8,en;q=0.7","66a16e0b41e98cb469f12b0b","683db7602f5db6a34d12d064","686e41fe79f4a32726c2309f","1","66a16e0b41e98cb469f12b0b","1","2025-07-09T10:26:21.007Z","","","","","","","","","","","AttribQ","","50","","","","","","","","","","","","","","","","","","","","","","","","","","","","",""
"2530","","<div style=""width:500px;"">
  <p>How much control did you have over the ball?</p>
  </div>","0","html-slider-response","41","438476","0.0-5.0-2.6","25","1","2025-07-09 10:19:04","01610cd0009c79a99da7d0a3353eb402","188.146.154.183","Mozilla/5.0 (Windows NT 10.0; Win64; x64) AppleWebKit/537.36 (KHTML, like Gecko) Chrome/138.0.0.0 Safari/537.36","WebKit","Chrome","138.0.0.0","Windows","10.0","https://app.prolific.com/","pl-PL,pl;q=0.9,en-US;q=0.8,en;q=0.7","66a16e0b41e98cb469f12b0b","683db7602f5db6a34d12d064","686e41fe79f4a32726c2309f","1","66a16e0b41e98cb469f12b0b","1","2025-07-09T10:26:23.537Z","","","","","","","","","","","ControlQ","","50","","","","","","","","","","","","","","","","","","","","","","","","","","","","",""
"2453","","<div style=""width:500px;"">
  <p>How would you describe your current emotional state?</p>
  </div>","98","html-slider-response","42","440929","0.0-5.0-3.6","25","1","2025-07-09 10:19:04","01610cd0009c79a99da7d0a3353eb402","188.146.154.183","Mozilla/5.0 (Windows NT 10.0; Win64; x64) AppleWebKit/537.36 (KHTML, like Gecko) Chrome/138.0.0.0 Safari/537.36","WebKit","Chrome","138.0.0.0","Windows","10.0","https://app.prolific.com/","pl-PL,pl;q=0.9,en-US;q=0.8,en;q=0.7","66a16e0b41e98cb469f12b0b","683db7602f5db6a34d12d064","686e41fe79f4a32726c2309f","1","66a16e0b41e98cb469f12b0b","1","2025-07-09T10:26:25.990Z","","","","","","","","","","","StressQ","","50","","","","","","","","","","","","","","","","","","","","","","","","","","","","",""
"4054","","<div style=""width:500px;"">
  <p>What best describes how you currently feel?</p>
  </div>","99","html-slider-response","43","444984","0.0-5.0-4.6","25","1","2025-07-09 10:19:04","01610cd0009c79a99da7d0a3353eb402","188.146.154.183","Mozilla/5.0 (Windows NT 10.0; Win64; x64) AppleWebKit/537.36 (KHTML, like Gecko) Chrome/138.0.0.0 Safari/537.36","WebKit","Chrome","138.0.0.0","Windows","10.0","https://app.prolific.com/","pl-PL,pl;q=0.9,en-US;q=0.8,en;q=0.7","66a16e0b41e98cb469f12b0b","683db7602f5db6a34d12d064","686e41fe79f4a32726c2309f","1","66a16e0b41e98cb469f12b0b","1","2025-07-09T10:26:30.045Z","","","","","","","","","","","MotivationQ","","50","","","","","","","","","","","","","","","","","","","","","","","","","","","","",""
"","","","","ctl-task-cpt","44","482481","0.0-5.0-0.7","25","1","2025-07-09 10:19:04","01610cd0009c79a99da7d0a3353eb402","188.146.154.183","Mozilla/5.0 (Windows NT 10.0; Win64; x64) AppleWebKit/537.36 (KHTML, like Gecko) Chrome/138.0.0.0 Safari/537.36","WebKit","Chrome","138.0.0.0","Windows","10.0","https://app.prolific.com/","pl-PL,pl;q=0.9,en-US;q=0.8,en;q=0.7","66a16e0b41e98cb469f12b0b","683db7602f5db6a34d12d064","686e41fe79f4a32726c2309f","1","66a16e0b41e98cb469f12b0b","1","2025-07-09T10:27:07.542Z","","","","","","","","","","","","","","win-only","1","g1:NE,g2:SW","0.3","8","0","446579.7","917.1","5919","34477.2","1","4","4","6","1","1","1","1","0","0.007575757575757576","814.1","3000","80","[""up"",""right""]","{""num_key_presses"":8,""num_perfect"":2,""num_errors"":0,""num_randdir"":6,""num_randdir_good_moves"":4,""num_whilered"":0,""num_whileblue"":0,""num_blue"":2,""num_good_moves"":6}","[560.1881981769081,548.1318884063173,0.1,560.1881981769081,548.1318884063173,106,560.1881981769081,548.1318884063173,206.5,560.1881981769081,548.1318884063173,310.7,567.8881983438012,540.4318882394243,411.4,1063.988209096479,224.73188139681113,514.2,1082.6882095017907,190.63188065771354,617.2,1082.6882095017907,155.43187989477408,721,1067.2882091680046,114.73187901262534,849.6,1067.2882091680046,115.8318790364672,954.1,1067.2882091680046,116.93187906030906,1056.4,1067.2882091680046,116.93187906030906,1156.9,1054.0882088819023,123.5318792033602,1261.1,1054.0882088819023,123.5318792033602,1365.9,1046.3882087150093,118.03187908415092,1468.2,1046.3882087150093,118.03187908415092,1569.9,1046.3882087150093,118.03187908415092,1670.3,1046.3882087150093,118.03187908415092,1775.4,1046.3882087150093,118.03187908415092,1876.6,1046.3882087150093,118.03187908415092,1982.3,1046.3882087150093,118.03187908415092,2084.4,1046.3882087150093,118.03187908415092,2185.5,1046.3882087150093,118.03187908415092,2289.2,1046.3882087150093,118.03187908415092,2394.3,1046.3882087150093,118.03187908415092,2494.6,1046.3882087150093,118.03187908415092,2596.1,1046.3882087150093,118.03187908415092,2699.3,1046.3882087150093,118.03187908415092,2799.6,1046.3882087150093,118.03187908415092,2900.5,1046.3882087150093,118.03187908415092,3001.3,1046.3882087150093,118.03187908415092,3101.6,1046.3882087150093,118.03187908415092,3206.3,1046.3882087150093,118.03187908415092,3311,1046.3882087150093,118.03187908415092,3416.6,1046.3882087150093,118.03187908415092,3516.8,1046.3882087150093,118.03187908415092,3616.8,1046.3882087150093,118.03187908415092,3721.3,1046.3882087150093,118.03187908415092,3824.9,1046.3882087150093,118.03187908415092,3925.6,1046.3882087150093,118.03187908415092,4030.4,1046.3882087150093,118.03187908415092,4131.3,1046.3882087150093,118.03187908415092,4232,1046.3882087150093,118.03187908415092,4332.4,1046.3882087150093,118.03187908415092,4437.1,1046.3882087150093,118.03187908415092,4540.1,1046.3882087150093,118.03187908415092,4645.1,1046.3882087150093,118.03187908415092,4745.4,1046.3882087150093,118.03187908415092,4848.1,1046.3882087150093,118.03187908415092,4951.3]","[1441.9,1441.9,1000,0,441.9,""oops"",""up"",""up"",""good_move"",4317.8,2875.6,2466.4,1442.2,409.2,""oops"",""up"",""left"",""bad_move"",7672.1,3354.1,2966.2,4318,387.9,""smooth"",""up"",""up"",""good_move"",10632.9,2960.7,2604.7,7672.2,356,""oops"",""right"",""right"",""good_move"",14068.1,3435.1,3078.8,10633.1,356.3,""oops"",""right"",""down"",""bad_move"",20421.8,6353.4,2595.8,17361.3,464.7,""smooth"",""right"",""right"",""good_move"",26405,5983,2437.3,23550,417.7,""oops"",""up"",""up"",""good_move"",28439.4,2034.2,1630.2,26405.2,404,""oops"",""right"",""right"",""good_move""]","",""
"3402","","<div style=""width:500px;"">
  <p>What determined the result of this run?</p>
  </div>","3","html-slider-response","45","485884","0.0-5.0-1.7","25","1","2025-07-09 10:19:04","01610cd0009c79a99da7d0a3353eb402","188.146.154.183","Mozilla/5.0 (Windows NT 10.0; Win64; x64) AppleWebKit/537.36 (KHTML, like Gecko) Chrome/138.0.0.0 Safari/537.36","WebKit","Chrome","138.0.0.0","Windows","10.0","https://app.prolific.com/","pl-PL,pl;q=0.9,en-US;q=0.8,en;q=0.7","66a16e0b41e98cb469f12b0b","683db7602f5db6a34d12d064","686e41fe79f4a32726c2309f","1","66a16e0b41e98cb469f12b0b","1","2025-07-09T10:27:10.945Z","","","","","","","","","","","AttribQ","","50","","","","","","","","","","","","","","","","","","","","","","","","","","","","",""
"2016","","<div style=""width:500px;"">
  <p>How much control did you have over the ball?</p>
  </div>","8","html-slider-response","46","487901","0.0-5.0-2.7","25","1","2025-07-09 10:19:04","01610cd0009c79a99da7d0a3353eb402","188.146.154.183","Mozilla/5.0 (Windows NT 10.0; Win64; x64) AppleWebKit/537.36 (KHTML, like Gecko) Chrome/138.0.0.0 Safari/537.36","WebKit","Chrome","138.0.0.0","Windows","10.0","https://app.prolific.com/","pl-PL,pl;q=0.9,en-US;q=0.8,en;q=0.7","66a16e0b41e98cb469f12b0b","683db7602f5db6a34d12d064","686e41fe79f4a32726c2309f","1","66a16e0b41e98cb469f12b0b","1","2025-07-09T10:27:12.962Z","","","","","","","","","","","ControlQ","","50","","","","","","","","","","","","","","","","","","","","","","","","","","","","",""
"2382","","<div style=""width:500px;"">
  <p>How would you describe your current emotional state?</p>
  </div>","99","html-slider-response","47","490284","0.0-5.0-3.7","25","1","2025-07-09 10:19:04","01610cd0009c79a99da7d0a3353eb402","188.146.154.183","Mozilla/5.0 (Windows NT 10.0; Win64; x64) AppleWebKit/537.36 (KHTML, like Gecko) Chrome/138.0.0.0 Safari/537.36","WebKit","Chrome","138.0.0.0","Windows","10.0","https://app.prolific.com/","pl-PL,pl;q=0.9,en-US;q=0.8,en;q=0.7","66a16e0b41e98cb469f12b0b","683db7602f5db6a34d12d064","686e41fe79f4a32726c2309f","1","66a16e0b41e98cb469f12b0b","1","2025-07-09T10:27:15.345Z","","","","","","","","","","","StressQ","","50","","","","","","","","","","","","","","","","","","","","","","","","","","","","",""
"3123","","<div style=""width:500px;"">
  <p>What best describes how you currently feel?</p>
  </div>","100","html-slider-response","48","493407","0.0-5.0-4.7","25","1","2025-07-09 10:19:04","01610cd0009c79a99da7d0a3353eb402","188.146.154.183","Mozilla/5.0 (Windows NT 10.0; Win64; x64) AppleWebKit/537.36 (KHTML, like Gecko) Chrome/138.0.0.0 Safari/537.36","WebKit","Chrome","138.0.0.0","Windows","10.0","https://app.prolific.com/","pl-PL,pl;q=0.9,en-US;q=0.8,en;q=0.7","66a16e0b41e98cb469f12b0b","683db7602f5db6a34d12d064","686e41fe79f4a32726c2309f","1","66a16e0b41e98cb469f12b0b","1","2025-07-09T10:27:18.468Z","","","","","","","","","","","MotivationQ","","50","","","","","","","","","","","","","","","","","","","","","","","","","","","","",""
"","","","","ctl-task-cpt","49","538068","0.0-5.0-0.8","25","1","2025-07-09 10:19:04","01610cd0009c79a99da7d0a3353eb402","188.146.154.183","Mozilla/5.0 (Windows NT 10.0; Win64; x64) AppleWebKit/537.36 (KHTML, like Gecko) Chrome/138.0.0.0 Safari/537.36","WebKit","Chrome","138.0.0.0","Windows","10.0","https://app.prolific.com/","pl-PL,pl;q=0.9,en-US;q=0.8,en;q=0.7","66a16e0b41e98cb469f12b0b","683db7602f5db6a34d12d064","686e41fe79f4a32726c2309f","1","66a16e0b41e98cb469f12b0b","1","2025-07-09T10:28:03.129Z","","","","","","","","","","","","","","win-only","2","g1:SE,g2:NW","0.2","9","0","495002.7","1326.9","6331.1","41644.5","1","4","4","6","1","1","1","2","1","0.015151515151515152","1297.4","3000","830","[""down"",""right""]","{""num_key_presses"":8,""num_perfect"":2,""num_errors"":0,""num_randdir"":6,""num_randdir_good_moves"":4,""num_whilered"":0,""num_whileblue"":0,""num_blue"":4,""num_good_moves"":6}","[553.588198033857,551.4318884778429,0.1,553.588198033857,551.4318884778429,101.2,553.588198033857,551.4318884778429,201.6,553.588198033857,551.4318884778429,306.6,555.7881980815407,565.731888787787,406.8,672.3882006087777,856.1318950820375,512.1,582.1881986537453,614.1318898368288,613.7,513.9881971755501,555.8318885732103,717.8,560.1881981769081,629.5318901706148,822.2,834.0882041135308,926.5318966079165,923.1,963.88820692687,1025.5318987536837,1024,1091.4882096925255,1104.7319004702974,1129,1069.4882092156884,1015.6318985391069,1231.2,1067.2882091680046,1011.2318984437395,1336.2,1067.2882091680046,1011.2318984437395,1462,1142.088210789251,932.0318967271257,1566.7,1375.2882158437249,675.7318911719728,1671.7,1508.3882187285897,433.7318859267641,1772.6,1508.3882187285897,433.7318859267641,1876.3,1508.3882187285897,433.7318859267641,1977.6,1508.3882187285897,433.7318859267641,2081.3,1508.3882187285897,433.7318859267641,2185.9,1508.3882187285897,433.7318859267641,2288,1508.3882187285897,433.7318859267641,2392.4,1508.3882187285897,433.7318859267641,2498.9,1508.3882187285897,433.7318859267641,2600.4,1508.3882187285897,433.7318859267641,2707.4,1508.3882187285897,433.7318859267641,2807.5,1508.3882187285897,433.7318859267641,2907.6,1508.3882187285897,433.7318859267641,3015.3,1508.3882187285897,433.7318859267641,3115.5,1508.3882187285897,433.7318859267641,3218.1,1508.3882187285897,433.7318859267641,3323.4,1508.3882187285897,433.7318859267641,3432.4,1508.3882187285897,433.7318859267641,3534.8,1508.3882187285897,433.7318859267641,3640.9,1508.3882187285897,433.7318859267641,3746.9,1508.3882187285897,433.7318859267641,3847.3,1508.3882187285897,433.7318859267641,3947.5,1508.3882187285897,433.7318859267641,4052.7,1508.3882187285897,433.7318859267641,4157.4,1508.3882187285897,433.7318859267641,4257.4,1508.3882187285897,433.7318859267641,4357.8,1508.3882187285897,433.7318859267641,4463.9,1508.3882187285897,433.7318859267641,4569.9,1508.3882187285897,433.7318859267641,4675.6,1508.3882187285897,433.7318859267641,4781,1508.3882187285897,433.7318859267641,4884,1508.3882187285897,433.7318859267641,4990.3]","[1456.9,1456.9,1000,0,456.9,""smooth"",""down"",""down"",""good_move"",4364.3,2907.2,2509.5,1457.1,397.7,""smooth"",""right"",""right"",""good_move"",7027.9,2663.4,2289.2,4364.5,374.2,""oops"",""down"",""up"",""bad_move"",13494.6,6466.6,2686,10387.3,421.3,""oops"",""right"",""right"",""good_move"",16408.7,2913.9,2496,13494.8,417.9,""oops"",""down"",""up"",""bad_move"",19475.8,3066.9,2716.3,16408.9,350.6,""oops"",""down"",""down"",""good_move"",24929.4,5453.3,2170.7,22307.2,451.5,""oops"",""down"",""down"",""good_move"",35149.9,10220.4,3009.5,31663.2,477.3,""oops"",""down"",""down"",""good_move""]","",""
"3444","","<div style=""width:500px;"">
  <p>What determined the result of this run?</p>
  </div>","8","html-slider-response","50","541513","0.0-5.0-1.8","25","1","2025-07-09 10:19:04","01610cd0009c79a99da7d0a3353eb402","188.146.154.183","Mozilla/5.0 (Windows NT 10.0; Win64; x64) AppleWebKit/537.36 (KHTML, like Gecko) Chrome/138.0.0.0 Safari/537.36","WebKit","Chrome","138.0.0.0","Windows","10.0","https://app.prolific.com/","pl-PL,pl;q=0.9,en-US;q=0.8,en;q=0.7","66a16e0b41e98cb469f12b0b","683db7602f5db6a34d12d064","686e41fe79f4a32726c2309f","1","66a16e0b41e98cb469f12b0b","1","2025-07-09T10:28:06.574Z","","","","","","","","","","","AttribQ","","50","","","","","","","","","","","","","","","","","","","","","","","","","","","","",""
"2398","","<div style=""width:500px;"">
  <p>How much control did you have over the ball?</p>
  </div>","6","html-slider-response","51","543912","0.0-5.0-2.8","25","1","2025-07-09 10:19:04","01610cd0009c79a99da7d0a3353eb402","188.146.154.183","Mozilla/5.0 (Windows NT 10.0; Win64; x64) AppleWebKit/537.36 (KHTML, like Gecko) Chrome/138.0.0.0 Safari/537.36","WebKit","Chrome","138.0.0.0","Windows","10.0","https://app.prolific.com/","pl-PL,pl;q=0.9,en-US;q=0.8,en;q=0.7","66a16e0b41e98cb469f12b0b","683db7602f5db6a34d12d064","686e41fe79f4a32726c2309f","1","66a16e0b41e98cb469f12b0b","1","2025-07-09T10:28:08.973Z","","","","","","","","","","","ControlQ","","50","","","","","","","","","","","","","","","","","","","","","","","","","","","","",""
"2129","","<div style=""width:500px;"">
  <p>How would you describe your current emotional state?</p>
  </div>","90","html-slider-response","52","546042","0.0-5.0-3.8","25","1","2025-07-09 10:19:04","01610cd0009c79a99da7d0a3353eb402","188.146.154.183","Mozilla/5.0 (Windows NT 10.0; Win64; x64) AppleWebKit/537.36 (KHTML, like Gecko) Chrome/138.0.0.0 Safari/537.36","WebKit","Chrome","138.0.0.0","Windows","10.0","https://app.prolific.com/","pl-PL,pl;q=0.9,en-US;q=0.8,en;q=0.7","66a16e0b41e98cb469f12b0b","683db7602f5db6a34d12d064","686e41fe79f4a32726c2309f","1","66a16e0b41e98cb469f12b0b","1","2025-07-09T10:28:11.103Z","","","","","","","","","","","StressQ","","50","","","","","","","","","","","","","","","","","","","","","","","","","","","","",""
"1945","","<div style=""width:500px;"">
  <p>What best describes how you currently feel?</p>
  </div>","87","html-slider-response","53","547988","0.0-5.0-4.8","25","1","2025-07-09 10:19:04","01610cd0009c79a99da7d0a3353eb402","188.146.154.183","Mozilla/5.0 (Windows NT 10.0; Win64; x64) AppleWebKit/537.36 (KHTML, like Gecko) Chrome/138.0.0.0 Safari/537.36","WebKit","Chrome","138.0.0.0","Windows","10.0","https://app.prolific.com/","pl-PL,pl;q=0.9,en-US;q=0.8,en;q=0.7","66a16e0b41e98cb469f12b0b","683db7602f5db6a34d12d064","686e41fe79f4a32726c2309f","1","66a16e0b41e98cb469f12b0b","1","2025-07-09T10:28:13.049Z","","","","","","","","","","","MotivationQ","","50","","","","","","","","","","","","","","","","","","","","","","","","","","","","",""
"","","","","ctl-task-cpt","54","611116","0.0-5.0-0.9","25","1","2025-07-09 10:19:04","01610cd0009c79a99da7d0a3353eb402","188.146.154.183","Mozilla/5.0 (Windows NT 10.0; Win64; x64) AppleWebKit/537.36 (KHTML, like Gecko) Chrome/138.0.0.0 Safari/537.36","WebKit","Chrome","138.0.0.0","Windows","10.0","https://app.prolific.com/","pl-PL,pl;q=0.9,en-US;q=0.8,en;q=0.7","66a16e0b41e98cb469f12b0b","683db7602f5db6a34d12d064","686e41fe79f4a32726c2309f","1","66a16e0b41e98cb469f12b0b","1","2025-07-09T10:29:16.177Z","","","","","","","","","","","","","","win-only","0","g1:NW,g2:SE","0.4","10","0","549584.3","964.9","5965.7","60095.5","1","4","8","6","1","-1","-1","1","2","0.007575757575757576","1084.8","3000","-1205","[""left"",""up""]","{""num_key_presses"":14,""num_perfect"":6,""num_errors"":0,""num_randdir"":8,""num_randdir_good_moves"":2,""num_whilered"":0,""num_whileblue"":0,""num_blue"":4,""num_good_moves"":8}","[550.2881979623314,552.5318885016848,0.1,550.2881979623314,552.5318885016848,135.2,550.2881979623314,552.5318885016848,244.6,550.2881979623314,552.5318885016848,344.7,550.2881979623314,552.5318885016848,454.2,420.4881951489922,493.13188721422443,562.9,276.3881920257088,334.7318837809969,668.3,179.58818992762534,200.53188087229026,778.3,169.68818971304862,186.2318805623461,890.5,156.48818942694632,151.03187979940665,995.2,154.2881893792626,145.53187968019736,1096.3,154.2881893792626,145.53187968019736,1202.2,154.2881893792626,145.53187968019736,1315.4,276.3881920257088,132.33187939409507,1421.9,491.98819669871295,90.53187848810447,1534.3,542.5881977954384,91.63187851194633,1645.7,542.5881977954384,91.63187851194633,1757.8,542.5881977954384,91.63187851194633,1868.7,542.5881977954384,91.63187851194633,1976.6,545.888197866964,102.6318787503649,2082.9,546.9881978908058,102.6318787503649,2194.7,546.9881978908058,102.6318787503649,2309.1,546.9881978908058,102.6318787503649,2421.5,546.9881978908058,102.6318787503649,2531.3,546.9881978908058,102.6318787503649,2646.1,549.1881979384896,104.83187879804862,2750.7,550.2881979623314,104.83187879804862,2861.6,553.588198033857,92.73187853578818,2975.7,553.588198033857,92.73187853578818,3086.5,553.588198033857,92.73187853578818,3194.6,553.588198033857,92.73187853578818,3303.9,553.588198033857,92.73187853578818,3410,552.4881980100151,92.73187853578818,3511.1,552.4881980100151,92.73187853578818,3614.7,552.4881980100151,92.73187853578818,3716.4,552.4881980100151,92.73187853578818,3818,552.4881980100151,92.73187853578818,3923.9,552.4881980100151,92.73187853578818,4028.9,552.4881980100151,92.73187853578818,4132.4,552.4881980100151,92.73187853578818,4237.2,552.4881980100151,92.73187853578818,4338.8,552.4881980100151,92.73187853578818,4441.6,552.4881980100151,92.73187853578818,4544.8,552.4881980100151,92.73187853578818,4648.5,552.4881980100151,92.73187853578818,4753.6,552.4881980100151,92.73187853578818,4855.4,552.4881980100151,92.73187853578818,4956.6]","[1492.4,1492.4,1000,0,492.4,""oops"",""up"",""down"",""bad_move"",4091,2598.4,2195.5,1492.6,402.9,""smooth"",""up"",""up"",""good_move"",6898,2806.7,2427,4091.3,379.7,""oops"",""up"",""left"",""good_move"",9709.8,2811.6,2414.4,6898.2,397.2,""smooth"",""up"",""up"",""good_move"",19325.3,9615.3,2208.8,16609.7,506.8,""oops"",""up"",""down"",""bad_move"",22590.7,3265.1,2830.4,19325.6,434.7,""smooth"",""up"",""up"",""good_move"",25198.4,2607.4,2085.3,22591,522.1,""oops"",""up"",""right"",""bad_move"",30237.5,5038.6,2461,27390.4,386.1,""smooth"",""left"",""left"",""good_move"",33219.8,2982.1,2598.3,30237.7,383.8,""oops"",""left"",""up"",""good_move"",35981.9,2761.9,1956,33220,805.9,""oops"",""left"",""right"",""bad_move"",39217,3235,2898.8,35982,336.2,""oops"",""left"",""right"",""bad_move"",42124.8,2907.7,2526.3,39217.1,381.4,""oops"",""left"",""right"",""bad_move"",45251.5,3126.5,2754.9,42125,371.6,""smooth"",""left"",""left"",""good_move"",48545.5,3293.9,2951,45251.7,342.9,""smooth"",""left"",""left"",""good_move""]","",""
"18284","","<div style=""width:500px;"">
  <p>What determined the result of this run?</p>
  </div>","2","html-slider-response","55","629401","0.0-5.0-1.9","25","1","2025-07-09 10:19:04","01610cd0009c79a99da7d0a3353eb402","188.146.154.183","Mozilla/5.0 (Windows NT 10.0; Win64; x64) AppleWebKit/537.36 (KHTML, like Gecko) Chrome/138.0.0.0 Safari/537.36","WebKit","Chrome","138.0.0.0","Windows","10.0","https://app.prolific.com/","pl-PL,pl;q=0.9,en-US;q=0.8,en;q=0.7","66a16e0b41e98cb469f12b0b","683db7602f5db6a34d12d064","686e41fe79f4a32726c2309f","1","66a16e0b41e98cb469f12b0b","1","2025-07-09T10:29:34.462Z","","","","","","","","","","","AttribQ","","50","","","","","","","","","","","","","","","","","","","","","","","","","","","","",""
"5395","","<div style=""width:500px;"">
  <p>How much control did you have over the ball?</p>
  </div>","3","html-slider-response","56","634798","0.0-5.0-2.9","25","1","2025-07-09 10:19:04","01610cd0009c79a99da7d0a3353eb402","188.146.154.183","Mozilla/5.0 (Windows NT 10.0; Win64; x64) AppleWebKit/537.36 (KHTML, like Gecko) Chrome/138.0.0.0 Safari/537.36","WebKit","Chrome","138.0.0.0","Windows","10.0","https://app.prolific.com/","pl-PL,pl;q=0.9,en-US;q=0.8,en;q=0.7","66a16e0b41e98cb469f12b0b","683db7602f5db6a34d12d064","686e41fe79f4a32726c2309f","1","66a16e0b41e98cb469f12b0b","1","2025-07-09T10:29:39.859Z","","","","","","","","","","","ControlQ","","50","","","","","","","","","","","","","","","","","","","","","","","","","","","","",""
"3733","","<div style=""width:500px;"">
  <p>How would you describe your current emotional state?</p>
  </div>","95","html-slider-response","57","638533","0.0-5.0-3.9","25","1","2025-07-09 10:19:04","01610cd0009c79a99da7d0a3353eb402","188.146.154.183","Mozilla/5.0 (Windows NT 10.0; Win64; x64) AppleWebKit/537.36 (KHTML, like Gecko) Chrome/138.0.0.0 Safari/537.36","WebKit","Chrome","138.0.0.0","Windows","10.0","https://app.prolific.com/","pl-PL,pl;q=0.9,en-US;q=0.8,en;q=0.7","66a16e0b41e98cb469f12b0b","683db7602f5db6a34d12d064","686e41fe79f4a32726c2309f","1","66a16e0b41e98cb469f12b0b","1","2025-07-09T10:29:43.594Z","","","","","","","","","","","StressQ","","50","","","","","","","","","","","","","","","","","","","","","","","","","","","","",""
"3060","","<div style=""width:500px;"">
  <p>What best describes how you currently feel?</p>
  </div>","93","html-slider-response","58","641595","0.0-5.0-4.9","25","1","2025-07-09 10:19:04","01610cd0009c79a99da7d0a3353eb402","188.146.154.183","Mozilla/5.0 (Windows NT 10.0; Win64; x64) AppleWebKit/537.36 (KHTML, like Gecko) Chrome/138.0.0.0 Safari/537.36","WebKit","Chrome","138.0.0.0","Windows","10.0","https://app.prolific.com/","pl-PL,pl;q=0.9,en-US;q=0.8,en;q=0.7","66a16e0b41e98cb469f12b0b","683db7602f5db6a34d12d064","686e41fe79f4a32726c2309f","1","66a16e0b41e98cb469f12b0b","1","2025-07-09T10:29:46.656Z","","","","","","","","","","","MotivationQ","","50","","","","","","","","","","","","","","","","","","","","","","","","","","","","",""
"","","","","ctl-task-cpt","59","708926","0.0-5.0-0.10","25","1","2025-07-09 10:19:04","01610cd0009c79a99da7d0a3353eb402","188.146.154.183","Mozilla/5.0 (Windows NT 10.0; Win64; x64) AppleWebKit/537.36 (KHTML, like Gecko) Chrome/138.0.0.0 Safari/537.36","WebKit","Chrome","138.0.0.0","Windows","10.0","https://app.prolific.com/","pl-PL,pl;q=0.9,en-US;q=0.8,en;q=0.7","66a16e0b41e98cb469f12b0b","683db7602f5db6a34d12d064","686e41fe79f4a32726c2309f","1","66a16e0b41e98cb469f12b0b","1","2025-07-09T10:30:53.988Z","","","","","","","","","","","","","","win-only","3","g1:SW,g2:NE","0.5","11","0","643192","914.2","5929.4","64288.3","1","4","4","6","1","1","1","2","1","0.015151515151515152","865.8","3000","2120","[""down"",""left""]","{""num_key_presses"":12,""num_perfect"":7,""num_errors"":0,""num_randdir"":5,""num_randdir_good_moves"":1,""num_whilered"":0,""num_whileblue"":0,""num_blue"":2,""num_good_moves"":8}","[562.3881982245919,558.031888620894,0.2,562.3881982245919,558.031888620894,111.6,562.3881982245919,558.031888620894,224.8,562.3881982245919,558.031888620894,337.7,744.9882021823403,333.63188375715504,449.6,263.1881917396065,885.8318957257677,571.9,155.38818940310446,1005.7318983245302,691.8,102.58818825869528,1062.9318995643068,804.9,102.58818825869528,1062.9318995643068,923.9,102.58818825869528,1062.9318995643068,1048.4,84.98818787722556,1053.03189934973,1162.1,84.98818787722556,1053.03189934973,1271.3,84.98818787722556,1053.03189934973,1384.7,84.98818787722556,1053.03189934973,1492.5,84.98818787722556,1053.03189934973,1604.5,84.98818787722556,1053.03189934973,1717.8,84.98818787722556,1053.03189934973,1832.2,84.98818787722556,1053.03189934973,1946.4,84.98818787722556,1053.03189934973,2059.6,84.98818787722556,1053.03189934973,2171.6,84.98818787722556,1053.03189934973,2285.3,84.98818787722556,1053.03189934973,2399.1,84.98818787722556,1053.03189934973,2512.6,84.98818787722556,1053.03189934973,2627.2,84.98818787722556,1053.03189934973,2741,84.98818787722556,1053.03189934973,2853.9,84.98818787722556,1053.03189934973,2966.9,84.98818787722556,1053.03189934973,3081.5,84.98818787722556,1053.03189934973,3195.7,84.98818787722556,1053.03189934973,3306.4,84.98818787722556,1053.03189934973,3420.4,84.98818787722556,1053.03189934973,3534,84.98818787722556,1053.03189934973,3649,84.98818787722556,1053.03189934973,3765.9,84.98818787722556,1053.03189934973,3880.2,84.98818787722556,1053.03189934973,3995.2,84.98818787722556,1053.03189934973,4111.4,84.98818787722556,1053.03189934973,4211.7,84.98818787722556,1053.03189934973,4322.8,84.98818787722556,1053.03189934973,4437.3,84.98818787722556,1053.03189934973,4551.9,84.98818787722556,1053.03189934973,4668,84.98818787722556,1053.03189934973,4785.3,84.98818787722556,1053.03189934973,4900.7]","[1472.7,1472.7,1000,0,472.7,""smooth"",""left"",""left"",""good_move"",7016.2,5543.3,2093.7,1473,3449.5,""oops"",""left"",""up"",""bad_move"",15906.5,8890.1,2335.7,13071.8,499,""smooth"",""left"",""left"",""good_move"",21559.4,5652.7,2982.6,15906.7,2670.1,""oops"",""down"",""up"",""bad_move"",27248.6,5689.1,2060.3,21559.5,3628.8,""oops"",""down"",""up"",""bad_move"",33147.7,5898.9,2077.6,27248.8,3821.3,""oops"",""down"",""down"",""good_move"",36338.2,3190.1,2611.4,33148.1,578.7,""smooth"",""down"",""down"",""good_move"",39562.7,3224.3,2721.8,36338.4,502.5,""smooth"",""down"",""down"",""good_move"",42765.2,3202.4,2665.9,39562.8,536.5,""smooth"",""down"",""down"",""good_move"",44913.5,2147.2,1675.9,42766.3,471.3,""oops"",""down"",""up"",""bad_move"",51072.5,6158.8,2570.2,44913.7,3588.6,""smooth"",""down"",""down"",""good_move"",57510.9,6438.2,2308.3,54761.5,441.1,""smooth"",""down"",""down"",""good_move""]","",""
"3457","","<div style=""width:500px;"">
  <p>What determined the result of this run?</p>
  </div>","2","html-slider-response","60","712387","0.0-5.0-1.10","25","1","2025-07-09 10:19:04","01610cd0009c79a99da7d0a3353eb402","188.146.154.183","Mozilla/5.0 (Windows NT 10.0; Win64; x64) AppleWebKit/537.36 (KHTML, like Gecko) Chrome/138.0.0.0 Safari/537.36","WebKit","Chrome","138.0.0.0","Windows","10.0","https://app.prolific.com/","pl-PL,pl;q=0.9,en-US;q=0.8,en;q=0.7","66a16e0b41e98cb469f12b0b","683db7602f5db6a34d12d064","686e41fe79f4a32726c2309f","1","66a16e0b41e98cb469f12b0b","1","2025-07-09T10:30:57.448Z","","","","","","","","","","","AttribQ","","50","","","","","","","","","","","","","","","","","","","","","","","","","","","","",""
"2884","","<div style=""width:500px;"">
  <p>How much control did you have over the ball?</p>
  </div>","4","html-slider-response","61","715273","0.0-5.0-2.10","25","1","2025-07-09 10:19:04","01610cd0009c79a99da7d0a3353eb402","188.146.154.183","Mozilla/5.0 (Windows NT 10.0; Win64; x64) AppleWebKit/537.36 (KHTML, like Gecko) Chrome/138.0.0.0 Safari/537.36","WebKit","Chrome","138.0.0.0","Windows","10.0","https://app.prolific.com/","pl-PL,pl;q=0.9,en-US;q=0.8,en;q=0.7","66a16e0b41e98cb469f12b0b","683db7602f5db6a34d12d064","686e41fe79f4a32726c2309f","1","66a16e0b41e98cb469f12b0b","1","2025-07-09T10:31:00.334Z","","","","","","","","","","","ControlQ","","50","","","","","","","","","","","","","","","","","","","","","","","","","","","","",""
"1866","","<div style=""width:500px;"">
  <p>How would you describe your current emotional state?</p>
  </div>","94","html-slider-response","62","717142","0.0-5.0-3.10","25","1","2025-07-09 10:19:04","01610cd0009c79a99da7d0a3353eb402","188.146.154.183","Mozilla/5.0 (Windows NT 10.0; Win64; x64) AppleWebKit/537.36 (KHTML, like Gecko) Chrome/138.0.0.0 Safari/537.36","WebKit","Chrome","138.0.0.0","Windows","10.0","https://app.prolific.com/","pl-PL,pl;q=0.9,en-US;q=0.8,en;q=0.7","66a16e0b41e98cb469f12b0b","683db7602f5db6a34d12d064","686e41fe79f4a32726c2309f","1","66a16e0b41e98cb469f12b0b","1","2025-07-09T10:31:02.203Z","","","","","","","","","","","StressQ","","50","","","","","","","","","","","","","","","","","","","","","","","","","","","","",""
"2287","","<div style=""width:500px;"">
  <p>What best describes how you currently feel?</p>
  </div>","94","html-slider-response","63","719432","0.0-5.0-4.10","25","1","2025-07-09 10:19:04","01610cd0009c79a99da7d0a3353eb402","188.146.154.183","Mozilla/5.0 (Windows NT 10.0; Win64; x64) AppleWebKit/537.36 (KHTML, like Gecko) Chrome/138.0.0.0 Safari/537.36","WebKit","Chrome","138.0.0.0","Windows","10.0","https://app.prolific.com/","pl-PL,pl;q=0.9,en-US;q=0.8,en;q=0.7","66a16e0b41e98cb469f12b0b","683db7602f5db6a34d12d064","686e41fe79f4a32726c2309f","1","66a16e0b41e98cb469f12b0b","1","2025-07-09T10:31:04.493Z","","","","","","","","","","","MotivationQ","","50","","","","","","","","","","","","","","","","","","","","","","","","","","","","",""
"","","","","ctl-task-cpt","64","778527","0.0-5.0-0.11","25","1","2025-07-09 10:19:04","01610cd0009c79a99da7d0a3353eb402","188.146.154.183","Mozilla/5.0 (Windows NT 10.0; Win64; x64) AppleWebKit/537.36 (KHTML, like Gecko) Chrome/138.0.0.0 Safari/537.36","WebKit","Chrome","138.0.0.0","Windows","10.0","https://app.prolific.com/","pl-PL,pl;q=0.9,en-US;q=0.8,en;q=0.7","66a16e0b41e98cb469f12b0b","683db7602f5db6a34d12d064","686e41fe79f4a32726c2309f","1","66a16e0b41e98cb469f12b0b","1","2025-07-09T10:32:03.588Z","","","","","","","","","","","","","","win-only","0","g1:NW,g2:SE","0.6","12","0","721030.1","1186.1","6218.3","56021.7","1","4","8","6","2","8","8","10","2","0.07575757575757576","1066.4","3000","2570","[""down"",""right""]","{""num_key_presses"":8,""num_perfect"":6,""num_errors"":0,""num_randdir"":2,""num_randdir_good_moves"":1,""num_whilered"":0,""num_whileblue"":0,""num_blue"":5,""num_good_moves"":7}","[550.2881979623314,539.3318882155825,0.2,550.2881979623314,539.3318882155825,116.7,550.2881979623314,540.4318882394243,255.2,550.2881979623314,540.4318882394243,371.8,566.7881983199593,595.4318894315172,491.1,741.6882021108147,795.6318937707354,605.1,892.3882053771492,911.1318962741304,715.3,941.8882064500328,940.8318969178606,829.3,972.6882071176049,983.7318978476931,947.5,973.7882071414467,984.8318978715349,1062.1,973.7882071414467,984.8318978715349,1193.1,973.7882071414467,984.8318978715349,1316,973.7882071414467,984.8318978715349,1432.3,973.7882071414467,987.0318979192186,1554.1,973.7882071414467,987.0318979192186,1675.5,973.7882071414467,987.0318979192186,1789.4,973.7882071414467,987.0318979192186,1903,973.7882071414467,988.1318979430605,2020.5,973.7882071414467,988.1318979430605,2134.2,973.7882071414467,988.1318979430605,2247.5,973.7882071414467,988.1318979430605,2360.9,973.7882071414467,988.1318979430605,2474.8,973.7882071414467,988.1318979430605,2588.1,973.7882071414467,988.1318979430605,2703.1,973.7882071414467,988.1318979430605,2817.5,973.7882071414467,988.1318979430605,2932.9,973.7882071414467,988.1318979430605,3047,973.7882071414467,988.1318979430605,3163.5,973.7882071414467,988.1318979430605,3276.9,973.7882071414467,988.1318979430605,3390.8,973.7882071414467,988.1318979430605,3506.9,973.7882071414467,988.1318979430605,3629.7,973.7882071414467,988.1318979430605,3746.5,973.7882071414467,988.1318979430605,3859.5,973.7882071414467,988.1318979430605,3975.1,973.7882071414467,988.1318979430605,4090.8,973.7882071414467,988.1318979430605,4210.8,973.7882071414467,988.1318979430605,4331.2,973.7882071414467,988.1318979430605,4450.9,973.7882071414467,988.1318979430605,4567.4,973.7882071414467,988.1318979430605,4683.6,973.7882071414467,988.1318979430605,4800.5,973.7882071414467,988.1318979430605,4916.3]","[1553.4,1553.4,1000,0,553.4,""smooth"",""down"",""down"",""good_move"",4672.1,3118.6,2521.6,1553.5,597,""oops"",""down"",""right"",""good_move"",7611.5,2939.2,2331.1,4672.3,608.1,""smooth"",""down"",""down"",""good_move"",15171.5,7559.9,2298,12281.9,591.6,""smooth"",""right"",""right"",""good_move"",21449.3,6277.7,2464.9,18454.2,530.2,""oops"",""down"",""up"",""bad_move"",36008.8,14559.2,2951,32524.9,532.9,""smooth"",""right"",""right"",""good_move"",39846,3837.1,3177.3,36008.9,659.8,""smooth"",""down"",""down"",""good_move"",48561.4,8715.1,2302.6,45768.5,490.3,""smooth"",""down"",""down"",""good_move""]","",""
"6361","","<div style=""width:500px;"">
  <p>What determined the result of this run?</p>
  </div>","2","html-slider-response","65","784894","0.0-5.0-1.11","25","1","2025-07-09 10:19:04","01610cd0009c79a99da7d0a3353eb402","188.146.154.183","Mozilla/5.0 (Windows NT 10.0; Win64; x64) AppleWebKit/537.36 (KHTML, like Gecko) Chrome/138.0.0.0 Safari/537.36","WebKit","Chrome","138.0.0.0","Windows","10.0","https://app.prolific.com/","pl-PL,pl;q=0.9,en-US;q=0.8,en;q=0.7","66a16e0b41e98cb469f12b0b","683db7602f5db6a34d12d064","686e41fe79f4a32726c2309f","1","66a16e0b41e98cb469f12b0b","1","2025-07-09T10:32:09.955Z","","","","","","","","","","","AttribQ","","50","","","","","","","","","","","","","","","","","","","","","","","","","","","","",""
"6044","","<div style=""width:500px;"">
  <p>How much control did you have over the ball?</p>
  </div>","3","html-slider-response","66","790943","0.0-5.0-2.11","25","1","2025-07-09 10:19:04","01610cd0009c79a99da7d0a3353eb402","188.146.154.183","Mozilla/5.0 (Windows NT 10.0; Win64; x64) AppleWebKit/537.36 (KHTML, like Gecko) Chrome/138.0.0.0 Safari/537.36","WebKit","Chrome","138.0.0.0","Windows","10.0","https://app.prolific.com/","pl-PL,pl;q=0.9,en-US;q=0.8,en;q=0.7","66a16e0b41e98cb469f12b0b","683db7602f5db6a34d12d064","686e41fe79f4a32726c2309f","1","66a16e0b41e98cb469f12b0b","1","2025-07-09T10:32:16.004Z","","","","","","","","","","","ControlQ","","50","","","","","","","","","","","","","","","","","","","","","","","","","","","","",""
"1965","","<div style=""width:500px;"">
  <p>How would you describe your current emotional state?</p>
  </div>","91","html-slider-response","67","792912","0.0-5.0-3.11","25","1","2025-07-09 10:19:04","01610cd0009c79a99da7d0a3353eb402","188.146.154.183","Mozilla/5.0 (Windows NT 10.0; Win64; x64) AppleWebKit/537.36 (KHTML, like Gecko) Chrome/138.0.0.0 Safari/537.36","WebKit","Chrome","138.0.0.0","Windows","10.0","https://app.prolific.com/","pl-PL,pl;q=0.9,en-US;q=0.8,en;q=0.7","66a16e0b41e98cb469f12b0b","683db7602f5db6a34d12d064","686e41fe79f4a32726c2309f","1","66a16e0b41e98cb469f12b0b","1","2025-07-09T10:32:17.973Z","","","","","","","","","","","StressQ","","50","","","","","","","","","","","","","","","","","","","","","","","","","","","","",""
"2202","","<div style=""width:500px;"">
  <p>What best describes how you currently feel?</p>
  </div>","94","html-slider-response","68","795119","0.0-5.0-4.11","25","1","2025-07-09 10:19:04","01610cd0009c79a99da7d0a3353eb402","188.146.154.183","Mozilla/5.0 (Windows NT 10.0; Win64; x64) AppleWebKit/537.36 (KHTML, like Gecko) Chrome/138.0.0.0 Safari/537.36","WebKit","Chrome","138.0.0.0","Windows","10.0","https://app.prolific.com/","pl-PL,pl;q=0.9,en-US;q=0.8,en;q=0.7","66a16e0b41e98cb469f12b0b","683db7602f5db6a34d12d064","686e41fe79f4a32726c2309f","1","66a16e0b41e98cb469f12b0b","1","2025-07-09T10:32:20.180Z","","","","","","","","","","","MotivationQ","","50","","","","","","","","","","","","","","","","","","","","","","","","","","","","",""
"","","","","ctl-task-cpt","69","856807","0.0-5.0-0.12","25","1","2025-07-09 10:19:04","01610cd0009c79a99da7d0a3353eb402","188.146.154.183","Mozilla/5.0 (Windows NT 10.0; Win64; x64) AppleWebKit/537.36 (KHTML, like Gecko) Chrome/138.0.0.0 Safari/537.36","WebKit","Chrome","138.0.0.0","Windows","10.0","https://app.prolific.com/","pl-PL,pl;q=0.9,en-US;q=0.8,en;q=0.7","66a16e0b41e98cb469f12b0b","683db7602f5db6a34d12d064","686e41fe79f4a32726c2309f","1","66a16e0b41e98cb469f12b0b","1","2025-07-09T10:33:21.868Z","","","","","","","","","","","","","","win-only","1","g1:NE,g2:SW","0.7","13","0","796718.4","1174.5","6236.9","58600.9","1","4","4","6","2","4","4","14","10","0.10606060606060606","842.2","3000","2730","[""down"",""left""]","{""num_key_presses"":6,""num_perfect"":5,""num_errors"":0,""num_randdir"":1,""num_randdir_good_moves"":1,""num_whilered"":0,""num_whileblue"":0,""num_blue"":4,""num_good_moves"":6}","[564.5881982722756,550.331888454001,0.1,564.5881982722756,550.331888454001,144.1,564.5881982722756,551.4318884778429,280.6,408.38819488673175,734.0318924355913,417.9,17.888186422872224,1001.3318982291628,551.6,12.388186303662934,1028.8318988252092,690.5,104.788188306379,1001.3318982291628,820.8,104.788188306379,1001.3318982291628,963,946.2882065454003,839.6318947244097,1097.8,1602.9882207789894,757.1318929362703,1223.1,1700.8882229009148,707.6318918633867,1353.6,1700.8882229009148,707.6318918633867,1489.2,1700.8882229009148,708.7318918872286,1627.4,1700.8882229009148,708.7318918872286,1764.4,1700.8882229009148,708.7318918872286,1901.4,1700.8882229009148,708.7318918872286,2035.3,1700.8882229009148,708.7318918872286,2170.4,1700.8882229009148,708.7318918872286,2304.6,1700.8882229009148,708.7318918872286,2439.1,1700.8882229009148,708.7318918872286,2572.8,1700.8882229009148,708.7318918872286,2710.3,1700.8882229009148,708.7318918872286,2844.1,1700.8882229009148,708.7318918872286,2978.7,1700.8882229009148,708.7318918872286,3116.7,1700.8882229009148,708.7318918872286,3254.7,1700.8882229009148,708.7318918872286,3394.8,1700.8882229009148,708.7318918872286,3531.5,1700.8882229009148,708.7318918872286,3672.6,1700.8882229009148,708.7318918872286,3817.3,1700.8882229009148,708.7318918872286,3954.3,1700.8882229009148,708.7318918872286,4091.8,1700.8882229009148,708.7318918872286,4224.8,1700.8882229009148,708.7318918872286,4344.6,1700.8882229009148,708.7318918872286,4470.4,1700.8882229009148,708.7318918872286,4606.2,1700.8882229009148,708.7318918872286,4738.2,1700.8882229009148,708.7318918872286,4864.2,1700.8882229009148,708.7318918872286,4995.9]","[1652,1652,1000,0,652,""smooth"",""left"",""left"",""good_move"",13680.2,12028,2626.3,1652.2,9401.7,""smooth"",""left"",""left"",""good_move"",29507.1,15826.7,2366.9,26474.7,665.5,""smooth"",""down"",""down"",""good_move"",44816.7,15309.5,3083.8,41086.7,646.2,""smooth"",""down"",""down"",""good_move"",48046.9,3230,2457,44816.9,773,""oops"",""left"",""down"",""good_move"",51028.2,2981,2121,48047.2,860,""smooth"",""left"",""left"",""good_move""]","",""
"67183","","<div style=""width:500px;"">
  <p>What determined the result of this run?</p>
  </div>","3","html-slider-response","70","923995","0.0-5.0-1.12","25","1","2025-07-09 10:19:04","01610cd0009c79a99da7d0a3353eb402","188.146.154.183","Mozilla/5.0 (Windows NT 10.0; Win64; x64) AppleWebKit/537.36 (KHTML, like Gecko) Chrome/138.0.0.0 Safari/537.36","WebKit","Chrome","138.0.0.0","Windows","10.0","https://app.prolific.com/","pl-PL,pl;q=0.9,en-US;q=0.8,en;q=0.7","66a16e0b41e98cb469f12b0b","683db7602f5db6a34d12d064","686e41fe79f4a32726c2309f","1","66a16e0b41e98cb469f12b0b","1","2025-07-09T10:34:29.056Z","","","","","","","","","","","AttribQ","","50","","","","","","","","","","","","","","","","","","","","","","","","","","","","",""
"2304","","<div style=""width:500px;"">
  <p>How much control did you have over the ball?</p>
  </div>","5","html-slider-response","71","926305","0.0-5.0-2.12","25","1","2025-07-09 10:19:04","01610cd0009c79a99da7d0a3353eb402","188.146.154.183","Mozilla/5.0 (Windows NT 10.0; Win64; x64) AppleWebKit/537.36 (KHTML, like Gecko) Chrome/138.0.0.0 Safari/537.36","WebKit","Chrome","138.0.0.0","Windows","10.0","https://app.prolific.com/","pl-PL,pl;q=0.9,en-US;q=0.8,en;q=0.7","66a16e0b41e98cb469f12b0b","683db7602f5db6a34d12d064","686e41fe79f4a32726c2309f","1","66a16e0b41e98cb469f12b0b","1","2025-07-09T10:34:31.366Z","","","","","","","","","","","ControlQ","","50","","","","","","","","","","","","","","","","","","","","","","","","","","","","",""
"2402","","<div style=""width:500px;"">
  <p>How would you describe your current emotional state?</p>
  </div>","84","html-slider-response","72","928713","0.0-5.0-3.12","25","1","2025-07-09 10:19:04","01610cd0009c79a99da7d0a3353eb402","188.146.154.183","Mozilla/5.0 (Windows NT 10.0; Win64; x64) AppleWebKit/537.36 (KHTML, like Gecko) Chrome/138.0.0.0 Safari/537.36","WebKit","Chrome","138.0.0.0","Windows","10.0","https://app.prolific.com/","pl-PL,pl;q=0.9,en-US;q=0.8,en;q=0.7","66a16e0b41e98cb469f12b0b","683db7602f5db6a34d12d064","686e41fe79f4a32726c2309f","1","66a16e0b41e98cb469f12b0b","1","2025-07-09T10:34:33.774Z","","","","","","","","","","","StressQ","","50","","","","","","","","","","","","","","","","","","","","","","","","","","","","",""
"2641","","<div style=""width:500px;"">
  <p>What best describes how you currently feel?</p>
  </div>","89","html-slider-response","73","931360","0.0-5.0-4.12","25","1","2025-07-09 10:19:04","01610cd0009c79a99da7d0a3353eb402","188.146.154.183","Mozilla/5.0 (Windows NT 10.0; Win64; x64) AppleWebKit/537.36 (KHTML, like Gecko) Chrome/138.0.0.0 Safari/537.36","WebKit","Chrome","138.0.0.0","Windows","10.0","https://app.prolific.com/","pl-PL,pl;q=0.9,en-US;q=0.8,en;q=0.7","66a16e0b41e98cb469f12b0b","683db7602f5db6a34d12d064","686e41fe79f4a32726c2309f","1","66a16e0b41e98cb469f12b0b","1","2025-07-09T10:34:36.421Z","","","","","","","","","","","MotivationQ","","50","","","","","","","","","","","","","","","","","","","","","","","","","","","","",""
"","","","","ctl-task-cpt","74","1045150","0.0-5.0-0.13","25","1","2025-07-09 10:19:04","01610cd0009c79a99da7d0a3353eb402","188.146.154.183","Mozilla/5.0 (Windows NT 10.0; Win64; x64) AppleWebKit/537.36 (KHTML, like Gecko) Chrome/138.0.0.0 Safari/537.36","WebKit","Chrome","138.0.0.0","Windows","10.0","https://app.prolific.com/","pl-PL,pl;q=0.9,en-US;q=0.8,en;q=0.7","66a16e0b41e98cb469f12b0b","683db7602f5db6a34d12d064","686e41fe79f4a32726c2309f","1","66a16e0b41e98cb469f12b0b","1","2025-07-09T10:36:30.211Z","","","","","","","","","","","","","","win-only","2","g1:SE,g2:NW","0.8","14","0","932959.7","1952.1","6995.7","110678.2","1","4","8","6","2","8","8","22","14","0.16666666666666666","1732","3000","2755","[""left"",""up""]","{""num_key_presses"":8,""num_perfect"":6,""num_errors"":0,""num_randdir"":2,""num_randdir_good_moves"":1,""num_whilered"":0,""num_whileblue"":0,""num_blue"":3,""num_good_moves"":7}","[560.1881981769081,559.1318886447359,0.1,559.0881981530663,559.1318886447359,168.9,557.9881981292244,559.1318886447359,332.6,232.38819107203452,259.93188215975056,490.8,-149.31181720109018,-27.16812406297433,642.7,-129.51181677193674,-23.868123991448755,807.5,56.38818725733725,76.23187817816031,966.8,102.58818825869528,88.33187844042075,1130.6,102.58818825869528,88.33187844042075,1293.8,102.58818825869528,88.33187844042075,1454.1,102.58818825869528,88.33187844042075,1612.5,102.58818825869528,88.33187844042075,1772.4,102.58818825869528,88.33187844042075,1938.3,254.38819154887167,164.23188008550895,2096.7,1211.388212291288,437.0318859982897,2241.6,1212.4882123151299,437.0318859982897,2407.2,1212.4882123151299,437.0318859982897,2569.6,1212.4882123151299,437.0318859982897,2734.7,1212.4882123151299,437.0318859982897,2898.9,1212.4882123151299,437.0318859982897,3064.3,1212.4882123151299,437.0318859982897,3227.3,1212.4882123151299,437.0318859982897,3391.7,1212.4882123151299,437.0318859982897,3555.9,1212.4882123151299,437.0318859982897,3721.5,1212.4882123151299,437.0318859982897,3893,1212.4882123151299,437.0318859982897,4060.8,1212.4882123151299,437.0318859982897,4229,1212.4882123151299,437.0318859982897,4394.1,1212.4882123151299,437.0318859982897,4556.4,1212.4882123151299,437.0318859982897,4720.4,1212.4882123151299,437.0318859982897,4881.3]","[1607.2,1607.2,1000,0,607.2,""smooth"",""up"",""up"",""good_move"",20170.9,18563.5,2719.3,16806.5,645.1,""smooth"",""up"",""up"",""good_move"",35428.8,15257.6,2680.9,20171.2,12576.7,""smooth"",""left"",""left"",""good_move"",50790.9,15362,2330.9,35428.9,13031.1,""smooth"",""left"",""left"",""good_move"",64044,13252.9,3017.4,50791.1,10235.5,""oops"",""up"",""up"",""good_move"",76972.9,12928.8,2693.1,64044.1,10235.7,""oops"",""left"",""right"",""bad_move"",83920.5,6947.5,2096.2,81276.3,548,""smooth"",""left"",""left"",""good_move"",102266.6,18346.1,3305.9,98420.3,540.4,""smooth"",""left"",""left"",""good_move""]","",""
"160619","","<div style=""width:500px;"">
  <p>What determined the result of this run?</p>
  </div>","6","html-slider-response","75","1205775","0.0-5.0-1.13","25","1","2025-07-09 10:19:04","01610cd0009c79a99da7d0a3353eb402","188.146.154.183","Mozilla/5.0 (Windows NT 10.0; Win64; x64) AppleWebKit/537.36 (KHTML, like Gecko) Chrome/138.0.0.0 Safari/537.36","WebKit","Chrome","138.0.0.0","Windows","10.0","https://app.prolific.com/","pl-PL,pl;q=0.9,en-US;q=0.8,en;q=0.7","66a16e0b41e98cb469f12b0b","683db7602f5db6a34d12d064","686e41fe79f4a32726c2309f","1","66a16e0b41e98cb469f12b0b","1","2025-07-09T10:39:10.836Z","","","","","","","","","","","AttribQ","","50","","","","","","","","","","","","","","","","","","","","","","","","","","","","",""
"3044","","<div style=""width:500px;"">
  <p>How much control did you have over the ball?</p>
  </div>","3","html-slider-response","76","1208822","0.0-5.0-2.13","25","1","2025-07-09 10:19:04","01610cd0009c79a99da7d0a3353eb402","188.146.154.183","Mozilla/5.0 (Windows NT 10.0; Win64; x64) AppleWebKit/537.36 (KHTML, like Gecko) Chrome/138.0.0.0 Safari/537.36","WebKit","Chrome","138.0.0.0","Windows","10.0","https://app.prolific.com/","pl-PL,pl;q=0.9,en-US;q=0.8,en;q=0.7","66a16e0b41e98cb469f12b0b","683db7602f5db6a34d12d064","686e41fe79f4a32726c2309f","1","66a16e0b41e98cb469f12b0b","1","2025-07-09T10:39:13.883Z","","","","","","","","","","","ControlQ","","50","","","","","","","","","","","","","","","","","","","","","","","","","","","","",""
"2360","","<div style=""width:500px;"">
  <p>How would you describe your current emotional state?</p>
