"rt","response_timestamp","stimulus","response","trial_type","trial_index","time_elapsed","internal_node_id","run_id","condition","recorded_at","source_code_version","ip","user_agent","device","browser","browser_version","platform","platform_version","referer","accept_language","PROLIFIC_PID","STUDY_ID","SESSION_ID","WEEK","BATCH","prolific_id","week","batch","realtime","success","responses","item_order","radio_event_ids","radio_event_times","key_event_times","mouse_event_times","straightlining","zigzagging","honeypot","eventType","view_history","slider_start","which_type","canvas_config","goals_layout","control_level","trial_number","tutorial_trial_number","trial_start_time","phase1_start_time","phase2_start_time","phase3_start_time","goal_1_value","goal_1_distance","goal_2_value","goal_2_distance","goal_selected","outcome","outcome_total","participant_final_score","participant_initial_score","participant_final_score_prop","goal_choice_rt","allocated_time","allocated_time_remaining","goal_direction","counts","mouse_movements","key_presses","question_order","question_id"
"19306","1753871619333","<p style='font-size:40px;line-height:1.25'><strong>Welcome to the experiment!</strong></p><p style='font-size:1.1em;line-height:1.25'>Thank you for participanting in our experiment again! You will be asked to play the Dysfunctional Ball Game again. We will briefly recap the rules before we start.</p><p style='font-size:1.1em;line-height:1.25'>Press <strong>Next</strong> to continue.</p>","0","custom-html-button-response","0","19310","0.0-0.0","285","1","2025-07-30 10:33:18","1f75c3e559b7213887762d5229550c2b","41.56.171.116","Mozilla/5.0 (Windows NT 10.0; Win64; x64) AppleWebKit/537.36 (KHTML, like Gecko) Chrome/138.0.0.0 Safari/537.36","WebKit","Chrome","138.0.0.0","Windows","10.0","https://app.prolific.com/","en-ZA,en-GB;q=0.9,en-US;q=0.8,en;q=0.7","60292aabf20c7d2af65541a7","6877631c9844ddd5501205fc","6889f4d371749e16eb66766c","3","1","60292aabf20c7d2af65541a7","3","1","2025-07-30T10:33:39.334Z","","","","","","","","","","","","","","","","","","","","","","","","","","","","","","","","","","","","","","","","","",""
"11677","","","","fullscreen","1","31990","0.0-1.0","285","1","2025-07-30 10:33:18","1f75c3e559b7213887762d5229550c2b","41.56.171.116","Mozilla/5.0 (Windows NT 10.0; Win64; x64) AppleWebKit/537.36 (KHTML, like Gecko) Chrome/138.0.0.0 Safari/537.36","WebKit","Chrome","138.0.0.0","Windows","10.0","https://app.prolific.com/","en-ZA,en-GB;q=0.9,en-US;q=0.8,en;q=0.7","60292aabf20c7d2af65541a7","6877631c9844ddd5501205fc","6889f4d371749e16eb66766c","3","1","60292aabf20c7d2af65541a7","3","1","","true","","","","","","","","","","","","","","","","","","","","","","","","","","","","","","","","","","","","","","","","",""
"1300","1753871633317","<p style='font-size:1.1em;line-height:1.25'>In the following, we will ask you a few questions relating to your feelings in the last 24 hours.<br></p><p style='font-size:1.1em;line-height:1.25'>Press the <strong>Next</strong> button to continue.</p>","0","custom-html-button-response","2","33293","0.0-2.0-0.0","285","1","2025-07-30 10:33:18","1f75c3e559b7213887762d5229550c2b","41.56.171.116","Mozilla/5.0 (Windows NT 10.0; Win64; x64) AppleWebKit/537.36 (KHTML, like Gecko) Chrome/138.0.0.0 Safari/537.36","WebKit","Chrome","138.0.0.0","Windows","10.0","https://app.prolific.com/","en-ZA,en-GB;q=0.9,en-US;q=0.8,en;q=0.7","60292aabf20c7d2af65541a7","6877631c9844ddd5501205fc","6889f4d371749e16eb66766c","3","1","60292aabf20c7d2af65541a7","3","1","2025-07-30T10:33:53.317Z","","","","","","","","","","","","","","","","","","","","","","","","","","","","","","","","","","","","","","","","","",""
"111643.10000002384","","","","survey-template","3","144942","0.0-2.0-1.0","285","1","2025-07-30 10:33:18","1f75c3e559b7213887762d5229550c2b","41.56.171.116","Mozilla/5.0 (Windows NT 10.0; Win64; x64) AppleWebKit/537.36 (KHTML, like Gecko) Chrome/138.0.0.0 Safari/537.36","WebKit","Chrome","138.0.0.0","Windows","10.0","https://app.prolific.com/","en-ZA,en-GB;q=0.9,en-US;q=0.8,en;q=0.7","60292aabf20c7d2af65541a7","6877631c9844ddd5501205fc","6889f4d371749e16eb66766c","3","1","60292aabf20c7d2af65541a7","3","1","2025-07-30T10:35:44.966Z","","{""Q01"":""0"",""Q02"":""0"",""Q03"":""0"",""Q04"":""0"",""Q05"":""0"",""Q06"":""0"",""Q07"":""0"",""Q08"":""0"",""Q09"":""0"",""Q10"":""0"",""Q11"":""0"",""Q12"":""0"",""Q13"":""5"",""Q14"":""0"",""Q15"":""0"",""Q16"":""0"",""Q17"":""0"",""Q18"":""0"",""Q19"":""1"",""Q20"":""0"",""Q21"":""0"",""Q22"":""0""}","[0,1,2,3,4,5,6,7,8,9,10,11,12,13,14,15,16,17,18,19,20,21]","[""Q01"",""Q02"",""Q03"",""Q04"",""Q05"",""Q06"",""Q07"",""Q08"",""Q09"",""Q10"",""Q11"",""Q12"",""Q13"",""Q14"",""Q15"",""Q16"",""Q17"",""Q18"",""Q19"",""Q20"",""Q19"",""Q21"",""Q22""]","[3924.100000023842,4804.400000035763,5924.300000011921,7300.300000011921,8316.200000047684,14676.300000011921,15724.300000011921,22476.30000001192,25460.5,34699.90000003576,36603.90000003576,38076.200000047684,42892.10000002384,62060.40000003576,63164.10000002384,66212.10000002384,68036,79076.20000004768,80084.20000004768,82732.10000002384,95668,102060,109188.10000002384]","[]","[0,2451.900000035763,3924.100000023842,4804.400000035763,5924.300000011921,7300.300000011921,8316.200000047684,10212.600000023842,12300.100000023842,13244,14036.5,14676.300000011921,15724.300000011921,22476.30000001192,25460.5,34699.90000003576,35843.80000001192,36603.90000003576,38076.200000047684,42892.10000002384,59980.30000001192,61371.80000001192,62060.40000003576,63164.10000002384,66212.10000002384,68036,79076.20000004768,80084.20000004768,80963.80000001192,82732.10000002384,94996.40000003576,95668,102060,109188.10000002384,111636.40000003576]","0.9090909090909091","0.19047619047619047","0","drsp","","","","","","","","","","","","","","","","","","","","","","","","","","","","","","",""
"16077.899999976158","","","","survey-template","4","161022","0.0-2.0-2.0","285","1","2025-07-30 10:33:18","1f75c3e559b7213887762d5229550c2b","41.56.171.116","Mozilla/5.0 (Windows NT 10.0; Win64; x64) AppleWebKit/537.36 (KHTML, like Gecko) Chrome/138.0.0.0 Safari/537.36","WebKit","Chrome","138.0.0.0","Windows","10.0","https://app.prolific.com/","en-ZA,en-GB;q=0.9,en-US;q=0.8,en;q=0.7","60292aabf20c7d2af65541a7","6877631c9844ddd5501205fc","6889f4d371749e16eb66766c","3","1","60292aabf20c7d2af65541a7","3","1","2025-07-30T10:36:01.047Z","","{""Q01"":""0"",""Q02"":""2"",""Q03"":""0""}","[0,1,2]","[""Q01"",""Q02"",""Q03""]","[2932.699999988079,10436.800000011921,14812.800000011921]","[]","[2932.699999988079,10436.800000011921,13996.800000011921,14812.800000011921,16076.800000011921]","0.6666666666666666","0","0","stress","","","","","","","","","","","","","","","","","","","","","","","","","","","","","","",""
"4165","","","","instructions","5","165189","0.0-3.0-0.0","285","1","2025-07-30 10:33:18","1f75c3e559b7213887762d5229550c2b","41.56.171.116","Mozilla/5.0 (Windows NT 10.0; Win64; x64) AppleWebKit/537.36 (KHTML, like Gecko) Chrome/138.0.0.0 Safari/537.36","WebKit","Chrome","138.0.0.0","Windows","10.0","https://app.prolific.com/","en-ZA,en-GB;q=0.9,en-US;q=0.8,en;q=0.7","60292aabf20c7d2af65541a7","6877631c9844ddd5501205fc","6889f4d371749e16eb66766c","3","1","60292aabf20c7d2af65541a7","3","1","","","","","","","","","","","","","[{""page_index"":0,""viewing_time"":4165}]","","","","","","","","","","","","","","","","","","","","","","","","","","","","","",""
"3743","","<p>Before you start with this game please answer the following three questions yourself. </p>
  <p>Through this game, we measure several aspects of your cognitive performance, such as reaction times, multi-tasking capabilities </p>
  <p>and the ability to assess the situation you are in.</p>
  <p></p>
  <p><b>How good do you usually are in such tasks?</b></p>","84","html-slider-response","6","168933","0.0-4.0-0.0","285","1","2025-07-30 10:33:18","1f75c3e559b7213887762d5229550c2b","41.56.171.116","Mozilla/5.0 (Windows NT 10.0; Win64; x64) AppleWebKit/537.36 (KHTML, like Gecko) Chrome/138.0.0.0 Safari/537.36","WebKit","Chrome","138.0.0.0","Windows","10.0","https://app.prolific.com/","en-ZA,en-GB;q=0.9,en-US;q=0.8,en;q=0.7","60292aabf20c7d2af65541a7","6877631c9844ddd5501205fc","6889f4d371749e16eb66766c","3","1","60292aabf20c7d2af65541a7","3","1","2025-07-30T10:36:08.957Z","","","","","","","","","","","PreSkillQ","","50","","","","","","","","","","","","","","","","","","","","","","","","","","","","",""
"2822","","<div style=""width:500px;"">
  <p>How well do you think you will perform in this task compared to other participants?</p>
  </div>","88","html-slider-response","7","171757","0.0-4.0-1.0","285","1","2025-07-30 10:33:18","1f75c3e559b7213887762d5229550c2b","41.56.171.116","Mozilla/5.0 (Windows NT 10.0; Win64; x64) AppleWebKit/537.36 (KHTML, like Gecko) Chrome/138.0.0.0 Safari/537.36","WebKit","Chrome","138.0.0.0","Windows","10.0","https://app.prolific.com/","en-ZA,en-GB;q=0.9,en-US;q=0.8,en;q=0.7","60292aabf20c7d2af65541a7","6877631c9844ddd5501205fc","6889f4d371749e16eb66766c","3","1","60292aabf20c7d2af65541a7","3","1","2025-07-30T10:36:11.781Z","","","","","","","","","","","PrePerfQ","","50","","","","","","","","","","","","","","","","","","","","","","","","","","","","",""
"4950","","<div style=""width:500px;"">
  <p>What best describes how you currently feel?</p>
  </div>","82","html-slider-response","8","176709","0.0-4.0-2.0","285","1","2025-07-30 10:33:18","1f75c3e559b7213887762d5229550c2b","41.56.171.116","Mozilla/5.0 (Windows NT 10.0; Win64; x64) AppleWebKit/537.36 (KHTML, like Gecko) Chrome/138.0.0.0 Safari/537.36","WebKit","Chrome","138.0.0.0","Windows","10.0","https://app.prolific.com/","en-ZA,en-GB;q=0.9,en-US;q=0.8,en;q=0.7","60292aabf20c7d2af65541a7","6877631c9844ddd5501205fc","6889f4d371749e16eb66766c","3","1","60292aabf20c7d2af65541a7","3","1","2025-07-30T10:36:16.733Z","","","","","","","","","","","PreMotivationQ","","50","","","","","","","","","","","","","","","","","","","","","","","","","","","","",""
"","","","","ctl-task-cpt","9","199505","0.0-5.0-0.0","285","1","2025-07-30 10:33:18","1f75c3e559b7213887762d5229550c2b","41.56.171.116","Mozilla/5.0 (Windows NT 10.0; Win64; x64) AppleWebKit/537.36 (KHTML, like Gecko) Chrome/138.0.0.0 Safari/537.36","WebKit","Chrome","138.0.0.0","Windows","10.0","https://app.prolific.com/","en-ZA,en-GB;q=0.9,en-US;q=0.8,en;q=0.7","60292aabf20c7d2af65541a7","6877631c9844ddd5501205fc","6889f4d371749e16eb66766c","3","1","60292aabf20c7d2af65541a7","3","1","2025-07-30T10:36:39.529Z","","","","","","","","","","","","","","win-only","0","g1:NW,g2:SE","1","1","0","180371.7","2776.3","7777.9","19788.8","1","4","4","6","1","1","1","1","0","0.007575757575757576","1190.2","3000","1445","[""left"",""up""]","{""num_key_presses"":4,""num_perfect"":4,""num_errors"":0,""num_randdir"":0,""num_randdir_good_moves"":0,""num_whilered"":0,""num_whileblue"":0,""num_blue"":0,""num_good_moves"":4}","[355.14285714285717,344.04910714285717,0.7,355.14285714285717,344.04910714285717,105.8,355.14285714285717,344.04910714285717,209.2,355.14285714285717,344.04910714285717,309.4,355.14285714285717,344.04910714285717,414.1,353.14285714285717,352.04910714285717,514.1,348.14285714285717,367.04910714285717,614.2,254.14285714285714,336.04910714285717,715.2,66.14285714285714,170.04910714285714,823.8,62.142857142857146,145.04910714285714,923.8,74.14285714285714,103.04910714285714,1031.6,76.14285714285714,98.04910714285714,1141.5,76.14285714285714,98.04910714285714,1244.3,76.14285714285714,98.04910714285714,1349.1,76.14285714285714,98.04910714285714,1449.1,78.14285714285714,105.04910714285714,1549.4,117.14285714285714,182.04910714285714,1649.4,151.14285714285714,237.04910714285714,1749.4,151.14285714285714,237.04910714285714,1849.5,151.14285714285714,237.04910714285714,1956.5,152.14285714285714,237.04910714285714,2059.2,152.14285714285714,240.04910714285714,2160,152.14285714285714,241.04910714285714,2260.5,152.14285714285714,243.04910714285714,2365.1,152.14285714285714,243.04910714285714,2472.3,152.14285714285714,243.04910714285714,2574.2,152.14285714285714,243.04910714285714,2675.3,152.14285714285714,243.04910714285714,2781.2,152.14285714285714,243.04910714285714,2891,106.14285714285714,206.04910714285714,2995.1,106.14285714285714,206.04910714285714,3095.2,106.14285714285714,206.04910714285714,3196.2,106.14285714285714,206.04910714285714,3307.5,106.14285714285714,206.04910714285714,3410.2,106.14285714285714,206.04910714285714,3511.1,114.14285714285714,211.04910714285714,3615,120.14285714285714,215.04910714285714,3716.1,128.14285714285714,222.04910714285714,3822.2,142.14285714285714,226.04910714285714,3925,142.14285714285714,226.04910714285714,4026.3,142.14285714285714,226.04910714285714,4129.9,190.14285714285714,233.04910714285714,4235.3,197.14285714285714,232.04910714285714,4341.7,258.14285714285717,214.04910714285714,4445.3,264.14285714285717,217.04910714285714,4546.1,265.14285714285717,217.04910714285714,4646.1,265.14285714285717,217.04910714285714,4751.1,265.14285714285717,217.04910714285714,4851.1,265.14285714285717,217.04910714285714,4957.2]","[2009,2008.9,1000,0.1,1008.9,""smooth"",""up"",""up"",""good_move"",5697.2,3687.4,3333.7,2009.9,353.6,""smooth"",""up"",""up"",""good_move"",8256,2557.9,2093.8,5698.1,464.1,""smooth"",""left"",""left"",""good_move"",11887.8,3631,3225.5,8256.8,405.5,""smooth"",""left"",""left"",""good_move""]","",""
"8185","","<div style=""width:500px;"">
  <p>What determined the result of this run?</p>
  </div>","100","html-slider-response","10","207693","0.0-5.0-1.0","285","1","2025-07-30 10:33:18","1f75c3e559b7213887762d5229550c2b","41.56.171.116","Mozilla/5.0 (Windows NT 10.0; Win64; x64) AppleWebKit/537.36 (KHTML, like Gecko) Chrome/138.0.0.0 Safari/537.36","WebKit","Chrome","138.0.0.0","Windows","10.0","https://app.prolific.com/","en-ZA,en-GB;q=0.9,en-US;q=0.8,en;q=0.7","60292aabf20c7d2af65541a7","6877631c9844ddd5501205fc","6889f4d371749e16eb66766c","3","1","60292aabf20c7d2af65541a7","3","1","2025-07-30T10:36:47.717Z","","","","","","","","","","","AttribQ","","50","","","","","","","","","","","","","","","","","","","","","","","","","","","","",""
"2846","","<div style=""width:500px;"">
  <p>How much control did you have over the ball?</p>
  </div>","100","html-slider-response","11","210541","0.0-5.0-2.0","285","1","2025-07-30 10:33:18","1f75c3e559b7213887762d5229550c2b","41.56.171.116","Mozilla/5.0 (Windows NT 10.0; Win64; x64) AppleWebKit/537.36 (KHTML, like Gecko) Chrome/138.0.0.0 Safari/537.36","WebKit","Chrome","138.0.0.0","Windows","10.0","https://app.prolific.com/","en-ZA,en-GB;q=0.9,en-US;q=0.8,en;q=0.7","60292aabf20c7d2af65541a7","6877631c9844ddd5501205fc","6889f4d371749e16eb66766c","3","1","60292aabf20c7d2af65541a7","3","1","2025-07-30T10:36:50.565Z","","","","","","","","","","","ControlQ","","50","","","","","","","","","","","","","","","","","","","","","","","","","","","","",""
"5831","","<div style=""width:500px;"">
  <p>How would you describe your current emotional state?</p>
  </div>","2","html-slider-response","12","216373","0.0-5.0-3.0","285","1","2025-07-30 10:33:18","1f75c3e559b7213887762d5229550c2b","41.56.171.116","Mozilla/5.0 (Windows NT 10.0; Win64; x64) AppleWebKit/537.36 (KHTML, like Gecko) Chrome/138.0.0.0 Safari/537.36","WebKit","Chrome","138.0.0.0","Windows","10.0","https://app.prolific.com/","en-ZA,en-GB;q=0.9,en-US;q=0.8,en;q=0.7","60292aabf20c7d2af65541a7","6877631c9844ddd5501205fc","6889f4d371749e16eb66766c","3","1","60292aabf20c7d2af65541a7","3","1","2025-07-30T10:36:56.397Z","","","","","","","","","","","StressQ","","50","","","","","","","","","","","","","","","","","","","","","","","","","","","","",""
"6047","","<div style=""width:500px;"">
  <p>What best describes how you currently feel?</p>
  </div>","100","html-slider-response","13","222421","0.0-5.0-4.0","285","1","2025-07-30 10:33:18","1f75c3e559b7213887762d5229550c2b","41.56.171.116","Mozilla/5.0 (Windows NT 10.0; Win64; x64) AppleWebKit/537.36 (KHTML, like Gecko) Chrome/138.0.0.0 Safari/537.36","WebKit","Chrome","138.0.0.0","Windows","10.0","https://app.prolific.com/","en-ZA,en-GB;q=0.9,en-US;q=0.8,en;q=0.7","60292aabf20c7d2af65541a7","6877631c9844ddd5501205fc","6889f4d371749e16eb66766c","3","1","60292aabf20c7d2af65541a7","3","1","2025-07-30T10:37:02.445Z","","","","","","","","","","","MotivationQ","","50","","","","","","","","","","","","","","","","","","","","","","","","","","","","",""
"","","","","ctl-task-cpt","14","243129","0.0-5.0-0.1","285","1","2025-07-30 10:33:18","1f75c3e559b7213887762d5229550c2b","41.56.171.116","Mozilla/5.0 (Windows NT 10.0; Win64; x64) AppleWebKit/537.36 (KHTML, like Gecko) Chrome/138.0.0.0 Safari/537.36","WebKit","Chrome","138.0.0.0","Windows","10.0","https://app.prolific.com/","en-ZA,en-GB;q=0.9,en-US;q=0.8,en;q=0.7","60292aabf20c7d2af65541a7","6877631c9844ddd5501205fc","6889f4d371749e16eb66766c","3","1","60292aabf20c7d2af65541a7","3","1","2025-07-30T10:37:23.154Z","","","","","","","","","","","","","","win-only","1","g1:NE,g2:SW","0.9","2","0","226082.1","1615.8","6617.1","17698.4","1","4","8","6","1","1","1","2","1","0.015151515151515152","888","3000","1370","[""up"",""right""]","{""num_key_presses"":4,""num_perfect"":3,""num_errors"":0,""num_randdir"":1,""num_randdir_good_moves"":1,""num_whilered"":0,""num_whileblue"":0,""num_blue"":0,""num_good_moves"":4}","[357.14285714285717,350.04910714285717,0.3,357.14285714285717,350.04910714285717,101.9,357.14285714285717,350.04910714285717,204.9,357.14285714285717,350.04910714285717,305.1,357.14285714285717,350.04910714285717,420.1,482.14285714285717,165.04910714285714,521,585.1428571428571,86.04910714285714,621.7,589.1428571428571,71.04910714285714,725.4,591.1428571428571,58.049107142857146,826.3,591.1428571428571,58.049107142857146,930.9,591.1428571428571,58.049107142857146,1031.1,591.1428571428571,58.049107142857146,1134.7,569.1428571428571,87.04910714285714,1236.4,504.14285714285717,151.04910714285714,1340.8,415.14285714285717,248.04910714285714,1446.1,415.14285714285717,248.04910714285714,1546.3,411.14285714285717,253.04910714285714,1651.8,411.14285714285717,254.04910714285714,1755,411.14285714285717,254.04910714285714,1855.7,411.14285714285717,254.04910714285714,1955.8,411.14285714285717,254.04910714285714,2061,411.14285714285717,254.04910714285714,2168.6,411.14285714285717,254.04910714285714,2269.8,411.14285714285717,254.04910714285714,2369.9,411.14285714285717,254.04910714285714,2470.2,411.14285714285717,254.04910714285714,2570.8,411.14285714285717,254.04910714285714,2675,411.14285714285717,254.04910714285714,2775,404.14285714285717,263.04910714285717,2875.3,404.14285714285717,263.04910714285717,2975.3,404.14285714285717,263.04910714285717,3085,404.14285714285717,263.04910714285717,3189.9,425.14285714285717,269.04910714285717,3290,427.14285714285717,270.04910714285717,3395.6,427.14285714285717,270.04910714285717,3500.5,427.14285714285717,270.04910714285717,3601.4,427.14285714285717,270.04910714285717,3705,427.14285714285717,270.04910714285717,3809.6,427.14285714285717,270.04910714285717,3910.7,427.14285714285717,270.04910714285717,4010.9,427.14285714285717,270.04910714285717,4117.7,427.14285714285717,270.04910714285717,4217.7,427.14285714285717,270.04910714285717,4319.6,427.14285714285717,270.04910714285717,4419.9,427.14285714285717,270.04910714285717,4520.3,427.14285714285717,270.04910714285717,4621,427.14285714285717,270.04910714285717,4721,427.14285714285717,270.04910714285717,4821.2,427.14285714285717,270.04910714285717,4926]","[1532.6,1532.6,1000,0.1,532.5,""smooth"",""up"",""up"",""good_move"",4658.8,3125.5,2786.5,1533.3,339,""smooth"",""up"",""up"",""good_move"",8114.5,3454.9,3017.7,4659.7,437.1,""oops"",""right"",""right"",""good_move"",10986.2,2871.2,2446.3,8115,424.9,""smooth"",""right"",""right"",""good_move""]","",""
"3866","","<div style=""width:500px;"">
  <p>What determined the result of this run?</p>
  </div>","100","html-slider-response","15","246997","0.0-5.0-1.1","285","1","2025-07-30 10:33:18","1f75c3e559b7213887762d5229550c2b","41.56.171.116","Mozilla/5.0 (Windows NT 10.0; Win64; x64) AppleWebKit/537.36 (KHTML, like Gecko) Chrome/138.0.0.0 Safari/537.36","WebKit","Chrome","138.0.0.0","Windows","10.0","https://app.prolific.com/","en-ZA,en-GB;q=0.9,en-US;q=0.8,en;q=0.7","60292aabf20c7d2af65541a7","6877631c9844ddd5501205fc","6889f4d371749e16eb66766c","3","1","60292aabf20c7d2af65541a7","3","1","2025-07-30T10:37:27.021Z","","","","","","","","","","","AttribQ","","50","","","","","","","","","","","","","","","","","","","","","","","","","","","","",""
"2543","","<div style=""width:500px;"">
  <p>How much control did you have over the ball?</p>
  </div>","100","html-slider-response","16","249541","0.0-5.0-2.1","285","1","2025-07-30 10:33:18","1f75c3e559b7213887762d5229550c2b","41.56.171.116","Mozilla/5.0 (Windows NT 10.0; Win64; x64) AppleWebKit/537.36 (KHTML, like Gecko) Chrome/138.0.0.0 Safari/537.36","WebKit","Chrome","138.0.0.0","Windows","10.0","https://app.prolific.com/","en-ZA,en-GB;q=0.9,en-US;q=0.8,en;q=0.7","60292aabf20c7d2af65541a7","6877631c9844ddd5501205fc","6889f4d371749e16eb66766c","3","1","60292aabf20c7d2af65541a7","3","1","2025-07-30T10:37:29.566Z","","","","","","","","","","","ControlQ","","50","","","","","","","","","","","","","","","","","","","","","","","","","","","","",""
"6878","","<div style=""width:500px;"">
  <p>How would you describe your current emotional state?</p>
  </div>","0","html-slider-response","17","256421","0.0-5.0-3.1","285","1","2025-07-30 10:33:18","1f75c3e559b7213887762d5229550c2b","41.56.171.116","Mozilla/5.0 (Windows NT 10.0; Win64; x64) AppleWebKit/537.36 (KHTML, like Gecko) Chrome/138.0.0.0 Safari/537.36","WebKit","Chrome","138.0.0.0","Windows","10.0","https://app.prolific.com/","en-ZA,en-GB;q=0.9,en-US;q=0.8,en;q=0.7","60292aabf20c7d2af65541a7","6877631c9844ddd5501205fc","6889f4d371749e16eb66766c","3","1","60292aabf20c7d2af65541a7","3","1","2025-07-30T10:37:36.445Z","","","","","","","","","","","StressQ","","50","","","","","","","","","","","","","","","","","","","","","","","","","","","","",""
"4270","","<div style=""width:500px;"">
  <p>What best describes how you currently feel?</p>
  </div>","98","html-slider-response","18","260693","0.0-5.0-4.1","285","1","2025-07-30 10:33:18","1f75c3e559b7213887762d5229550c2b","41.56.171.116","Mozilla/5.0 (Windows NT 10.0; Win64; x64) AppleWebKit/537.36 (KHTML, like Gecko) Chrome/138.0.0.0 Safari/537.36","WebKit","Chrome","138.0.0.0","Windows","10.0","https://app.prolific.com/","en-ZA,en-GB;q=0.9,en-US;q=0.8,en;q=0.7","60292aabf20c7d2af65541a7","6877631c9844ddd5501205fc","6889f4d371749e16eb66766c","3","1","60292aabf20c7d2af65541a7","3","1","2025-07-30T10:37:40.717Z","","","","","","","","","","","MotivationQ","","50","","","","","","","","","","","","","","","","","","","","","","","","","","","","",""
"","","","","ctl-task-cpt","19","287111","0.0-5.0-0.2","285","1","2025-07-30 10:33:18","1f75c3e559b7213887762d5229550c2b","41.56.171.116","Mozilla/5.0 (Windows NT 10.0; Win64; x64) AppleWebKit/537.36 (KHTML, like Gecko) Chrome/138.0.0.0 Safari/537.36","WebKit","Chrome","138.0.0.0","Windows","10.0","https://app.prolific.com/","en-ZA,en-GB;q=0.9,en-US;q=0.8,en;q=0.7","60292aabf20c7d2af65541a7","6877631c9844ddd5501205fc","6889f4d371749e16eb66766c","3","1","60292aabf20c7d2af65541a7","3","1","2025-07-30T10:38:07.135Z","","","","","","","","","","","","","","win-only","1","g1:NE,g2:SW","0.8","3","0","264355.9","1088.3","6089.2","23401.1","1","4","8","6","1","1","1","3","2","0.022727272727272728","1117.8","3000","1065","[""up"",""right""]","{""num_key_presses"":4,""num_perfect"":4,""num_errors"":0,""num_randdir"":0,""num_randdir_good_moves"":0,""num_whilered"":0,""num_whileblue"":0,""num_blue"":2,""num_good_moves"":4}","[352.14285714285717,352.04910714285717,0.7,352.14285714285717,352.04910714285717,102.1,352.14285714285717,352.04910714285717,203,352.14285714285717,352.04910714285717,303.1,352.14285714285717,352.04910714285717,408,352.14285714285717,352.04910714285717,515.2,374.14285714285717,282.04910714285717,617.9,450.14285714285717,184.04910714285714,719,470.14285714285717,174.04910714285714,823.1,593.1428571428571,79.04910714285714,927.4,597.1428571428571,75.04910714285714,1027.7,606.1428571428571,73.04910714285714,1128.4,606.1428571428571,73.04910714285714,1228.7,600.1428571428571,85.04910714285714,1333.2,551.1428571428571,130.04910714285714,1438.9,450.14285714285717,223.04910714285714,1551.9,437.14285714285717,240.04910714285714,1653.1,435.14285714285717,243.04910714285714,1757.9,435.14285714285717,243.04910714285714,1858.3,435.14285714285717,243.04910714285714,1965.8,435.14285714285717,243.04910714285714,2065.9,435.14285714285717,243.04910714285714,2166.3,435.14285714285717,243.04910714285714,2267.9,435.14285714285717,243.04910714285714,2368.8,435.14285714285717,243.04910714285714,2472.8,435.14285714285717,243.04910714285714,2572.9,435.14285714285717,243.04910714285714,2674,435.14285714285717,243.04910714285714,2778.6,435.14285714285717,243.04910714285714,2878.7,435.14285714285717,243.04910714285714,2986.7,435.14285714285717,243.04910714285714,3088.9,435.14285714285717,243.04910714285714,3192.9,435.14285714285717,243.04910714285714,3300.2,435.14285714285717,243.04910714285714,3401.7,435.14285714285717,243.04910714285714,3502.9,435.14285714285717,243.04910714285714,3607.8,435.14285714285717,243.04910714285714,3707.8,435.14285714285717,243.04910714285714,3807.9,435.14285714285717,243.04910714285714,3916.3,435.14285714285717,243.04910714285714,4017.5,435.14285714285717,243.04910714285714,4117.6,435.14285714285717,243.04910714285714,4222.7,435.14285714285717,243.04910714285714,4323.8,435.14285714285717,243.04910714285714,4423.8,435.14285714285717,243.04910714285714,4533.7,435.14285714285717,243.04910714285714,4638.9,435.14285714285717,243.04910714285714,4743.9,435.14285714285717,243.04910714285714,4851.2,435.14285714285717,243.04910714285714,4952.8]","[1481.7,1481.8,1000,0,481.8,""smooth"",""up"",""up"",""good_move"",4944.6,3462.2,2967.7,1482.4,494.5,""smooth"",""up"",""up"",""good_move"",14072.6,9127.6,2559.4,11016.1,497.1,""smooth"",""right"",""right"",""good_move"",17224.4,3151.2,2608.4,14073.2,542.8,""smooth"",""right"",""right"",""good_move""]","",""
"4124","","<div style=""width:500px;"">
  <p>What determined the result of this run?</p>
  </div>","100","html-slider-response","20","291237","0.0-5.0-1.2","285","1","2025-07-30 10:33:18","1f75c3e559b7213887762d5229550c2b","41.56.171.116","Mozilla/5.0 (Windows NT 10.0; Win64; x64) AppleWebKit/537.36 (KHTML, like Gecko) Chrome/138.0.0.0 Safari/537.36","WebKit","Chrome","138.0.0.0","Windows","10.0","https://app.prolific.com/","en-ZA,en-GB;q=0.9,en-US;q=0.8,en;q=0.7","60292aabf20c7d2af65541a7","6877631c9844ddd5501205fc","6889f4d371749e16eb66766c","3","1","60292aabf20c7d2af65541a7","3","1","2025-07-30T10:38:11.261Z","","","","","","","","","","","AttribQ","","50","","","","","","","","","","","","","","","","","","","","","","","","","","","","",""
"2903","","<div style=""width:500px;"">
  <p>How much control did you have over the ball?</p>
  </div>","100","html-slider-response","21","294141","0.0-5.0-2.2","285","1","2025-07-30 10:33:18","1f75c3e559b7213887762d5229550c2b","41.56.171.116","Mozilla/5.0 (Windows NT 10.0; Win64; x64) AppleWebKit/537.36 (KHTML, like Gecko) Chrome/138.0.0.0 Safari/537.36","WebKit","Chrome","138.0.0.0","Windows","10.0","https://app.prolific.com/","en-ZA,en-GB;q=0.9,en-US;q=0.8,en;q=0.7","60292aabf20c7d2af65541a7","6877631c9844ddd5501205fc","6889f4d371749e16eb66766c","3","1","60292aabf20c7d2af65541a7","3","1","2025-07-30T10:38:14.165Z","","","","","","","","","","","ControlQ","","50","","","","","","","","","","","","","","","","","","","","","","","","","","","","",""
"3503","","<div style=""width:500px;"">
  <p>How would you describe your current emotional state?</p>
  </div>","0","html-slider-response","22","297645","0.0-5.0-3.2","285","1","2025-07-30 10:33:18","1f75c3e559b7213887762d5229550c2b","41.56.171.116","Mozilla/5.0 (Windows NT 10.0; Win64; x64) AppleWebKit/537.36 (KHTML, like Gecko) Chrome/138.0.0.0 Safari/537.36","WebKit","Chrome","138.0.0.0","Windows","10.0","https://app.prolific.com/","en-ZA,en-GB;q=0.9,en-US;q=0.8,en;q=0.7","60292aabf20c7d2af65541a7","6877631c9844ddd5501205fc","6889f4d371749e16eb66766c","3","1","60292aabf20c7d2af65541a7","3","1","2025-07-30T10:38:17.669Z","","","","","","","","","","","StressQ","","50","","","","","","","","","","","","","","","","","","","","","","","","","","","","",""
"3046","","<div style=""width:500px;"">
  <p>What best describes how you currently feel?</p>
  </div>","100","html-slider-response","23","300693","0.0-5.0-4.2","285","1","2025-07-30 10:33:18","1f75c3e559b7213887762d5229550c2b","41.56.171.116","Mozilla/5.0 (Windows NT 10.0; Win64; x64) AppleWebKit/537.36 (KHTML, like Gecko) Chrome/138.0.0.0 Safari/537.36","WebKit","Chrome","138.0.0.0","Windows","10.0","https://app.prolific.com/","en-ZA,en-GB;q=0.9,en-US;q=0.8,en;q=0.7","60292aabf20c7d2af65541a7","6877631c9844ddd5501205fc","6889f4d371749e16eb66766c","3","1","60292aabf20c7d2af65541a7","3","1","2025-07-30T10:38:20.717Z","","","","","","","","","","","MotivationQ","","50","","","","","","","","","","","","","","","","","","","","","","","","","","","","",""
"","","","","ctl-task-cpt","24","323198","0.0-5.0-0.3","285","1","2025-07-30 10:33:18","1f75c3e559b7213887762d5229550c2b","41.56.171.116","Mozilla/5.0 (Windows NT 10.0; Win64; x64) AppleWebKit/537.36 (KHTML, like Gecko) Chrome/138.0.0.0 Safari/537.36","WebKit","Chrome","138.0.0.0","Windows","10.0","https://app.prolific.com/","en-ZA,en-GB;q=0.9,en-US;q=0.8,en;q=0.7","60292aabf20c7d2af65541a7","6877631c9844ddd5501205fc","6889f4d371749e16eb66766c","3","1","60292aabf20c7d2af65541a7","3","1","2025-07-30T10:38:43.222Z","","","","","","","","","","","","","","win-only","1","g1:NE,g2:SW","0.7","4","0","304355.7","1414.3","6416.1","19487","1","4","4","6","1","1","1","4","3","0.030303030303030304","728.8","3000","1210","[""up"",""right""]","{""num_key_presses"":4,""num_perfect"":3,""num_errors"":0,""num_randdir"":1,""num_randdir_good_moves"":1,""num_whilered"":0,""num_whileblue"":0,""num_blue"":1,""num_good_moves"":4}","[354.14285714285717,348.04910714285717,0.4,354.14285714285717,348.04910714285717,101.9,354.14285714285717,348.04910714285717,204.9,354.14285714285717,348.04910714285717,306.7,354.14285714285717,348.04910714285717,406.7,651.1428571428571,121.04910714285714,506.8,663.1428571428571,83.04910714285714,606.9,665.1428571428571,60.049107142857146,721.2,665.1428571428571,59.049107142857146,821.8,665.1428571428571,59.049107142857146,922,658.1428571428571,72.04910714285714,1026.8,595.1428571428571,146.04910714285714,1127.9,533.1428571428571,229.04910714285714,1227.9,531.1428571428571,235.04910714285714,1337.2,529.1428571428571,243.04910714285714,1441.8,529.1428571428571,243.04910714285714,1542.8,529.1428571428571,247.04910714285714,1646.5,529.1428571428571,247.04910714285714,1751,529.1428571428571,247.04910714285714,1852.6,529.1428571428571,247.04910714285714,1952.8,529.1428571428571,247.04910714285714,2056.7,529.1428571428571,247.04910714285714,2156.6,529.1428571428571,247.04910714285714,2256.6,529.1428571428571,247.04910714285714,2356.7,529.1428571428571,247.04910714285714,2468.6,529.1428571428571,247.04910714285714,2568.8,529.1428571428571,247.04910714285714,2670,529.1428571428571,247.04910714285714,2772.6,529.1428571428571,247.04910714285714,2876.6,529.1428571428571,247.04910714285714,2985.8,529.1428571428571,247.04910714285714,3086.6,529.1428571428571,247.04910714285714,3186.6,529.1428571428571,247.04910714285714,3287.6,529.1428571428571,247.04910714285714,3387.6,529.1428571428571,247.04910714285714,3491.6,529.1428571428571,247.04910714285714,3602.6,529.1428571428571,247.04910714285714,3706.5,529.1428571428571,247.04910714285714,3806.5,529.1428571428571,247.04910714285714,3907.5,529.1428571428571,247.04910714285714,4018.5,529.1428571428571,247.04910714285714,4118.7,529.1428571428571,247.04910714285714,4221.6,529.1428571428571,247.04910714285714,4332.4,529.1428571428571,247.04910714285714,4436.4,529.1428571428571,247.04910714285714,4536.8,529.1428571428571,247.04910714285714,4641.5,529.1428571428571,247.04910714285714,4741.5,529.1428571428571,247.04910714285714,4841.5,529.1428571428571,247.04910714285714,4941.5]","[1467.2,1467.2,1000,0,467.2,""smooth"",""up"",""up"",""good_move"",4361.9,2894.2,2319.9,1467.8,574.2,""smooth"",""up"",""up"",""good_move"",6617.9,2255.5,1529.7,4362.4,725.8,""smooth"",""right"",""right"",""good_move"",12965.5,6347.2,2173.2,10335.1,457.2,""oops"",""right"",""right"",""good_move""]","",""
"5246","","<div style=""width:500px;"">
  <p>What determined the result of this run?</p>
  </div>","100","html-slider-response","25","328446","0.0-5.0-1.3","285","1","2025-07-30 10:33:18","1f75c3e559b7213887762d5229550c2b","41.56.171.116","Mozilla/5.0 (Windows NT 10.0; Win64; x64) AppleWebKit/537.36 (KHTML, like Gecko) Chrome/138.0.0.0 Safari/537.36","WebKit","Chrome","138.0.0.0","Windows","10.0","https://app.prolific.com/","en-ZA,en-GB;q=0.9,en-US;q=0.8,en;q=0.7","60292aabf20c7d2af65541a7","6877631c9844ddd5501205fc","6889f4d371749e16eb66766c","3","1","60292aabf20c7d2af65541a7","3","1","2025-07-30T10:38:48.470Z","","","","","","","","","","","AttribQ","","50","","","","","","","","","","","","","","","","","","","","","","","","","","","","",""
"2518","","<div style=""width:500px;"">
  <p>How much control did you have over the ball?</p>
  </div>","100","html-slider-response","26","330965","0.0-5.0-2.3","285","1","2025-07-30 10:33:18","1f75c3e559b7213887762d5229550c2b","41.56.171.116","Mozilla/5.0 (Windows NT 10.0; Win64; x64) AppleWebKit/537.36 (KHTML, like Gecko) Chrome/138.0.0.0 Safari/537.36","WebKit","Chrome","138.0.0.0","Windows","10.0","https://app.prolific.com/","en-ZA,en-GB;q=0.9,en-US;q=0.8,en;q=0.7","60292aabf20c7d2af65541a7","6877631c9844ddd5501205fc","6889f4d371749e16eb66766c","3","1","60292aabf20c7d2af65541a7","3","1","2025-07-30T10:38:50.990Z","","","","","","","","","","","ControlQ","","50","","","","","","","","","","","","","","","","","","","","","","","","","","","","",""
"2942","","<div style=""width:500px;"">
  <p>How would you describe your current emotional state?</p>
  </div>","0","html-slider-response","27","333909","0.0-5.0-3.3","285","1","2025-07-30 10:33:18","1f75c3e559b7213887762d5229550c2b","41.56.171.116","Mozilla/5.0 (Windows NT 10.0; Win64; x64) AppleWebKit/537.36 (KHTML, like Gecko) Chrome/138.0.0.0 Safari/537.36","WebKit","Chrome","138.0.0.0","Windows","10.0","https://app.prolific.com/","en-ZA,en-GB;q=0.9,en-US;q=0.8,en;q=0.7","60292aabf20c7d2af65541a7","6877631c9844ddd5501205fc","6889f4d371749e16eb66766c","3","1","60292aabf20c7d2af65541a7","3","1","2025-07-30T10:38:53.933Z","","","","","","","","","","","StressQ","","50","","","","","","","","","","","","","","","","","","","","","","","","","","","","",""
"4990","","<div style=""width:500px;"">
  <p>What best describes how you currently feel?</p>
  </div>","100","html-slider-response","28","338901","0.0-5.0-4.3","285","1","2025-07-30 10:33:18","1f75c3e559b7213887762d5229550c2b","41.56.171.116","Mozilla/5.0 (Windows NT 10.0; Win64; x64) AppleWebKit/537.36 (KHTML, like Gecko) Chrome/138.0.0.0 Safari/537.36","WebKit","Chrome","138.0.0.0","Windows","10.0","https://app.prolific.com/","en-ZA,en-GB;q=0.9,en-US;q=0.8,en;q=0.7","60292aabf20c7d2af65541a7","6877631c9844ddd5501205fc","6889f4d371749e16eb66766c","3","1","60292aabf20c7d2af65541a7","3","1","2025-07-30T10:38:58.925Z","","","","","","","","","","","MotivationQ","","50","","","","","","","","","","","","","","","","","","","","","","","","","","","","",""
"","","","","ctl-task-cpt","29","371980","0.0-5.0-0.4","285","1","2025-07-30 10:33:18","1f75c3e559b7213887762d5229550c2b","41.56.171.116","Mozilla/5.0 (Windows NT 10.0; Win64; x64) AppleWebKit/537.36 (KHTML, like Gecko) Chrome/138.0.0.0 Safari/537.36","WebKit","Chrome","138.0.0.0","Windows","10.0","https://app.prolific.com/","en-ZA,en-GB;q=0.9,en-US;q=0.8,en;q=0.7","60292aabf20c7d2af65541a7","6877631c9844ddd5501205fc","6889f4d371749e16eb66766c","3","1","60292aabf20c7d2af65541a7","3","1","2025-07-30T10:39:32.004Z","","","","","","","","","","","","","","win-only","1","g1:NE,g2:SW","0.6","5","0","342563.8","2169.5","7170.7","30055.9","1","4","8","6","1","1","1","5","4","0.03787878787878788","956.7","3000","485","[""up"",""right""]","{""num_key_presses"":6,""num_perfect"":2,""num_errors"":0,""num_randdir"":4,""num_randdir_good_moves"":3,""num_whilered"":0,""num_whileblue"":0,""num_blue"":2,""num_good_moves"":5}","[353.14285714285717,340.04910714285717,0.6,353.14285714285717,340.04910714285717,102.7,353.14285714285717,340.04910714285717,203,353.14285714285717,340.04910714285717,303.3,353.14285714285717,340.04910714285717,406.1,353.14285714285717,340.04910714285717,506.1,415.14285714285717,293.04910714285717,607,674.1428571428571,76.04910714285714,722.3,650.1428571428571,82.04910714285714,826.6,617.1428571428571,88.04910714285714,934.6,617.1428571428571,88.04910714285714,1037,617.1428571428571,88.04910714285714,1141.1,616.1428571428571,109.04910714285714,1241.1,478.14285714285717,233.04910714285714,1341.2,441.14285714285717,320.04910714285717,1453.2,440.14285714285717,327.04910714285717,1556.1,440.14285714285717,327.04910714285717,1656.1,451.14285714285717,331.04910714285717,1756.1,451.14285714285717,331.04910714285717,1856.1,451.14285714285717,331.04910714285717,1970.4,451.14285714285717,331.04910714285717,2071,451.14285714285717,331.04910714285717,2172,451.14285714285717,331.04910714285717,2277,451.14285714285717,331.04910714285717,2384.1,451.14285714285717,331.04910714285717,2485.1,451.14285714285717,331.04910714285717,2585.4,451.14285714285717,331.04910714285717,2687,451.14285714285717,331.04910714285717,2800.8,451.14285714285717,331.04910714285717,2901.4,451.14285714285717,331.04910714285717,3003.4,451.14285714285717,331.04910714285717,3107,451.14285714285717,331.04910714285717,3211.4,451.14285714285717,331.04910714285717,3316,451.14285714285717,331.04910714285717,3417.1,451.14285714285717,331.04910714285717,3520.9,451.14285714285717,331.04910714285717,3621,451.14285714285717,331.04910714285717,3727.5,451.14285714285717,331.04910714285717,3832.2,451.14285714285717,331.04910714285717,3935.9,451.14285714285717,331.04910714285717,4035.9,451.14285714285717,331.04910714285717,4135.9,451.14285714285717,331.04910714285717,4236.9,451.14285714285717,331.04910714285717,4340.9,451.14285714285717,331.04910714285717,4452.3,451.14285714285717,331.04910714285717,4556.8,451.14285714285717,331.04910714285717,4667.1,451.14285714285717,331.04910714285717,4771.9,451.14285714285717,331.04910714285717,4871.9,451.14285714285717,331.04910714285717,4976.1]","[1583.5,1583.5,1000,0,583.5,""oops"",""right"",""right"",""good_move"",4425.1,2841.1,2380,1584.1,461,""smooth"",""right"",""right"",""good_move"",7412.1,2986.8,2590.2,4425.4,396.6,""oops"",""up"",""up"",""good_move"",13609.9,6197.3,2663,10509.9,437,""oops"",""up"",""left"",""bad_move"",16574.9,2964.2,2525.9,13610.7,438.3,""oops"",""up"",""up"",""good_move"",22790.7,6215.3,2663,19644.8,482.9,""smooth"",""right"",""right"",""good_move""]","",""
"5200","","<div style=""width:500px;"">
  <p>What determined the result of this run?</p>
  </div>","100","html-slider-response","30","377181","0.0-5.0-1.4","285","1","2025-07-30 10:33:18","1f75c3e559b7213887762d5229550c2b","41.56.171.116","Mozilla/5.0 (Windows NT 10.0; Win64; x64) AppleWebKit/537.36 (KHTML, like Gecko) Chrome/138.0.0.0 Safari/537.36","WebKit","Chrome","138.0.0.0","Windows","10.0","https://app.prolific.com/","en-ZA,en-GB;q=0.9,en-US;q=0.8,en;q=0.7","60292aabf20c7d2af65541a7","6877631c9844ddd5501205fc","6889f4d371749e16eb66766c","3","1","60292aabf20c7d2af65541a7","3","1","2025-07-30T10:39:37.205Z","","","","","","","","","","","AttribQ","","50","","","","","","","","","","","","","","","","","","","","","","","","","","","","",""
"3303","","<div style=""width:500px;"">
  <p>How much control did you have over the ball?</p>
  </div>","100","html-slider-response","31","380485","0.0-5.0-2.4","285","1","2025-07-30 10:33:18","1f75c3e559b7213887762d5229550c2b","41.56.171.116","Mozilla/5.0 (Windows NT 10.0; Win64; x64) AppleWebKit/537.36 (KHTML, like Gecko) Chrome/138.0.0.0 Safari/537.36","WebKit","Chrome","138.0.0.0","Windows","10.0","https://app.prolific.com/","en-ZA,en-GB;q=0.9,en-US;q=0.8,en;q=0.7","60292aabf20c7d2af65541a7","6877631c9844ddd5501205fc","6889f4d371749e16eb66766c","3","1","60292aabf20c7d2af65541a7","3","1","2025-07-30T10:39:40.510Z","","","","","","","","","","","ControlQ","","50","","","","","","","","","","","","","","","","","","","","","","","","","","","","",""
"3263","","<div style=""width:500px;"">
  <p>How would you describe your current emotional state?</p>
  </div>","0","html-slider-response","32","383749","0.0-5.0-3.4","285","1","2025-07-30 10:33:18","1f75c3e559b7213887762d5229550c2b","41.56.171.116","Mozilla/5.0 (Windows NT 10.0; Win64; x64) AppleWebKit/537.36 (KHTML, like Gecko) Chrome/138.0.0.0 Safari/537.36","WebKit","Chrome","138.0.0.0","Windows","10.0","https://app.prolific.com/","en-ZA,en-GB;q=0.9,en-US;q=0.8,en;q=0.7","60292aabf20c7d2af65541a7","6877631c9844ddd5501205fc","6889f4d371749e16eb66766c","3","1","60292aabf20c7d2af65541a7","3","1","2025-07-30T10:39:43.774Z","","","","","","","","","","","StressQ","","50","","","","","","","","","","","","","","","","","","","","","","","","","","","","",""
"2758","","<div style=""width:500px;"">
  <p>What best describes how you currently feel?</p>
  </div>","100","html-slider-response","33","386509","0.0-5.0-4.4","285","1","2025-07-30 10:33:18","1f75c3e559b7213887762d5229550c2b","41.56.171.116","Mozilla/5.0 (Windows NT 10.0; Win64; x64) AppleWebKit/537.36 (KHTML, like Gecko) Chrome/138.0.0.0 Safari/537.36","WebKit","Chrome","138.0.0.0","Windows","10.0","https://app.prolific.com/","en-ZA,en-GB;q=0.9,en-US;q=0.8,en;q=0.7","60292aabf20c7d2af65541a7","6877631c9844ddd5501205fc","6889f4d371749e16eb66766c","3","1","60292aabf20c7d2af65541a7","3","1","2025-07-30T10:39:46.533Z","","","","","","","","","","","MotivationQ","","50","","","","","","","","","","","","","","","","","","","","","","","","","","","","",""
"","","","","ctl-task-cpt","34","418565","0.0-5.0-0.5","285","1","2025-07-30 10:33:18","1f75c3e559b7213887762d5229550c2b","41.56.171.116","Mozilla/5.0 (Windows NT 10.0; Win64; x64) AppleWebKit/537.36 (KHTML, like Gecko) Chrome/138.0.0.0 Safari/537.36","WebKit","Chrome","138.0.0.0","Windows","10.0","https://app.prolific.com/","en-ZA,en-GB;q=0.9,en-US;q=0.8,en;q=0.7","60292aabf20c7d2af65541a7","6877631c9844ddd5501205fc","6889f4d371749e16eb66766c","3","1","60292aabf20c7d2af65541a7","3","1","2025-07-30T10:40:18.589Z","","","","","","","","","","","","","","win-only","2","g1:SE,g2:NW","0.5","6","0","390171.5","1351.1","6352.3","29037.5","1","4","4","6","1","-1","-1","4","5","0.030303030303030304","1360","3000","-2340","[""down"",""right""]","{""num_key_presses"":6,""num_perfect"":2,""num_errors"":0,""num_randdir"":4,""num_randdir_good_moves"":2,""num_whilered"":0,""num_whileblue"":0,""num_blue"":1,""num_good_moves"":4}","[346.14285714285717,347.04910714285717,0.5,346.14285714285717,347.04910714285717,100.8,346.14285714285717,347.04910714285717,205.5,337.14285714285717,357.04910714285717,309.3,308.14285714285717,401.04910714285717,409.3,291.14285714285717,422.04910714285717,510.7,322.14285714285717,496.04910714285717,626.8,427.14285714285717,575.0491071428571,730.2,491.14285714285717,607.0491071428571,836,521.1428571428571,633.0491071428571,939.4,577.1428571428571,572.0491071428571,1040.9,610.1428571428571,590.0491071428571,1142.5,627.1428571428571,602.0491071428571,1245.4,630.1428571428571,613.0491071428571,1345.5,630.1428571428571,613.0491071428571,1445.5,630.1428571428571,613.0491071428571,1556,602.1428571428571,613.0491071428571,1658.8,377.14285714285717,634.0491071428571,1759.8,346.14285714285717,608.0491071428571,1875.1,288.14285714285717,567.0491071428571,1977.2,266.14285714285717,546.0491071428571,2081,239.14285714285714,511.04910714285717,2182.5,278.14285714285717,417.04910714285717,2286.3,288.14285714285717,390.04910714285717,2390.5,288.14285714285717,390.04910714285717,2494.4,299.14285714285717,392.04910714285717,2606.8,299.14285714285717,392.04910714285717,2709.3,299.14285714285717,392.04910714285717,2809.5,299.14285714285717,392.04910714285717,2910.3,299.14285714285717,392.04910714285717,3015.5,299.14285714285717,392.04910714285717,3125.1,299.14285714285717,392.04910714285717,3229.3,299.14285714285717,392.04910714285717,3341.3,299.14285714285717,392.04910714285717,3445.2,299.14285714285717,392.04910714285717,3549.6,299.14285714285717,392.04910714285717,3658,299.14285714285717,392.04910714285717,3760.3,299.14285714285717,392.04910714285717,3873.1,299.14285714285717,392.04910714285717,3973.4,299.14285714285717,392.04910714285717,4074.8,299.14285714285717,392.04910714285717,4180.7,299.14285714285717,392.04910714285717,4280.7,299.14285714285717,392.04910714285717,4391,299.14285714285717,392.04910714285717,4491.8,299.14285714285717,392.04910714285717,4594.2,299.14285714285717,392.04910714285717,4695.8,299.14285714285717,392.04910714285717,4808.1,299.14285714285717,392.04910714285717,4909.2]","[1625.8,1625.8,1000,0,625.8,""oops"",""right"",""up"",""bad_move"",4851.9,3225.4,2185.1,1626.5,1040.3,""oops"",""right"",""right"",""good_move"",11101.6,6249,2416.4,8155.1,530.1,""oops"",""right"",""left"",""bad_move"",14337.8,3235.6,2617,11102.2,618.6,""oops"",""down"",""down"",""good_move"",17752.7,3414.5,2850.1,14338.3,564.3,""smooth"",""down"",""down"",""good_move"",20168.6,2415.6,1905.8,17753,509.8,""smooth"",""right"",""right"",""good_move""]","",""
"3599","","<div style=""width:500px;"">
  <p>What determined the result of this run?</p>
  </div>","53","html-slider-response","35","422166","0.0-5.0-1.5","285","1","2025-07-30 10:33:18","1f75c3e559b7213887762d5229550c2b","41.56.171.116","Mozilla/5.0 (Windows NT 10.0; Win64; x64) AppleWebKit/537.36 (KHTML, like Gecko) Chrome/138.0.0.0 Safari/537.36","WebKit","Chrome","138.0.0.0","Windows","10.0","https://app.prolific.com/","en-ZA,en-GB;q=0.9,en-US;q=0.8,en;q=0.7","60292aabf20c7d2af65541a7","6877631c9844ddd5501205fc","6889f4d371749e16eb66766c","3","1","60292aabf20c7d2af65541a7","3","1","2025-07-30T10:40:22.190Z","","","","","","","","","","","AttribQ","","50","","","","","","","","","","","","","","","","","","","","","","","","","","","","",""
"6797","","<div style=""width:500px;"">
  <p>How much control did you have over the ball?</p>
  </div>","39","html-slider-response","36","428965","0.0-5.0-2.5","285","1","2025-07-30 10:33:18","1f75c3e559b7213887762d5229550c2b","41.56.171.116","Mozilla/5.0 (Windows NT 10.0; Win64; x64) AppleWebKit/537.36 (KHTML, like Gecko) Chrome/138.0.0.0 Safari/537.36","WebKit","Chrome","138.0.0.0","Windows","10.0","https://app.prolific.com/","en-ZA,en-GB;q=0.9,en-US;q=0.8,en;q=0.7","60292aabf20c7d2af65541a7","6877631c9844ddd5501205fc","6889f4d371749e16eb66766c","3","1","60292aabf20c7d2af65541a7","3","1","2025-07-30T10:40:28.989Z","","","","","","","","","","","ControlQ","","50","","","","","","","","","","","","","","","","","","","","","","","","","","","","",""
"3767","","<div style=""width:500px;"">
  <p>How would you describe your current emotional state?</p>
  </div>","36","html-slider-response","37","432733","0.0-5.0-3.5","285","1","2025-07-30 10:33:18","1f75c3e559b7213887762d5229550c2b","41.56.171.116","Mozilla/5.0 (Windows NT 10.0; Win64; x64) AppleWebKit/537.36 (KHTML, like Gecko) Chrome/138.0.0.0 Safari/537.36","WebKit","Chrome","138.0.0.0","Windows","10.0","https://app.prolific.com/","en-ZA,en-GB;q=0.9,en-US;q=0.8,en;q=0.7","60292aabf20c7d2af65541a7","6877631c9844ddd5501205fc","6889f4d371749e16eb66766c","3","1","60292aabf20c7d2af65541a7","3","1","2025-07-30T10:40:32.758Z","","","","","","","","","","","StressQ","","50","","","","","","","","","","","","","","","","","","","","","","","","","","","","",""
"3246","","<div style=""width:500px;"">
  <p>What best describes how you currently feel?</p>
  </div>","100","html-slider-response","38","435981","0.0-5.0-4.5","285","1","2025-07-30 10:33:18","1f75c3e559b7213887762d5229550c2b","41.56.171.116","Mozilla/5.0 (Windows NT 10.0; Win64; x64) AppleWebKit/537.36 (KHTML, like Gecko) Chrome/138.0.0.0 Safari/537.36","WebKit","Chrome","138.0.0.0","Windows","10.0","https://app.prolific.com/","en-ZA,en-GB;q=0.9,en-US;q=0.8,en;q=0.7","60292aabf20c7d2af65541a7","6877631c9844ddd5501205fc","6889f4d371749e16eb66766c","3","1","60292aabf20c7d2af65541a7","3","1","2025-07-30T10:40:36.005Z","","","","","","","","","","","MotivationQ","","50","","","","","","","","","","","","","","","","","","","","","","","","","","","","",""
"","","","","ctl-task-cpt","39","477057","0.0-5.0-0.6","285","1","2025-07-30 10:33:18","1f75c3e559b7213887762d5229550c2b","41.56.171.116","Mozilla/5.0 (Windows NT 10.0; Win64; x64) AppleWebKit/537.36 (KHTML, like Gecko) Chrome/138.0.0.0 Safari/537.36","WebKit","Chrome","138.0.0.0","Windows","10.0","https://app.prolific.com/","en-ZA,en-GB;q=0.9,en-US;q=0.8,en;q=0.7","60292aabf20c7d2af65541a7","6877631c9844ddd5501205fc","6889f4d371749e16eb66766c","3","1","60292aabf20c7d2af65541a7","3","1","2025-07-30T10:41:17.082Z","","","","","","","","","","","","","","win-only","0","g1:NW,g2:SE","0.4","7","0","439643.5","2039","7046.1","38056.6","1","4","8","6","1","-1","-1","3","4","0.022727272727272728","1191.7","3000","-2200","[""left"",""up""]","{""num_key_presses"":9,""num_perfect"":4,""num_errors"":0,""num_randdir"":5,""num_randdir_good_moves"":1,""num_whilered"":0,""num_whileblue"":0,""num_blue"":1,""num_good_moves"":5}","[349.14285714285717,349.04910714285717,0.5,349.14285714285717,349.04910714285717,110,349.14285714285717,349.04910714285717,212,351.14285714285717,355.04910714285717,312.2,351.14285714285717,355.04910714285717,417.5,370.14285714285717,433.04910714285717,523.1,387.14285714285717,479.04910714285717,626.3,90.14285714285714,357.04910714285717,727.1,79.14285714285714,215.04910714285714,833.1,70.14285714285714,162.04910714285714,943.6,76.14285714285714,122.04910714285714,1043.7,76.14285714285714,110.04910714285714,1145.1,76.14285714285714,110.04910714285714,1256.5,76.14285714285714,110.04910714285714,1360.3,86.14285714285714,125.04910714285714,1460.4,170.14285714285714,228.04910714285714,1563.3,222.14285714285714,294.04910714285717,1666.7,236.14285714285714,368.04910714285717,1771.3,236.14285714285714,368.04910714285717,1874.9,237.14285714285714,370.04910714285717,1977,238.14285714285714,372.04910714285717,2078,238.14285714285714,372.04910714285717,2178.1,238.14285714285714,372.04910714285717,2292.7,238.14285714285714,372.04910714285717,2397.5,238.14285714285714,372.04910714285717,2509.7,238.14285714285714,372.04910714285717,2612.1,238.14285714285714,372.04910714285717,2721.5,238.14285714285714,372.04910714285717,2826.5,238.14285714285714,372.04910714285717,2927.1,238.14285714285714,372.04910714285717,3027.6,238.14285714285714,372.04910714285717,3131.6,238.14285714285714,372.04910714285717,3242.5,238.14285714285714,372.04910714285717,3354.3,238.14285714285714,372.04910714285717,3456.9,238.14285714285714,372.04910714285717,3558.7,238.14285714285714,372.04910714285717,3661.2,238.14285714285714,372.04910714285717,3762.2,238.14285714285714,372.04910714285717,3866.9,238.14285714285714,372.04910714285717,3970,238.14285714285714,372.04910714285717,4072.3,238.14285714285714,372.04910714285717,4177.9,238.14285714285714,372.04910714285717,4290.9,238.14285714285714,372.04910714285717,4393.2,238.14285714285714,372.04910714285717,4497.1,238.14285714285714,372.04910714285717,4601.4,238.14285714285714,372.04910714285717,4706.8,238.14285714285714,372.04910714285717,4806.8,238.14285714285714,372.04910714285717,4908.7]","[4865.2,4865.3,2390.3,2015.7,459.3,""smooth"",""up"",""up"",""good_move"",7914.5,3048.6,2585.1,4865.9,463.5,""smooth"",""up"",""up"",""good_move"",10664.9,2750.2,2316.8,7914.7,433.4,""oops"",""left"",""right"",""bad_move"",13948.7,3283.3,2865.9,10665.4,417.4,""smooth"",""left"",""left"",""good_move"",16364.8,2415.6,1799.2,13949.3,616.3,""smooth"",""left"",""left"",""good_move"",19747.9,3382.9,2980.9,16365,402,""oops"",""left"",""right"",""bad_move"",22281.3,2532.8,2061.2,19748.5,471.6,""oops"",""left"",""down"",""bad_move"",25092.4,2810.7,2358.8,22281.7,451.9,""oops"",""left"",""down"",""bad_move"",28244.6,3151.6,2759.6,25093,392,""oops"",""left"",""left"",""good_move""]","",""
"3594","","<div style=""width:500px;"">
  <p>What determined the result of this run?</p>
  </div>","4","html-slider-response","40","480653","0.0-5.0-1.6","285","1","2025-07-30 10:33:18","1f75c3e559b7213887762d5229550c2b","41.56.171.116","Mozilla/5.0 (Windows NT 10.0; Win64; x64) AppleWebKit/537.36 (KHTML, like Gecko) Chrome/138.0.0.0 Safari/537.36","WebKit","Chrome","138.0.0.0","Windows","10.0","https://app.prolific.com/","en-ZA,en-GB;q=0.9,en-US;q=0.8,en;q=0.7","60292aabf20c7d2af65541a7","6877631c9844ddd5501205fc","6889f4d371749e16eb66766c","3","1","60292aabf20c7d2af65541a7","3","1","2025-07-30T10:41:20.678Z","","","","","","","","","","","AttribQ","","50","","","","","","","","","","","","","","","","","","","","","","","","","","","","",""
"3031","","<div style=""width:500px;"">
  <p>How much control did you have over the ball?</p>
  </div>","3","html-slider-response","41","483686","0.0-5.0-2.6","285","1","2025-07-30 10:33:18","1f75c3e559b7213887762d5229550c2b","41.56.171.116","Mozilla/5.0 (Windows NT 10.0; Win64; x64) AppleWebKit/537.36 (KHTML, like Gecko) Chrome/138.0.0.0 Safari/537.36","WebKit","Chrome","138.0.0.0","Windows","10.0","https://app.prolific.com/","en-ZA,en-GB;q=0.9,en-US;q=0.8,en;q=0.7","60292aabf20c7d2af65541a7","6877631c9844ddd5501205fc","6889f4d371749e16eb66766c","3","1","60292aabf20c7d2af65541a7","3","1","2025-07-30T10:41:23.710Z","","","","","","","","","","","ControlQ","","50","","","","","","","","","","","","","","","","","","","","","","","","","","","","",""
"2598","","<div style=""width:500px;"">
  <p>How would you describe your current emotional state?</p>
  </div>","62","html-slider-response","42","486285","0.0-5.0-3.6","285","1","2025-07-30 10:33:18","1f75c3e559b7213887762d5229550c2b","41.56.171.116","Mozilla/5.0 (Windows NT 10.0; Win64; x64) AppleWebKit/537.36 (KHTML, like Gecko) Chrome/138.0.0.0 Safari/537.36","WebKit","Chrome","138.0.0.0","Windows","10.0","https://app.prolific.com/","en-ZA,en-GB;q=0.9,en-US;q=0.8,en;q=0.7","60292aabf20c7d2af65541a7","6877631c9844ddd5501205fc","6889f4d371749e16eb66766c","3","1","60292aabf20c7d2af65541a7","3","1","2025-07-30T10:41:26.309Z","","","","","","","","","","","StressQ","","50","","","","","","","","","","","","","","","","","","","","","","","","","","","","",""
"2719","","<div style=""width:500px;"">
  <p>What best describes how you currently feel?</p>
  </div>","100","html-slider-response","43","489005","0.0-5.0-4.6","285","1","2025-07-30 10:33:18","1f75c3e559b7213887762d5229550c2b","41.56.171.116","Mozilla/5.0 (Windows NT 10.0; Win64; x64) AppleWebKit/537.36 (KHTML, like Gecko) Chrome/138.0.0.0 Safari/537.36","WebKit","Chrome","138.0.0.0","Windows","10.0","https://app.prolific.com/","en-ZA,en-GB;q=0.9,en-US;q=0.8,en;q=0.7","60292aabf20c7d2af65541a7","6877631c9844ddd5501205fc","6889f4d371749e16eb66766c","3","1","60292aabf20c7d2af65541a7","3","1","2025-07-30T10:41:29.030Z","","","","","","","","","","","MotivationQ","","50","","","","","","","","","","","","","","","","","","","","","","","","","","","","",""
"","","","","ctl-task-cpt","44","520240","0.0-5.0-0.7","285","1","2025-07-30 10:33:18","1f75c3e559b7213887762d5229550c2b","41.56.171.116","Mozilla/5.0 (Windows NT 10.0; Win64; x64) AppleWebKit/537.36 (KHTML, like Gecko) Chrome/138.0.0.0 Safari/537.36","WebKit","Chrome","138.0.0.0","Windows","10.0","https://app.prolific.com/","en-ZA,en-GB;q=0.9,en-US;q=0.8,en;q=0.7","60292aabf20c7d2af65541a7","6877631c9844ddd5501205fc","6889f4d371749e16eb66766c","3","1","60292aabf20c7d2af65541a7","3","1","2025-07-30T10:42:00.264Z","","","","","","","","","","","","","","win-only","0","g1:NW,g2:SE","0.3","8","0","492667.8","1117.9","6121.6","28211","1","4","4","6","1","1","1","4","3","0.030303030303030304","1372.3","3000","1245","[""left"",""up""]","{""num_key_presses"":6,""num_perfect"":2,""num_errors"":0,""num_randdir"":4,""num_randdir_good_moves"":3,""num_whilered"":0,""num_whileblue"":0,""num_blue"":2,""num_good_moves"":5}","[341.14285714285717,351.04910714285717,0.4,341.14285714285717,351.04910714285717,103.6,341.14285714285717,351.04910714285717,208.3,341.14285714285717,351.04910714285717,313,341.14285714285717,351.04910714285717,415.6,341.14285714285717,351.04910714285717,517.6,305.14285714285717,371.04910714285717,619.5,-200.85714285714286,140.04910714285714,722.9,-165.85714285714286,108.04910714285714,827.6,-163.85714285714286,108.04910714285714,928.3,96.14285714285714,118.04910714285714,1032.7,101.14285714285714,116.04910714285714,1132.7,95.14285714285714,105.04910714285714,1232.8,82.14285714285714,90.04910714285714,1333.5,82.14285714285714,89.04910714285714,1450.8,100.14285714285714,112.04910714285714,1570.3,104.14285714285714,125.04910714285714,1672.7,135.14285714285714,199.04910714285714,1773.6,145.14285714285714,214.04910714285714,1877.7,144.14285714285714,226.04910714285714,1977.7,180.14285714285714,262.04910714285717,2078.5,180.14285714285714,262.04910714285717,2182.9,180.14285714285714,262.04910714285717,2283,180.14285714285714,262.04910714285717,2383.7,180.14285714285714,262.04910714285717,2487.8,180.14285714285714,262.04910714285717,2594,180.14285714285714,262.04910714285717,2697.9,180.14285714285714,262.04910714285717,2808.6,180.14285714285714,262.04910714285717,2908.6,180.14285714285714,262.04910714285717,3013,180.14285714285714,262.04910714285717,3118.2,180.14285714285714,262.04910714285717,3221.8,180.14285714285714,262.04910714285717,3322.7,180.14285714285714,262.04910714285717,3428.5,180.14285714285714,262.04910714285717,3533,180.14285714285714,262.04910714285717,3641.5,180.14285714285714,262.04910714285717,3743.7,180.14285714285714,262.04910714285717,3848.2,180.14285714285714,262.04910714285717,3953.6,180.14285714285714,262.04910714285717,4058.4,180.14285714285714,262.04910714285717,4163.5,180.14285714285714,262.04910714285717,4279.5,180.14285714285714,262.04910714285717,4381.7,180.14285714285714,262.04910714285717,4483.5,180.14285714285714,262.04910714285717,4587.7,180.14285714285714,262.04910714285717,4701,180.14285714285714,262.04910714285717,4803,180.14285714285714,262.04910714285717,4903.5]","[1449,1449.1,1000,0,449.1,""oops"",""left"",""left"",""good_move"",3744.1,2294.2,1872.6,1449.9,421.6,""oops"",""left"",""up"",""good_move"",6296.6,2552,2165.6,3744.6,386.4,""oops"",""left"",""right"",""bad_move"",16456.4,10159.1,2673.4,13324.9,458.1,""oops"",""left"",""left"",""good_move"",19141,2684.2,2176.4,16456.9,507.7,""smooth"",""left"",""left"",""good_move"",21952.3,2811.2,2352.5,19141.2,458.7,""smooth"",""up"",""up"",""good_move""]","",""
"3228","","<div style=""width:500px;"">
  <p>What determined the result of this run?</p>
  </div>","70","html-slider-response","45","523470","0.0-5.0-1.7","285","1","2025-07-30 10:33:18","1f75c3e559b7213887762d5229550c2b","41.56.171.116","Mozilla/5.0 (Windows NT 10.0; Win64; x64) AppleWebKit/537.36 (KHTML, like Gecko) Chrome/138.0.0.0 Safari/537.36","WebKit","Chrome","138.0.0.0","Windows","10.0","https://app.prolific.com/","en-ZA,en-GB;q=0.9,en-US;q=0.8,en;q=0.7","60292aabf20c7d2af65541a7","6877631c9844ddd5501205fc","6889f4d371749e16eb66766c","3","1","60292aabf20c7d2af65541a7","3","1","2025-07-30T10:42:03.494Z","","","","","","","","","","","AttribQ","","50","","","","","","","","","","","","","","","","","","","","","","","","","","","","",""
"2822","","<div style=""width:500px;"">
  <p>How much control did you have over the ball?</p>
  </div>","66","html-slider-response","46","526293","0.0-5.0-2.7","285","1","2025-07-30 10:33:18","1f75c3e559b7213887762d5229550c2b","41.56.171.116","Mozilla/5.0 (Windows NT 10.0; Win64; x64) AppleWebKit/537.36 (KHTML, like Gecko) Chrome/138.0.0.0 Safari/537.36","WebKit","Chrome","138.0.0.0","Windows","10.0","https://app.prolific.com/","en-ZA,en-GB;q=0.9,en-US;q=0.8,en;q=0.7","60292aabf20c7d2af65541a7","6877631c9844ddd5501205fc","6889f4d371749e16eb66766c","3","1","60292aabf20c7d2af65541a7","3","1","2025-07-30T10:42:06.318Z","","","","","","","","","","","ControlQ","","50","","","","","","","","","","","","","","","","","","","","","","","","","","","","",""
"4182","","<div style=""width:500px;"">
  <p>How would you describe your current emotional state?</p>
  </div>","53","html-slider-response","47","530477","0.0-5.0-3.7","285","1","2025-07-30 10:33:18","1f75c3e559b7213887762d5229550c2b","41.56.171.116","Mozilla/5.0 (Windows NT 10.0; Win64; x64) AppleWebKit/537.36 (KHTML, like Gecko) Chrome/138.0.0.0 Safari/537.36","WebKit","Chrome","138.0.0.0","Windows","10.0","https://app.prolific.com/","en-ZA,en-GB;q=0.9,en-US;q=0.8,en;q=0.7","60292aabf20c7d2af65541a7","6877631c9844ddd5501205fc","6889f4d371749e16eb66766c","3","1","60292aabf20c7d2af65541a7","3","1","2025-07-30T10:42:10.501Z","","","","","","","","","","","StressQ","","50","","","","","","","","","","","","","","","","","","","","","","","","","","","","",""
"2895","","<div style=""width:500px;"">
  <p>What best describes how you currently feel?</p>
  </div>","100","html-slider-response","48","533373","0.0-5.0-4.7","285","1","2025-07-30 10:33:18","1f75c3e559b7213887762d5229550c2b","41.56.171.116","Mozilla/5.0 (Windows NT 10.0; Win64; x64) AppleWebKit/537.36 (KHTML, like Gecko) Chrome/138.0.0.0 Safari/537.36","WebKit","Chrome","138.0.0.0","Windows","10.0","https://app.prolific.com/","en-ZA,en-GB;q=0.9,en-US;q=0.8,en;q=0.7","60292aabf20c7d2af65541a7","6877631c9844ddd5501205fc","6889f4d371749e16eb66766c","3","1","60292aabf20c7d2af65541a7","3","1","2025-07-30T10:42:13.397Z","","","","","","","","","","","MotivationQ","","50","","","","","","","","","","","","","","","","","","","","","","","","","","","","",""
"","","","","ctl-task-cpt","49","576349","0.0-5.0-0.8","285","1","2025-07-30 10:33:18","1f75c3e559b7213887762d5229550c2b","41.56.171.116","Mozilla/5.0 (Windows NT 10.0; Win64; x64) AppleWebKit/537.36 (KHTML, like Gecko) Chrome/138.0.0.0 Safari/537.36","WebKit","Chrome","138.0.0.0","Windows","10.0","https://app.prolific.com/","en-ZA,en-GB;q=0.9,en-US;q=0.8,en;q=0.7","60292aabf20c7d2af65541a7","6877631c9844ddd5501205fc","6889f4d371749e16eb66766c","3","1","60292aabf20c7d2af65541a7","3","1","2025-07-30T10:42:56.373Z","","","","","","","","","","","","","","win-only","1","g1:NE,g2:SW","0.2","9","0","537035.6","2278.5","7291.1","39955.8","1","4","4","6","1","-1","-1","3","4","0.022727272727272728","1087.6","3000","-2525","[""up"",""right""]","{""num_key_presses"":7,""num_perfect"":1,""num_errors"":0,""num_randdir"":6,""num_randdir_good_moves"":1,""num_whilered"":0,""num_whileblue"":0,""num_blue"":3,""num_good_moves"":2}","[350.14285714285717,347.04910714285717,0.6,350.14285714285717,347.04910714285717,102.6,350.14285714285717,347.04910714285717,216.8,350.14285714285717,347.04910714285717,325.5,353.14285714285717,350.04910714285717,426.9,359.14285714285717,354.04910714285717,543.1,470.14285714285717,312.04910714285717,647.4,535.1428571428571,164.04910714285714,748.5,555.1428571428571,147.04910714285714,848.5,643.1428571428571,102.04910714285714,969.5,643.1428571428571,99.04910714285714,1080.5,643.1428571428571,99.04910714285714,1187.1,643.1428571428571,99.04910714285714,1291.3,580.1428571428571,178.04910714285714,1399.2,469.14285714285717,302.04910714285717,1518.8,449.14285714285717,321.04910714285717,1627.3,442.14285714285717,329.04910714285717,1728.5,441.14285714285717,331.04910714285717,1833.8,441.14285714285717,331.04910714285717,1944.5,441.14285714285717,331.04910714285717,2047.6,440.14285714285717,331.04910714285717,2152,436.14285714285717,333.04910714285717,2252.1,436.14285714285717,333.04910714285717,2359.5,436.14285714285717,333.04910714285717,2462,436.14285714285717,333.04910714285717,2565.1,436.14285714285717,333.04910714285717,2667.6,436.14285714285717,333.04910714285717,2772.6,436.14285714285717,333.04910714285717,2882.2,436.14285714285717,333.04910714285717,2982.5,436.14285714285717,333.04910714285717,3098.4,436.14285714285717,333.04910714285717,3202.4,436.14285714285717,333.04910714285717,3307.7,436.14285714285717,333.04910714285717,3412.5,436.14285714285717,333.04910714285717,3526.7,436.14285714285717,333.04910714285717,3627.4,436.14285714285717,333.04910714285717,3727.4,436.14285714285717,333.04910714285717,3832,436.14285714285717,333.04910714285717,3947.9,436.14285714285717,333.04910714285717,4060.7,436.14285714285717,333.04910714285717,4165.1,436.14285714285717,333.04910714285717,4281.8,436.14285714285717,333.04910714285717,4398,436.14285714285717,333.04910714285717,4498.3,436.14285714285717,333.04910714285717,4598.3,436.14285714285717,333.04910714285717,4702.1,436.14285714285717,333.04910714285717,4815.1,436.14285714285717,333.04910714285717,4927.2]","[1495.9,1495.9,1000,0,495.9,""oops"",""up"",""down"",""bad_move"",4831.5,3334.5,2874.2,1497,460.3,""smooth"",""up"",""up"",""good_move"",10181.3,5349.3,1843.3,7889.2,448.8,""oops"",""up"",""down"",""bad_move"",16908.6,6726.7,2218.6,14200.7,489.3,""oops"",""up"",""down"",""bad_move"",20139.6,3230.7,2642.6,16908.9,588.1,""oops"",""up"",""right"",""good_move"",27328.9,7188.6,3027.7,23859.3,441.9,""oops"",""up"",""left"",""bad_move"",30528.8,3199.4,2362.4,27329.4,837,""oops"",""up"",""left"",""bad_move""]","",""
"3655","","<div style=""width:500px;"">
  <p>What determined the result of this run?</p>
  </div>","0","html-slider-response","50","580006","0.0-5.0-1.8","285","1","2025-07-30 10:33:18","1f75c3e559b7213887762d5229550c2b","41.56.171.116","Mozilla/5.0 (Windows NT 10.0; Win64; x64) AppleWebKit/537.36 (KHTML, like Gecko) Chrome/138.0.0.0 Safari/537.36","WebKit","Chrome","138.0.0.0","Windows","10.0","https://app.prolific.com/","en-ZA,en-GB;q=0.9,en-US;q=0.8,en;q=0.7","60292aabf20c7d2af65541a7","6877631c9844ddd5501205fc","6889f4d371749e16eb66766c","3","1","60292aabf20c7d2af65541a7","3","1","2025-07-30T10:43:00.030Z","","","","","","","","","","","AttribQ","","50","","","","","","","","","","","","","","","","","","","","","","","","","","","","",""
"3607","","<div style=""width:500px;"">
  <p>How much control did you have over the ball?</p>
  </div>","3","html-slider-response","51","583615","0.0-5.0-2.8","285","1","2025-07-30 10:33:18","1f75c3e559b7213887762d5229550c2b","41.56.171.116","Mozilla/5.0 (Windows NT 10.0; Win64; x64) AppleWebKit/537.36 (KHTML, like Gecko) Chrome/138.0.0.0 Safari/537.36","WebKit","Chrome","138.0.0.0","Windows","10.0","https://app.prolific.com/","en-ZA,en-GB;q=0.9,en-US;q=0.8,en;q=0.7","60292aabf20c7d2af65541a7","6877631c9844ddd5501205fc","6889f4d371749e16eb66766c","3","1","60292aabf20c7d2af65541a7","3","1","2025-07-30T10:43:03.639Z","","","","","","","","","","","ControlQ","","50","","","","","","","","","","","","","","","","","","","","","","","","","","","","",""
"2420","","<div style=""width:500px;"">
  <p>How would you describe your current emotional state?</p>
  </div>","61","html-slider-response","52","586037","0.0-5.0-3.8","285","1","2025-07-30 10:33:18","1f75c3e559b7213887762d5229550c2b","41.56.171.116","Mozilla/5.0 (Windows NT 10.0; Win64; x64) AppleWebKit/537.36 (KHTML, like Gecko) Chrome/138.0.0.0 Safari/537.36","WebKit","Chrome","138.0.0.0","Windows","10.0","https://app.prolific.com/","en-ZA,en-GB;q=0.9,en-US;q=0.8,en;q=0.7","60292aabf20c7d2af65541a7","6877631c9844ddd5501205fc","6889f4d371749e16eb66766c","3","1","60292aabf20c7d2af65541a7","3","1","2025-07-30T10:43:06.061Z","","","","","","","","","","","StressQ","","50","","","","","","","","","","","","","","","","","","","","","","","","","","","","",""
"2519","","<div style=""width:500px;"">
  <p>What best describes how you currently feel?</p>
  </div>","100","html-slider-response","53","588558","0.0-5.0-4.8","285","1","2025-07-30 10:33:18","1f75c3e559b7213887762d5229550c2b","41.56.171.116","Mozilla/5.0 (Windows NT 10.0; Win64; x64) AppleWebKit/537.36 (KHTML, like Gecko) Chrome/138.0.0.0 Safari/537.36","WebKit","Chrome","138.0.0.0","Windows","10.0","https://app.prolific.com/","en-ZA,en-GB;q=0.9,en-US;q=0.8,en;q=0.7","60292aabf20c7d2af65541a7","6877631c9844ddd5501205fc","6889f4d371749e16eb66766c","3","1","60292aabf20c7d2af65541a7","3","1","2025-07-30T10:43:08.582Z","","","","","","","","","","","MotivationQ","","50","","","","","","","","","","","","","","","","","","","","","","","","","","","","",""
"","","","","ctl-task-cpt","54","638346","0.0-5.0-0.9","285","1","2025-07-30 10:33:18","1f75c3e559b7213887762d5229550c2b","41.56.171.116","Mozilla/5.0 (Windows NT 10.0; Win64; x64) AppleWebKit/537.36 (KHTML, like Gecko) Chrome/138.0.0.0 Safari/537.36","WebKit","Chrome","138.0.0.0","Windows","10.0","https://app.prolific.com/","en-ZA,en-GB;q=0.9,en-US;q=0.8,en;q=0.7","60292aabf20c7d2af65541a7","6877631c9844ddd5501205fc","6889f4d371749e16eb66766c","3","1","60292aabf20c7d2af65541a7","3","1","2025-07-30T10:43:58.370Z","","","","","","","","","","","","","","win-only","2","g1:SE,g2:NW","0.4","10","0","592220.5","2582.4","7586.6","46766.3","1","4","8","6","1","-1","-2","1","3","0.007575757575757576","1207.3","3000","-2340","[""down"",""right""]","{""num_key_presses"":8,""num_perfect"":2,""num_errors"":1,""num_randdir"":5,""num_randdir_good_moves"":2,""num_whilered"":0,""num_whileblue"":0,""num_blue"":4,""num_good_moves"":4}","[352.14285714285717,345.04910714285717,0.5,352.14285714285717,345.04910714285717,103.6,352.14285714285717,345.04910714285717,212.5,352.14285714285717,345.04910714285717,313.5,352.14285714285717,345.04910714285717,413.5,353.14285714285717,345.04910714285717,518.2,460.14285714285717,489.04910714285717,618.4,485.14285714285717,506.04910714285717,718.5,535.1428571428571,529.0491071428571,827,552.1428571428571,589.0491071428571,929.5,595.1428571428571,624.0491071428571,1029.7,595.1428571428571,624.0491071428571,1130,595.1428571428571,624.0491071428571,1233.3,596.1428571428571,624.0491071428571,1348.3,596.1428571428571,624.0491071428571,1449.5,596.1428571428571,624.0491071428571,1561.7,595.1428571428571,624.0491071428571,1663.4,595.1428571428571,624.0491071428571,1763.8,595.1428571428571,624.0491071428571,1864.4,595.1428571428571,624.0491071428571,1969.5,595.1428571428571,624.0491071428571,2069.5,595.1428571428571,624.0491071428571,2169.5,595.1428571428571,624.0491071428571,2284,595.1428571428571,624.0491071428571,2398.5,595.1428571428571,624.0491071428571,2498.5,595.1428571428571,624.0491071428571,2603.6,595.1428571428571,624.0491071428571,2715.5,595.1428571428571,624.0491071428571,2818.4,595.1428571428571,624.0491071428571,2927.5,595.1428571428571,624.0491071428571,3032.4,595.1428571428571,624.0491071428571,3134,595.1428571428571,624.0491071428571,3245.7,595.1428571428571,624.0491071428571,3348.3,595.1428571428571,624.0491071428571,3448.4,595.1428571428571,624.0491071428571,3549.4,595.1428571428571,624.0491071428571,3649.4,595.1428571428571,624.0491071428571,3754.8,595.1428571428571,624.0491071428571,3858.4,595.1428571428571,624.0491071428571,3961.9,595.1428571428571,624.0491071428571,4065.6,595.1428571428571,624.0491071428571,4168.8,595.1428571428571,624.0491071428571,4273.4,595.1428571428571,624.0491071428571,4374.5,595.1428571428571,624.0491071428571,4481.5,595.1428571428571,624.0491071428571,4584.2,595.1428571428571,624.0491071428571,4688.4,595.1428571428571,624.0491071428571,4788.9,595.1428571428571,624.0491071428571,4895.8,595.1428571428571,624.0491071428571,4999.2]","[1511.9,1511.9,1000,0,511.9,""smooth"",""down"",""down"",""good_move"",12526.6,11014.1,2796,9239,491.6,""oops"",""down"",""left"",""bad_move"",15686.9,3159.8,2479.3,12527.1,680.5,""smooth"",""down"",""down"",""good_move"",19217.9,3529.9,2796.3,15688,733.6,""oops"",""right"",""right"",""good_move"",22148.6,2930,2416.7,19218.7,513.3,""oops"",""right"",""left"",""bad_move"",24848.1,2698.7,2185.2,22149.4,513.5,""oops"",""right"",""right"",""good_move"",27518.4,2669.9,2214.3,24848.5,455.6,""oops"",""right"",""left"",""bad_move"",31390.5,3871.5,2301.5,30889.7,-1800.7,""error"",""-"",""-"",""no_move""]","",""
"3098","","<div style=""width:500px;"">
  <p>What determined the result of this run?</p>
  </div>","53","html-slider-response","55","641445","0.0-5.0-1.9","285","1","2025-07-30 10:33:18","1f75c3e559b7213887762d5229550c2b","41.56.171.116","Mozilla/5.0 (Windows NT 10.0; Win64; x64) AppleWebKit/537.36 (KHTML, like Gecko) Chrome/138.0.0.0 Safari/537.36","WebKit","Chrome","138.0.0.0","Windows","10.0","https://app.prolific.com/","en-ZA,en-GB;q=0.9,en-US;q=0.8,en;q=0.7","60292aabf20c7d2af65541a7","6877631c9844ddd5501205fc","6889f4d371749e16eb66766c","3","1","60292aabf20c7d2af65541a7","3","1","2025-07-30T10:44:01.469Z","","","","","","","","","","","AttribQ","","50","","","","","","","","","","","","","","","","","","","","","","","","","","","","",""
"3158","","<div style=""width:500px;"">
  <p>How much control did you have over the ball?</p>
  </div>","4","html-slider-response","56","644605","0.0-5.0-2.9","285","1","2025-07-30 10:33:18","1f75c3e559b7213887762d5229550c2b","41.56.171.116","Mozilla/5.0 (Windows NT 10.0; Win64; x64) AppleWebKit/537.36 (KHTML, like Gecko) Chrome/138.0.0.0 Safari/537.36","WebKit","Chrome","138.0.0.0","Windows","10.0","https://app.prolific.com/","en-ZA,en-GB;q=0.9,en-US;q=0.8,en;q=0.7","60292aabf20c7d2af65541a7","6877631c9844ddd5501205fc","6889f4d371749e16eb66766c","3","1","60292aabf20c7d2af65541a7","3","1","2025-07-30T10:44:04.629Z","","","","","","","","","","","ControlQ","","50","","","","","","","","","","","","","","","","","","","","","","","","","","","","",""
"3454","","<div style=""width:500px;"">
  <p>How would you describe your current emotional state?</p>
  </div>","100","html-slider-response","57","648062","0.0-5.0-3.9","285","1","2025-07-30 10:33:18","1f75c3e559b7213887762d5229550c2b","41.56.171.116","Mozilla/5.0 (Windows NT 10.0; Win64; x64) AppleWebKit/537.36 (KHTML, like Gecko) Chrome/138.0.0.0 Safari/537.36","WebKit","Chrome","138.0.0.0","Windows","10.0","https://app.prolific.com/","en-ZA,en-GB;q=0.9,en-US;q=0.8,en;q=0.7","60292aabf20c7d2af65541a7","6877631c9844ddd5501205fc","6889f4d371749e16eb66766c","3","1","60292aabf20c7d2af65541a7","3","1","2025-07-30T10:44:08.086Z","","","","","","","","","","","StressQ","","50","","","","","","","","","","","","","","","","","","","","","","","","","","","","",""
"2646","","<div style=""width:500px;"">
  <p>What best describes how you currently feel?</p>
  </div>","100","html-slider-response","58","650710","0.0-5.0-4.9","285","1","2025-07-30 10:33:18","1f75c3e559b7213887762d5229550c2b","41.56.171.116","Mozilla/5.0 (Windows NT 10.0; Win64; x64) AppleWebKit/537.36 (KHTML, like Gecko) Chrome/138.0.0.0 Safari/537.36","WebKit","Chrome","138.0.0.0","Windows","10.0","https://app.prolific.com/","en-ZA,en-GB;q=0.9,en-US;q=0.8,en;q=0.7","60292aabf20c7d2af65541a7","6877631c9844ddd5501205fc","6889f4d371749e16eb66766c","3","1","60292aabf20c7d2af65541a7","3","1","2025-07-30T10:44:10.734Z","","","","","","","","","","","MotivationQ","","50","","","","","","","","","","","","","","","","","","","","","","","","","","","","",""
"","","","","ctl-task-cpt","59","683243","0.0-5.0-0.10","285","1","2025-07-30 10:33:18","1f75c3e559b7213887762d5229550c2b","41.56.171.116","Mozilla/5.0 (Windows NT 10.0; Win64; x64) AppleWebKit/537.36 (KHTML, like Gecko) Chrome/138.0.0.0 Safari/537.36","WebKit","Chrome","138.0.0.0","Windows","10.0","https://app.prolific.com/","en-ZA,en-GB;q=0.9,en-US;q=0.8,en;q=0.7","60292aabf20c7d2af65541a7","6877631c9844ddd5501205fc","6889f4d371749e16eb66766c","3","1","60292aabf20c7d2af65541a7","3","1","2025-07-30T10:44:43.267Z","","","","","","","","","","","","","","win-only","2","g1:SE,g2:NW","0.5","11","0","654372.6","1489.8","6491.7","29500.5","1","4","8","6","1","1","1","2","1","0.015151515151515152","1091.6","3000","910","[""down"",""right""]","{""num_key_presses"":6,""num_perfect"":4,""num_errors"":0,""num_randdir"":2,""num_randdir_good_moves"":1,""num_whilered"":0,""num_whileblue"":0,""num_blue"":2,""num_good_moves"":5}","[344.14285714285717,357.04910714285717,0.3,344.14285714285717,357.04910714285717,102.1,344.14285714285717,357.04910714285717,206.8,344.14285714285717,357.04910714285717,312.1,344.14285714285717,357.04910714285717,415.7,481.14285714285717,507.04910714285717,516.7,510.14285714285717,541.0491071428571,618.6,538.1428571428571,571.0491071428571,720.7,574.1428571428571,615.0491071428571,831.5,621.1428571428571,651.0491071428571,938.9,618.1428571428571,651.0491071428571,1042.5,618.1428571428571,651.0491071428571,1147.7,611.1428571428571,648.0491071428571,1260.9,611.1428571428571,648.0491071428571,1361.4,611.1428571428571,648.0491071428571,1465.8,611.1428571428571,648.0491071428571,1567.9,611.1428571428571,648.0491071428571,1685.6,611.1428571428571,648.0491071428571,1803.5,611.1428571428571,648.0491071428571,1914.8,611.1428571428571,648.0491071428571,2025.5,611.1428571428571,648.0491071428571,2140.4,611.1428571428571,648.0491071428571,2242.5,611.1428571428571,648.0491071428571,2347,611.1428571428571,648.0491071428571,2452.4,611.1428571428571,648.0491071428571,2557.2,611.1428571428571,648.0491071428571,2659.8,611.1428571428571,648.0491071428571,2761.9,610.1428571428571,648.0491071428571,2866.2,610.1428571428571,648.0491071428571,2984.3,610.1428571428571,648.0491071428571,3098.1,610.1428571428571,648.0491071428571,3204.6,610.1428571428571,648.0491071428571,3311.5,610.1428571428571,648.0491071428571,3415.9,610.1428571428571,648.0491071428571,3519.4,610.1428571428571,648.0491071428571,3629.7,610.1428571428571,648.0491071428571,3738.8,610.1428571428571,648.0491071428571,3846.3,610.1428571428571,648.0491071428571,3951.5,610.1428571428571,648.0491071428571,4062.2,610.1428571428571,648.0491071428571,4167.3,610.1428571428571,648.0491071428571,4268.3,610.1428571428571,648.0491071428571,4372.3,610.1428571428571,648.0491071428571,4480.5,610.1428571428571,648.0491071428571,4581.7,610.1428571428571,648.0491071428571,4694,610.1428571428571,648.0491071428571,4795.7,610.1428571428571,648.0491071428571,4896.5,610.1428571428571,648.0491071428571,4996.9]","[1526,1526,1000,0,526,""oops"",""right"",""right"",""good_move"",4269.6,2742.9,2213.8,1526.7,529.1,""smooth"",""right"",""right"",""good_move"",7389.1,3118.7,2647.2,4270.4,471.5,""smooth"",""down"",""down"",""good_move"",13045.5,5655.9,2084.7,10465.7,495.2,""oops"",""down"",""up"",""bad_move"",19421.4,6375.3,2838,16124.1,459.3,""smooth"",""down"",""down"",""good_move"",22893.1,3471.2,2970.1,19422,501.1,""smooth"",""down"",""down"",""good_move""]","",""
"4905","","<div style=""width:500px;"">
  <p>What determined the result of this run?</p>
  </div>","99","html-slider-response","60","688150","0.0-5.0-1.10","285","1","2025-07-30 10:33:18","1f75c3e559b7213887762d5229550c2b","41.56.171.116","Mozilla/5.0 (Windows NT 10.0; Win64; x64) AppleWebKit/537.36 (KHTML, like Gecko) Chrome/138.0.0.0 Safari/537.36","WebKit","Chrome","138.0.0.0","Windows","10.0","https://app.prolific.com/","en-ZA,en-GB;q=0.9,en-US;q=0.8,en;q=0.7","60292aabf20c7d2af65541a7","6877631c9844ddd5501205fc","6889f4d371749e16eb66766c","3","1","60292aabf20c7d2af65541a7","3","1","2025-07-30T10:44:48.174Z","","","","","","","","","","","AttribQ","","50","","","","","","","","","","","","","","","","","","","","","","","","","","","","",""
"3862","","<div style=""width:500px;"">
  <p>How much control did you have over the ball?</p>
  </div>","45","html-slider-response","61","692013","0.0-5.0-2.10","285","1","2025-07-30 10:33:18","1f75c3e559b7213887762d5229550c2b","41.56.171.116","Mozilla/5.0 (Windows NT 10.0; Win64; x64) AppleWebKit/537.36 (KHTML, like Gecko) Chrome/138.0.0.0 Safari/537.36","WebKit","Chrome","138.0.0.0","Windows","10.0","https://app.prolific.com/","en-ZA,en-GB;q=0.9,en-US;q=0.8,en;q=0.7","60292aabf20c7d2af65541a7","6877631c9844ddd5501205fc","6889f4d371749e16eb66766c","3","1","60292aabf20c7d2af65541a7","3","1","2025-07-30T10:44:52.037Z","","","","","","","","","","","ControlQ","","50","","","","","","","","","","","","","","","","","","","","","","","","","","","","",""
"2633","","<div style=""width:500px;"">
  <p>How would you describe your current emotional state?</p>
  </div>","64","html-slider-response","62","694648","0.0-5.0-3.10","285","1","2025-07-30 10:33:18","1f75c3e559b7213887762d5229550c2b","41.56.171.116","Mozilla/5.0 (Windows NT 10.0; Win64; x64) AppleWebKit/537.36 (KHTML, like Gecko) Chrome/138.0.0.0 Safari/537.36","WebKit","Chrome","138.0.0.0","Windows","10.0","https://app.prolific.com/","en-ZA,en-GB;q=0.9,en-US;q=0.8,en;q=0.7","60292aabf20c7d2af65541a7","6877631c9844ddd5501205fc","6889f4d371749e16eb66766c","3","1","60292aabf20c7d2af65541a7","3","1","2025-07-30T10:44:54.672Z","","","","","","","","","","","StressQ","","50","","","","","","","","","","","","","","","","","","","","","","","","","","","","",""
"3084","","<div style=""width:500px;"">
  <p>What best describes how you currently feel?</p>
  </div>","100","html-slider-response","63","697733","0.0-5.0-4.10","285","1","2025-07-30 10:33:18","1f75c3e559b7213887762d5229550c2b","41.56.171.116","Mozilla/5.0 (Windows NT 10.0; Win64; x64) AppleWebKit/537.36 (KHTML, like Gecko) Chrome/138.0.0.0 Safari/537.36","WebKit","Chrome","138.0.0.0","Windows","10.0","https://app.prolific.com/","en-ZA,en-GB;q=0.9,en-US;q=0.8,en;q=0.7","60292aabf20c7d2af65541a7","6877631c9844ddd5501205fc","6889f4d371749e16eb66766c","3","1","60292aabf20c7d2af65541a7","3","1","2025-07-30T10:44:57.757Z","","","","","","","","","","","MotivationQ","","50","","","","","","","","","","","","","","","","","","","","","","","","","","","","",""
"","","","","ctl-task-cpt","64","737390","0.0-5.0-0.11","285","1","2025-07-30 10:33:18","1f75c3e559b7213887762d5229550c2b","41.56.171.116","Mozilla/5.0 (Windows NT 10.0; Win64; x64) AppleWebKit/537.36 (KHTML, like Gecko) Chrome/138.0.0.0 Safari/537.36","WebKit","Chrome","138.0.0.0","Windows","10.0","https://app.prolific.com/","en-ZA,en-GB;q=0.9,en-US;q=0.8,en;q=0.7","60292aabf20c7d2af65541a7","6877631c9844ddd5501205fc","6889f4d371749e16eb66766c","3","1","60292aabf20c7d2af65541a7","3","1","2025-07-30T10:45:37.414Z","","","","","","","","","","","","","","win-only","1","g1:NE,g2:SW","0.6","12","0","701395.8","1325.9","6338.4","36638.5","1","4","4","6","1","-1","-1","1","2","0.007575757575757576","1168.7","3000","-2145","[""up"",""right""]","{""num_key_presses"":9,""num_perfect"":5,""num_errors"":0,""num_randdir"":4,""num_randdir_good_moves"":1,""num_whilered"":0,""num_whileblue"":0,""num_blue"":1,""num_good_moves"":6}","[346.14285714285717,341.04910714285717,0.4,346.14285714285717,341.04910714285717,100.1,346.14285714285717,341.04910714285717,201.7,346.14285714285717,341.04910714285717,307.3,346.14285714285717,341.04910714285717,410.1,346.14285714285717,341.04910714285717,511.4,396.14285714285717,316.04910714285717,617.1,563.1428571428571,145.04910714285714,722,565.1428571428571,103.04910714285714,825.9,565.1428571428571,103.04910714285714,931,583.1428571428571,89.04910714285714,1038.5,604.1428571428571,70.04910714285714,1140.8,604.1428571428571,66.04910714285714,1246,604.1428571428571,66.04910714285714,1351.2,595.1428571428571,117.04910714285714,1457.9,504.14285714285717,238.04910714285714,1559.9,426.14285714285717,339.04910714285717,1660.4,409.14285714285717,378.04910714285717,1761.4,405.14285714285717,384.04910714285717,1861.7,405.14285714285717,384.04910714285717,1963.2,405.14285714285717,384.04910714285717,2065.2,405.14285714285717,384.04910714285717,2167.5,405.14285714285717,384.04910714285717,2273.4,405.14285714285717,384.04910714285717,2377.3,405.14285714285717,384.04910714285717,2481.3,405.14285714285717,384.04910714285717,2586.8,405.14285714285717,384.04910714285717,2699,405.14285714285717,384.04910714285717,2801,405.14285714285717,384.04910714285717,2914.2,405.14285714285717,384.04910714285717,3025.2,405.14285714285717,384.04910714285717,3135.3,405.14285714285717,384.04910714285717,3236.9,405.14285714285717,384.04910714285717,3345.7,405.14285714285717,384.04910714285717,3453.5,405.14285714285717,384.04910714285717,3555.3,405.14285714285717,384.04910714285717,3656.4,405.14285714285717,384.04910714285717,3758.1,405.14285714285717,384.04910714285717,3864.3,405.14285714285717,384.04910714285717,3965.7,405.14285714285717,384.04910714285717,4084.9,405.14285714285717,384.04910714285717,4186,405.14285714285717,384.04910714285717,4291,405.14285714285717,384.04910714285717,4392.1,405.14285714285717,384.04910714285717,4497,405.14285714285717,384.04910714285717,4597.2,405.14285714285717,384.04910714285717,4700.2,405.14285714285717,384.04910714285717,4800.8,405.14285714285717,384.04910714285717,4901.3]","[1549.9,1549.9,1000,0,549.9,""smooth"",""right"",""right"",""good_move"",3752.3,2201.7,1710.7,1550.6,491,""smooth"",""right"",""right"",""good_move"",6967.9,3214.8,2743.1,3753.1,471.7,""oops"",""up"",""down"",""bad_move"",10759.4,3790.8,3379.7,6968.6,411.1,""oops"",""up"",""down"",""bad_move"",16646.1,5885.9,2044.9,14191.4,409.8,""smooth"",""up"",""up"",""good_move"",19007.2,2360.7,1927.6,16646.5,433.1,""oops"",""up"",""down"",""bad_move"",21463.7,2456.1,1893,19007.7,563.1,""smooth"",""up"",""up"",""good_move"",24511.4,3047.1,2607.3,21464.4,439.7,""smooth"",""up"",""up"",""good_move"",27471.3,2959.4,2526.5,24511.9,432.9,""oops"",""up"",""up"",""good_move""]","",""
"2997","","<div style=""width:500px;"">
  <p>What determined the result of this run?</p>
  </div>","36","html-slider-response","65","740389","0.0-5.0-1.11","285","1","2025-07-30 10:33:18","1f75c3e559b7213887762d5229550c2b","41.56.171.116","Mozilla/5.0 (Windows NT 10.0; Win64; x64) AppleWebKit/537.36 (KHTML, like Gecko) Chrome/138.0.0.0 Safari/537.36","WebKit","Chrome","138.0.0.0","Windows","10.0","https://app.prolific.com/","en-ZA,en-GB;q=0.9,en-US;q=0.8,en;q=0.7","60292aabf20c7d2af65541a7","6877631c9844ddd5501205fc","6889f4d371749e16eb66766c","3","1","60292aabf20c7d2af65541a7","3","1","2025-07-30T10:45:40.414Z","","","","","","","","","","","AttribQ","","50","","","","","","","","","","","","","","","","","","","","","","","","","","","","",""
"2151","","<div style=""width:500px;"">
  <p>How much control did you have over the ball?</p>
  </div>","39","html-slider-response","66","742542","0.0-5.0-2.11","285","1","2025-07-30 10:33:18","1f75c3e559b7213887762d5229550c2b","41.56.171.116","Mozilla/5.0 (Windows NT 10.0; Win64; x64) AppleWebKit/537.36 (KHTML, like Gecko) Chrome/138.0.0.0 Safari/537.36","WebKit","Chrome","138.0.0.0","Windows","10.0","https://app.prolific.com/","en-ZA,en-GB;q=0.9,en-US;q=0.8,en;q=0.7","60292aabf20c7d2af65541a7","6877631c9844ddd5501205fc","6889f4d371749e16eb66766c","3","1","60292aabf20c7d2af65541a7","3","1","2025-07-30T10:45:42.566Z","","","","","","","","","","","ControlQ","","50","","","","","","","","","","","","","","","","","","","","","","","","","","","","",""
"3133","","<div style=""width:500px;"">
  <p>How would you describe your current emotional state?</p>
  </div>","75","html-slider-response","67","745677","0.0-5.0-3.11","285","1","2025-07-30 10:33:18","1f75c3e559b7213887762d5229550c2b","41.56.171.116","Mozilla/5.0 (Windows NT 10.0; Win64; x64) AppleWebKit/537.36 (KHTML, like Gecko) Chrome/138.0.0.0 Safari/537.36","WebKit","Chrome","138.0.0.0","Windows","10.0","https://app.prolific.com/","en-ZA,en-GB;q=0.9,en-US;q=0.8,en;q=0.7","60292aabf20c7d2af65541a7","6877631c9844ddd5501205fc","6889f4d371749e16eb66766c","3","1","60292aabf20c7d2af65541a7","3","1","2025-07-30T10:45:45.702Z","","","","","","","","","","","StressQ","","50","","","","","","","","","","","","","","","","","","","","","","","","","","","","",""
"3734","","<div style=""width:500px;"">
  <p>What best describes how you currently feel?</p>
  </div>","97","html-slider-response","68","749413","0.0-5.0-4.11","285","1","2025-07-30 10:33:18","1f75c3e559b7213887762d5229550c2b","41.56.171.116","Mozilla/5.0 (Windows NT 10.0; Win64; x64) AppleWebKit/537.36 (KHTML, like Gecko) Chrome/138.0.0.0 Safari/537.36","WebKit","Chrome","138.0.0.0","Windows","10.0","https://app.prolific.com/","en-ZA,en-GB;q=0.9,en-US;q=0.8,en;q=0.7","60292aabf20c7d2af65541a7","6877631c9844ddd5501205fc","6889f4d371749e16eb66766c","3","1","60292aabf20c7d2af65541a7","3","1","2025-07-30T10:45:49.437Z","","","","","","","","","","","MotivationQ","","50","","","","","","","","","","","","","","","","","","","","","","","","","","","","",""
"","","","","ctl-task-cpt","69","779628","0.0-5.0-0.12","285","1","2025-07-30 10:33:18","1f75c3e559b7213887762d5229550c2b","41.56.171.116","Mozilla/5.0 (Windows NT 10.0; Win64; x64) AppleWebKit/537.36 (KHTML, like Gecko) Chrome/138.0.0.0 Safari/537.36","WebKit","Chrome","138.0.0.0","Windows","10.0","https://app.prolific.com/","en-ZA,en-GB;q=0.9,en-US;q=0.8,en;q=0.7","60292aabf20c7d2af65541a7","6877631c9844ddd5501205fc","6889f4d371749e16eb66766c","3","1","60292aabf20c7d2af65541a7","3","1","2025-07-30T10:46:19.652Z","","","","","","","","","","","","","","win-only","1","g1:NE,g2:SW","0.7","13","0","753077.6","1012.4","6017.4","27187.2","1","4","8","6","1","1","1","2","1","0.015151515151515152","1203.8","3000","1300","[""up"",""right""]","{""num_key_presses"":6,""num_perfect"":4,""num_errors"":0,""num_randdir"":2,""num_randdir_good_moves"":1,""num_whilered"":0,""num_whileblue"":0,""num_blue"":1,""num_good_moves"":5}","[345.14285714285717,350.04910714285717,0.5,345.14285714285717,350.04910714285717,104.7,345.14285714285717,350.04910714285717,205.4,345.14285714285717,350.04910714285717,308.6,345.14285714285717,350.04910714285717,432.9,345.14285714285717,350.04910714285717,533.2,707.1428571428571,238.04910714285714,647.6,667.1428571428571,178.04910714285714,751.6,660.1428571428571,145.04910714285714,853.3,646.1428571428571,93.04910714285714,954.5,643.1428571428571,78.04910714285714,1059.1,643.1428571428571,78.04910714285714,1163.4,643.1428571428571,78.04910714285714,1266.3,643.1428571428571,78.04910714285714,1372.4,638.1428571428571,95.04910714285714,1473.1,565.1428571428571,214.04910714285714,1593.6,530.1428571428571,302.04910714285717,1717,505.14285714285717,344.04910714285717,1818.8,502.14285714285717,354.04910714285717,1938.2,497.14285714285717,356.04910714285717,2042.6,497.14285714285717,356.04910714285717,2144.7,497.14285714285717,356.04910714285717,2245.6,497.14285714285717,356.04910714285717,2358,497.14285714285717,356.04910714285717,2459.8,497.14285714285717,356.04910714285717,2560,497.14285714285717,356.04910714285717,2676.2,497.14285714285717,356.04910714285717,2777.4,497.14285714285717,356.04910714285717,2879.5,497.14285714285717,356.04910714285717,2990.2,497.14285714285717,356.04910714285717,3106.3,497.14285714285717,356.04910714285717,3221.9,497.14285714285717,356.04910714285717,3323.5,497.14285714285717,356.04910714285717,3424.2,497.14285714285717,356.04910714285717,3530.6,497.14285714285717,356.04910714285717,3632.8,497.14285714285717,356.04910714285717,3734.1,497.14285714285717,356.04910714285717,3835.2,497.14285714285717,356.04910714285717,3941.3,497.14285714285717,356.04910714285717,4050.7,497.14285714285717,356.04910714285717,4156.2,497.14285714285717,356.04910714285717,4272,497.14285714285717,356.04910714285717,4374.2,497.14285714285717,356.04910714285717,4475.7,497.14285714285717,356.04910714285717,4590.6,497.14285714285717,356.04910714285717,4693.8,497.14285714285717,356.04910714285717,4805.9,497.14285714285717,356.04910714285717,4909.1]","[1470.7,1470.7,1000,0,470.7,""smooth"",""up"",""up"",""good_move"",4486.2,3014.5,2593.3,1471.7,421.2,""smooth"",""up"",""up"",""good_move"",7974.5,3487.8,3071.8,4486.7,416,""oops"",""right"",""left"",""bad_move"",15134.9,7159.9,2311.5,12418.7,404.7,""smooth"",""right"",""right"",""good_move"",17734,2597.4,2033.1,15136.6,564.3,""smooth"",""right"",""right"",""good_move"",20998.9,3264.7,2777.4,17734.3,487.3,""oops"",""right"",""right"",""good_move""]","",""
"4304","","<div style=""width:500px;"">
  <p>What determined the result of this run?</p>
  </div>","96","html-slider-response","70","783934","0.0-5.0-1.12","285","1","2025-07-30 10:33:18","1f75c3e559b7213887762d5229550c2b","41.56.171.116","Mozilla/5.0 (Windows NT 10.0; Win64; x64) AppleWebKit/537.36 (KHTML, like Gecko) Chrome/138.0.0.0 Safari/537.36","WebKit","Chrome","138.0.0.0","Windows","10.0","https://app.prolific.com/","en-ZA,en-GB;q=0.9,en-US;q=0.8,en;q=0.7","60292aabf20c7d2af65541a7","6877631c9844ddd5501205fc","6889f4d371749e16eb66766c","3","1","60292aabf20c7d2af65541a7","3","1","2025-07-30T10:46:23.958Z","","","","","","","","","","","AttribQ","","50","","","","","","","","","","","","","","","","","","","","","","","","","","","","",""
"2134","","<div style=""width:500px;"">
  <p>How much control did you have over the ball?</p>
  </div>","75","html-slider-response","71","786070","0.0-5.0-2.12","285","1","2025-07-30 10:33:18","1f75c3e559b7213887762d5229550c2b","41.56.171.116","Mozilla/5.0 (Windows NT 10.0; Win64; x64) AppleWebKit/537.36 (KHTML, like Gecko) Chrome/138.0.0.0 Safari/537.36","WebKit","Chrome","138.0.0.0","Windows","10.0","https://app.prolific.com/","en-ZA,en-GB;q=0.9,en-US;q=0.8,en;q=0.7","60292aabf20c7d2af65541a7","6877631c9844ddd5501205fc","6889f4d371749e16eb66766c","3","1","60292aabf20c7d2af65541a7","3","1","2025-07-30T10:46:26.094Z","","","","","","","","","","","ControlQ","","50","","","","","","","","","","","","","","","","","","","","","","","","","","","","",""
"2230","","<div style=""width:500px;"">
  <p>How would you describe your current emotional state?</p>
  </div>","64","html-slider-response","72","788302","0.0-5.0-3.12","285","1","2025-07-30 10:33:18","1f75c3e559b7213887762d5229550c2b","41.56.171.116","Mozilla/5.0 (Windows NT 10.0; Win64; x64) AppleWebKit/537.36 (KHTML, like Gecko) Chrome/138.0.0.0 Safari/537.36","WebKit","Chrome","138.0.0.0","Windows","10.0","https://app.prolific.com/","en-ZA,en-GB;q=0.9,en-US;q=0.8,en;q=0.7","60292aabf20c7d2af65541a7","6877631c9844ddd5501205fc","6889f4d371749e16eb66766c","3","1","60292aabf20c7d2af65541a7","3","1","2025-07-30T10:46:28.326Z","","","","","","","","","","","StressQ","","50","","","","","","","","","","","","","","","","","","","","","","","","","","","","",""
"2230","","<div style=""width:500px;"">
  <p>What best describes how you currently feel?</p>
  </div>","100","html-slider-response","73","790534","0.0-5.0-4.12","285","1","2025-07-30 10:33:18","1f75c3e559b7213887762d5229550c2b","41.56.171.116","Mozilla/5.0 (Windows NT 10.0; Win64; x64) AppleWebKit/537.36 (KHTML, like Gecko) Chrome/138.0.0.0 Safari/537.36","WebKit","Chrome","138.0.0.0","Windows","10.0","https://app.prolific.com/","en-ZA,en-GB;q=0.9,en-US;q=0.8,en;q=0.7","60292aabf20c7d2af65541a7","6877631c9844ddd5501205fc","6889f4d371749e16eb66766c","3","1","60292aabf20c7d2af65541a7","3","1","2025-07-30T10:46:30.559Z","","","","","","","","","","","MotivationQ","","50","","","","","","","","","","","","","","","","","","","","","","","","","","","","",""
"","","","","ctl-task-cpt","74","810797","0.0-5.0-0.13","285","1","2025-07-30 10:33:18","1f75c3e559b7213887762d5229550c2b","41.56.171.116","Mozilla/5.0 (Windows NT 10.0; Win64; x64) AppleWebKit/537.36 (KHTML, like Gecko) Chrome/138.0.0.0 Safari/537.36","WebKit","Chrome","138.0.0.0","Windows","10.0","https://app.prolific.com/","en-ZA,en-GB;q=0.9,en-US;q=0.8,en;q=0.7","60292aabf20c7d2af65541a7","6877631c9844ddd5501205fc","6889f4d371749e16eb66766c","3","1","60292aabf20c7d2af65541a7","3","1","2025-07-30T10:46:50.821Z","","","","","","","","","","","","","","win-only","1","g1:NE,g2:SW","0.8","14","0","794197.4","1323","6327.5","17242.2","1","4","4","6","1","1","1","3","2","0.022727272727272728","1311.6","3000","1970","[""up"",""right""]","{""num_key_presses"":4,""num_perfect"":4,""num_errors"":0,""num_randdir"":0,""num_randdir_good_moves"":0,""num_whilered"":0,""num_whileblue"":0,""num_blue"":0,""num_good_moves"":4}","[350.14285714285717,354.04910714285717,0.4,350.14285714285717,354.04910714285717,106.3,350.14285714285717,354.04910714285717,208.9,350.14285714285717,354.04910714285717,310,350.14285714285717,354.04910714285717,421.4,350.14285714285717,354.04910714285717,523.3,461.14285714285717,273.04910714285717,626.8,549.1428571428571,205.04910714285714,729.8,558.1428571428571,192.04910714285714,833.6,576.1428571428571,145.04910714285714,935.7,584.1428571428571,109.04910714285714,1042.9,586.1428571428571,108.04910714285714,1145.5,593.1428571428571,104.04910714285714,1248.2,593.1428571428571,104.04910714285714,1349.5,593.1428571428571,104.04910714285714,1449.9,593.1428571428571,104.04910714285714,1552.6,592.1428571428571,111.04910714285714,1653.4,413.14285714285717,235.04910714285714,1756.3,374.14285714285717,325.04910714285717,1861.1,374.14285714285717,351.04910714285717,1971.4,370.14285714285717,369.04910714285717,2095.3,370.14285714285717,369.04910714285717,2203.5,367.14285714285717,374.04910714285717,2306.3,367.14285714285717,374.04910714285717,2410,367.14285714285717,374.04910714285717,2513.6,367.14285714285717,374.04910714285717,2615.2,367.14285714285717,375.04910714285717,2730.7,367.14285714285717,375.04910714285717,2838.7,367.14285714285717,375.04910714285717,2945.4,367.14285714285717,375.04910714285717,3046.7,367.14285714285717,375.04910714285717,3151.2,367.14285714285717,375.04910714285717,3258.9,367.14285714285717,375.04910714285717,3359.7,367.14285714285717,375.04910714285717,3460.2,367.14285714285717,375.04910714285717,3564.2,367.14285714285717,375.04910714285717,3668.2,367.14285714285717,375.04910714285717,3772.2,367.14285714285717,375.04910714285717,3877.3,367.14285714285717,375.04910714285717,3980.3,367.14285714285717,375.04910714285717,4083.3,367.14285714285717,375.04910714285717,4189.5,367.14285714285717,375.04910714285717,4294.9,367.14285714285717,375.04910714285717,4398,367.14285714285717,375.04910714285717,4504,367.14285714285717,375.04910714285717,4611.7,367.14285714285717,375.04910714285717,4713.5,367.14285714285717,375.04910714285717,4817.9,367.14285714285717,375.04910714285717,4922.6]","[1496.8,1496.8,1000,0,496.8,""smooth"",""up"",""up"",""good_move"",5243.5,3745.9,3286.2,1497.7,459.6,""smooth"",""up"",""up"",""good_move"",8192.2,2948.4,2521.2,5243.9,427.2,""smooth"",""right"",""right"",""good_move"",10760.7,2567.5,2138.9,8193.2,428.6,""smooth"",""right"",""right"",""good_move""]","",""
"5448","","<div style=""width:500px;"">
  <p>What determined the result of this run?</p>
  </div>","100","html-slider-response","75","816246","0.0-5.0-1.13","285","1","2025-07-30 10:33:18","1f75c3e559b7213887762d5229550c2b","41.56.171.116","Mozilla/5.0 (Windows NT 10.0; Win64; x64) AppleWebKit/537.36 (KHTML, like Gecko) Chrome/138.0.0.0 Safari/537.36","WebKit","Chrome","138.0.0.0","Windows","10.0","https://app.prolific.com/","en-ZA,en-GB;q=0.9,en-US;q=0.8,en;q=0.7","60292aabf20c7d2af65541a7","6877631c9844ddd5501205fc","6889f4d371749e16eb66766c","3","1","60292aabf20c7d2af65541a7","3","1","2025-07-30T10:46:56.271Z","","","","","","","","","","","AttribQ","","50","","","","","","","","","","","","","","","","","","","","","","","","","","","","",""
"1477","","<div style=""width:500px;"">
  <p>How much control did you have over the ball?</p>
