"rt","response_timestamp","stimulus","response","trial_type","trial_index","time_elapsed","internal_node_id","run_id","condition","recorded_at","source_code_version","ip","user_agent","device","browser","browser_version","platform","platform_version","referer","accept_language","PROLIFIC_PID","STUDY_ID","SESSION_ID","WEEK","BATCH","prolific_id","week","batch","realtime","success","responses","item_order","radio_event_ids","radio_event_times","key_event_times","mouse_event_times","straightlining","zigzagging","honeypot","eventType","view_history","slider_start","which_type","canvas_config","goals_layout","control_level","trial_number","tutorial_trial_number","trial_start_time","phase1_start_time","phase2_start_time","phase3_start_time","goal_1_value","goal_1_distance","goal_2_value","goal_2_distance","goal_selected","outcome","outcome_total","participant_final_score","participant_initial_score","participant_final_score_prop","goal_choice_rt","allocated_time","allocated_time_remaining","goal_direction","counts","mouse_movements","key_presses","question_order","question_id"
"368529","1753255944867","<p style='font-size:40px;line-height:1.25'><strong>Welcome to the experiment!</strong></p><p style='font-size:1.1em;line-height:1.25'>Thank you for participanting in our experiment again! You will be asked to play the Dysfunctional Ball Game again. We will briefly recap the rules before we start.</p><p style='font-size:1.1em;line-height:1.25'>Press <strong>Next</strong> to continue.</p>","0","custom-html-button-response","0","368535","0.0-0.0","172","1","2025-07-23 07:26:09","1f75c3e559b7213887762d5229550c2b","197.184.124.182","Mozilla/5.0 (Windows NT 10.0; Win64; x64) AppleWebKit/537.36 (KHTML, like Gecko) Chrome/138.0.0.0 Safari/537.36","WebKit","Chrome","138.0.0.0","Windows","10.0","https://app.prolific.com/","en-US,en;q=0.9","60ad28c6d838565067ab1b6c","683db9eb0562dbf637994deb","68808e891e3e23bb9581e57a","2","1","60ad28c6d838565067ab1b6c","2","1","2025-07-23T07:32:24.870Z","","","","","","","","","","","","","","","","","","","","","","","","","","","","","","","","","","","","","","","","","",""
"1847","","","","fullscreen","1","371404","0.0-1.0","172","1","2025-07-23 07:26:09","1f75c3e559b7213887762d5229550c2b","197.184.124.182","Mozilla/5.0 (Windows NT 10.0; Win64; x64) AppleWebKit/537.36 (KHTML, like Gecko) Chrome/138.0.0.0 Safari/537.36","WebKit","Chrome","138.0.0.0","Windows","10.0","https://app.prolific.com/","en-US,en;q=0.9","60ad28c6d838565067ab1b6c","683db9eb0562dbf637994deb","68808e891e3e23bb9581e57a","2","1","60ad28c6d838565067ab1b6c","2","1","","true","","","","","","","","","","","","","","","","","","","","","","","","","","","","","","","","","","","","","","","","",""
"1174","1753255948914","<p style='font-size:1.1em;line-height:1.25'>In the following, we will ask you a few questions relating to your feelings in the last 24 hours.<br></p><p style='font-size:1.1em;line-height:1.25'>Press the <strong>Next</strong> button to continue.</p>","0","custom-html-button-response","2","372581","0.0-2.0-0.0","172","1","2025-07-23 07:26:09","1f75c3e559b7213887762d5229550c2b","197.184.124.182","Mozilla/5.0 (Windows NT 10.0; Win64; x64) AppleWebKit/537.36 (KHTML, like Gecko) Chrome/138.0.0.0 Safari/537.36","WebKit","Chrome","138.0.0.0","Windows","10.0","https://app.prolific.com/","en-US,en;q=0.9","60ad28c6d838565067ab1b6c","683db9eb0562dbf637994deb","68808e891e3e23bb9581e57a","2","1","60ad28c6d838565067ab1b6c","2","1","2025-07-23T07:32:28.915Z","","","","","","","","","","","","","","","","","","","","","","","","","","","","","","","","","","","","","","","","","",""
"85879.09999996424","","","","survey-template","3","458470","0.0-2.0-1.0","172","1","2025-07-23 07:26:09","1f75c3e559b7213887762d5229550c2b","197.184.124.182","Mozilla/5.0 (Windows NT 10.0; Win64; x64) AppleWebKit/537.36 (KHTML, like Gecko) Chrome/138.0.0.0 Safari/537.36","WebKit","Chrome","138.0.0.0","Windows","10.0","https://app.prolific.com/","en-US,en;q=0.9","60ad28c6d838565067ab1b6c","683db9eb0562dbf637994deb","68808e891e3e23bb9581e57a","2","1","60ad28c6d838565067ab1b6c","2","1","2025-07-23T07:33:54.804Z","","{""Q01"":""3"",""Q02"":""3"",""Q03"":""3"",""Q04"":""3"",""Q05"":""2"",""Q06"":""4"",""Q07"":""2"",""Q08"":""3"",""Q09"":""2"",""Q10"":""3"",""Q11"":""4"",""Q12"":""2"",""Q13"":""5"",""Q14"":""3"",""Q15"":""3"",""Q16"":""3"",""Q17"":""3"",""Q18"":""2"",""Q19"":""4"",""Q20"":""3"",""Q21"":""3"",""Q22"":""3""}","[0,1,2,3,4,5,6,7,8,9,10,11,12,13,14,15,16,17,18,19,20,21]","[""Q01"",""Q02"",""Q03"",""Q04"",""Q05"",""Q06"",""Q07"",""Q08"",""Q09"",""Q10"",""Q11"",""Q12"",""Q13"",""Q14"",""Q15"",""Q16"",""Q17"",""Q19"",""Q19"",""Q20"",""Q21"",""Q22"",""Q18""]","[4269.699999988079,8508.899999976158,9386.799999952316,11573.899999976158,17650.599999964237,20646.5,30602.19999998808,46403.39999997616,49860.89999997616,50894,53985.799999952316,56393.39999997616,58964.59999996424,61118.59999996424,62894.19999998808,65174.59999996424,67493.5,71528,75829.69999998808,78571.5,79694.09999996424,80681.69999998808,84657.89999997616]","[]","[0.5999999642372131,4269.699999988079,5847.299999952316,7163.099999964237,7891.899999976158,8508.899999976158,9386.799999952316,11573.899999976158,14073.5,16304.699999988079,17650.599999964237,19620.899999976158,20646.5,30602.19999998808,46403.39999997616,49005.59999996424,49860.89999997616,50894,53985.799999952316,55501.5,56393.39999997616,58964.59999996424,61118.59999996424,62894.19999998808,65174.59999996424,67493.5,68920.29999995232,71528,75829.69999998808,78571.5,79694.09999996424,80681.69999998808,81715.29999995232,84657.89999997616,85866.69999998808]","0.5909090909090909","0.3333333333333333","0","drsp","","","","","","","","","","","","","","","","","","","","","","","","","","","","","","",""
"8849.100000023842","","","","survey-template","4","467324","0.0-2.0-2.0","172","1","2025-07-23 07:26:09","1f75c3e559b7213887762d5229550c2b","197.184.124.182","Mozilla/5.0 (Windows NT 10.0; Win64; x64) AppleWebKit/537.36 (KHTML, like Gecko) Chrome/138.0.0.0 Safari/537.36","WebKit","Chrome","138.0.0.0","Windows","10.0","https://app.prolific.com/","en-US,en;q=0.9","60ad28c6d838565067ab1b6c","683db9eb0562dbf637994deb","68808e891e3e23bb9581e57a","2","1","60ad28c6d838565067ab1b6c","2","1","2025-07-23T07:34:03.658Z","","{""Q01"":""4"",""Q02"":""4"",""Q03"":""3""}","[0,1,2]","[""Q01"",""Q02"",""Q03""]","[1942.9000000357628,5967.100000023842,7793.200000047684]","[]","[1942.9000000357628,4534.400000035763,5967.100000023842,7793.200000047684,8847.5]","0.3333333333333333","0","0","stress","","","","","","","","","","","","","","","","","","","","","","","","","","","","","","",""
"8934","","","","instructions","5","476260","0.0-3.0-0.0","172","1","2025-07-23 07:26:09","1f75c3e559b7213887762d5229550c2b","197.184.124.182","Mozilla/5.0 (Windows NT 10.0; Win64; x64) AppleWebKit/537.36 (KHTML, like Gecko) Chrome/138.0.0.0 Safari/537.36","WebKit","Chrome","138.0.0.0","Windows","10.0","https://app.prolific.com/","en-US,en;q=0.9","60ad28c6d838565067ab1b6c","683db9eb0562dbf637994deb","68808e891e3e23bb9581e57a","2","1","60ad28c6d838565067ab1b6c","2","1","","","","","","","","","","","","","[{""page_index"":0,""viewing_time"":8933}]","","","","","","","","","","","","","","","","","","","","","","","","","","","","","",""
"7079","","<p>Before you start with this game please answer the following three questions yourself. </p>
  <p>Through this game, we measure several aspects of your cognitive performance, such as reaction times, multi-tasking capabilities </p>
  <p>and the ability to assess the situation you are in.</p>
  <p></p>
  <p><b>How good do you usually are in such tasks?</b></p>","79","html-slider-response","6","483344","0.0-4.0-0.0","172","1","2025-07-23 07:26:09","1f75c3e559b7213887762d5229550c2b","197.184.124.182","Mozilla/5.0 (Windows NT 10.0; Win64; x64) AppleWebKit/537.36 (KHTML, like Gecko) Chrome/138.0.0.0 Safari/537.36","WebKit","Chrome","138.0.0.0","Windows","10.0","https://app.prolific.com/","en-US,en;q=0.9","60ad28c6d838565067ab1b6c","683db9eb0562dbf637994deb","68808e891e3e23bb9581e57a","2","1","60ad28c6d838565067ab1b6c","2","1","2025-07-23T07:34:19.679Z","","","","","","","","","","","PreSkillQ","","50","","","","","","","","","","","","","","","","","","","","","","","","","","","","",""
"9768","","<div style=""width:500px;"">
  <p>How well do you think you will perform in this task compared to other participants?</p>
  </div>","72","html-slider-response","7","493117","0.0-4.0-1.0","172","1","2025-07-23 07:26:09","1f75c3e559b7213887762d5229550c2b","197.184.124.182","Mozilla/5.0 (Windows NT 10.0; Win64; x64) AppleWebKit/537.36 (KHTML, like Gecko) Chrome/138.0.0.0 Safari/537.36","WebKit","Chrome","138.0.0.0","Windows","10.0","https://app.prolific.com/","en-US,en;q=0.9","60ad28c6d838565067ab1b6c","683db9eb0562dbf637994deb","68808e891e3e23bb9581e57a","2","1","60ad28c6d838565067ab1b6c","2","1","2025-07-23T07:34:29.451Z","","","","","","","","","","","PrePerfQ","","50","","","","","","","","","","","","","","","","","","","","","","","","","","","","",""
"3223","","<div style=""width:500px;"">
  <p>What best describes how you currently feel?</p>
  </div>","63","html-slider-response","8","496346","0.0-4.0-2.0","172","1","2025-07-23 07:26:09","1f75c3e559b7213887762d5229550c2b","197.184.124.182","Mozilla/5.0 (Windows NT 10.0; Win64; x64) AppleWebKit/537.36 (KHTML, like Gecko) Chrome/138.0.0.0 Safari/537.36","WebKit","Chrome","138.0.0.0","Windows","10.0","https://app.prolific.com/","en-US,en;q=0.9","60ad28c6d838565067ab1b6c","683db9eb0562dbf637994deb","68808e891e3e23bb9581e57a","2","1","60ad28c6d838565067ab1b6c","2","1","2025-07-23T07:34:32.681Z","","","","","","","","","","","PreMotivationQ","","50","","","","","","","","","","","","","","","","","","","","","","","","","","","","",""
"","","","","ctl-task-cpt","9","530919","0.0-5.0-0.0","172","1","2025-07-23 07:26:09","1f75c3e559b7213887762d5229550c2b","197.184.124.182","Mozilla/5.0 (Windows NT 10.0; Win64; x64) AppleWebKit/537.36 (KHTML, like Gecko) Chrome/138.0.0.0 Safari/537.36","WebKit","Chrome","138.0.0.0","Windows","10.0","https://app.prolific.com/","en-US,en;q=0.9","60ad28c6d838565067ab1b6c","683db9eb0562dbf637994deb","68808e891e3e23bb9581e57a","2","1","60ad28c6d838565067ab1b6c","2","1","2025-07-23T07:35:07.253Z","","","","","","","","","","","","","","win-only","3","g1:SW,g2:NE","1","1","0","503933.9","2051.7","7053.4","31564","1","4","8","6","2","8","7","7","0","0.05303030303030303","1899.6","3000","1055","[""up"",""right""]","{""num_key_presses"":7,""num_perfect"":6,""num_errors"":1,""num_randdir"":0,""num_randdir_good_moves"":0,""num_whilered"":0,""num_whileblue"":0,""num_blue"":2,""num_good_moves"":6}","[296.22232142857143,295.12857142857143,1.5,296.22232142857143,295.12857142857143,103.7,296.22232142857143,295.12857142857143,204.5,296.22232142857143,295.12857142857143,305.7,296.22232142857143,295.12857142857143,414.3,296.22232142857143,295.12857142857143,515.4,296.22232142857143,295.12857142857143,618,284.22232142857143,313.12857142857143,719.5,274.22232142857143,327.12857142857143,820.2,269.22232142857143,330.12857142857143,930.2,265.22232142857143,334.12857142857143,1033,263.22232142857143,336.12857142857143,1135.3,263.22232142857143,336.12857142857143,1239.2,526.2223214285714,86.12857142857143,1343.6,591.2223214285714,47.128571428571426,1449.2,591.2223214285714,47.128571428571426,1550.2,568.2223214285714,59.128571428571426,1673.2,561.2223214285714,62.128571428571426,1781.9,561.2223214285714,62.128571428571426,1888.4,561.2223214285714,62.128571428571426,1990.2,561.2223214285714,62.128571428571426,2128.5,561.2223214285714,62.128571428571426,2235.3,553.2223214285714,75.12857142857143,2335.5,535.2223214285714,141.12857142857143,2437.3,536.2223214285714,161.12857142857143,2538.7,538.2223214285714,165.12857142857143,2639.8,538.2223214285714,165.12857142857143,2740.4,538.2223214285714,165.12857142857143,2850.3,538.2223214285714,165.12857142857143,2952,538.2223214285714,165.12857142857143,3055.3,538.2223214285714,165.12857142857143,3155.7,538.2223214285714,165.12857142857143,3260,538.2223214285714,165.12857142857143,3364,538.2223214285714,165.12857142857143,3464.6,538.2223214285714,165.12857142857143,3564.9,538.2223214285714,165.12857142857143,3665.4,538.2223214285714,165.12857142857143,3771,538.2223214285714,165.12857142857143,3871.1,538.2223214285714,165.12857142857143,3976.1,538.2223214285714,165.12857142857143,4080.6,538.2223214285714,165.12857142857143,4185.7,538.2223214285714,165.12857142857143,4290.5,538.2223214285714,165.12857142857143,4395.1,538.2223214285714,165.12857142857143,4501.2,538.2223214285714,165.12857142857143,4613,538.2223214285714,165.12857142857143,4714.5,538.2223214285714,165.12857142857143,4831.4,538.2223214285714,165.12857142857143,4935.9]","[844.9,844.8,1000,0.1,-155.2,""error"",""-"",""-"",""no_move"",7526,6676.3,1971.1,5092.6,462.3,""smooth"",""up"",""up"",""good_move"",10429.5,2901.4,2572.4,7528.1,329,""smooth"",""right"",""right"",""good_move"",16350.5,5919.1,2348.2,13598.3,404,""smooth"",""up"",""up"",""good_move"",18826.3,2474.7,2051.1,16351.7,423.5,""smooth"",""right"",""right"",""good_move"",22149.3,3321.2,2996.4,18828.3,324.7,""smooth"",""up"",""up"",""good_move"",24393.2,2242.3,1905.3,22151,336.9,""smooth"",""right"",""right"",""good_move""]","",""
"3950","","<div style=""width:500px;"">
  <p>What determined the result of this run?</p>
  </div>","79","html-slider-response","10","534871","0.0-5.0-1.0","172","1","2025-07-23 07:26:09","1f75c3e559b7213887762d5229550c2b","197.184.124.182","Mozilla/5.0 (Windows NT 10.0; Win64; x64) AppleWebKit/537.36 (KHTML, like Gecko) Chrome/138.0.0.0 Safari/537.36","WebKit","Chrome","138.0.0.0","Windows","10.0","https://app.prolific.com/","en-US,en;q=0.9","60ad28c6d838565067ab1b6c","683db9eb0562dbf637994deb","68808e891e3e23bb9581e57a","2","1","60ad28c6d838565067ab1b6c","2","1","2025-07-23T07:35:11.205Z","","","","","","","","","","","AttribQ","","50","","","","","","","","","","","","","","","","","","","","","","","","","","","","",""
"2272","","<div style=""width:500px;"">
  <p>How much control did you have over the ball?</p>
  </div>","78","html-slider-response","11","537148","0.0-5.0-2.0","172","1","2025-07-23 07:26:09","1f75c3e559b7213887762d5229550c2b","197.184.124.182","Mozilla/5.0 (Windows NT 10.0; Win64; x64) AppleWebKit/537.36 (KHTML, like Gecko) Chrome/138.0.0.0 Safari/537.36","WebKit","Chrome","138.0.0.0","Windows","10.0","https://app.prolific.com/","en-US,en;q=0.9","60ad28c6d838565067ab1b6c","683db9eb0562dbf637994deb","68808e891e3e23bb9581e57a","2","1","60ad28c6d838565067ab1b6c","2","1","2025-07-23T07:35:13.482Z","","","","","","","","","","","ControlQ","","50","","","","","","","","","","","","","","","","","","","","","","","","","","","","",""
"2541","","<div style=""width:500px;"">
  <p>How would you describe your current emotional state?</p>
  </div>","15","html-slider-response","12","539695","0.0-5.0-3.0","172","1","2025-07-23 07:26:09","1f75c3e559b7213887762d5229550c2b","197.184.124.182","Mozilla/5.0 (Windows NT 10.0; Win64; x64) AppleWebKit/537.36 (KHTML, like Gecko) Chrome/138.0.0.0 Safari/537.36","WebKit","Chrome","138.0.0.0","Windows","10.0","https://app.prolific.com/","en-US,en;q=0.9","60ad28c6d838565067ab1b6c","683db9eb0562dbf637994deb","68808e891e3e23bb9581e57a","2","1","60ad28c6d838565067ab1b6c","2","1","2025-07-23T07:35:16.029Z","","","","","","","","","","","StressQ","","50","","","","","","","","","","","","","","","","","","","","","","","","","","","","",""
"2088","","<div style=""width:500px;"">
  <p>What best describes how you currently feel?</p>
  </div>","79","html-slider-response","13","541787","0.0-5.0-4.0","172","1","2025-07-23 07:26:09","1f75c3e559b7213887762d5229550c2b","197.184.124.182","Mozilla/5.0 (Windows NT 10.0; Win64; x64) AppleWebKit/537.36 (KHTML, like Gecko) Chrome/138.0.0.0 Safari/537.36","WebKit","Chrome","138.0.0.0","Windows","10.0","https://app.prolific.com/","en-US,en;q=0.9","60ad28c6d838565067ab1b6c","683db9eb0562dbf637994deb","68808e891e3e23bb9581e57a","2","1","60ad28c6d838565067ab1b6c","2","1","2025-07-23T07:35:18.121Z","","","","","","","","","","","MotivationQ","","50","","","","","","","","","","","","","","","","","","","","","","","","","","","","",""
"","","","","ctl-task-cpt","14","568436","0.0-5.0-0.1","172","1","2025-07-23 07:26:09","1f75c3e559b7213887762d5229550c2b","197.184.124.182","Mozilla/5.0 (Windows NT 10.0; Win64; x64) AppleWebKit/537.36 (KHTML, like Gecko) Chrome/138.0.0.0 Safari/537.36","WebKit","Chrome","138.0.0.0","Windows","10.0","https://app.prolific.com/","en-US,en;q=0.9","60ad28c6d838565067ab1b6c","683db9eb0562dbf637994deb","68808e891e3e23bb9581e57a","2","1","60ad28c6d838565067ab1b6c","2","1","2025-07-23T07:35:44.770Z","","","","","","","","","","","","","","win-only","3","g1:SW,g2:NE","0.9","2","0","549370.9","1596.7","6598.6","23640.7","1","4","4","6","1","1","0","7","7","0.05303030303030303","1488.7","3000","1055","[""down"",""left""]","{""num_key_presses"":7,""num_perfect"":5,""num_errors"":1,""num_randdir"":1,""num_randdir_good_moves"":0,""num_whilered"":0,""num_whileblue"":0,""num_blue"":0,""num_good_moves"":5}","[301.22232142857143,293.12857142857143,1.2,301.22232142857143,293.12857142857143,101,301.22232142857143,293.12857142857143,205.2,301.22232142857143,293.12857142857143,306.5,301.22232142857143,293.12857142857143,414.3,301.22232142857143,293.12857142857143,516.3,301.22232142857143,293.12857142857143,621,267.22232142857143,329.12857142857143,744,124.22232142857143,471.12857142857143,848.5,124.22232142857143,471.12857142857143,949.1,116.22232142857143,484.12857142857143,1060.8,72.22232142857143,522.1285714285714,1162.9,68.22232142857143,524.1285714285714,1265.6,67.22232142857143,524.1285714285714,1372.4,67.22232142857143,524.1285714285714,1510.9,67.22232142857143,524.1285714285714,1618,67.22232142857143,524.1285714285714,1720,152.22232142857143,514.1285714285714,1822.7,792.2223214285714,450.12857142857143,1928.3,889.2223214285714,446.12857142857143,2031.1,889.2223214285714,446.12857142857143,2134.8,889.2223214285714,445.12857142857143,2234.9,877.2223214285714,442.12857142857143,2338.9,877.2223214285714,442.12857142857143,2448.9,877.2223214285714,442.12857142857143,2550.4,877.2223214285714,442.12857142857143,2654,877.2223214285714,442.12857142857143,2754.8,877.2223214285714,442.12857142857143,2866.4,877.2223214285714,442.12857142857143,2969.7,877.2223214285714,442.12857142857143,3069.7,877.2223214285714,442.12857142857143,3179.7,877.2223214285714,442.12857142857143,3283.3,877.2223214285714,442.12857142857143,3386.2,877.2223214285714,442.12857142857143,3520.2,877.2223214285714,442.12857142857143,3627.9,877.2223214285714,442.12857142857143,3729.2,877.2223214285714,442.12857142857143,3830.2,877.2223214285714,442.12857142857143,3936.1,877.2223214285714,442.12857142857143,4037.9,877.2223214285714,442.12857142857143,4139,877.2223214285714,442.12857142857143,4239.4,877.2223214285714,442.12857142857143,4345.8,877.2223214285714,442.12857142857143,4450.8,877.2223214285714,442.12857142857143,4550.9,877.2223214285714,442.12857142857143,4651.5,877.2223214285714,442.12857142857143,4756,877.2223214285714,442.12857142857143,4860.2,877.2223214285714,442.12857142857143,4961.5]","[912.9,912.9,1000,0,-87.1,""error"",""-"",""-"",""no_move"",4249.5,3334.1,1861.7,1917.1,470.7,""smooth"",""left"",""left"",""good_move"",6868,2616,2240.5,4252,375.5,""smooth"",""down"",""down"",""good_move"",9296.3,2426.7,2084.9,6869.6,341.8,""oops"",""left"",""up"",""bad_move"",12199,2899.9,2484.7,9299.1,415.2,""smooth"",""left"",""left"",""good_move"",14564.9,2364.4,2073.1,12200.5,291.3,""smooth"",""down"",""down"",""good_move"",16932.2,2364.8,2058.4,14567.5,306.4,""smooth"",""down"",""down"",""good_move""]","",""
"3408","","<div style=""width:500px;"">
  <p>What determined the result of this run?</p>
  </div>","82","html-slider-response","15","571847","0.0-5.0-1.1","172","1","2025-07-23 07:26:09","1f75c3e559b7213887762d5229550c2b","197.184.124.182","Mozilla/5.0 (Windows NT 10.0; Win64; x64) AppleWebKit/537.36 (KHTML, like Gecko) Chrome/138.0.0.0 Safari/537.36","WebKit","Chrome","138.0.0.0","Windows","10.0","https://app.prolific.com/","en-US,en;q=0.9","60ad28c6d838565067ab1b6c","683db9eb0562dbf637994deb","68808e891e3e23bb9581e57a","2","1","60ad28c6d838565067ab1b6c","2","1","2025-07-23T07:35:48.181Z","","","","","","","","","","","AttribQ","","50","","","","","","","","","","","","","","","","","","","","","","","","","","","","",""
"2651","","<div style=""width:500px;"">
  <p>How much control did you have over the ball?</p>
  </div>","67","html-slider-response","16","574500","0.0-5.0-2.1","172","1","2025-07-23 07:26:09","1f75c3e559b7213887762d5229550c2b","197.184.124.182","Mozilla/5.0 (Windows NT 10.0; Win64; x64) AppleWebKit/537.36 (KHTML, like Gecko) Chrome/138.0.0.0 Safari/537.36","WebKit","Chrome","138.0.0.0","Windows","10.0","https://app.prolific.com/","en-US,en;q=0.9","60ad28c6d838565067ab1b6c","683db9eb0562dbf637994deb","68808e891e3e23bb9581e57a","2","1","60ad28c6d838565067ab1b6c","2","1","2025-07-23T07:35:50.834Z","","","","","","","","","","","ControlQ","","50","","","","","","","","","","","","","","","","","","","","","","","","","","","","",""
"2447","","<div style=""width:500px;"">
  <p>How would you describe your current emotional state?</p>
  </div>","15","html-slider-response","17","576952","0.0-5.0-3.1","172","1","2025-07-23 07:26:09","1f75c3e559b7213887762d5229550c2b","197.184.124.182","Mozilla/5.0 (Windows NT 10.0; Win64; x64) AppleWebKit/537.36 (KHTML, like Gecko) Chrome/138.0.0.0 Safari/537.36","WebKit","Chrome","138.0.0.0","Windows","10.0","https://app.prolific.com/","en-US,en;q=0.9","60ad28c6d838565067ab1b6c","683db9eb0562dbf637994deb","68808e891e3e23bb9581e57a","2","1","60ad28c6d838565067ab1b6c","2","1","2025-07-23T07:35:53.286Z","","","","","","","","","","","StressQ","","50","","","","","","","","","","","","","","","","","","","","","","","","","","","","",""
"2282","","<div style=""width:500px;"">
  <p>What best describes how you currently feel?</p>
  </div>","81","html-slider-response","18","579238","0.0-5.0-4.1","172","1","2025-07-23 07:26:09","1f75c3e559b7213887762d5229550c2b","197.184.124.182","Mozilla/5.0 (Windows NT 10.0; Win64; x64) AppleWebKit/537.36 (KHTML, like Gecko) Chrome/138.0.0.0 Safari/537.36","WebKit","Chrome","138.0.0.0","Windows","10.0","https://app.prolific.com/","en-US,en;q=0.9","60ad28c6d838565067ab1b6c","683db9eb0562dbf637994deb","68808e891e3e23bb9581e57a","2","1","60ad28c6d838565067ab1b6c","2","1","2025-07-23T07:35:55.572Z","","","","","","","","","","","MotivationQ","","50","","","","","","","","","","","","","","","","","","","","","","","","","","","","",""
"","","","","ctl-task-cpt","19","607663","0.0-5.0-0.2","172","1","2025-07-23 07:26:09","1f75c3e559b7213887762d5229550c2b","197.184.124.182","Mozilla/5.0 (Windows NT 10.0; Win64; x64) AppleWebKit/537.36 (KHTML, like Gecko) Chrome/138.0.0.0 Safari/537.36","WebKit","Chrome","138.0.0.0","Windows","10.0","https://app.prolific.com/","en-US,en;q=0.9","60ad28c6d838565067ab1b6c","683db9eb0562dbf637994deb","68808e891e3e23bb9581e57a","2","1","60ad28c6d838565067ab1b6c","2","1","2025-07-23T07:36:23.997Z","","","","","","","","","","","","","","win-only","0","g1:NW,g2:SE","0.8","3","0","586825.7","1289.9","6293.9","25392","1","4","4","6","2","4","3","10","7","0.07575757575757576","1020.8","3000","1695","[""down"",""right""]","{""num_key_presses"":6,""num_perfect"":3,""num_errors"":1,""num_randdir"":2,""num_randdir_good_moves"":2,""num_whilered"":0,""num_whileblue"":1,""num_blue"":2,""num_good_moves"":6}","[296.22232142857143,301.12857142857143,0.1,296.22232142857143,301.12857142857143,100.8,296.22232142857143,301.12857142857143,205,296.22232142857143,301.12857142857143,327.3,398.22232142857143,449.12857142857143,430.8,511.22232142857143,532.1285714285714,532.5,511.22232142857143,532.1285714285714,634.4,516.2223214285714,535.1285714285714,735.4,529.2223214285714,541.1285714285714,836.3,530.2223214285714,541.1285714285714,936.9,530.2223214285714,541.1285714285714,1044.7,530.2223214285714,541.1285714285714,1153.8,530.2223214285714,541.1285714285714,1257.9,569.2223214285714,507.12857142857143,1363,634.2223214285714,443.12857142857143,1475.7,635.2223214285714,440.12857142857143,1585.9,635.2223214285714,440.12857142857143,1686.7,635.2223214285714,440.12857142857143,1793,635.2223214285714,440.12857142857143,1912.3,635.2223214285714,440.12857142857143,2024.4,635.2223214285714,440.12857142857143,2128,635.2223214285714,440.12857142857143,2232,635.2223214285714,440.12857142857143,2338.2,635.2223214285714,440.12857142857143,2452.2,635.2223214285714,440.12857142857143,2552.3,635.2223214285714,440.12857142857143,2653.1,635.2223214285714,440.12857142857143,2757.2,635.2223214285714,440.12857142857143,2871.4,635.2223214285714,440.12857142857143,2979,635.2223214285714,440.12857142857143,3081.7,635.2223214285714,440.12857142857143,3183,635.2223214285714,440.12857142857143,3283.4,635.2223214285714,440.12857142857143,3386.7,635.2223214285714,440.12857142857143,3500,635.2223214285714,440.12857142857143,3600,635.2223214285714,440.12857142857143,3702.6,635.2223214285714,440.12857142857143,3802.7,635.2223214285714,440.12857142857143,3905.3,635.2223214285714,440.12857142857143,4014.8,635.2223214285714,440.12857142857143,4117.2,635.2223214285714,440.12857142857143,4217.8,635.2223214285714,440.12857142857143,4318.1,635.2223214285714,440.12857142857143,4418.3,635.2223214285714,440.12857142857143,4519.6,635.2223214285714,440.12857142857143,4632,635.2223214285714,440.12857142857143,4735.9,635.2223214285714,440.12857142857143,4836.3,635.2223214285714,440.12857142857143,4937.1]","[1393.2,1393.3,1000,0,393.3,""smooth"",""right"",""right"",""good_move"",4016.6,2621.5,2306.5,1395.1,315,""smooth"",""down"",""down"",""good_move"",6730.1,2707.3,2409.2,4022.8,298.1,""smooth"",""right"",""right"",""good_move"",9951.7,3219.7,2967.6,6732,252.1,""while_blue"",""down"",""right"",""good_move"",13233.1,3279,2937.6,9954.1,341.4,""oops"",""down"",""down"",""good_move"",18979.9,5745.7,2227.2,16444,308.7,""oops"",""down"",""down"",""good_move""]","",""
"3316","","<div style=""width:500px;"">
  <p>What determined the result of this run?</p>
  </div>","81","html-slider-response","20","610984","0.0-5.0-1.2","172","1","2025-07-23 07:26:09","1f75c3e559b7213887762d5229550c2b","197.184.124.182","Mozilla/5.0 (Windows NT 10.0; Win64; x64) AppleWebKit/537.36 (KHTML, like Gecko) Chrome/138.0.0.0 Safari/537.36","WebKit","Chrome","138.0.0.0","Windows","10.0","https://app.prolific.com/","en-US,en;q=0.9","60ad28c6d838565067ab1b6c","683db9eb0562dbf637994deb","68808e891e3e23bb9581e57a","2","1","60ad28c6d838565067ab1b6c","2","1","2025-07-23T07:36:27.320Z","","","","","","","","","","","AttribQ","","50","","","","","","","","","","","","","","","","","","","","","","","","","","","","",""
"2467","","<div style=""width:500px;"">
  <p>How much control did you have over the ball?</p>
  </div>","72","html-slider-response","21","613457","0.0-5.0-2.2","172","1","2025-07-23 07:26:09","1f75c3e559b7213887762d5229550c2b","197.184.124.182","Mozilla/5.0 (Windows NT 10.0; Win64; x64) AppleWebKit/537.36 (KHTML, like Gecko) Chrome/138.0.0.0 Safari/537.36","WebKit","Chrome","138.0.0.0","Windows","10.0","https://app.prolific.com/","en-US,en;q=0.9","60ad28c6d838565067ab1b6c","683db9eb0562dbf637994deb","68808e891e3e23bb9581e57a","2","1","60ad28c6d838565067ab1b6c","2","1","2025-07-23T07:36:29.791Z","","","","","","","","","","","ControlQ","","50","","","","","","","","","","","","","","","","","","","","","","","","","","","","",""
"2334","","<div style=""width:500px;"">
  <p>How would you describe your current emotional state?</p>
  </div>","17","html-slider-response","22","615794","0.0-5.0-3.2","172","1","2025-07-23 07:26:09","1f75c3e559b7213887762d5229550c2b","197.184.124.182","Mozilla/5.0 (Windows NT 10.0; Win64; x64) AppleWebKit/537.36 (KHTML, like Gecko) Chrome/138.0.0.0 Safari/537.36","WebKit","Chrome","138.0.0.0","Windows","10.0","https://app.prolific.com/","en-US,en;q=0.9","60ad28c6d838565067ab1b6c","683db9eb0562dbf637994deb","68808e891e3e23bb9581e57a","2","1","60ad28c6d838565067ab1b6c","2","1","2025-07-23T07:36:32.128Z","","","","","","","","","","","StressQ","","50","","","","","","","","","","","","","","","","","","","","","","","","","","","","",""
"2233","","<div style=""width:500px;"">
  <p>What best describes how you currently feel?</p>
  </div>","80","html-slider-response","23","618030","0.0-5.0-4.2","172","1","2025-07-23 07:26:09","1f75c3e559b7213887762d5229550c2b","197.184.124.182","Mozilla/5.0 (Windows NT 10.0; Win64; x64) AppleWebKit/537.36 (KHTML, like Gecko) Chrome/138.0.0.0 Safari/537.36","WebKit","Chrome","138.0.0.0","Windows","10.0","https://app.prolific.com/","en-US,en;q=0.9","60ad28c6d838565067ab1b6c","683db9eb0562dbf637994deb","68808e891e3e23bb9581e57a","2","1","60ad28c6d838565067ab1b6c","2","1","2025-07-23T07:36:34.364Z","","","","","","","","","","","MotivationQ","","50","","","","","","","","","","","","","","","","","","","","","","","","","","","","",""
"","","","","ctl-task-cpt","24","640895","0.0-5.0-0.3","172","1","2025-07-23 07:26:09","1f75c3e559b7213887762d5229550c2b","197.184.124.182","Mozilla/5.0 (Windows NT 10.0; Win64; x64) AppleWebKit/537.36 (KHTML, like Gecko) Chrome/138.0.0.0 Safari/537.36","WebKit","Chrome","138.0.0.0","Windows","10.0","https://app.prolific.com/","en-US,en;q=0.9","60ad28c6d838565067ab1b6c","683db9eb0562dbf637994deb","68808e891e3e23bb9581e57a","2","1","60ad28c6d838565067ab1b6c","2","1","2025-07-23T07:36:57.230Z","","","","","","","","","","","","","","win-only","0","g1:NW,g2:SE","0.7","4","0","625615.6","1667.6","6681","19851.8","1","4","8","6","1","1","1","11","10","0.08333333333333333","1962.3","3000","1845","[""left"",""up""]","{""num_key_presses"":4,""num_perfect"":4,""num_errors"":0,""num_randdir"":0,""num_randdir_good_moves"":0,""num_whilered"":0,""num_whileblue"":0,""num_blue"":1,""num_good_moves"":4}","[301.22232142857143,304.12857142857143,1.3,301.22232142857143,304.12857142857143,103.4,301.22232142857143,304.12857142857143,214.1,301.22232142857143,304.12857142857143,324,301.22232142857143,304.12857142857143,425.9,301.22232142857143,304.12857142857143,526,280.22232142857143,288.12857142857143,631.1,61.222321428571426,99.12857142857143,732.8,50.222321428571426,90.12857142857143,843,50.222321428571426,90.12857142857143,949,50.222321428571426,90.12857142857143,1051.4,50.222321428571426,90.12857142857143,1157.3,50.222321428571426,90.12857142857143,1266.9,50.222321428571426,90.12857142857143,1369.9,50.222321428571426,90.12857142857143,1474.9,50.222321428571426,90.12857142857143,1577.8,50.222321428571426,90.12857142857143,1681.5,50.222321428571426,90.12857142857143,1793.9,50.222321428571426,90.12857142857143,1900.9,50.222321428571426,90.12857142857143,2003.2,50.222321428571426,90.12857142857143,2110.3,50.222321428571426,90.12857142857143,2215.7,50.222321428571426,90.12857142857143,2323.9,61.222321428571426,100.12857142857143,2430.9,116.22232142857143,161.12857142857143,2536.5,123.22232142857143,168.12857142857143,2639.7,130.22232142857143,178.12857142857143,2743.8,152.22232142857143,202.12857142857143,2851.2,197.22232142857143,242.12857142857143,2952.7,203.22232142857143,247.12857142857143,3069.4,203.22232142857143,247.12857142857143,3173.2,203.22232142857143,247.12857142857143,3285.4,203.22232142857143,247.12857142857143,3389.3,203.22232142857143,247.12857142857143,3491.6,203.22232142857143,247.12857142857143,3596.6,203.22232142857143,247.12857142857143,3700.3,204.22232142857143,248.12857142857143,3800.4,275.22232142857143,328.12857142857143,3912.2,328.22232142857143,369.12857142857143,4012.8,328.22232142857143,369.12857142857143,4128.3,328.22232142857143,369.12857142857143,4233.8,328.22232142857143,369.12857142857143,4344.9,328.22232142857143,369.12857142857143,4449.9,328.22232142857143,369.12857142857143,4552.4,328.22232142857143,369.12857142857143,4656.6,328.22232142857143,369.12857142857143,4757.9,328.22232142857143,369.12857142857143,4858,328.22232142857143,369.12857142857143,4969.6]","[4169.4,4169.4,1726.1,2018.2,425.1,""smooth"",""left"",""left"",""good_move"",6644,2472,2107,4172,365,""smooth"",""up"",""up"",""good_move"",9704.8,3058.3,2668.9,6646.5,389.4,""smooth"",""left"",""left"",""good_move"",13026.2,3316.3,3001.2,9710,315,""smooth"",""up"",""up"",""good_move""]","",""
"2651","","<div style=""width:500px;"">
  <p>What determined the result of this run?</p>
  </div>","82","html-slider-response","25","643550","0.0-5.0-1.3","172","1","2025-07-23 07:26:09","1f75c3e559b7213887762d5229550c2b","197.184.124.182","Mozilla/5.0 (Windows NT 10.0; Win64; x64) AppleWebKit/537.36 (KHTML, like Gecko) Chrome/138.0.0.0 Safari/537.36","WebKit","Chrome","138.0.0.0","Windows","10.0","https://app.prolific.com/","en-US,en;q=0.9","60ad28c6d838565067ab1b6c","683db9eb0562dbf637994deb","68808e891e3e23bb9581e57a","2","1","60ad28c6d838565067ab1b6c","2","1","2025-07-23T07:36:59.884Z","","","","","","","","","","","AttribQ","","50","","","","","","","","","","","","","","","","","","","","","","","","","","","","",""
"2944","","<div style=""width:500px;"">
  <p>How much control did you have over the ball?</p>
  </div>","76","html-slider-response","26","646500","0.0-5.0-2.3","172","1","2025-07-23 07:26:09","1f75c3e559b7213887762d5229550c2b","197.184.124.182","Mozilla/5.0 (Windows NT 10.0; Win64; x64) AppleWebKit/537.36 (KHTML, like Gecko) Chrome/138.0.0.0 Safari/537.36","WebKit","Chrome","138.0.0.0","Windows","10.0","https://app.prolific.com/","en-US,en;q=0.9","60ad28c6d838565067ab1b6c","683db9eb0562dbf637994deb","68808e891e3e23bb9581e57a","2","1","60ad28c6d838565067ab1b6c","2","1","2025-07-23T07:37:02.834Z","","","","","","","","","","","ControlQ","","50","","","","","","","","","","","","","","","","","","","","","","","","","","","","",""
"2056","","<div style=""width:500px;"">
  <p>How would you describe your current emotional state?</p>
  </div>","17","html-slider-response","27","648559","0.0-5.0-3.3","172","1","2025-07-23 07:26:09","1f75c3e559b7213887762d5229550c2b","197.184.124.182","Mozilla/5.0 (Windows NT 10.0; Win64; x64) AppleWebKit/537.36 (KHTML, like Gecko) Chrome/138.0.0.0 Safari/537.36","WebKit","Chrome","138.0.0.0","Windows","10.0","https://app.prolific.com/","en-US,en;q=0.9","60ad28c6d838565067ab1b6c","683db9eb0562dbf637994deb","68808e891e3e23bb9581e57a","2","1","60ad28c6d838565067ab1b6c","2","1","2025-07-23T07:37:04.893Z","","","","","","","","","","","StressQ","","50","","","","","","","","","","","","","","","","","","","","","","","","","","","","",""
"1808","","<div style=""width:500px;"">
  <p>What best describes how you currently feel?</p>
  </div>","80","html-slider-response","28","650371","0.0-5.0-4.3","172","1","2025-07-23 07:26:09","1f75c3e559b7213887762d5229550c2b","197.184.124.182","Mozilla/5.0 (Windows NT 10.0; Win64; x64) AppleWebKit/537.36 (KHTML, like Gecko) Chrome/138.0.0.0 Safari/537.36","WebKit","Chrome","138.0.0.0","Windows","10.0","https://app.prolific.com/","en-US,en;q=0.9","60ad28c6d838565067ab1b6c","683db9eb0562dbf637994deb","68808e891e3e23bb9581e57a","2","1","60ad28c6d838565067ab1b6c","2","1","2025-07-23T07:37:06.705Z","","","","","","","","","","","MotivationQ","","50","","","","","","","","","","","","","","","","","","","","","","","","","","","","",""
"","","","","ctl-task-cpt","29","686314","0.0-5.0-0.4","172","1","2025-07-23 07:26:09","1f75c3e559b7213887762d5229550c2b","197.184.124.182","Mozilla/5.0 (Windows NT 10.0; Win64; x64) AppleWebKit/537.36 (KHTML, like Gecko) Chrome/138.0.0.0 Safari/537.36","WebKit","Chrome","138.0.0.0","Windows","10.0","https://app.prolific.com/","en-US,en;q=0.9","60ad28c6d838565067ab1b6c","683db9eb0562dbf637994deb","68808e891e3e23bb9581e57a","2","1","60ad28c6d838565067ab1b6c","2","1","2025-07-23T07:37:42.648Z","","","","","","","","","","","","","","win-only","1","g1:NE,g2:SW","0.6","5","0","657957","2321.1","7331.4","32915.2","1","4","8","6","2","8","8","19","11","0.14393939393939395","1232.6","3000","1090","[""down"",""left""]","{""num_key_presses"":8,""num_perfect"":6,""num_errors"":0,""num_randdir"":2,""num_randdir_good_moves"":1,""num_whilered"":0,""num_whileblue"":0,""num_blue"":1,""num_good_moves"":7}","[296.22232142857143,299.12857142857143,2.2,296.22232142857143,299.12857142857143,100,296.22232142857143,299.12857142857143,202.8,296.22232142857143,299.12857142857143,305.7,296.22232142857143,299.12857142857143,405.8,258.22232142857143,348.12857142857143,510.5,64.22232142857143,597.1285714285714,614.5,49.222321428571426,605.1285714285714,725.4,22.222321428571426,608.1285714285714,830.9,46.222321428571426,566.1285714285714,931.5,53.222321428571426,558.1285714285714,1031.9,53.222321428571426,558.1285714285714,1143.8,53.222321428571426,558.1285714285714,1252.9,53.222321428571426,558.1285714285714,1355.9,53.222321428571426,558.1285714285714,1461.8,53.222321428571426,558.1285714285714,1562.5,53.222321428571426,558.1285714285714,1667.6,53.222321428571426,558.1285714285714,1777.6,53.222321428571426,558.1285714285714,1881.7,53.222321428571426,558.1285714285714,1986.2,313.22232142857143,683.1285714285714,2111.7,354.22232142857143,683.1285714285714,2234.3,347.22232142857143,676.1285714285714,2334.7,340.22232142857143,670.1285714285714,2441.4,335.22232142857143,665.1285714285714,2544.3,334.22232142857143,663.1285714285714,2648.8,326.22232142857143,653.1285714285714,2750.2,288.22232142857143,634.1285714285714,2854,218.22232142857143,616.1285714285714,2967.1,204.22232142857143,609.1285714285714,3077,206.22232142857143,608.1285714285714,3194.9,251.22232142857143,599.1285714285714,3307.4,273.22232142857143,589.1285714285714,3411,273.22232142857143,589.1285714285714,3518.4,273.22232142857143,589.1285714285714,3628.5,273.22232142857143,589.1285714285714,3731.2,273.22232142857143,589.1285714285714,3832.7,273.22232142857143,589.1285714285714,3938.3,273.22232142857143,589.1285714285714,4043,273.22232142857143,589.1285714285714,4143.7,273.22232142857143,589.1285714285714,4249.4,273.22232142857143,589.1285714285714,4354,273.22232142857143,589.1285714285714,4461.3,273.22232142857143,589.1285714285714,4570.4,273.22232142857143,589.1285714285714,4674.9,273.22232142857143,589.1285714285714,4781.4,273.22232142857143,589.1285714285714,4884.6,273.22232142857143,589.1285714285714,4992]","[1440.7,1440.7,1000,0,440.7,""smooth"",""left"",""left"",""good_move"",4878.7,3436.3,2796.2,1442.4,640.1,""smooth"",""down"",""down"",""good_move"",7390.8,2507.2,2019.7,4883.6,487.5,""oops"",""left"",""left"",""good_move"",10984.1,3586.2,3188.9,7397.9,397.3,""smooth"",""down"",""down"",""good_move"",14682.2,3695.3,3296.4,10986.9,398.9,""oops"",""left"",""up"",""bad_move"",20232,5546.2,2070.6,17761.8,399.6,""smooth"",""left"",""left"",""good_move"",22772.6,2519.8,2181.5,20252.8,338.3,""smooth"",""down"",""down"",""good_move"",25415.4,2641,2369.6,22774.4,271.4,""smooth"",""down"",""down"",""good_move""]","",""
"3397","","<div style=""width:500px;"">
  <p>What determined the result of this run?</p>
  </div>","72","html-slider-response","30","689714","0.0-5.0-1.4","172","1","2025-07-23 07:26:09","1f75c3e559b7213887762d5229550c2b","197.184.124.182","Mozilla/5.0 (Windows NT 10.0; Win64; x64) AppleWebKit/537.36 (KHTML, like Gecko) Chrome/138.0.0.0 Safari/537.36","WebKit","Chrome","138.0.0.0","Windows","10.0","https://app.prolific.com/","en-US,en;q=0.9","60ad28c6d838565067ab1b6c","683db9eb0562dbf637994deb","68808e891e3e23bb9581e57a","2","1","60ad28c6d838565067ab1b6c","2","1","2025-07-23T07:37:46.048Z","","","","","","","","","","","AttribQ","","50","","","","","","","","","","","","","","","","","","","","","","","","","","","","",""
"2408","","<div style=""width:500px;"">
  <p>How much control did you have over the ball?</p>
  </div>","76","html-slider-response","31","692126","0.0-5.0-2.4","172","1","2025-07-23 07:26:09","1f75c3e559b7213887762d5229550c2b","197.184.124.182","Mozilla/5.0 (Windows NT 10.0; Win64; x64) AppleWebKit/537.36 (KHTML, like Gecko) Chrome/138.0.0.0 Safari/537.36","WebKit","Chrome","138.0.0.0","Windows","10.0","https://app.prolific.com/","en-US,en;q=0.9","60ad28c6d838565067ab1b6c","683db9eb0562dbf637994deb","68808e891e3e23bb9581e57a","2","1","60ad28c6d838565067ab1b6c","2","1","2025-07-23T07:37:48.460Z","","","","","","","","","","","ControlQ","","50","","","","","","","","","","","","","","","","","","","","","","","","","","","","",""
"2466","","<div style=""width:500px;"">
  <p>How would you describe your current emotional state?</p>
  </div>","20","html-slider-response","32","694598","0.0-5.0-3.4","172","1","2025-07-23 07:26:09","1f75c3e559b7213887762d5229550c2b","197.184.124.182","Mozilla/5.0 (Windows NT 10.0; Win64; x64) AppleWebKit/537.36 (KHTML, like Gecko) Chrome/138.0.0.0 Safari/537.36","WebKit","Chrome","138.0.0.0","Windows","10.0","https://app.prolific.com/","en-US,en;q=0.9","60ad28c6d838565067ab1b6c","683db9eb0562dbf637994deb","68808e891e3e23bb9581e57a","2","1","60ad28c6d838565067ab1b6c","2","1","2025-07-23T07:37:50.932Z","","","","","","","","","","","StressQ","","50","","","","","","","","","","","","","","","","","","","","","","","","","","","","",""
"2501","","<div style=""width:500px;"">
  <p>What best describes how you currently feel?</p>
  </div>","80","html-slider-response","33","697107","0.0-5.0-4.4","172","1","2025-07-23 07:26:09","1f75c3e559b7213887762d5229550c2b","197.184.124.182","Mozilla/5.0 (Windows NT 10.0; Win64; x64) AppleWebKit/537.36 (KHTML, like Gecko) Chrome/138.0.0.0 Safari/537.36","WebKit","Chrome","138.0.0.0","Windows","10.0","https://app.prolific.com/","en-US,en;q=0.9","60ad28c6d838565067ab1b6c","683db9eb0562dbf637994deb","68808e891e3e23bb9581e57a","2","1","60ad28c6d838565067ab1b6c","2","1","2025-07-23T07:37:53.441Z","","","","","","","","","","","MotivationQ","","50","","","","","","","","","","","","","","","","","","","","","","","","","","","","",""
"","","","","ctl-task-cpt","34","759759","0.0-5.0-0.5","172","1","2025-07-23 07:26:09","1f75c3e559b7213887762d5229550c2b","197.184.124.182","Mozilla/5.0 (Windows NT 10.0; Win64; x64) AppleWebKit/537.36 (KHTML, like Gecko) Chrome/138.0.0.0 Safari/537.36","WebKit","Chrome","138.0.0.0","Windows","10.0","https://app.prolific.com/","en-US,en;q=0.9","60ad28c6d838565067ab1b6c","683db9eb0562dbf637994deb","68808e891e3e23bb9581e57a","2","1","60ad28c6d838565067ab1b6c","2","1","2025-07-23T07:38:56.094Z","","","","","","","","","","","","","","win-only","1","g1:NE,g2:SW","0.5","6","0","704693.6","1062.5","6070.5","59626.3","1","4","4","6","2","4","3","22","19","0.16666666666666666","2570.8","3000","970","[""down"",""left""]","{""num_key_presses"":14,""num_perfect"":7,""num_errors"":1,""num_randdir"":6,""num_randdir_good_moves"":3,""num_whilered"":0,""num_whileblue"":1,""num_blue"":4,""num_good_moves"":10}","[301.22232142857143,290.12857142857143,0.3,301.22232142857143,290.12857142857143,104.8,301.22232142857143,290.12857142857143,210.9,301.22232142857143,290.12857142857143,315.6,301.22232142857143,290.12857142857143,423.8,307.22232142857143,288.12857142857143,544.9,329.22232142857143,271.12857142857143,654.5,342.22232142857143,263.12857142857143,764.3,342.22232142857143,263.12857142857143,880.7,341.22232142857143,264.12857142857143,996.8,249.22232142857143,336.12857142857143,1098.7,146.22232142857143,436.12857142857143,1205.9,88.22232142857143,498.12857142857143,1315.5,68.22232142857143,513.1285714285714,1419,64.22232142857143,516.1285714285714,1528.6,64.22232142857143,517.1285714285714,1632,64.22232142857143,517.1285714285714,1737.2,64.22232142857143,517.1285714285714,1844.2,64.22232142857143,517.1285714285714,1951.3,64.22232142857143,517.1285714285714,2051.9,64.22232142857143,517.1285714285714,2156.8,64.22232142857143,517.1285714285714,2265.2,64.22232142857143,517.1285714285714,2371.2,64.22232142857143,517.1285714285714,2484,64.22232142857143,517.1285714285714,2588.3,64.22232142857143,517.1285714285714,2689.7,64.22232142857143,517.1285714285714,2805.2,64.22232142857143,517.1285714285714,2908.1,64.22232142857143,517.1285714285714,3023.3,69.22232142857143,523.1285714285714,3133.7,103.22232142857143,546.1285714285714,3250.2,126.22232142857143,556.1285714285714,3362.2,154.22232142857143,570.1285714285714,3462.4,167.22232142857143,575.1285714285714,3573.5,183.22232142857143,586.1285714285714,3680.9,184.22232142857143,586.1285714285714,3782.5,184.22232142857143,586.1285714285714,3896.5,184.22232142857143,586.1285714285714,4009.2,184.22232142857143,586.1285714285714,4113.3,184.22232142857143,586.1285714285714,4223.7,184.22232142857143,586.1285714285714,4327,184.22232142857143,586.1285714285714,4428.8,184.22232142857143,586.1285714285714,4531.6,184.22232142857143,586.1285714285714,4639.4,184.22232142857143,586.1285714285714,4741.3,184.22232142857143,586.1285714285714,4848.9,184.22232142857143,586.1285714285714,4954.3]","[5743.3,5743.3,3327.8,2013,402.5,""smooth"",""left"",""left"",""good_move"",8668.8,2922.9,2483.7,5745.9,439.2,""oops"",""down"",""down"",""good_move"",11798.8,3125.9,2721.1,8672.9,404.8,""oops"",""left"",""up"",""bad_move"",15404.9,3601.7,2260.3,11803.2,1341.4,""oops"",""down"",""left"",""good_move"",18856.7,3449.4,2769.4,15407.3,680,""oops"",""down"",""right"",""bad_move"",25445.6,6586.5,2696,22440.7,308.9,""smooth"",""down"",""down"",""good_move"",28426.8,2978,2640.3,25448.8,337.7,""smooth"",""down"",""down"",""good_move"",31589.7,3151,2770.5,28438.7,380.5,""smooth"",""down"",""down"",""good_move"",34442.1,2850.8,2520.8,31591.4,329.9,""smooth"",""left"",""left"",""good_move"",36914.5,2469.8,2085.9,34444.8,383.9,""while_blue"",""left"",""right"",""bad_move"",39469.4,2550.4,2153.9,36919.1,396.5,""oops"",""left"",""left"",""good_move"",42738,3265.9,2920.4,39472.1,345.6,""oops"",""left"",""right"",""bad_move"",46111,3370.9,3033.9,42740.1,337,""smooth"",""left"",""left"",""good_move"",53384.1,7264.6,2981.8,50078.3,324.1,""smooth"",""left"",""left"",""good_move""]","",""
"5322","","<div style=""width:500px;"">
  <p>What determined the result of this run?</p>
  </div>","78","html-slider-response","35","765085","0.0-5.0-1.5","172","1","2025-07-23 07:26:09","1f75c3e559b7213887762d5229550c2b","197.184.124.182","Mozilla/5.0 (Windows NT 10.0; Win64; x64) AppleWebKit/537.36 (KHTML, like Gecko) Chrome/138.0.0.0 Safari/537.36","WebKit","Chrome","138.0.0.0","Windows","10.0","https://app.prolific.com/","en-US,en;q=0.9","60ad28c6d838565067ab1b6c","683db9eb0562dbf637994deb","68808e891e3e23bb9581e57a","2","1","60ad28c6d838565067ab1b6c","2","1","2025-07-23T07:39:01.419Z","","","","","","","","","","","AttribQ","","50","","","","","","","","","","","","","","","","","","","","","","","","","","","","",""
"4034","","<div style=""width:500px;"">
  <p>How much control did you have over the ball?</p>
  </div>","82","html-slider-response","36","769127","0.0-5.0-2.5","172","1","2025-07-23 07:26:09","1f75c3e559b7213887762d5229550c2b","197.184.124.182","Mozilla/5.0 (Windows NT 10.0; Win64; x64) AppleWebKit/537.36 (KHTML, like Gecko) Chrome/138.0.0.0 Safari/537.36","WebKit","Chrome","138.0.0.0","Windows","10.0","https://app.prolific.com/","en-US,en;q=0.9","60ad28c6d838565067ab1b6c","683db9eb0562dbf637994deb","68808e891e3e23bb9581e57a","2","1","60ad28c6d838565067ab1b6c","2","1","2025-07-23T07:39:05.462Z","","","","","","","","","","","ControlQ","","50","","","","","","","","","","","","","","","","","","","","","","","","","","","","",""
"1716","","<div style=""width:500px;"">
  <p>How would you describe your current emotional state?</p>
  </div>","23","html-slider-response","37","770850","0.0-5.0-3.5","172","1","2025-07-23 07:26:09","1f75c3e559b7213887762d5229550c2b","197.184.124.182","Mozilla/5.0 (Windows NT 10.0; Win64; x64) AppleWebKit/537.36 (KHTML, like Gecko) Chrome/138.0.0.0 Safari/537.36","WebKit","Chrome","138.0.0.0","Windows","10.0","https://app.prolific.com/","en-US,en;q=0.9","60ad28c6d838565067ab1b6c","683db9eb0562dbf637994deb","68808e891e3e23bb9581e57a","2","1","60ad28c6d838565067ab1b6c","2","1","2025-07-23T07:39:07.184Z","","","","","","","","","","","StressQ","","50","","","","","","","","","","","","","","","","","","","","","","","","","","","","",""
"2088","","<div style=""width:500px;"">
  <p>What best describes how you currently feel?</p>
  </div>","79","html-slider-response","38","772941","0.0-5.0-4.5","172","1","2025-07-23 07:26:09","1f75c3e559b7213887762d5229550c2b","197.184.124.182","Mozilla/5.0 (Windows NT 10.0; Win64; x64) AppleWebKit/537.36 (KHTML, like Gecko) Chrome/138.0.0.0 Safari/537.36","WebKit","Chrome","138.0.0.0","Windows","10.0","https://app.prolific.com/","en-US,en;q=0.9","60ad28c6d838565067ab1b6c","683db9eb0562dbf637994deb","68808e891e3e23bb9581e57a","2","1","60ad28c6d838565067ab1b6c","2","1","2025-07-23T07:39:09.276Z","","","","","","","","","","","MotivationQ","","50","","","","","","","","","","","","","","","","","","","","","","","","","","","","",""
"","","","","ctl-task-cpt","39","831204","0.0-5.0-0.6","172","1","2025-07-23 07:26:09","1f75c3e559b7213887762d5229550c2b","197.184.124.182","Mozilla/5.0 (Windows NT 10.0; Win64; x64) AppleWebKit/537.36 (KHTML, like Gecko) Chrome/138.0.0.0 Safari/537.36","WebKit","Chrome","138.0.0.0","Windows","10.0","https://app.prolific.com/","en-US,en;q=0.9","60ad28c6d838565067ab1b6c","683db9eb0562dbf637994deb","68808e891e3e23bb9581e57a","2","1","60ad28c6d838565067ab1b6c","2","1","2025-07-23T07:40:07.538Z","","","","","","","","","","","","","","win-only","1","g1:NE,g2:SW","0.4","7","0","780532.7","986.4","5989.4","55231","1","4","8","6","2","8","8","30","22","0.22727272727272727","1099","3000","905","[""down"",""left""]","{""num_key_presses"":12,""num_perfect"":6,""num_errors"":0,""num_randdir"":6,""num_randdir_good_moves"":3,""num_whilered"":0,""num_whileblue"":0,""num_blue"":4,""num_good_moves"":9}","[289.22232142857143,301.12857142857143,0.8,289.22232142857143,301.12857142857143,111.2,289.22232142857143,301.12857142857143,222.3,289.22232142857143,301.12857142857143,325.4,289.22232142857143,301.12857142857143,428.6,212.22232142857143,378.12857142857143,531.7,63.222321428571426,488.12857142857143,651.4,48.222321428571426,501.12857142857143,756.1,43.222321428571426,505.12857142857143,861.1,42.222321428571426,509.12857142857143,962.5,42.222321428571426,509.12857142857143,1069.7,42.222321428571426,509.12857142857143,1174.4,42.222321428571426,509.12857142857143,1280.4,42.222321428571426,509.12857142857143,1381.3,42.222321428571426,510.12857142857143,1491.1,262.22232142857143,517.1285714285714,1611.2,369.22232142857143,518.1285714285714,1714.1,369.22232142857143,518.1285714285714,1824.7,369.22232142857143,518.1285714285714,1927.8,369.22232142857143,518.1285714285714,2039.3,369.22232142857143,518.1285714285714,2143.2,369.22232142857143,518.1285714285714,2253.3,369.22232142857143,518.1285714285714,2358.7,369.22232142857143,518.1285714285714,2468,369.22232142857143,518.1285714285714,2577.5,369.22232142857143,518.1285714285714,2683.5,369.22232142857143,518.1285714285714,2788.7,369.22232142857143,518.1285714285714,2890.7,369.22232142857143,518.1285714285714,3002,369.22232142857143,518.1285714285714,3106.7,369.22232142857143,518.1285714285714,3221.6,369.22232142857143,518.1285714285714,3322.8,369.22232142857143,518.1285714285714,3432.6,369.22232142857143,518.1285714285714,3533.1,369.22232142857143,518.1285714285714,3641.7,369.22232142857143,518.1285714285714,3743.2,369.22232142857143,518.1285714285714,3846.2,369.22232142857143,518.1285714285714,3954.3,369.22232142857143,518.1285714285714,4071.3,369.22232142857143,518.1285714285714,4180.8,369.22232142857143,518.1285714285714,4285.5,369.22232142857143,518.1285714285714,4395.4,369.22232142857143,518.1285714285714,4504.7,369.22232142857143,518.1285714285714,4615.2,369.22232142857143,518.1285714285714,4719.7,369.22232142857143,518.1285714285714,4823.9,369.22232142857143,518.1285714285714,4926.9]","[1431.4,1431.4,1000,0,431.5,""smooth"",""left"",""left"",""good_move"",4818.3,3385.2,2858.3,1433.1,526.9,""oops"",""left"",""up"",""bad_move"",8344.5,3522.4,2557.3,4822.1,965.1,""smooth"",""left"",""left"",""good_move"",11553.5,3206.7,2505.6,8347,701,""smooth"",""left"",""left"",""good_move"",18169,6614.5,2344.1,15242.3,582.6,""oops"",""down"",""down"",""good_move"",21251.2,3073.8,2636.7,18177.5,437,""oops"",""down"",""right"",""bad_move"",24482.7,3228.9,2779.4,21253.9,449.5,""smooth"",""down"",""down"",""good_move"",31157.7,6671.7,2195.6,28568.5,393.7,""oops"",""down"",""right"",""bad_move"",37200.5,6041.6,2048.1,34757.4,395,""oops"",""down"",""down"",""good_move"",40140.8,2939.2,2506.4,37201.6,432.8,""oops"",""down"",""down"",""good_move"",42940.5,2797.8,2475.8,40142.7,322.1,""smooth"",""left"",""left"",""good_move"",48970.5,6026.7,1880.3,46706.8,383.4,""smooth"",""left"",""left"",""good_move""]","",""
"4131","","<div style=""width:500px;"">
  <p>What determined the result of this run?</p>
  </div>","14","html-slider-response","40","835341","0.0-5.0-1.6","172","1","2025-07-23 07:26:09","1f75c3e559b7213887762d5229550c2b","197.184.124.182","Mozilla/5.0 (Windows NT 10.0; Win64; x64) AppleWebKit/537.36 (KHTML, like Gecko) Chrome/138.0.0.0 Safari/537.36","WebKit","Chrome","138.0.0.0","Windows","10.0","https://app.prolific.com/","en-US,en;q=0.9","60ad28c6d838565067ab1b6c","683db9eb0562dbf637994deb","68808e891e3e23bb9581e57a","2","1","60ad28c6d838565067ab1b6c","2","1","2025-07-23T07:40:11.675Z","","","","","","","","","","","AttribQ","","50","","","","","","","","","","","","","","","","","","","","","","","","","","","","",""
"2276","","<div style=""width:500px;"">
  <p>How much control did you have over the ball?</p>
  </div>","68","html-slider-response","41","837624","0.0-5.0-2.6","172","1","2025-07-23 07:26:09","1f75c3e559b7213887762d5229550c2b","197.184.124.182","Mozilla/5.0 (Windows NT 10.0; Win64; x64) AppleWebKit/537.36 (KHTML, like Gecko) Chrome/138.0.0.0 Safari/537.36","WebKit","Chrome","138.0.0.0","Windows","10.0","https://app.prolific.com/","en-US,en;q=0.9","60ad28c6d838565067ab1b6c","683db9eb0562dbf637994deb","68808e891e3e23bb9581e57a","2","1","60ad28c6d838565067ab1b6c","2","1","2025-07-23T07:40:13.958Z","","","","","","","","","","","ControlQ","","50","","","","","","","","","","","","","","","","","","","","","","","","","","","","",""
"3654","","<div style=""width:500px;"">
  <p>How would you describe your current emotional state?</p>
  </div>","16","html-slider-response","42","841288","0.0-5.0-3.6","172","1","2025-07-23 07:26:09","1f75c3e559b7213887762d5229550c2b","197.184.124.182","Mozilla/5.0 (Windows NT 10.0; Win64; x64) AppleWebKit/537.36 (KHTML, like Gecko) Chrome/138.0.0.0 Safari/537.36","WebKit","Chrome","138.0.0.0","Windows","10.0","https://app.prolific.com/","en-US,en;q=0.9","60ad28c6d838565067ab1b6c","683db9eb0562dbf637994deb","68808e891e3e23bb9581e57a","2","1","60ad28c6d838565067ab1b6c","2","1","2025-07-23T07:40:17.623Z","","","","","","","","","","","StressQ","","50","","","","","","","","","","","","","","","","","","","","","","","","","","","","",""
"2358","","<div style=""width:500px;"">
  <p>What best describes how you currently feel?</p>
  </div>","78","html-slider-response","43","843651","0.0-5.0-4.6","172","1","2025-07-23 07:26:09","1f75c3e559b7213887762d5229550c2b","197.184.124.182","Mozilla/5.0 (Windows NT 10.0; Win64; x64) AppleWebKit/537.36 (KHTML, like Gecko) Chrome/138.0.0.0 Safari/537.36","WebKit","Chrome","138.0.0.0","Windows","10.0","https://app.prolific.com/","en-US,en;q=0.9","60ad28c6d838565067ab1b6c","683db9eb0562dbf637994deb","68808e891e3e23bb9581e57a","2","1","60ad28c6d838565067ab1b6c","2","1","2025-07-23T07:40:19.986Z","","","","","","","","","","","MotivationQ","","50","","","","","","","","","","","","","","","","","","","","","","","","","","","","",""
"","","","","ctl-task-cpt","44","884365","0.0-5.0-0.7","172","1","2025-07-23 07:26:09","1f75c3e559b7213887762d5229550c2b","197.184.124.182","Mozilla/5.0 (Windows NT 10.0; Win64; x64) AppleWebKit/537.36 (KHTML, like Gecko) Chrome/138.0.0.0 Safari/537.36","WebKit","Chrome","138.0.0.0","Windows","10.0","https://app.prolific.com/","en-US,en;q=0.9","60ad28c6d838565067ab1b6c","683db9eb0562dbf637994deb","68808e891e3e23bb9581e57a","2","1","60ad28c6d838565067ab1b6c","2","1","2025-07-23T07:41:00.699Z","","","","","","","","","","","","","","win-only","3","g1:SW,g2:NE","0.3","8","0","851238.1","4912.3","9916.1","37669.9","1","4","4","6","2","4","4","34","30","0.25757575757575757","1396.7","3000","1760","[""up"",""right""]","{""num_key_presses"":10,""num_perfect"":3,""num_errors"":0,""num_randdir"":7,""num_randdir_good_moves"":5,""num_whilered"":0,""num_whileblue"":0,""num_blue"":0,""num_good_moves"":8}","[293.22232142857143,290.12857142857143,3.7,293.22232142857143,290.12857142857143,101.4,293.22232142857143,290.12857142857143,209.1,293.22232142857143,290.12857142857143,320.9,293.22232142857143,290.12857142857143,433.5,293.22232142857143,290.12857142857143,539.7,302.22232142857143,288.12857142857143,659.1,611.2223214285714,97.12857142857143,778.5,612.2223214285714,96.12857142857143,880.1,612.2223214285714,96.12857142857143,986.4,579.2223214285714,69.12857142857143,1096.6,564.2223214285714,60.128571428571426,1209.9,564.2223214285714,60.128571428571426,1319.2,564.2223214285714,60.128571428571426,1427.2,564.2223214285714,60.128571428571426,1538.9,564.2223214285714,60.128571428571426,1643.9,564.2223214285714,60.128571428571426,1749.7,564.2223214285714,60.128571428571426,1869.2,564.2223214285714,60.128571428571426,1979.4,564.2223214285714,60.128571428571426,2085.8,564.2223214285714,60.128571428571426,2194.1,564.2223214285714,60.128571428571426,2315.2,564.2223214285714,60.128571428571426,2419.6,564.2223214285714,60.128571428571426,2526.5,564.2223214285714,60.128571428571426,2636.3,564.2223214285714,60.128571428571426,2747.2,564.2223214285714,60.128571428571426,2851,564.2223214285714,60.128571428571426,2959.5,564.2223214285714,60.128571428571426,3079.9,564.2223214285714,60.128571428571426,3184.3,564.2223214285714,60.128571428571426,3289.6,564.2223214285714,60.128571428571426,3394.1,564.2223214285714,60.128571428571426,3495.5,564.2223214285714,60.128571428571426,3600.6,564.2223214285714,60.128571428571426,3705.6,564.2223214285714,60.128571428571426,3816.3,564.2223214285714,60.128571428571426,3916.6,564.2223214285714,60.128571428571426,4020.9,564.2223214285714,60.128571428571426,4131.5,564.2223214285714,60.128571428571426,4243.2,564.2223214285714,60.128571428571426,4350.3,564.2223214285714,60.128571428571426,4455.6,564.2223214285714,60.128571428571426,4560.4,564.2223214285714,60.128571428571426,4662.1,564.2223214285714,60.128571428571426,4770.9,564.2223214285714,60.128571428571426,4876.5,564.2223214285714,60.128571428571426,4991.5]","[1475.3,1475.3,1000,0,475.3,""oops"",""up"",""up"",""good_move"",4384.3,2907.2,1941.1,1477.1,966.1,""oops"",""right"",""down"",""bad_move"",7260.9,2871.1,2470.4,4389.9,400.6,""oops"",""up"",""up"",""good_move"",10463.1,3200.2,2692.6,7262.9,507.6,""oops"",""up"",""up"",""good_move"",13710.1,3244.4,2357.1,10465.8,887.2,""smooth"",""up"",""up"",""good_move"",16224.9,2507.6,2087.5,13717.3,420.1,""oops"",""right"",""down"",""bad_move"",18895.3,2668.9,2359.7,16226.4,309.2,""oops"",""right"",""right"",""good_move"",21739.3,2841.7,2521.4,18897.6,320.3,""smooth"",""right"",""right"",""good_move"",24554.7,2813.6,2464.5,21741.2,349,""oops"",""up"",""right"",""good_move"",27429.5,2872.6,2549.7,24556.9,322.9,""smooth"",""up"",""up"",""good_move""]","",""
"2515","","<div style=""width:500px;"">
  <p>What determined the result of this run?</p>
  </div>","14","html-slider-response","45","886885","0.0-5.0-1.7","172","1","2025-07-23 07:26:09","1f75c3e559b7213887762d5229550c2b","197.184.124.182","Mozilla/5.0 (Windows NT 10.0; Win64; x64) AppleWebKit/537.36 (KHTML, like Gecko) Chrome/138.0.0.0 Safari/537.36","WebKit","Chrome","138.0.0.0","Windows","10.0","https://app.prolific.com/","en-US,en;q=0.9","60ad28c6d838565067ab1b6c","683db9eb0562dbf637994deb","68808e891e3e23bb9581e57a","2","1","60ad28c6d838565067ab1b6c","2","1","2025-07-23T07:41:03.219Z","","","","","","","","","","","AttribQ","","50","","","","","","","","","","","","","","","","","","","","","","","","","","","","",""
"3645","","<div style=""width:500px;"">
  <p>How much control did you have over the ball?</p>
  </div>","74","html-slider-response","46","890537","0.0-5.0-2.7","172","1","2025-07-23 07:26:09","1f75c3e559b7213887762d5229550c2b","197.184.124.182","Mozilla/5.0 (Windows NT 10.0; Win64; x64) AppleWebKit/537.36 (KHTML, like Gecko) Chrome/138.0.0.0 Safari/537.36","WebKit","Chrome","138.0.0.0","Windows","10.0","https://app.prolific.com/","en-US,en;q=0.9","60ad28c6d838565067ab1b6c","683db9eb0562dbf637994deb","68808e891e3e23bb9581e57a","2","1","60ad28c6d838565067ab1b6c","2","1","2025-07-23T07:41:06.872Z","","","","","","","","","","","ControlQ","","50","","","","","","","","","","","","","","","","","","","","","","","","","","","","",""
"7479","","<div style=""width:500px;"">
  <p>How would you describe your current emotional state?</p>
  </div>","31","html-slider-response","47","898021","0.0-5.0-3.7","172","1","2025-07-23 07:26:09","1f75c3e559b7213887762d5229550c2b","197.184.124.182","Mozilla/5.0 (Windows NT 10.0; Win64; x64) AppleWebKit/537.36 (KHTML, like Gecko) Chrome/138.0.0.0 Safari/537.36","WebKit","Chrome","138.0.0.0","Windows","10.0","https://app.prolific.com/","en-US,en;q=0.9","60ad28c6d838565067ab1b6c","683db9eb0562dbf637994deb","68808e891e3e23bb9581e57a","2","1","60ad28c6d838565067ab1b6c","2","1","2025-07-23T07:41:14.355Z","","","","","","","","","","","StressQ","","50","","","","","","","","","","","","","","","","","","","","","","","","","","","","",""
"2941","","<div style=""width:500px;"">
  <p>What best describes how you currently feel?</p>
  </div>","77","html-slider-response","48","900968","0.0-5.0-4.7","172","1","2025-07-23 07:26:09","1f75c3e559b7213887762d5229550c2b","197.184.124.182","Mozilla/5.0 (Windows NT 10.0; Win64; x64) AppleWebKit/537.36 (KHTML, like Gecko) Chrome/138.0.0.0 Safari/537.36","WebKit","Chrome","138.0.0.0","Windows","10.0","https://app.prolific.com/","en-US,en;q=0.9","60ad28c6d838565067ab1b6c","683db9eb0562dbf637994deb","68808e891e3e23bb9581e57a","2","1","60ad28c6d838565067ab1b6c","2","1","2025-07-23T07:41:17.302Z","","","","","","","","","","","MotivationQ","","50","","","","","","","","","","","","","","","","","","","","","","","","","","","","",""
"","","","","ctl-task-cpt","49","1034995","0.0-5.0-0.8","172","1","2025-07-23 07:26:09","1f75c3e559b7213887762d5229550c2b","197.184.124.182","Mozilla/5.0 (Windows NT 10.0; Win64; x64) AppleWebKit/537.36 (KHTML, like Gecko) Chrome/138.0.0.0 Safari/537.36","WebKit","Chrome","138.0.0.0","Windows","10.0","https://app.prolific.com/","en-US,en;q=0.9","60ad28c6d838565067ab1b6c","683db9eb0562dbf637994deb","68808e891e3e23bb9581e57a","2","1","60ad28c6d838565067ab1b6c","2","1","2025-07-23T07:43:31.329Z","","","","","","","","","","","","","","win-only","1","g1:NE,g2:SW","0.2","9","0","908556.4","1525.5","6538.6","130967.1","1","4","4","6","2","4","3","37","34","0.2803030303030303","1405.2","3000","705","[""down"",""left""]","{""num_key_presses"":26,""num_perfect"":6,""num_errors"":1,""num_randdir"":19,""num_randdir_good_moves"":10,""num_whilered"":0,""num_whileblue"":1,""num_blue"":10,""num_good_moves"":16}","[297.22232142857143,292.12857142857143,1.9,297.22232142857143,292.12857142857143,106.6,297.22232142857143,292.12857142857143,223.4,297.22232142857143,292.12857142857143,327.1,297.22232142857143,292.12857142857143,438,264.22232142857143,315.12857142857143,566.4,-73.77767857142857,624.1285714285714,684.2,-74.77767857142857,625.1285714285714,790.7,-28.777678571428574,589.1285714285714,901.3,36.222321428571426,562.1285714285714,1005.2,41.222321428571426,561.1285714285714,1110.5,42.222321428571426,561.1285714285714,1220.1,42.222321428571426,561.1285714285714,1335.8,42.222321428571426,561.1285714285714,1446.9,42.222321428571426,561.1285714285714,1563.4,42.222321428571426,561.1285714285714,1678.4,42.222321428571426,561.1285714285714,1781.3,42.222321428571426,561.1285714285714,1896.2,42.222321428571426,561.1285714285714,2017.4,42.222321428571426,561.1285714285714,2132.6,42.222321428571426,561.1285714285714,2248.5,42.222321428571426,561.1285714285714,2381.5,42.222321428571426,561.1285714285714,2487.7,42.222321428571426,561.1285714285714,2587.9,42.222321428571426,561.1285714285714,2700.9,42.222321428571426,561.1285714285714,2816.7,42.222321428571426,561.1285714285714,2931.3,42.222321428571426,561.1285714285714,3032.4,42.222321428571426,561.1285714285714,3136.9,42.222321428571426,561.1285714285714,3241.9,42.222321428571426,561.1285714285714,3355,42.222321428571426,561.1285714285714,3464.7,42.222321428571426,561.1285714285714,3579.1,42.222321428571426,561.1285714285714,3688,42.222321428571426,561.1285714285714,3803.4,42.222321428571426,561.1285714285714,3917.7,42.222321428571426,561.1285714285714,4035,42.222321428571426,561.1285714285714,4137.4,42.222321428571426,561.1285714285714,4247.2,42.222321428571426,561.1285714285714,4361.4,42.222321428571426,561.1285714285714,4467.8,42.222321428571426,561.1285714285714,4584.8,42.222321428571426,561.1285714285714,4699,42.222321428571426,561.1285714285714,4804.6,42.222321428571426,561.1285714285714,4920.5]","[1388.8,1388.8,1000,0,388.8,""oops"",""left"",""down"",""good_move"",4606.6,3216.4,2743.3,1390.3,473.1,""oops"",""left"",""right"",""bad_move"",7214.4,2600.1,2118.7,4614.3,481.4,""oops"",""down"",""right"",""bad_move"",10852.5,3636.2,3277.3,7216.3,358.9,""oops"",""down"",""down"",""good_move"",13663.1,2808.5,2243,10854.6,565.5,""oops"",""down"",""down"",""good_move"",16122.9,2455.1,2056.9,13667.9,398.2,""smooth"",""left"",""left"",""good_move"",19287.9,3156.3,2241.7,16131.6,914.6,""smooth"",""left"",""left"",""good_move"",22661.6,3366.7,1614.7,19294.9,1752,""oops"",""left"",""up"",""bad_move"",29328.3,6664,1975.3,26959.4,393.6,""oops"",""left"",""down"",""good_move"",35688.5,6358.3,1740.8,33547.3,400.4,""oops"",""left"",""left"",""good_move"",38977.1,3287,2730.8,35690.2,556.2,""oops"",""left"",""left"",""good_move"",44924.6,5945.7,2196.4,42364.4,363.8,""oops"",""left"",""up"",""bad_move"",48384.1,3455.2,2920.6,44928.9,534.6,""oops"",""left"",""up"",""bad_move"",52044.8,3659.1,3075.5,48385.7,583.6,""oops"",""left"",""down"",""good_move"",54850.9,2804.1,2372.3,52046.8,431.8,""oops"",""left"",""right"",""bad_move"",57734.1,2881,2559.9,54853.1,321.1,""oops"",""down"",""up"",""bad_move"",62174.9,4439.2,1818.9,57735.7,2620.3,""oops"",""down"",""left"",""good_move"",70753.7,8577,2654.1,67636.1,463.5,""oops"",""down"",""up"",""bad_move"",75943.5,5188.5,2071.7,70755,3116.8,""smooth"",""left"",""left"",""good_move"",80881.4,4936.3,2541,75945.1,2395.3,""smooth"",""down"",""down"",""good_move"",94236.3,13353.5,2310.5,91489.7,436.1,""oops"",""down"",""right"",""bad_move"",96757.5,2518.9,1920.5,94238.6,598.5,""while_blue"",""down"",""up"",""bad_move"",103730.9,6971.9,2588.6,96759,4383.3,""oops"",""left"",""left"",""good_move"",114985.3,11253,2458.6,111761.8,764.9,""smooth"",""down"",""down"",""good_move"",120424.2,5436,1764.2,118144.1,515.9,""smooth"",""down"",""down"",""good_move"",123567.3,3141.5,2598.3,120425.9,543.1,""oops"",""down"",""down"",""good_move""]","",""
"9781","","<div style=""width:500px;"">
  <p>What determined the result of this run?</p>
  </div>","13","html-slider-response","50","1044783","0.0-5.0-1.8","172","1","2025-07-23 07:26:09","1f75c3e559b7213887762d5229550c2b","197.184.124.182","Mozilla/5.0 (Windows NT 10.0; Win64; x64) AppleWebKit/537.36 (KHTML, like Gecko) Chrome/138.0.0.0 Safari/537.36","WebKit","Chrome","138.0.0.0","Windows","10.0","https://app.prolific.com/","en-US,en;q=0.9","60ad28c6d838565067ab1b6c","683db9eb0562dbf637994deb","68808e891e3e23bb9581e57a","2","1","60ad28c6d838565067ab1b6c","2","1","2025-07-23T07:43:41.117Z","","","","","","","","","","","AttribQ","","50","","","","","","","","","","","","","","","","","","","","","","","","","","","","",""
"3034","","<div style=""width:500px;"">
  <p>How much control did you have over the ball?</p>
  </div>","23","html-slider-response","51","1047823","0.0-5.0-2.8","172","1","2025-07-23 07:26:09","1f75c3e559b7213887762d5229550c2b","197.184.124.182","Mozilla/5.0 (Windows NT 10.0; Win64; x64) AppleWebKit/537.36 (KHTML, like Gecko) Chrome/138.0.0.0 Safari/537.36","WebKit","Chrome","138.0.0.0","Windows","10.0","https://app.prolific.com/","en-US,en;q=0.9","60ad28c6d838565067ab1b6c","683db9eb0562dbf637994deb","68808e891e3e23bb9581e57a","2","1","60ad28c6d838565067ab1b6c","2","1","2025-07-23T07:43:44.157Z","","","","","","","","","","","ControlQ","","50","","","","","","","","","","","","","","","","","","","","","","","","","","","","",""
"2796","","<div style=""width:500px;"">
  <p>How would you describe your current emotional state?</p>
  </div>","16","html-slider-response","52","1050625","0.0-5.0-3.8","172","1","2025-07-23 07:26:09","1f75c3e559b7213887762d5229550c2b","197.184.124.182","Mozilla/5.0 (Windows NT 10.0; Win64; x64) AppleWebKit/537.36 (KHTML, like Gecko) Chrome/138.0.0.0 Safari/537.36","WebKit","Chrome","138.0.0.0","Windows","10.0","https://app.prolific.com/","en-US,en;q=0.9","60ad28c6d838565067ab1b6c","683db9eb0562dbf637994deb","68808e891e3e23bb9581e57a","2","1","60ad28c6d838565067ab1b6c","2","1","2025-07-23T07:43:46.959Z","","","","","","","","","","","StressQ","","50","","","","","","","","","","","","","","","","","","","","","","","","","","","","",""
"2327","","<div style=""width:500px;"">
  <p>What best describes how you currently feel?</p>
  </div>","78","html-slider-response","53","1052958","0.0-5.0-4.8","172","1","2025-07-23 07:26:09","1f75c3e559b7213887762d5229550c2b","197.184.124.182","Mozilla/5.0 (Windows NT 10.0; Win64; x64) AppleWebKit/537.36 (KHTML, like Gecko) Chrome/138.0.0.0 Safari/537.36","WebKit","Chrome","138.0.0.0","Windows","10.0","https://app.prolific.com/","en-US,en;q=0.9","60ad28c6d838565067ab1b6c","683db9eb0562dbf637994deb","68808e891e3e23bb9581e57a","2","1","60ad28c6d838565067ab1b6c","2","1","2025-07-23T07:43:49.293Z","","","","","","","","","","","MotivationQ","","50","","","","","","","","","","","","","","","","","","","","","","","","","","","","",""
"","","","","ctl-task-cpt","54","1231956","0.0-5.0-0.9","172","1","2025-07-23 07:26:09","1f75c3e559b7213887762d5229550c2b","197.184.124.182","Mozilla/5.0 (Windows NT 10.0; Win64; x64) AppleWebKit/537.36 (KHTML, like Gecko) Chrome/138.0.0.0 Safari/537.36","WebKit","Chrome","138.0.0.0","Windows","10.0","https://app.prolific.com/","en-US,en;q=0.9","60ad28c6d838565067ab1b6c","683db9eb0562dbf637994deb","68808e891e3e23bb9581e57a","2","1","60ad28c6d838565067ab1b6c","2","1","2025-07-23T07:46:48.290Z","","","","","","","","","","","","","","win-only","0","g1:NW,g2:SE","0.4","10","0","1060550.6","8280.8","13314.1","175942.3","1","4","8","6","2","8","8","45","37","0.3409090909090909","1383.1","3000","2190","[""down"",""right""]","{""num_key_presses"":22,""num_perfect"":10,""num_errors"":0,""num_randdir"":12,""num_randdir_good_moves"":5,""num_whilered"":0,""num_whileblue"":0,""num_blue"":6,""num_good_moves"":15}","[295.22232142857143,303.12857142857143,2,295.22232142857143,303.12857142857143,122.6,295.22232142857143,303.12857142857143,238.2,295.22232142857143,303.12857142857143,340.7,295.22232142857143,303.12857142857143,457.8,295.22232142857143,303.12857142857143,573.9,483.22232142857143,520.1285714285714,737.6,564.2223214285714,584.1285714285714,893.1,554.2223214285714,578.1285714285714,1038.1,552.2223214285714,576.1285714285714,1152.3,552.2223214285714,576.1285714285714,1256.1,552.2223214285714,576.1285714285714,1370.2,552.2223214285714,576.1285714285714,1500.3,552.2223214285714,576.1285714285714,1629.4,552.2223214285714,576.1285714285714,1744.5,552.2223214285714,576.1285714285714,1858,552.2223214285714,576.1285714285714,1972.7,552.2223214285714,576.1285714285714,2079.7,552.2223214285714,576.1285714285714,2210.8,552.2223214285714,576.1285714285714,2317,552.2223214285714,576.1285714285714,2418.2,552.2223214285714,576.1285714285714,2533.6,552.2223214285714,576.1285714285714,2706,552.2223214285714,576.1285714285714,2828.1,552.2223214285714,576.1285714285714,2932.3,552.2223214285714,576.1285714285714,3043.4,552.2223214285714,576.1285714285714,3149.6,552.2223214285714,576.1285714285714,3288.3,552.2223214285714,576.1285714285714,3400.1,860.2223214285714,306.12857142857143,3542.1,860.2223214285714,306.12857142857143,3662.9,860.2223214285714,306.12857142857143,3774.2,860.2223214285714,306.12857142857143,3884.6,860.2223214285714,306.12857142857143,4001.5,860.2223214285714,306.12857142857143,4148.1,860.2223214285714,306.12857142857143,4257.7,860.2223214285714,306.12857142857143,4357.8,860.2223214285714,306.12857142857143,4497,860.2223214285714,306.12857142857143,4644.2,860.2223214285714,306.12857142857143,4780.4,860.2223214285714,306.12857142857143,4883.4]","[1451.9,1451.9,1000,0,451.9,""smooth"",""down"",""down"",""good_move"",4608.4,3154.8,2598.9,1453.6,555.9,""oops"",""right"",""right"",""good_move"",8124,3514.1,2950.9,4610,563.1,""smooth"",""right"",""right"",""good_move"",10917.3,2791.6,2202.5,8126,588.9,""oops"",""down"",""up"",""bad_move"",27443.1,16524.1,2607.6,24448.3,387.2,""smooth"",""right"",""right"",""good_move"",30650.8,3206.7,2639.2,27444.2,567.5,""oops"",""down"",""down"",""good_move"",33792.4,3139.6,2495.1,30652.8,644.5,""smooth"",""down"",""down"",""good_move"",36854.3,3060.2,2515.9,33794.1,544.3,""oops"",""down"",""down"",""good_move"",43617.1,6761.1,2673.1,40397.9,546.1,""oops"",""down"",""up"",""bad_move"",56780.5,13162.3,2686.4,43618.2,10475.9,""oops"",""right"",""up"",""bad_move"",77970.9,21187.4,2691.8,74739.8,539.3,""smooth"",""down"",""down"",""good_move"",81196.7,3224.5,2554.6,77972.2,669.9,""smooth"",""down"",""down"",""good_move"",84053.3,2850.4,2331.7,81203.2,518.4,""oops"",""down"",""left"",""bad_move"",101016.8,16961.3,2767,97731.8,518,""oops"",""down"",""left"",""bad_move"",114824.1,13806.2,1576.6,101017.9,12229.6,""smooth"",""down"",""down"",""good_move"",118465.2,3639,2729.1,114826.2,909.9,""oops"",""right"",""left"",""bad_move"",131768,13301.3,1880.3,118466.7,11421,""oops"",""right"",""right"",""good_move"",134678.9,2909.3,2221.1,131769.6,688.2,""smooth"",""right"",""right"",""good_move"",142043.8,7361.5,2690.7,138751.6,601.6,""oops"",""right"",""up"",""bad_move"",155559,13513.6,2214.4,142045.4,11299.2,""oops"",""right"",""down"",""good_move"",159219.3,3659.3,3100.8,155560,558.5,""smooth"",""right"",""right"",""good_move"",162443.8,3222.6,2901.7,159221.3,320.9,""smooth"",""right"",""right"",""good_move""]","",""
"3611","","<div style=""width:500px;"">
  <p>What determined the result of this run?</p>
  </div>","0","html-slider-response","55","1235574","0.0-5.0-1.9","172","1","2025-07-23 07:26:09","1f75c3e559b7213887762d5229550c2b","197.184.124.182","Mozilla/5.0 (Windows NT 10.0; Win64; x64) AppleWebKit/537.36 (KHTML, like Gecko) Chrome/138.0.0.0 Safari/537.36","WebKit","Chrome","138.0.0.0","Windows","10.0","https://app.prolific.com/","en-US,en;q=0.9","60ad28c6d838565067ab1b6c","683db9eb0562dbf637994deb","68808e891e3e23bb9581e57a","2","1","60ad28c6d838565067ab1b6c","2","1","2025-07-23T07:46:51.909Z","","","","","","","","","","","AttribQ","","50","","","","","","","","","","","","","","","","","","","","","","","","","","","","",""
"4465","","<div style=""width:500px;"">
  <p>How much control did you have over the ball?</p>
  </div>","61","html-slider-response","56","1240042","0.0-5.0-2.9","172","1","2025-07-23 07:26:09","1f75c3e559b7213887762d5229550c2b","197.184.124.182","Mozilla/5.0 (Windows NT 10.0; Win64; x64) AppleWebKit/537.36 (KHTML, like Gecko) Chrome/138.0.0.0 Safari/537.36","WebKit","Chrome","138.0.0.0","Windows","10.0","https://app.prolific.com/","en-US,en;q=0.9","60ad28c6d838565067ab1b6c","683db9eb0562dbf637994deb","68808e891e3e23bb9581e57a","2","1","60ad28c6d838565067ab1b6c","2","1","2025-07-23T07:46:56.376Z","","","","","","","","","","","ControlQ","","50","","","","","","","","","","","","","","","","","","","","","","","","","","","","",""
"7099","","<div style=""width:500px;"">
  <p>How would you describe your current emotional state?</p>
  </div>","28","html-slider-response","57","1247144","0.0-5.0-3.9","172","1","2025-07-23 07:26:09","1f75c3e559b7213887762d5229550c2b","197.184.124.182","Mozilla/5.0 (Windows NT 10.0; Win64; x64) AppleWebKit/537.36 (KHTML, like Gecko) Chrome/138.0.0.0 Safari/537.36","WebKit","Chrome","138.0.0.0","Windows","10.0","https://app.prolific.com/","en-US,en;q=0.9","60ad28c6d838565067ab1b6c","683db9eb0562dbf637994deb","68808e891e3e23bb9581e57a","2","1","60ad28c6d838565067ab1b6c","2","1","2025-07-23T07:47:03.479Z","","","","","","","","","","","StressQ","","50","","","","","","","","","","","","","","","","","","","","","","","","","","","","",""
"2479","","<div style=""width:500px;"">
  <p>What best describes how you currently feel?</p>
  </div>","79","html-slider-response","58","1249630","0.0-5.0-4.9","172","1","2025-07-23 07:26:09","1f75c3e559b7213887762d5229550c2b","197.184.124.182","Mozilla/5.0 (Windows NT 10.0; Win64; x64) AppleWebKit/537.36 (KHTML, like Gecko) Chrome/138.0.0.0 Safari/537.36","WebKit","Chrome","138.0.0.0","Windows","10.0","https://app.prolific.com/","en-US,en;q=0.9","60ad28c6d838565067ab1b6c","683db9eb0562dbf637994deb","68808e891e3e23bb9581e57a","2","1","60ad28c6d838565067ab1b6c","2","1","2025-07-23T07:47:05.964Z","","","","","","","","","","","MotivationQ","","50","","","","","","","","","","","","","","","","","","","","","","","","","","","","",""
"","","","","ctl-task-cpt","59","1317012","0.0-5.0-0.10","172","1","2025-07-23 07:26:09","1f75c3e559b7213887762d5229550c2b","197.184.124.182","Mozilla/5.0 (Windows NT 10.0; Win64; x64) AppleWebKit/537.36 (KHTML, like Gecko) Chrome/138.0.0.0 Safari/537.36","WebKit","Chrome","138.0.0.0","Windows","10.0","https://app.prolific.com/","en-US,en;q=0.9","60ad28c6d838565067ab1b6c","683db9eb0562dbf637994deb","68808e891e3e23bb9581e57a","2","1","60ad28c6d838565067ab1b6c","2","1","2025-07-23T07:48:13.347Z","","","","","","","","","","","","","","win-only","3","g1:SW,g2:NE","0.5","11","0","1257217.1","1787.4","6809.5","64339.6","1","4","8","6","2","8","8","53","45","0.4015151515151515","1229.2","3000","1915","[""up"",""right""]","{""num_key_presses"":12,""num_perfect"":7,""num_errors"":0,""num_randdir"":5,""num_randdir_good_moves"":2,""num_whilered"":0,""num_whileblue"":0,""num_blue"":5,""num_good_moves"":9}","[297.22232142857143,289.12857142857143,1.2,297.22232142857143,289.12857142857143,105.4,297.22232142857143,289.12857142857143,228.5,297.22232142857143,289.12857142857143,350.2,297.22232142857143,289.12857142857143,470.6,479.22232142857143,166.12857142857143,577.6,479.22232142857143,166.12857142857143,681.1,479.22232142857143,166.12857142857143,800.5,524.2223214285714,88.12857142857143,924.6,538.2223214285714,65.12857142857143,1048.4,538.2223214285714,65.12857142857143,1167.1,538.2223214285714,65.12857142857143,1285.8,538.2223214285714,65.12857142857143,1386.8,538.2223214285714,65.12857142857143,1496,538.2223214285714,65.12857142857143,1617,538.2223214285714,65.12857142857143,1726.9,538.2223214285714,65.12857142857143,1853.1,538.2223214285714,65.12857142857143,1973.9,538.2223214285714,65.12857142857143,2092.7,538.2223214285714,65.12857142857143,2193,538.2223214285714,65.12857142857143,2293.1,538.2223214285714,65.12857142857143,2399,538.2223214285714,65.12857142857143,2500.8,538.2223214285714,65.12857142857143,2617,538.2223214285714,65.12857142857143,2731.8,538.2223214285714,65.12857142857143,2833,538.2223214285714,65.12857142857143,2943.2,538.2223214285714,65.12857142857143,3051.8,538.2223214285714,65.12857142857143,3170.7,538.2223214285714,65.12857142857143,3283.8,538.2223214285714,65.12857142857143,3401.8,538.2223214285714,65.12857142857143,3506,538.2223214285714,65.12857142857143,3613,538.2223214285714,65.12857142857143,3720.9,538.2223214285714,65.12857142857143,3835.2,538.2223214285714,65.12857142857143,3943.5,538.2223214285714,65.12857142857143,4055.5,538.2223214285714,65.12857142857143,4158.3,538.2223214285714,65.12857142857143,4270.4,538.2223214285714,65.12857142857143,4374,538.2223214285714,65.12857142857143,4493.6,538.2223214285714,65.12857142857143,4594,538.2223214285714,65.12857142857143,4699,538.2223214285714,65.12857142857143,4800.8,538.2223214285714,65.12857142857143,4901.4]","[1356,1356,1000,0,356,""smooth"",""up"",""up"",""good_move"",14539.6,13181.8,2274,11862.8,402.8,""smooth"",""right"",""right"",""good_move"",17103.8,2556.9,2097,14546.9,459.9,""oops"",""up"",""left"",""bad_move"",25039.7,7919.6,2795.4,21870.2,374.1,""oops"",""up"",""up"",""good_move"",28249.6,3178.4,2560.7,25071.2,617.7,""smooth"",""right"",""right"",""good_move"",31384.7,3130.6,2751.3,28254.1,379.3,""oops"",""up"",""right"",""good_move"",34913.8,3527.1,3158.4,31386.8,368.7,""smooth"",""up"",""up"",""good_move"",38884.8,3968.8,2399.5,34916,1569.3,""oops"",""right"",""down"",""bad_move"",41799.3,2912.8,2194.9,38886.6,717.8,""smooth"",""up"",""up"",""good_move"",46261.9,4460.5,1901.5,41801.4,2559,""oops"",""right"",""down"",""bad_move"",54101.5,7837.7,3368.1,50368.8,364.6,""smooth"",""right"",""right"",""good_move"",56934.1,2831,2160.4,54103.1,670.6,""smooth"",""up"",""up"",""good_move""]","",""
"7310","","<div style=""width:500px;"">
  <p>What determined the result of this run?</p>
  </div>","24","html-slider-response","60","1324326","0.0-5.0-1.10","172","1","2025-07-23 07:26:09","1f75c3e559b7213887762d5229550c2b","197.184.124.182","Mozilla/5.0 (Windows NT 10.0; Win64; x64) AppleWebKit/537.36 (KHTML, like Gecko) Chrome/138.0.0.0 Safari/537.36","WebKit","Chrome","138.0.0.0","Windows","10.0","https://app.prolific.com/","en-US,en;q=0.9","60ad28c6d838565067ab1b6c","683db9eb0562dbf637994deb","68808e891e3e23bb9581e57a","2","1","60ad28c6d838565067ab1b6c","2","1","2025-07-23T07:48:20.660Z","","","","","","","","","","","AttribQ","","50","","","","","","","","","","","","","","","","","","","","","","","","","","","","",""
"2429","","<div style=""width:500px;"">
  <p>How much control did you have over the ball?</p>
  </div>","81","html-slider-response","61","1326760","0.0-5.0-2.10","172","1","2025-07-23 07:26:09","1f75c3e559b7213887762d5229550c2b","197.184.124.182","Mozilla/5.0 (Windows NT 10.0; Win64; x64) AppleWebKit/537.36 (KHTML, like Gecko) Chrome/138.0.0.0 Safari/537.36","WebKit","Chrome","138.0.0.0","Windows","10.0","https://app.prolific.com/","en-US,en;q=0.9","60ad28c6d838565067ab1b6c","683db9eb0562dbf637994deb","68808e891e3e23bb9581e57a","2","1","60ad28c6d838565067ab1b6c","2","1","2025-07-23T07:48:23.094Z","","","","","","","","","","","ControlQ","","50","","","","","","","","","","","","","","","","","","","","","","","","","","","","",""
"3730","","<div style=""width:500px;"">
  <p>How would you describe your current emotional state?</p>
  </div>","33","html-slider-response","62","1330494","0.0-5.0-3.10","172","1","2025-07-23 07:26:09","1f75c3e559b7213887762d5229550c2b","197.184.124.182","Mozilla/5.0 (Windows NT 10.0; Win64; x64) AppleWebKit/537.36 (KHTML, like Gecko) Chrome/138.0.0.0 Safari/537.36","WebKit","Chrome","138.0.0.0","Windows","10.0","https://app.prolific.com/","en-US,en;q=0.9","60ad28c6d838565067ab1b6c","683db9eb0562dbf637994deb","68808e891e3e23bb9581e57a","2","1","60ad28c6d838565067ab1b6c","2","1","2025-07-23T07:48:26.828Z","","","","","","","","","","","StressQ","","50","","","","","","","","","","","","","","","","","","","","","","","","","","","","",""
"2917","","<div style=""width:500px;"">
  <p>What best describes how you currently feel?</p>
  </div>","76","html-slider-response","63","1333415","0.0-5.0-4.10","172","1","2025-07-23 07:26:09","1f75c3e559b7213887762d5229550c2b","197.184.124.182","Mozilla/5.0 (Windows NT 10.0; Win64; x64) AppleWebKit/537.36 (KHTML, like Gecko) Chrome/138.0.0.0 Safari/537.36","WebKit","Chrome","138.0.0.0","Windows","10.0","https://app.prolific.com/","en-US,en;q=0.9","60ad28c6d838565067ab1b6c","683db9eb0562dbf637994deb","68808e891e3e23bb9581e57a","2","1","60ad28c6d838565067ab1b6c","2","1","2025-07-23T07:48:29.750Z","","","","","","","","","","","MotivationQ","","50","","","","","","","","","","","","","","","","","","","","","","","","","","","","",""
"","","","","ctl-task-cpt","64","1434926","0.0-5.0-0.11","172","1","2025-07-23 07:26:09","1f75c3e559b7213887762d5229550c2b","197.184.124.182","Mozilla/5.0 (Windows NT 10.0; Win64; x64) AppleWebKit/537.36 (KHTML, like Gecko) Chrome/138.0.0.0 Safari/537.36","WebKit","Chrome","138.0.0.0","Windows","10.0","https://app.prolific.com/","en-US,en;q=0.9","60ad28c6d838565067ab1b6c","683db9eb0562dbf637994deb","68808e891e3e23bb9581e57a","2","1","60ad28c6d838565067ab1b6c","2","1","2025-07-23T07:50:11.260Z","","","","","","","","","","","","","","win-only","2","g1:SE,g2:NW","0.6","12","0","1341004.3","1503.5","6519.1","98475.2","1","4","4","6","2","4","4","57","53","0.4318181818181818","1403.5","3000","585","[""left"",""up""]","{""num_key_presses"":18,""num_perfect"":12,""num_errors"":0,""num_randdir"":6,""num_randdir_good_moves"":1,""num_whilered"":0,""num_whileblue"":0,""num_blue"":5,""num_good_moves"":12}","[293.22232142857143,291.12857142857143,1.3,293.22232142857143,291.12857142857143,147.7,293.22232142857143,291.12857142857143,278.6,293.22232142857143,291.12857142857143,383.4,293.22232142857143,291.12857142857143,503,204.22232142857143,253.12857142857143,649.4,112.22232142857143,166.12857142857143,780.8,112.22232142857143,166.12857142857143,892.4,78.22232142857143,70.12857142857143,1058,71.22232142857143,61.128571428571426,1186.8,71.22232142857143,61.128571428571426,1290.8,71.22232142857143,61.128571428571426,1435.5,71.22232142857143,61.128571428571426,1547.6,71.22232142857143,61.128571428571426,1651.7,71.22232142857143,61.128571428571426,1762,71.22232142857143,61.128571428571426,1875.6,71.22232142857143,61.128571428571426,1981.7,71.22232142857143,61.128571428571426,2110.1,71.22232142857143,61.128571428571426,2223.6,71.22232142857143,61.128571428571426,2327.8,71.22232142857143,61.128571428571426,2430.9,71.22232142857143,61.128571428571426,2543.2,71.22232142857143,61.128571428571426,2696.8,71.22232142857143,61.128571428571426,2802.2,71.22232142857143,61.128571428571426,2905.1,71.22232142857143,61.128571428571426,3008.1,71.22232142857143,61.128571428571426,3166.5,71.22232142857143,61.128571428571426,3279.8,71.22232142857143,61.128571428571426,3388.9,71.22232142857143,61.128571428571426,3495,71.22232142857143,61.128571428571426,3603.1,71.22232142857143,61.128571428571426,3708.8,71.22232142857143,61.128571428571426,3817.9,71.22232142857143,61.128571428571426,3934,71.22232142857143,61.128571428571426,4037.4,71.22232142857143,61.128571428571426,4144.9,71.22232142857143,61.128571428571426,4261.4,71.22232142857143,61.128571428571426,4410.1,71.22232142857143,61.128571428571426,4561.8,71.22232142857143,61.128571428571426,4709,71.22232142857143,61.128571428571426,4852.2,71.22232142857143,61.128571428571426,4964.2]","[1882.4,1882.4,1000,0,882.4,""oops"",""left"",""down"",""bad_move"",4764.3,2880.4,2357.7,1883.9,522.7,""oops"",""left"",""down"",""bad_move"",8310.9,3544.8,2950.2,4766.1,594.6,""oops"",""left"",""right"",""bad_move"",11360,3047.2,2423.1,8312.9,624,""smooth"",""left"",""left"",""good_move"",20618.4,9256.6,2018.5,11361.8,7238.1,""smooth"",""left"",""left"",""good_move"",27514.3,6894.4,2044.3,24596,874,""smooth"",""left"",""left"",""good_move"",31911.4,4390.4,2696.1,27521,1694.3,""smooth"",""left"",""left"",""good_move"",39620.4,7705.4,2600.7,36495.6,524.2,""smooth"",""up"",""up"",""good_move"",43046.9,3423.8,1905.6,39623.1,1518.2,""smooth"",""up"",""up"",""good_move"",47038.7,3987.4,2519.8,43051.3,1467.6,""oops"",""up"",""down"",""bad_move"",49641.4,2600.7,2190.4,47040.7,410.3,""oops"",""up"",""up"",""good_move"",58493.2,8849.8,3023.9,54971.3,498,""smooth"",""right"",""right"",""bad_move"",62745.6,4250.7,2905.5,58494.9,1345.2,""smooth"",""up"",""up"",""good_move"",68121.5,5370.5,2411.8,62751.1,2958.6,""smooth"",""up"",""up"",""good_move"",71602.1,3479.4,1747.2,68122.8,1732.2,""smooth"",""left"",""left"",""good_move"",78078.1,6469.6,2162.4,75557.9,357.8,""oops"",""up"",""down"",""bad_move"",84960,6880.7,2870.2,81658.2,431.7,""smooth"",""up"",""up"",""good_move"",91751.3,6787.4,3283.6,84963.9,3503.8,""smooth"",""up"",""up"",""good_move""]","",""
"26751","","<div style=""width:500px;"">
  <p>What determined the result of this run?</p>
  </div>","36","html-slider-response","65","1461683","0.0-5.0-1.11","172","1","2025-07-23 07:26:09","1f75c3e559b7213887762d5229550c2b","197.184.124.182","Mozilla/5.0 (Windows NT 10.0; Win64; x64) AppleWebKit/537.36 (KHTML, like Gecko) Chrome/138.0.0.0 Safari/537.36","WebKit","Chrome","138.0.0.0","Windows","10.0","https://app.prolific.com/","en-US,en;q=0.9","60ad28c6d838565067ab1b6c","683db9eb0562dbf637994deb","68808e891e3e23bb9581e57a","2","1","60ad28c6d838565067ab1b6c","2","1","2025-07-23T07:50:38.018Z","","","","","","","","","","","AttribQ","","50","","","","","","","","","","","","","","","","","","","","","","","","","","","","",""
"3797","","<div style=""width:500px;"">
  <p>How much control did you have over the ball?</p>
  </div>","76","html-slider-response","66","1465485","0.0-5.0-2.11","172","1","2025-07-23 07:26:09","1f75c3e559b7213887762d5229550c2b","197.184.124.182","Mozilla/5.0 (Windows NT 10.0; Win64; x64) AppleWebKit/537.36 (KHTML, like Gecko) Chrome/138.0.0.0 Safari/537.36","WebKit","Chrome","138.0.0.0","Windows","10.0","https://app.prolific.com/","en-US,en;q=0.9","60ad28c6d838565067ab1b6c","683db9eb0562dbf637994deb","68808e891e3e23bb9581e57a","2","1","60ad28c6d838565067ab1b6c","2","1","2025-07-23T07:50:41.820Z","","","","","","","","","","","ControlQ","","50","","","","","","","","","","","","","","","","","","","","","","","","","","","","",""
"8272","","<div style=""width:500px;"">
  <p>How would you describe your current emotional state?</p>
  </div>","31","html-slider-response","67","1473761","0.0-5.0-3.11","172","1","2025-07-23 07:26:09","1f75c3e559b7213887762d5229550c2b","197.184.124.182","Mozilla/5.0 (Windows NT 10.0; Win64; x64) AppleWebKit/537.36 (KHTML, like Gecko) Chrome/138.0.0.0 Safari/537.36","WebKit","Chrome","138.0.0.0","Windows","10.0","https://app.prolific.com/","en-US,en;q=0.9","60ad28c6d838565067ab1b6c","683db9eb0562dbf637994deb","68808e891e3e23bb9581e57a","2","1","60ad28c6d838565067ab1b6c","2","1","2025-07-23T07:50:50.096Z","","","","","","","","","","","StressQ","","50","","","","","","","","","","","","","","","","","","","","","","","","","","","","",""
"10874","","<div style=""width:500px;"">
  <p>What best describes how you currently feel?</p>
  </div>","42","html-slider-response","68","1484639","0.0-5.0-4.11","172","1","2025-07-23 07:26:09","1f75c3e559b7213887762d5229550c2b","197.184.124.182","Mozilla/5.0 (Windows NT 10.0; Win64; x64) AppleWebKit/537.36 (KHTML, like Gecko) Chrome/138.0.0.0 Safari/537.36","WebKit","Chrome","138.0.0.0","Windows","10.0","https://app.prolific.com/","en-US,en;q=0.9","60ad28c6d838565067ab1b6c","683db9eb0562dbf637994deb","68808e891e3e23bb9581e57a","2","1","60ad28c6d838565067ab1b6c","2","1","2025-07-23T07:51:00.973Z","","","","","","","","","","","MotivationQ","","50","","","","","","","","","","","","","","","","","","","","","","","","","","","","",""
"","","","","ctl-task-cpt","69","1524831","0.0-5.0-0.12","172","1","2025-07-23 07:26:09","1f75c3e559b7213887762d5229550c2b","197.184.124.182","Mozilla/5.0 (Windows NT 10.0; Win64; x64) AppleWebKit/537.36 (KHTML, like Gecko) Chrome/138.0.0.0 Safari/537.36","WebKit","Chrome","138.0.0.0","Windows","10.0","https://app.prolific.com/","en-US,en;q=0.9","60ad28c6d838565067ab1b6c","683db9eb0562dbf637994deb","68808e891e3e23bb9581e57a","2","1","60ad28c6d838565067ab1b6c","2","1","2025-07-23T07:51:41.166Z","","","","","","","","","","","","","","win-only","1","g1:NE,g2:SW","0.7","13","0","1492229.7","1216.8","6249","37143.3","1","4","8","6","2","8","8","65","57","0.49242424242424243","1190.5","3000","2295","[""down"",""left""]","{""num_key_presses"":8,""num_perfect"":6,""num_errors"":0,""num_randdir"":2,""num_randdir_good_moves"":1,""num_whilered"":0,""num_whileblue"":0,""num_blue"":1,""num_good_moves"":7}","[300.22232142857143,292.12857142857143,3.2,300.22232142857143,292.12857142857143,113.7,300.22232142857143,292.12857142857143,235.4,300.22232142857143,292.12857142857143,345.7,300.22232142857143,292.12857142857143,464.8,270.22232142857143,321.12857142857143,577.6,86.22232142857143,535.1285714285714,706.8,68.22232142857143,543.1285714285714,894.2,68.22232142857143,543.1285714285714,1001.2,68.22232142857143,543.1285714285714,1128.4,68.22232142857143,543.1285714285714,1238.6,68.22232142857143,543.1285714285714,1360.2,68.22232142857143,543.1285714285714,1470.9,68.22232142857143,543.1285714285714,1585.3,68.22232142857143,543.1285714285714,1690.8,68.22232142857143,543.1285714285714,1814.7,68.22232142857143,543.1285714285714,1937.7,68.22232142857143,543.1285714285714,2061.1,68.22232142857143,543.1285714285714,2161.4,68.22232142857143,543.1285714285714,2261.8,68.22232142857143,543.1285714285714,2363.9,68.22232142857143,543.1285714285714,2487.1,68.22232142857143,543.1285714285714,2600.5,68.22232142857143,543.1285714285714,2710,68.22232142857143,543.1285714285714,2824.6,68.22232142857143,543.1285714285714,2936.7,68.22232142857143,543.1285714285714,3052.3,68.22232142857143,543.1285714285714,3161.5,68.22232142857143,543.1285714285714,3278.8,68.22232142857143,543.1285714285714,3412.1,68.22232142857143,543.1285714285714,3523.1,68.22232142857143,543.1285714285714,3631.6,68.22232142857143,543.1285714285714,3735.2,68.22232142857143,543.1285714285714,3838.2,68.22232142857143,543.1285714285714,3946.5,68.22232142857143,543.1285714285714,4058.7,68.22232142857143,543.1285714285714,4163.2,68.22232142857143,543.1285714285714,4281.2,68.22232142857143,543.1285714285714,4386.4,68.22232142857143,543.1285714285714,4491.2,68.22232142857143,543.1285714285714,4608,68.22232142857143,543.1285714285714,4720.6,68.22232142857143,543.1285714285714,4847.1,68.22232142857143,543.1285714285714,4975.1]","[1459.4,1459.4,1000,0,459.4,""smooth"",""down"",""down"",""good_move"",4715.2,3252.7,2844.5,1462.5,408.2,""smooth"",""left"",""left"",""good_move"",8264.4,3547.1,2488.3,4717.4,1058.8,""smooth"",""down"",""down"",""good_move"",11314.1,3047.7,2608.1,8266.5,439.5,""smooth"",""left"",""left"",""good_move"",15975.1,4659.3,3125,11315.9,1534.2,""oops"",""down"",""up"",""bad_move"",24223.7,8245.7,2502.7,21329.6,391.4,""smooth"",""left"",""left"",""good_move"",27756.7,3531.9,2455.1,24224.9,1076.7,""oops"",""down"",""down"",""good_move"",30464.8,2706.7,2386.8,27758.2,319.9,""smooth"",""down"",""down"",""good_move""]","",""
"2532","","<div style=""width:500px;"">
  <p>What determined the result of this run?</p>
  </div>","10","html-slider-response","70","1527367","0.0-5.0-1.12","172","1","2025-07-23 07:26:09","1f75c3e559b7213887762d5229550c2b","197.184.124.182","Mozilla/5.0 (Windows NT 10.0; Win64; x64) AppleWebKit/537.36 (KHTML, like Gecko) Chrome/138.0.0.0 Safari/537.36","WebKit","Chrome","138.0.0.0","Windows","10.0","https://app.prolific.com/","en-US,en;q=0.9","60ad28c6d838565067ab1b6c","683db9eb0562dbf637994deb","68808e891e3e23bb9581e57a","2","1","60ad28c6d838565067ab1b6c","2","1","2025-07-23T07:51:43.701Z","","","","","","","","","","","AttribQ","","50","","","","","","","","","","","","","","","","","","","","","","","","","","","","",""
"3492","","<div style=""width:500px;"">
  <p>How much control did you have over the ball?</p>
  </div>","78","html-slider-response","71","1530863","0.0-5.0-2.12","172","1","2025-07-23 07:26:09","1f75c3e559b7213887762d5229550c2b","197.184.124.182","Mozilla/5.0 (Windows NT 10.0; Win64; x64) AppleWebKit/537.36 (KHTML, like Gecko) Chrome/138.0.0.0 Safari/537.36","WebKit","Chrome","138.0.0.0","Windows","10.0","https://app.prolific.com/","en-US,en;q=0.9","60ad28c6d838565067ab1b6c","683db9eb0562dbf637994deb","68808e891e3e23bb9581e57a","2","1","60ad28c6d838565067ab1b6c","2","1","2025-07-23T07:51:47.197Z","","","","","","","","","","","ControlQ","","50","","","","","","","","","","","","","","","","","","","","","","","","","","","","",""
"2651","","<div style=""width:500px;"">
  <p>How would you describe your current emotional state?</p>
  </div>","26","html-slider-response","72","1533517","0.0-5.0-3.12","172","1","2025-07-23 07:26:09","1f75c3e559b7213887762d5229550c2b","197.184.124.182","Mozilla/5.0 (Windows NT 10.0; Win64; x64) AppleWebKit/537.36 (KHTML, like Gecko) Chrome/138.0.0.0 Safari/537.36","WebKit","Chrome","138.0.0.0","Windows","10.0","https://app.prolific.com/","en-US,en;q=0.9","60ad28c6d838565067ab1b6c","683db9eb0562dbf637994deb","68808e891e3e23bb9581e57a","2","1","60ad28c6d838565067ab1b6c","2","1","2025-07-23T07:51:49.851Z","","","","","","","","","","","StressQ","","50","","","","","","","","","","","","","","","","","","","","","","","","","","","","",""
"2316","","<div style=""width:500px;"">
  <p>What best describes how you currently feel?</p>
  </div>","80","html-slider-response","73","1535835","0.0-5.0-4.12","172","1","2025-07-23 07:26:09","1f75c3e559b7213887762d5229550c2b","197.184.124.182","Mozilla/5.0 (Windows NT 10.0; Win64; x64) AppleWebKit/537.36 (KHTML, like Gecko) Chrome/138.0.0.0 Safari/537.36","WebKit","Chrome","138.0.0.0","Windows","10.0","https://app.prolific.com/","en-US,en;q=0.9","60ad28c6d838565067ab1b6c","683db9eb0562dbf637994deb","68808e891e3e23bb9581e57a","2","1","60ad28c6d838565067ab1b6c","2","1","2025-07-23T07:51:52.170Z","","","","","","","","","","","MotivationQ","","50","","","","","","","","","","","","","","","","","","","","","","","","","","","","",""
