"rt","response_timestamp","stimulus","response","trial_type","trial_index","time_elapsed","internal_node_id","run_id","condition","recorded_at","source_code_version","ip","user_agent","device","browser","browser_version","platform","platform_version","referer","accept_language","PROLIFIC_PID","STUDY_ID","SESSION_ID","WEEK","BATCH","prolific_id","week","batch","realtime","success","responses","item_order","radio_event_ids","radio_event_times","key_event_times","mouse_event_times","straightlining","zigzagging","honeypot","eventType","view_history","slider_start","which_type","canvas_config","goals_layout","control_level","trial_number","tutorial_trial_number","trial_start_time","phase1_start_time","phase2_start_time","phase3_start_time","goal_1_value","goal_1_distance","goal_2_value","goal_2_distance","goal_selected","outcome","outcome_total","participant_final_score","participant_initial_score","participant_final_score_prop","goal_choice_rt","allocated_time","allocated_time_remaining","goal_direction","counts","mouse_movements","key_presses","question_order","question_id"
"11835","1753865850693","<p style='font-size:40px;line-height:1.25'><strong>Welcome to the experiment!</strong></p><p style='font-size:1.1em;line-height:1.25'>Thank you for participanting in our experiment again! You will be asked to play the Dysfunctional Ball Game again. We will briefly recap the rules before we start.</p><p style='font-size:1.1em;line-height:1.25'>Press <strong>Next</strong> to continue.</p>","0","custom-html-button-response","0","11843","0.0-0.0","273","1","2025-07-30 08:57:13","1f75c3e559b7213887762d5229550c2b","102.213.27.252","Mozilla/5.0 (Windows NT 10.0; Win64; x64) AppleWebKit/537.36 (KHTML, like Gecko) Chrome/138.0.0.0 Safari/537.36","WebKit","Chrome","138.0.0.0","Windows","10.0","https://app.prolific.com/","en-US,en;q=0.9,zh-CN;q=0.8,zh;q=0.7","669149873799bbea50733fe0","6877631c9844ddd5501205fc","6889de3bc4edeae9d76911ef","3","1","669149873799bbea50733fe0","3","1","2025-07-30T08:57:30.694Z","","","","","","","","","","","","","","","","","","","","","","","","","","","","","","","","","","","","","","","","","",""
"3822","","","","fullscreen","1","16673","0.0-1.0","273","1","2025-07-30 08:57:13","1f75c3e559b7213887762d5229550c2b","102.213.27.252","Mozilla/5.0 (Windows NT 10.0; Win64; x64) AppleWebKit/537.36 (KHTML, like Gecko) Chrome/138.0.0.0 Safari/537.36","WebKit","Chrome","138.0.0.0","Windows","10.0","https://app.prolific.com/","en-US,en;q=0.9,zh-CN;q=0.8,zh;q=0.7","669149873799bbea50733fe0","6877631c9844ddd5501205fc","6889de3bc4edeae9d76911ef","3","1","669149873799bbea50733fe0","3","1","","true","","","","","","","","","","","","","","","","","","","","","","","","","","","","","","","","","","","","","","","","",""
"2696","1753865858222","<p style='font-size:1.1em;line-height:1.25'>In the following, we will ask you a few questions relating to your feelings in the last 24 hours.<br></p><p style='font-size:1.1em;line-height:1.25'>Press the <strong>Next</strong> button to continue.</p>","0","custom-html-button-response","2","19372","0.0-2.0-0.0","273","1","2025-07-30 08:57:13","1f75c3e559b7213887762d5229550c2b","102.213.27.252","Mozilla/5.0 (Windows NT 10.0; Win64; x64) AppleWebKit/537.36 (KHTML, like Gecko) Chrome/138.0.0.0 Safari/537.36","WebKit","Chrome","138.0.0.0","Windows","10.0","https://app.prolific.com/","en-US,en;q=0.9,zh-CN;q=0.8,zh;q=0.7","669149873799bbea50733fe0","6877631c9844ddd5501205fc","6889de3bc4edeae9d76911ef","3","1","669149873799bbea50733fe0","3","1","2025-07-30T08:57:38.223Z","","","","","","","","","","","","","","","","","","","","","","","","","","","","","","","","","","","","","","","","","",""
"94353.5","","","","survey-template","3","113735","0.0-2.0-1.0","273","1","2025-07-30 08:57:13","1f75c3e559b7213887762d5229550c2b","102.213.27.252","Mozilla/5.0 (Windows NT 10.0; Win64; x64) AppleWebKit/537.36 (KHTML, like Gecko) Chrome/138.0.0.0 Safari/537.36","WebKit","Chrome","138.0.0.0","Windows","10.0","https://app.prolific.com/","en-US,en;q=0.9,zh-CN;q=0.8,zh;q=0.7","669149873799bbea50733fe0","6877631c9844ddd5501205fc","6889de3bc4edeae9d76911ef","3","1","669149873799bbea50733fe0","3","1","2025-07-30T08:59:12.586Z","","{""Q01"":""1"",""Q02"":""2"",""Q03"":""2"",""Q04"":""1"",""Q05"":""1"",""Q06"":""1"",""Q07"":""1"",""Q08"":""0"",""Q09"":""1"",""Q10"":""0"",""Q11"":""0"",""Q12"":""1"",""Q13"":""5"",""Q14"":""2"",""Q15"":""1"",""Q16"":""0"",""Q17"":""1"",""Q18"":""0"",""Q19"":""0"",""Q20"":""0"",""Q21"":""1"",""Q22"":""0""}","[0,1,2,3,4,5,6,7,8,9,10,11,12,13,14,15,16,17,18,19,20,21]","[""Q01"",""Q02"",""Q03"",""Q04"",""Q05"",""Q06"",""Q07"",""Q08"",""Q09"",""Q10"",""Q09"",""Q11"",""Q12"",""Q13"",""Q14"",""Q15"",""Q16"",""Q17"",""Q18"",""Q19"",""Q20"",""Q21"",""Q22""]","[4121,5416.300000011921,8430.699999988079,10162.600000023842,14443,17461.900000035763,20111.100000023842,24955.900000035763,30028.5,32428.5,35987,39353,41196.19999998808,51345.69999998808,53217.19999998808,54993.40000003576,62068,64219.19999998808,70103.40000003576,81650.30000001192,86578.10000002384,88876.30000001192,92343.69999998808]","[]","[0.10000002384185791,4121,5416.300000011921,8430.699999988079,10162.600000023842,14443,17461.900000035763,20111.100000023842,24955.900000035763,30028.5,32428.5,35987,39353,41196.19999998808,51345.69999998808,53217.19999998808,54993.40000003576,62068,64219.19999998808,70103.40000003576,81650.30000001192,86578.10000002384,88876.30000001192,92343.69999998808,94343.30000001192]","0.45454545454545453","0.5714285714285714","0","drsp","","","","","","","","","","","","","","","","","","","","","","","","","","","","","","",""
"10277.300000011921","","","","survey-template","4","124017","0.0-2.0-2.0","273","1","2025-07-30 08:57:13","1f75c3e559b7213887762d5229550c2b","102.213.27.252","Mozilla/5.0 (Windows NT 10.0; Win64; x64) AppleWebKit/537.36 (KHTML, like Gecko) Chrome/138.0.0.0 Safari/537.36","WebKit","Chrome","138.0.0.0","Windows","10.0","https://app.prolific.com/","en-US,en;q=0.9,zh-CN;q=0.8,zh;q=0.7","669149873799bbea50733fe0","6877631c9844ddd5501205fc","6889de3bc4edeae9d76911ef","3","1","669149873799bbea50733fe0","3","1","2025-07-30T08:59:22.869Z","","{""Q01"":""1"",""Q02"":""3"",""Q03"":""1""}","[0,1,2]","[""Q01"",""Q02"",""Q03""]","[3390.800000011921,6847.100000023842,8621.700000047684]","[]","[3390.800000011921,6847.100000023842,8621.700000047684,10273.600000023842]","0.6666666666666666","1","0","stress","","","","","","","","","","","","","","","","","","","","","","","","","","","","","","",""
"2735","","","","instructions","5","126757","0.0-3.0-0.0","273","1","2025-07-30 08:57:13","1f75c3e559b7213887762d5229550c2b","102.213.27.252","Mozilla/5.0 (Windows NT 10.0; Win64; x64) AppleWebKit/537.36 (KHTML, like Gecko) Chrome/138.0.0.0 Safari/537.36","WebKit","Chrome","138.0.0.0","Windows","10.0","https://app.prolific.com/","en-US,en;q=0.9,zh-CN;q=0.8,zh;q=0.7","669149873799bbea50733fe0","6877631c9844ddd5501205fc","6889de3bc4edeae9d76911ef","3","1","669149873799bbea50733fe0","3","1","","","","","","","","","","","","","[{""page_index"":0,""viewing_time"":2735}]","","","","","","","","","","","","","","","","","","","","","","","","","","","","","",""
"4636","","<p>Before you start with this game please answer the following three questions yourself. </p>
  <p>Through this game, we measure several aspects of your cognitive performance, such as reaction times, multi-tasking capabilities </p>
  <p>and the ability to assess the situation you are in.</p>
  <p></p>
  <p><b>How good do you usually are in such tasks?</b></p>","75","html-slider-response","6","131398","0.0-4.0-0.0","273","1","2025-07-30 08:57:13","1f75c3e559b7213887762d5229550c2b","102.213.27.252","Mozilla/5.0 (Windows NT 10.0; Win64; x64) AppleWebKit/537.36 (KHTML, like Gecko) Chrome/138.0.0.0 Safari/537.36","WebKit","Chrome","138.0.0.0","Windows","10.0","https://app.prolific.com/","en-US,en;q=0.9,zh-CN;q=0.8,zh;q=0.7","669149873799bbea50733fe0","6877631c9844ddd5501205fc","6889de3bc4edeae9d76911ef","3","1","669149873799bbea50733fe0","3","1","2025-07-30T08:59:30.249Z","","","","","","","","","","","PreSkillQ","","50","","","","","","","","","","","","","","","","","","","","","","","","","","","","",""
"3635","","<div style=""width:500px;"">
  <p>How well do you think you will perform in this task compared to other participants?</p>
  </div>","71","html-slider-response","7","135037","0.0-4.0-1.0","273","1","2025-07-30 08:57:13","1f75c3e559b7213887762d5229550c2b","102.213.27.252","Mozilla/5.0 (Windows NT 10.0; Win64; x64) AppleWebKit/537.36 (KHTML, like Gecko) Chrome/138.0.0.0 Safari/537.36","WebKit","Chrome","138.0.0.0","Windows","10.0","https://app.prolific.com/","en-US,en;q=0.9,zh-CN;q=0.8,zh;q=0.7","669149873799bbea50733fe0","6877631c9844ddd5501205fc","6889de3bc4edeae9d76911ef","3","1","669149873799bbea50733fe0","3","1","2025-07-30T08:59:33.888Z","","","","","","","","","","","PrePerfQ","","50","","","","","","","","","","","","","","","","","","","","","","","","","","","","",""
"4018","","<div style=""width:500px;"">
  <p>What best describes how you currently feel?</p>
  </div>","78","html-slider-response","8","139060","0.0-4.0-2.0","273","1","2025-07-30 08:57:13","1f75c3e559b7213887762d5229550c2b","102.213.27.252","Mozilla/5.0 (Windows NT 10.0; Win64; x64) AppleWebKit/537.36 (KHTML, like Gecko) Chrome/138.0.0.0 Safari/537.36","WebKit","Chrome","138.0.0.0","Windows","10.0","https://app.prolific.com/","en-US,en;q=0.9,zh-CN;q=0.8,zh;q=0.7","669149873799bbea50733fe0","6877631c9844ddd5501205fc","6889de3bc4edeae9d76911ef","3","1","669149873799bbea50733fe0","3","1","2025-07-30T08:59:37.911Z","","","","","","","","","","","PreMotivationQ","","50","","","","","","","","","","","","","","","","","","","","","","","","","","","","",""
"","","","","ctl-task-cpt","9","169181","0.0-5.0-0.0","273","1","2025-07-30 08:57:13","1f75c3e559b7213887762d5229550c2b","102.213.27.252","Mozilla/5.0 (Windows NT 10.0; Win64; x64) AppleWebKit/537.36 (KHTML, like Gecko) Chrome/138.0.0.0 Safari/537.36","WebKit","Chrome","138.0.0.0","Windows","10.0","https://app.prolific.com/","en-US,en;q=0.9,zh-CN;q=0.8,zh;q=0.7","669149873799bbea50733fe0","6877631c9844ddd5501205fc","6889de3bc4edeae9d76911ef","3","1","669149873799bbea50733fe0","3","1","2025-07-30T09:00:08.032Z","","","","","","","","","","","","","","win-only","1","g1:NE,g2:SW","1","1","0","144902.4","1813.2","6819.9","27114.7","1","4","8","6","1","1","1","1","0","0.007575757575757576","1613.3","3000","495","[""up"",""right""]","{""num_key_presses"":4,""num_perfect"":4,""num_errors"":0,""num_randdir"":0,""num_randdir_good_moves"":0,""num_whilered"":0,""num_whileblue"":0,""num_blue"":2,""num_good_moves"":4}","[417.8214133126395,411.57142761775424,0.5,417.8214133126395,411.57142761775424,103.8,417.8214133126395,411.57142761775424,209.1,417.8214133126395,411.57142761775424,314.8,417.8214133126395,411.57142761775424,427,417.8214133126395,411.57142761775424,533,417.8214133126395,411.57142761775424,633.9,417.8214133126395,411.57142761775424,750.3,555.3214133126395,245.32142761775424,852.9,646.5714133126395,117.82142761775425,954.1,651.5714133126395,116.57142761775425,1058.5,661.5714133126395,116.57142761775425,1158.8,721.5714133126395,102.82142761775425,1262.6,730.3214133126395,100.32142761775425,1363.6,730.3214133126395,100.32142761775425,1465.3,730.3214133126395,100.32142761775425,1568,730.3214133126395,100.32142761775425,1668.2,730.3214133126395,100.32142761775425,1768.9,730.3214133126395,100.32142761775425,1873.6,730.3214133126395,100.32142761775425,1973.6,730.3214133126395,100.32142761775425,2078.5,730.3214133126395,100.32142761775425,2178.7,730.3214133126395,100.32142761775425,2279.3,730.3214133126395,100.32142761775425,2382.6,730.3214133126395,100.32142761775425,2483,730.3214133126395,100.32142761775425,2595.9,730.3214133126395,100.32142761775425,2696.1,730.3214133126395,100.32142761775425,2798.8,730.3214133126395,100.32142761775425,2904.6,730.3214133126395,100.32142761775425,3005.1,730.3214133126395,100.32142761775425,3106.7,730.3214133126395,100.32142761775425,3207.7,730.3214133126395,100.32142761775425,3314.5,730.3214133126395,100.32142761775425,3418.2,730.3214133126395,100.32142761775425,3556.9,730.3214133126395,100.32142761775425,3657.7,730.3214133126395,100.32142761775425,3758.4,730.3214133126395,100.32142761775425,3858.6,730.3214133126395,100.32142761775425,3964,730.3214133126395,100.32142761775425,4067.9,730.3214133126395,100.32142761775425,4170.7,730.3214133126395,100.32142761775425,4272.8,730.3214133126395,100.32142761775425,4378.3,730.3214133126395,100.32142761775425,4483.2,730.3214133126395,100.32142761775425,4583.6,730.3214133126395,100.32142761775425,4688.6,730.3214133126395,100.32142761775425,4793.9,730.3214133126395,100.32142761775425,4897.6]","[5082.9,5082.9,2486.1,2005.8,591,""smooth"",""up"",""up"",""good_move"",13170.9,8087.1,3299.9,9295.5,575.6,""smooth"",""up"",""up"",""good_move"",17021,3849.6,2981.5,13171.5,868,""smooth"",""right"",""right"",""good_move"",20184.4,3162.3,2353.6,17022.1,808.7,""smooth"",""right"",""right"",""good_move""]","",""
"4438","","<div style=""width:500px;"">
  <p>What determined the result of this run?</p>
  </div>","100","html-slider-response","10","173621","0.0-5.0-1.0","273","1","2025-07-30 08:57:13","1f75c3e559b7213887762d5229550c2b","102.213.27.252","Mozilla/5.0 (Windows NT 10.0; Win64; x64) AppleWebKit/537.36 (KHTML, like Gecko) Chrome/138.0.0.0 Safari/537.36","WebKit","Chrome","138.0.0.0","Windows","10.0","https://app.prolific.com/","en-US,en;q=0.9,zh-CN;q=0.8,zh;q=0.7","669149873799bbea50733fe0","6877631c9844ddd5501205fc","6889de3bc4edeae9d76911ef","3","1","669149873799bbea50733fe0","3","1","2025-07-30T09:00:12.472Z","","","","","","","","","","","AttribQ","","50","","","","","","","","","","","","","","","","","","","","","","","","","","","","",""
"3979","","<div style=""width:500px;"">
  <p>How much control did you have over the ball?</p>
  </div>","84","html-slider-response","11","177602","0.0-5.0-2.0","273","1","2025-07-30 08:57:13","1f75c3e559b7213887762d5229550c2b","102.213.27.252","Mozilla/5.0 (Windows NT 10.0; Win64; x64) AppleWebKit/537.36 (KHTML, like Gecko) Chrome/138.0.0.0 Safari/537.36","WebKit","Chrome","138.0.0.0","Windows","10.0","https://app.prolific.com/","en-US,en;q=0.9,zh-CN;q=0.8,zh;q=0.7","669149873799bbea50733fe0","6877631c9844ddd5501205fc","6889de3bc4edeae9d76911ef","3","1","669149873799bbea50733fe0","3","1","2025-07-30T09:00:16.453Z","","","","","","","","","","","ControlQ","","50","","","","","","","","","","","","","","","","","","","","","","","","","","","","",""
"6591","","<div style=""width:500px;"">
  <p>How would you describe your current emotional state?</p>
  </div>","19","html-slider-response","12","184195","0.0-5.0-3.0","273","1","2025-07-30 08:57:13","1f75c3e559b7213887762d5229550c2b","102.213.27.252","Mozilla/5.0 (Windows NT 10.0; Win64; x64) AppleWebKit/537.36 (KHTML, like Gecko) Chrome/138.0.0.0 Safari/537.36","WebKit","Chrome","138.0.0.0","Windows","10.0","https://app.prolific.com/","en-US,en;q=0.9,zh-CN;q=0.8,zh;q=0.7","669149873799bbea50733fe0","6877631c9844ddd5501205fc","6889de3bc4edeae9d76911ef","3","1","669149873799bbea50733fe0","3","1","2025-07-30T09:00:23.046Z","","","","","","","","","","","StressQ","","50","","","","","","","","","","","","","","","","","","","","","","","","","","","","",""
"3712","","<div style=""width:500px;"">
  <p>What best describes how you currently feel?</p>
  </div>","85","html-slider-response","13","187909","0.0-5.0-4.0","273","1","2025-07-30 08:57:13","1f75c3e559b7213887762d5229550c2b","102.213.27.252","Mozilla/5.0 (Windows NT 10.0; Win64; x64) AppleWebKit/537.36 (KHTML, like Gecko) Chrome/138.0.0.0 Safari/537.36","WebKit","Chrome","138.0.0.0","Windows","10.0","https://app.prolific.com/","en-US,en;q=0.9,zh-CN;q=0.8,zh;q=0.7","669149873799bbea50733fe0","6877631c9844ddd5501205fc","6889de3bc4edeae9d76911ef","3","1","669149873799bbea50733fe0","3","1","2025-07-30T09:00:26.760Z","","","","","","","","","","","MotivationQ","","50","","","","","","","","","","","","","","","","","","","","","","","","","","","","",""
"","","","","ctl-task-cpt","14","216875","0.0-5.0-0.1","273","1","2025-07-30 08:57:13","1f75c3e559b7213887762d5229550c2b","102.213.27.252","Mozilla/5.0 (Windows NT 10.0; Win64; x64) AppleWebKit/537.36 (KHTML, like Gecko) Chrome/138.0.0.0 Safari/537.36","WebKit","Chrome","138.0.0.0","Windows","10.0","https://app.prolific.com/","en-US,en;q=0.9,zh-CN;q=0.8,zh;q=0.7","669149873799bbea50733fe0","6877631c9844ddd5501205fc","6889de3bc4edeae9d76911ef","3","1","669149873799bbea50733fe0","3","1","2025-07-30T09:00:55.726Z","","","","","","","","","","","","","","win-only","2","g1:SE,g2:NW","0.9","2","0","193749.4","1622.2","6638.5","25933.8","1","4","4","6","1","1","1","2","1","0.015151515151515152","1663","3000","1345","[""down"",""right""]","{""num_key_presses"":4,""num_perfect"":4,""num_errors"":0,""num_randdir"":0,""num_randdir_good_moves"":0,""num_whilered"":0,""num_whileblue"":0,""num_blue"":2,""num_good_moves"":4}","[420.3214133126395,415.32142761775424,0.5,420.3214133126395,415.32142761775424,104.3,420.3214133126395,415.32142761775424,205.9,420.3214133126395,415.32142761775424,309.5,420.3214133126395,415.32142761775424,415,420.3214133126395,415.32142761775424,519.5,420.3214133126395,415.32142761775424,630.4,420.3214133126395,415.32142761775424,731.8,615.3214133126395,502.82142761775424,834,706.5714133126395,561.5714276177542,934.1,720.3214133126395,577.8214276177542,1044.8,747.8214133126395,636.5714276177542,1150.1,781.5714133126395,729.0714276177542,1266.5,782.8214133126395,742.8214276177542,1382.2,782.8214133126395,744.0714276177542,1483.3,782.8214133126395,744.0714276177542,1583.3,782.8214133126395,744.0714276177542,1683.7,782.8214133126395,744.0714276177542,1783.7,782.8214133126395,744.0714276177542,1901,782.8214133126395,744.0714276177542,2004.1,782.8214133126395,744.0714276177542,2109.8,782.8214133126395,744.0714276177542,2213.6,782.8214133126395,744.0714276177542,2315.4,782.8214133126395,744.0714276177542,2418.4,782.8214133126395,744.0714276177542,2532.7,782.8214133126395,744.0714276177542,2634.1,782.8214133126395,744.0714276177542,2740.4,782.8214133126395,744.0714276177542,2843.6,782.8214133126395,744.0714276177542,2943.9,782.8214133126395,744.0714276177542,3045.2,782.8214133126395,744.0714276177542,3145.3,782.8214133126395,744.0714276177542,3248.5,782.8214133126395,744.0714276177542,3348.5,782.8214133126395,744.0714276177542,3449.9,782.8214133126395,744.0714276177542,3565.2,782.8214133126395,744.0714276177542,3669.5,782.8214133126395,744.0714276177542,3772.5,782.8214133126395,744.0714276177542,3873.5,782.8214133126395,744.0714276177542,3984.7,782.8214133126395,744.0714276177542,4089.9,782.8214133126395,744.0714276177542,4191.2,782.8214133126395,744.0714276177542,4293.3,782.8214133126395,744.0714276177542,4398,782.8214133126395,744.0714276177542,4499.9,782.8214133126395,744.0714276177542,4604.6,782.8214133126395,744.0714276177542,4721.2,782.8214133126395,744.0714276177542,4824.5,782.8214133126395,744.0714276177542,4928.8]","[1692.3,1692.3,1000,0,692.3,""smooth"",""down"",""down"",""good_move"",4615.9,2922.2,2529.9,1693.7,392.3,""smooth"",""down"",""down"",""good_move"",15463.5,10843.4,2851.4,11968.6,643.5,""smooth"",""right"",""right"",""good_move"",19160.7,3696.5,3071.4,15464.2,625.1,""smooth"",""right"",""right"",""good_move""]","",""
"4904","","<div style=""width:500px;"">
  <p>What determined the result of this run?</p>
  </div>","30","html-slider-response","15","221780","0.0-5.0-1.1","273","1","2025-07-30 08:57:13","1f75c3e559b7213887762d5229550c2b","102.213.27.252","Mozilla/5.0 (Windows NT 10.0; Win64; x64) AppleWebKit/537.36 (KHTML, like Gecko) Chrome/138.0.0.0 Safari/537.36","WebKit","Chrome","138.0.0.0","Windows","10.0","https://app.prolific.com/","en-US,en;q=0.9,zh-CN;q=0.8,zh;q=0.7","669149873799bbea50733fe0","6877631c9844ddd5501205fc","6889de3bc4edeae9d76911ef","3","1","669149873799bbea50733fe0","3","1","2025-07-30T09:01:00.632Z","","","","","","","","","","","AttribQ","","50","","","","","","","","","","","","","","","","","","","","","","","","","","","","",""
"3364","","<div style=""width:500px;"">
  <p>How much control did you have over the ball?</p>
  </div>","87","html-slider-response","16","225147","0.0-5.0-2.1","273","1","2025-07-30 08:57:13","1f75c3e559b7213887762d5229550c2b","102.213.27.252","Mozilla/5.0 (Windows NT 10.0; Win64; x64) AppleWebKit/537.36 (KHTML, like Gecko) Chrome/138.0.0.0 Safari/537.36","WebKit","Chrome","138.0.0.0","Windows","10.0","https://app.prolific.com/","en-US,en;q=0.9,zh-CN;q=0.8,zh;q=0.7","669149873799bbea50733fe0","6877631c9844ddd5501205fc","6889de3bc4edeae9d76911ef","3","1","669149873799bbea50733fe0","3","1","2025-07-30T09:01:03.999Z","","","","","","","","","","","ControlQ","","50","","","","","","","","","","","","","","","","","","","","","","","","","","","","",""
"4021","","<div style=""width:500px;"">
  <p>How would you describe your current emotional state?</p>
  </div>","9","html-slider-response","17","229172","0.0-5.0-3.1","273","1","2025-07-30 08:57:13","1f75c3e559b7213887762d5229550c2b","102.213.27.252","Mozilla/5.0 (Windows NT 10.0; Win64; x64) AppleWebKit/537.36 (KHTML, like Gecko) Chrome/138.0.0.0 Safari/537.36","WebKit","Chrome","138.0.0.0","Windows","10.0","https://app.prolific.com/","en-US,en;q=0.9,zh-CN;q=0.8,zh;q=0.7","669149873799bbea50733fe0","6877631c9844ddd5501205fc","6889de3bc4edeae9d76911ef","3","1","669149873799bbea50733fe0","3","1","2025-07-30T09:01:08.023Z","","","","","","","","","","","StressQ","","50","","","","","","","","","","","","","","","","","","","","","","","","","","","","",""
"6656","","<div style=""width:500px;"">
  <p>What best describes how you currently feel?</p>
  </div>","91","html-slider-response","18","235833","0.0-5.0-4.1","273","1","2025-07-30 08:57:13","1f75c3e559b7213887762d5229550c2b","102.213.27.252","Mozilla/5.0 (Windows NT 10.0; Win64; x64) AppleWebKit/537.36 (KHTML, like Gecko) Chrome/138.0.0.0 Safari/537.36","WebKit","Chrome","138.0.0.0","Windows","10.0","https://app.prolific.com/","en-US,en;q=0.9,zh-CN;q=0.8,zh;q=0.7","669149873799bbea50733fe0","6877631c9844ddd5501205fc","6889de3bc4edeae9d76911ef","3","1","669149873799bbea50733fe0","3","1","2025-07-30T09:01:14.684Z","","","","","","","","","","","MotivationQ","","50","","","","","","","","","","","","","","","","","","","","","","","","","","","","",""
"","","","","ctl-task-cpt","19","266819","0.0-5.0-0.2","273","1","2025-07-30 08:57:13","1f75c3e559b7213887762d5229550c2b","102.213.27.252","Mozilla/5.0 (Windows NT 10.0; Win64; x64) AppleWebKit/537.36 (KHTML, like Gecko) Chrome/138.0.0.0 Safari/537.36","WebKit","Chrome","138.0.0.0","Windows","10.0","https://app.prolific.com/","en-US,en;q=0.9,zh-CN;q=0.8,zh;q=0.7","669149873799bbea50733fe0","6877631c9844ddd5501205fc","6889de3bc4edeae9d76911ef","3","1","669149873799bbea50733fe0","3","1","2025-07-30T09:01:45.670Z","","","","","","","","","","","","","","win-only","2","g1:SE,g2:NW","0.8","3","0","241674.9","1508.2","6514.4","27951.6","1","4","4","6","1","1","1","3","2","0.022727272727272728","1620","3000","300","[""down"",""right""]","{""num_key_presses"":6,""num_perfect"":4,""num_errors"":0,""num_randdir"":2,""num_randdir_good_moves"":1,""num_whilered"":0,""num_whileblue"":0,""num_blue"":1,""num_good_moves"":5}","[421.5714133126395,419.07142761775424,1.7,421.5714133126395,419.07142761775424,115.2,421.5714133126395,419.07142761775424,216.5,421.5714133126395,419.07142761775424,326.9,421.5714133126395,419.07142761775424,443.9,421.5714133126395,419.07142761775424,548.6,421.5714133126395,419.07142761775424,648.6,596.5714133126395,571.5714276177542,765.2,689.0714133126395,715.3214276177542,885.6,694.0714133126395,722.8214276177542,989.4,696.5714133126395,724.0714276177542,1093.8,709.0714133126395,724.0714276177542,1207.3,726.5714133126395,729.0714276177542,1324.1,732.8214133126395,731.5714276177542,1435,732.8214133126395,731.5714276177542,1536.9,732.8214133126395,731.5714276177542,1640.6,732.8214133126395,731.5714276177542,1743.2,732.8214133126395,731.5714276177542,1850.9,732.8214133126395,731.5714276177542,1976.7,732.8214133126395,731.5714276177542,2084.5,732.8214133126395,731.5714276177542,2196,732.8214133126395,731.5714276177542,2303.9,732.8214133126395,731.5714276177542,2409.5,732.8214133126395,731.5714276177542,2529.9,732.8214133126395,731.5714276177542,2633.3,732.8214133126395,731.5714276177542,2733.3,732.8214133126395,731.5714276177542,2845.2,732.8214133126395,731.5714276177542,2951.8,732.8214133126395,731.5714276177542,3055.2,732.8214133126395,731.5714276177542,3157.3,732.8214133126395,731.5714276177542,3257.3,732.8214133126395,731.5714276177542,3358.1,732.8214133126395,731.5714276177542,3459.5,732.8214133126395,731.5714276177542,3564.9,732.8214133126395,731.5714276177542,3666.5,732.8214133126395,731.5714276177542,3769.2,732.8214133126395,731.5714276177542,3878.4,732.8214133126395,731.5714276177542,3999.6,732.8214133126395,731.5714276177542,4118.1,732.8214133126395,731.5714276177542,4231.2,732.8214133126395,731.5714276177542,4352.9,732.8214133126395,731.5714276177542,4458.3,732.8214133126395,731.5714276177542,4580.9,732.8214133126395,731.5714276177542,4682.7,732.8214133126395,731.5714276177542,4783.3,732.8214133126395,731.5714276177542,4884.5,732.8214133126395,731.5714276177542,4988.6]","[1806.2,1806.2,1000,0,806.3,""oops"",""down"",""left"",""bad_move"",4850.9,3043.6,2347.7,1807.3,695.9,""smooth"",""down"",""down"",""good_move"",7829.2,2975.9,2388.7,4853.3,587.2,""smooth"",""down"",""down"",""good_move"",10829,2999.1,2175.1,7830,823.9,""smooth"",""right"",""right"",""good_move"",14608.3,3778.1,2852,10830.2,926.1,""oops"",""right"",""right"",""good_move"",21292.7,6683.5,2131.4,18186.7,974.6,""smooth"",""right"",""right"",""good_move""]","",""
"3807","","<div style=""width:500px;"">
  <p>What determined the result of this run?</p>
  </div>","81","html-slider-response","20","270628","0.0-5.0-1.2","273","1","2025-07-30 08:57:13","1f75c3e559b7213887762d5229550c2b","102.213.27.252","Mozilla/5.0 (Windows NT 10.0; Win64; x64) AppleWebKit/537.36 (KHTML, like Gecko) Chrome/138.0.0.0 Safari/537.36","WebKit","Chrome","138.0.0.0","Windows","10.0","https://app.prolific.com/","en-US,en;q=0.9,zh-CN;q=0.8,zh;q=0.7","669149873799bbea50733fe0","6877631c9844ddd5501205fc","6889de3bc4edeae9d76911ef","3","1","669149873799bbea50733fe0","3","1","2025-07-30T09:01:49.480Z","","","","","","","","","","","AttribQ","","50","","","","","","","","","","","","","","","","","","","","","","","","","","","","",""
"3553","","<div style=""width:500px;"">
  <p>How much control did you have over the ball?</p>
  </div>","90","html-slider-response","21","274184","0.0-5.0-2.2","273","1","2025-07-30 08:57:13","1f75c3e559b7213887762d5229550c2b","102.213.27.252","Mozilla/5.0 (Windows NT 10.0; Win64; x64) AppleWebKit/537.36 (KHTML, like Gecko) Chrome/138.0.0.0 Safari/537.36","WebKit","Chrome","138.0.0.0","Windows","10.0","https://app.prolific.com/","en-US,en;q=0.9,zh-CN;q=0.8,zh;q=0.7","669149873799bbea50733fe0","6877631c9844ddd5501205fc","6889de3bc4edeae9d76911ef","3","1","669149873799bbea50733fe0","3","1","2025-07-30T09:01:53.035Z","","","","","","","","","","","ControlQ","","50","","","","","","","","","","","","","","","","","","","","","","","","","","","","",""
"4048","","<div style=""width:500px;"">
  <p>How would you describe your current emotional state?</p>
  </div>","18","html-slider-response","22","278234","0.0-5.0-3.2","273","1","2025-07-30 08:57:13","1f75c3e559b7213887762d5229550c2b","102.213.27.252","Mozilla/5.0 (Windows NT 10.0; Win64; x64) AppleWebKit/537.36 (KHTML, like Gecko) Chrome/138.0.0.0 Safari/537.36","WebKit","Chrome","138.0.0.0","Windows","10.0","https://app.prolific.com/","en-US,en;q=0.9,zh-CN;q=0.8,zh;q=0.7","669149873799bbea50733fe0","6877631c9844ddd5501205fc","6889de3bc4edeae9d76911ef","3","1","669149873799bbea50733fe0","3","1","2025-07-30T09:01:57.085Z","","","","","","","","","","","StressQ","","50","","","","","","","","","","","","","","","","","","","","","","","","","","","","",""
"4568","","<div style=""width:500px;"">
  <p>What best describes how you currently feel?</p>
  </div>","78","html-slider-response","23","282804","0.0-5.0-4.2","273","1","2025-07-30 08:57:13","1f75c3e559b7213887762d5229550c2b","102.213.27.252","Mozilla/5.0 (Windows NT 10.0; Win64; x64) AppleWebKit/537.36 (KHTML, like Gecko) Chrome/138.0.0.0 Safari/537.36","WebKit","Chrome","138.0.0.0","Windows","10.0","https://app.prolific.com/","en-US,en;q=0.9,zh-CN;q=0.8,zh;q=0.7","669149873799bbea50733fe0","6877631c9844ddd5501205fc","6889de3bc4edeae9d76911ef","3","1","669149873799bbea50733fe0","3","1","2025-07-30T09:02:01.656Z","","","","","","","","","","","MotivationQ","","50","","","","","","","","","","","","","","","","","","","","","","","","","","","","",""
"","","","","ctl-task-cpt","24","333568","0.0-5.0-0.3","273","1","2025-07-30 08:57:13","1f75c3e559b7213887762d5229550c2b","102.213.27.252","Mozilla/5.0 (Windows NT 10.0; Win64; x64) AppleWebKit/537.36 (KHTML, like Gecko) Chrome/138.0.0.0 Safari/537.36","WebKit","Chrome","138.0.0.0","Windows","10.0","https://app.prolific.com/","en-US,en;q=0.9,zh-CN;q=0.8,zh;q=0.7","669149873799bbea50733fe0","6877631c9844ddd5501205fc","6889de3bc4edeae9d76911ef","3","1","669149873799bbea50733fe0","3","1","2025-07-30T09:02:52.419Z","","","","","","","","","","","","","","win-only","0","g1:NW,g2:SE","0.7","4","0","288646.7","1318.6","6340.4","47717.2","1","4","8","6","1","-1","-1","2","3","0.015151515151515152","1477.3","3000","-1445","[""left"",""up""]","{""num_key_presses"":7,""num_perfect"":4,""num_errors"":0,""num_randdir"":3,""num_randdir_good_moves"":1,""num_whilered"":0,""num_whileblue"":0,""num_blue"":5,""num_good_moves"":5}","[410.3214133126395,412.82142761775424,1.8,410.3214133126395,412.82142761775424,108.9,410.3214133126395,412.82142761775424,231.6,410.3214133126395,412.82142761775424,349.8,410.3214133126395,412.82142761775424,452.7,410.3214133126395,412.82142761775424,577.7,410.3214133126395,412.82142761775424,678.2,410.3214133126395,412.82142761775424,798.1,331.5714133126395,356.57142761775424,909.9,81.5714133126395,124.07142761775425,1018.6,75.3214133126395,117.82142761775425,1132.3,75.3214133126395,117.82142761775425,1233.2,75.3214133126395,117.82142761775425,1341.7,75.3214133126395,117.82142761775425,1443.9,75.3214133126395,117.82142761775425,1550.3,75.3214133126395,117.82142761775425,1651.9,75.3214133126395,117.82142761775425,1759.8,75.3214133126395,117.82142761775425,1862.2,75.3214133126395,117.82142761775425,1973.3,75.3214133126395,117.82142761775425,2076.5,75.3214133126395,117.82142761775425,2189.8,75.3214133126395,117.82142761775425,2312.6,75.3214133126395,117.82142761775425,2428.2,75.3214133126395,117.82142761775425,2531.8,75.3214133126395,117.82142761775425,2644,75.3214133126395,117.82142761775425,2758,75.3214133126395,117.82142761775425,2876.7,75.3214133126395,117.82142761775425,2978.5,75.3214133126395,117.82142761775425,3079.5,75.3214133126395,117.82142761775425,3182.5,75.3214133126395,117.82142761775425,3283.1,75.3214133126395,117.82142761775425,3384,75.3214133126395,117.82142761775425,3524.5,75.3214133126395,117.82142761775425,3642.3,75.3214133126395,117.82142761775425,3743.1,75.3214133126395,117.82142761775425,3847.7,75.3214133126395,117.82142761775425,3948.2,75.3214133126395,117.82142761775425,4049.3,75.3214133126395,117.82142761775425,4160.7,75.3214133126395,117.82142761775425,4262.3,75.3214133126395,117.82142761775425,4362.9,75.3214133126395,117.82142761775425,4463.8,75.3214133126395,117.82142761775425,4572.1,75.3214133126395,117.82142761775425,4693.1,75.3214133126395,117.82142761775425,4798.1,75.3214133126395,117.82142761775425,4909.4]","[1774.2,1774.2,1000,0,774.2,""smooth"",""up"",""up"",""good_move"",4295.5,2520.3,1691.4,1775.2,828.9,""oops"",""up"",""left"",""good_move"",7669.5,3372.8,2063.1,4296.7,1309.7,""smooth"",""up"",""up"",""good_move"",10543.8,2873.4,1585,7670.4,1288.4,""oops"",""left"",""right"",""bad_move"",21625.2,11080.3,2491.2,18282.9,851.1,""oops"",""left"",""right"",""bad_move"",25155.2,3528.6,2260.7,21626.7,1267.8,""smooth"",""left"",""left"",""good_move"",31821.3,6664.3,2477.3,28950.3,393.7,""smooth"",""left"",""left"",""good_move""]","",""
"7481","","<div style=""width:500px;"">
  <p>What determined the result of this run?</p>
  </div>","80","html-slider-response","25","341052","0.0-5.0-1.3","273","1","2025-07-30 08:57:13","1f75c3e559b7213887762d5229550c2b","102.213.27.252","Mozilla/5.0 (Windows NT 10.0; Win64; x64) AppleWebKit/537.36 (KHTML, like Gecko) Chrome/138.0.0.0 Safari/537.36","WebKit","Chrome","138.0.0.0","Windows","10.0","https://app.prolific.com/","en-US,en;q=0.9,zh-CN;q=0.8,zh;q=0.7","669149873799bbea50733fe0","6877631c9844ddd5501205fc","6889de3bc4edeae9d76911ef","3","1","669149873799bbea50733fe0","3","1","2025-07-30T09:02:59.903Z","","","","","","","","","","","AttribQ","","50","","","","","","","","","","","","","","","","","","","","","","","","","","","","",""
"9471","","<div style=""width:500px;"">
  <p>How much control did you have over the ball?</p>
  </div>","48","html-slider-response","26","350526","0.0-5.0-2.3","273","1","2025-07-30 08:57:13","1f75c3e559b7213887762d5229550c2b","102.213.27.252","Mozilla/5.0 (Windows NT 10.0; Win64; x64) AppleWebKit/537.36 (KHTML, like Gecko) Chrome/138.0.0.0 Safari/537.36","WebKit","Chrome","138.0.0.0","Windows","10.0","https://app.prolific.com/","en-US,en;q=0.9,zh-CN;q=0.8,zh;q=0.7","669149873799bbea50733fe0","6877631c9844ddd5501205fc","6889de3bc4edeae9d76911ef","3","1","669149873799bbea50733fe0","3","1","2025-07-30T09:03:09.377Z","","","","","","","","","","","ControlQ","","50","","","","","","","","","","","","","","","","","","","","","","","","","","","","",""
"10076","","<div style=""width:500px;"">
  <p>How would you describe your current emotional state?</p>
  </div>","54","html-slider-response","27","360605","0.0-5.0-3.3","273","1","2025-07-30 08:57:13","1f75c3e559b7213887762d5229550c2b","102.213.27.252","Mozilla/5.0 (Windows NT 10.0; Win64; x64) AppleWebKit/537.36 (KHTML, like Gecko) Chrome/138.0.0.0 Safari/537.36","WebKit","Chrome","138.0.0.0","Windows","10.0","https://app.prolific.com/","en-US,en;q=0.9,zh-CN;q=0.8,zh;q=0.7","669149873799bbea50733fe0","6877631c9844ddd5501205fc","6889de3bc4edeae9d76911ef","3","1","669149873799bbea50733fe0","3","1","2025-07-30T09:03:19.456Z","","","","","","","","","","","StressQ","","50","","","","","","","","","","","","","","","","","","","","","","","","","","","","",""
"6157","","<div style=""width:500px;"">
  <p>What best describes how you currently feel?</p>
  </div>","54","html-slider-response","28","366766","0.0-5.0-4.3","273","1","2025-07-30 08:57:13","1f75c3e559b7213887762d5229550c2b","102.213.27.252","Mozilla/5.0 (Windows NT 10.0; Win64; x64) AppleWebKit/537.36 (KHTML, like Gecko) Chrome/138.0.0.0 Safari/537.36","WebKit","Chrome","138.0.0.0","Windows","10.0","https://app.prolific.com/","en-US,en;q=0.9,zh-CN;q=0.8,zh;q=0.7","669149873799bbea50733fe0","6877631c9844ddd5501205fc","6889de3bc4edeae9d76911ef","3","1","669149873799bbea50733fe0","3","1","2025-07-30T09:03:25.617Z","","","","","","","","","","","MotivationQ","","50","","","","","","","","","","","","","","","","","","","","","","","","","","","","",""
"","","","","ctl-task-cpt","29","437962","0.0-5.0-0.4","273","1","2025-07-30 08:57:13","1f75c3e559b7213887762d5229550c2b","102.213.27.252","Mozilla/5.0 (Windows NT 10.0; Win64; x64) AppleWebKit/537.36 (KHTML, like Gecko) Chrome/138.0.0.0 Safari/537.36","WebKit","Chrome","138.0.0.0","Windows","10.0","https://app.prolific.com/","en-US,en;q=0.9,zh-CN;q=0.8,zh;q=0.7","669149873799bbea50733fe0","6877631c9844ddd5501205fc","6889de3bc4edeae9d76911ef","3","1","669149873799bbea50733fe0","3","1","2025-07-30T09:04:36.813Z","","","","","","","","","","","","","","win-only","0","g1:NW,g2:SE","0.6","5","0","372609.3","17819.5","22848.1","68115.9","1","4","4","6","2","4","4","6","2","0.045454545454545456","3908.4","3000","775","[""down"",""right""]","{""num_key_presses"":14,""num_perfect"":8,""num_errors"":0,""num_randdir"":6,""num_randdir_good_moves"":3,""num_whilered"":0,""num_whileblue"":0,""num_blue"":1,""num_good_moves"":10}","[411.5714133126395,411.57142761775424,1.9,411.5714133126395,411.57142761775424,104.4,411.5714133126395,411.57142761775424,218.2,411.5714133126395,411.57142761775424,321.7,411.5714133126395,411.57142761775424,422.7,411.5714133126395,411.57142761775424,523.6,451.5714133126395,445.32142761775424,663.1,296.5714133126395,311.57142761775424,774.2,160.3214133126395,120.32142761775425,879.9,160.3214133126395,120.32142761775425,990.4,160.3214133126395,120.32142761775425,1124.5,160.3214133126395,120.32142761775425,1236.1,19.071413312639507,46.57142761775425,1345.5,17.821413312639507,44.07142761775425,1446.1,17.821413312639507,34.07142761775425,1572.1,14.071413312639507,26.571427617754253,1708.5,14.071413312639507,31.571427617754253,1809.7,14.071413312639507,35.32142761775425,1947.4,60.32141331263951,60.32142761775425,2056,852.8214133126395,684.0714276177542,2187.5,1126.5714133126396,930.3214276177542,2287.9,1126.5714133126396,930.3214276177542,2420.9,981.5714133126395,826.5714276177542,2526,905.3214133126395,794.0714276177542,2671.2,857.8214133126395,771.5714276177542,2774.8,814.0714133126395,756.5714276177542,2876.6,806.5714133126395,759.0714276177542,3001,762.8214133126395,765.3214276177542,3145.3,762.8214133126395,765.3214276177542,3249.9,762.8214133126395,765.3214276177542,3363.8,762.8214133126395,765.3214276177542,3475.2,762.8214133126395,765.3214276177542,3608.3,762.8214133126395,765.3214276177542,3732.9,762.8214133126395,765.3214276177542,3842.7,762.8214133126395,765.3214276177542,4005.9,762.8214133126395,765.3214276177542,4108.1,762.8214133126395,765.3214276177542,4265.1,762.8214133126395,765.3214276177542,4413.2,762.8214133126395,765.3214276177542,4549.1,762.8214133126395,765.3214276177542,4657,762.8214133126395,765.3214276177542,4757.2,762.8214133126395,765.3214276177542,4881.9]","[4417.7,4417.7,1889.6,2041.8,486.3,""oops"",""down"",""up"",""bad_move"",7824.9,3405.9,2725.7,4419,680.2,""smooth"",""up"",""up"",""bad_move"",11457.1,3630.6,3131.1,7826.5,499.5,""smooth"",""right"",""right"",""good_move"",14923.2,3464.8,2900.3,11458.4,564.5,""smooth"",""right"",""right"",""good_move"",17795.4,2871.1,2236.6,14924.4,634.4,""smooth"",""right"",""right"",""good_move"",21298,3501.6,2979.3,17796.4,522.3,""smooth"",""down"",""down"",""good_move"",24205.6,2906.3,2187.7,21299.3,718.6,""smooth"",""down"",""down"",""good_move"",27051.8,2845.2,2364.7,24206.6,480.5,""oops"",""down"",""up"",""bad_move"",30373.7,3321.1,2660.1,27052.6,661,""oops"",""down"",""down"",""good_move"",33050.6,2675.8,2026.1,30374.8,649.7,""oops"",""down"",""up"",""bad_move"",36342.9,3289.3,2620.3,33053.6,669,""oops"",""down"",""down"",""good_move"",39082,2738,2032.1,36344,705.9,""smooth"",""down"",""down"",""good_move"",42066.8,2983.1,2383.3,39083.7,599.8,""smooth"",""down"",""down"",""good_move"",44973.9,2906.1,2409.7,42067.9,496.3,""oops"",""down"",""down"",""good_move""]","",""
"4960","","<div style=""width:500px;"">
  <p>What determined the result of this run?</p>
  </div>","75","html-slider-response","30","442925","0.0-5.0-1.4","273","1","2025-07-30 08:57:13","1f75c3e559b7213887762d5229550c2b","102.213.27.252","Mozilla/5.0 (Windows NT 10.0; Win64; x64) AppleWebKit/537.36 (KHTML, like Gecko) Chrome/138.0.0.0 Safari/537.36","WebKit","Chrome","138.0.0.0","Windows","10.0","https://app.prolific.com/","en-US,en;q=0.9,zh-CN;q=0.8,zh;q=0.7","669149873799bbea50733fe0","6877631c9844ddd5501205fc","6889de3bc4edeae9d76911ef","3","1","669149873799bbea50733fe0","3","1","2025-07-30T09:04:41.776Z","","","","","","","","","","","AttribQ","","50","","","","","","","","","","","","","","","","","","","","","","","","","","","","",""
"8387","","<div style=""width:500px;"">
  <p>How much control did you have over the ball?</p>
  </div>","87","html-slider-response","31","451314","0.0-5.0-2.4","273","1","2025-07-30 08:57:13","1f75c3e559b7213887762d5229550c2b","102.213.27.252","Mozilla/5.0 (Windows NT 10.0; Win64; x64) AppleWebKit/537.36 (KHTML, like Gecko) Chrome/138.0.0.0 Safari/537.36","WebKit","Chrome","138.0.0.0","Windows","10.0","https://app.prolific.com/","en-US,en;q=0.9,zh-CN;q=0.8,zh;q=0.7","669149873799bbea50733fe0","6877631c9844ddd5501205fc","6889de3bc4edeae9d76911ef","3","1","669149873799bbea50733fe0","3","1","2025-07-30T09:04:50.166Z","","","","","","","","","","","ControlQ","","50","","","","","","","","","","","","","","","","","","","","","","","","","","","","",""
"6856","","<div style=""width:500px;"">
  <p>How would you describe your current emotional state?</p>
  </div>","16","html-slider-response","32","458173","0.0-5.0-3.4","273","1","2025-07-30 08:57:13","1f75c3e559b7213887762d5229550c2b","102.213.27.252","Mozilla/5.0 (Windows NT 10.0; Win64; x64) AppleWebKit/537.36 (KHTML, like Gecko) Chrome/138.0.0.0 Safari/537.36","WebKit","Chrome","138.0.0.0","Windows","10.0","https://app.prolific.com/","en-US,en;q=0.9,zh-CN;q=0.8,zh;q=0.7","669149873799bbea50733fe0","6877631c9844ddd5501205fc","6889de3bc4edeae9d76911ef","3","1","669149873799bbea50733fe0","3","1","2025-07-30T09:04:57.024Z","","","","","","","","","","","StressQ","","50","","","","","","","","","","","","","","","","","","","","","","","","","","","","",""
"7022","","<div style=""width:500px;"">
  <p>What best describes how you currently feel?</p>
  </div>","78","html-slider-response","33","465198","0.0-5.0-4.4","273","1","2025-07-30 08:57:13","1f75c3e559b7213887762d5229550c2b","102.213.27.252","Mozilla/5.0 (Windows NT 10.0; Win64; x64) AppleWebKit/537.36 (KHTML, like Gecko) Chrome/138.0.0.0 Safari/537.36","WebKit","Chrome","138.0.0.0","Windows","10.0","https://app.prolific.com/","en-US,en;q=0.9,zh-CN;q=0.8,zh;q=0.7","669149873799bbea50733fe0","6877631c9844ddd5501205fc","6889de3bc4edeae9d76911ef","3","1","669149873799bbea50733fe0","3","1","2025-07-30T09:05:04.050Z","","","","","","","","","","","MotivationQ","","50","","","","","","","","","","","","","","","","","","","","","","","","","","","","",""
"","","","","ctl-task-cpt","34","553104","0.0-5.0-0.5","273","1","2025-07-30 08:57:13","1f75c3e559b7213887762d5229550c2b","102.213.27.252","Mozilla/5.0 (Windows NT 10.0; Win64; x64) AppleWebKit/537.36 (KHTML, like Gecko) Chrome/138.0.0.0 Safari/537.36","WebKit","Chrome","138.0.0.0","Windows","10.0","https://app.prolific.com/","en-US,en;q=0.9,zh-CN;q=0.8,zh;q=0.7","669149873799bbea50733fe0","6877631c9844ddd5501205fc","6889de3bc4edeae9d76911ef","3","1","669149873799bbea50733fe0","3","1","2025-07-30T09:06:31.955Z","","","","","","","","","","","","","","win-only","0","g1:NW,g2:SE","0.5","6","0","471041.8","29584.5","34589.2","84779.7","1","4","8","6","2","8","8","14","6","0.10606060606060606","1650.5","3000","1315","[""down"",""right""]","{""num_key_presses"":12,""num_perfect"":6,""num_errors"":0,""num_randdir"":6,""num_randdir_good_moves"":3,""num_whilered"":0,""num_whileblue"":0,""num_blue"":3,""num_good_moves"":9}","[421.071420942034,420.57142857142856,1,421.071420942034,420.57142857142856,162.6,421.071420942034,420.57142857142856,267.7,421.071420942034,420.57142857142856,450.6,421.071420942034,420.57142857142856,556.9,421.071420942034,420.57142857142856,706.2,546.071420942034,499.32142857142856,878.4,668.571420942034,593.0714285714286,979.3,741.071420942034,680.5714285714286,1105.4,756.071420942034,711.8214285714286,1243.8,761.071420942034,731.8214285714286,1351.1,762.321420942034,735.5714285714286,1596.6,762.321420942034,735.5714285714286,1849.2,762.321420942034,735.5714285714286,1978.1,762.321420942034,735.5714285714286,2081.9,762.321420942034,735.5714285714286,2202.8,762.321420942034,735.5714285714286,2305.6,762.321420942034,735.5714285714286,2419.9,762.321420942034,735.5714285714286,2527.3,762.321420942034,735.5714285714286,2632.8,762.321420942034,735.5714285714286,2741.8,762.321420942034,735.5714285714286,2844.6,762.321420942034,735.5714285714286,2975.5,762.321420942034,735.5714285714286,3078.1,762.321420942034,735.5714285714286,3190,762.321420942034,735.5714285714286,3312.4,762.321420942034,735.5714285714286,3412.4,762.321420942034,735.5714285714286,3534.4,762.321420942034,735.5714285714286,3683.1,762.321420942034,735.5714285714286,3815.1,762.321420942034,735.5714285714286,3915.3,762.321420942034,735.5714285714286,4063.8,762.321420942034,735.5714285714286,4165.8,762.321420942034,735.5714285714286,4320.2,762.321420942034,735.5714285714286,4517.2,762.321420942034,735.5714285714286,4651.3,762.321420942034,735.5714285714286,4783.6,762.321420942034,735.5714285714286,4914.7]","[1831.3,1831.3,1000,0,831.3,""smooth"",""down"",""down"",""good_move"",4802.7,2970.3,2108,1832.5,862.3,""oops"",""right"",""up"",""bad_move"",9314.7,4509.2,2977.7,4805.5,1531.5,""oops"",""down"",""up"",""bad_move"",17517.9,8202.3,2615.6,14374.5,527.9,""smooth"",""right"",""right"",""good_move"",20872.4,3352.7,2686.4,17519.7,666.3,""oops"",""right"",""left"",""bad_move"",28967.5,8093.6,2855.4,25500.3,611.8,""smooth"",""right"",""right"",""good_move"",31985.1,3017,2361.5,28968.2,655.4,""oops"",""right"",""right"",""good_move"",34654.8,2667.6,1909.7,31987.2,757.9,""smooth"",""right"",""right"",""good_move"",37645.3,2985.4,2406.8,34659.9,578.6,""smooth"",""down"",""down"",""good_move"",40865.4,3218.8,2645.9,37646.7,572.8,""oops"",""down"",""down"",""good_move"",44015.3,3147,2456.6,40868.3,690.4,""oops"",""down"",""down"",""good_move"",49843,5822.3,2200.5,47035.9,606.6,""smooth"",""down"",""down"",""good_move""]","",""
"6183","","<div style=""width:500px;"">
  <p>What determined the result of this run?</p>
  </div>","89","html-slider-response","35","559289","0.0-5.0-1.5","273","1","2025-07-30 08:57:13","1f75c3e559b7213887762d5229550c2b","102.213.27.252","Mozilla/5.0 (Windows NT 10.0; Win64; x64) AppleWebKit/537.36 (KHTML, like Gecko) Chrome/138.0.0.0 Safari/537.36","WebKit","Chrome","138.0.0.0","Windows","10.0","https://app.prolific.com/","en-US,en;q=0.9,zh-CN;q=0.8,zh;q=0.7","669149873799bbea50733fe0","6877631c9844ddd5501205fc","6889de3bc4edeae9d76911ef","3","1","669149873799bbea50733fe0","3","1","2025-07-30T09:06:38.140Z","","","","","","","","","","","AttribQ","","50","","","","","","","","","","","","","","","","","","","","","","","","","","","","",""
"11137","","<div style=""width:500px;"">
  <p>How much control did you have over the ball?</p>
  </div>","93","html-slider-response","36","570428","0.0-5.0-2.5","273","1","2025-07-30 08:57:13","1f75c3e559b7213887762d5229550c2b","102.213.27.252","Mozilla/5.0 (Windows NT 10.0; Win64; x64) AppleWebKit/537.36 (KHTML, like Gecko) Chrome/138.0.0.0 Safari/537.36","WebKit","Chrome","138.0.0.0","Windows","10.0","https://app.prolific.com/","en-US,en;q=0.9,zh-CN;q=0.8,zh;q=0.7","669149873799bbea50733fe0","6877631c9844ddd5501205fc","6889de3bc4edeae9d76911ef","3","1","669149873799bbea50733fe0","3","1","2025-07-30T09:06:49.279Z","","","","","","","","","","","ControlQ","","50","","","","","","","","","","","","","","","","","","","","","","","","","","","","",""
"7659","","<div style=""width:500px;"">
  <p>How would you describe your current emotional state?</p>
  </div>","18","html-slider-response","37","578091","0.0-5.0-3.5","273","1","2025-07-30 08:57:13","1f75c3e559b7213887762d5229550c2b","102.213.27.252","Mozilla/5.0 (Windows NT 10.0; Win64; x64) AppleWebKit/537.36 (KHTML, like Gecko) Chrome/138.0.0.0 Safari/537.36","WebKit","Chrome","138.0.0.0","Windows","10.0","https://app.prolific.com/","en-US,en;q=0.9,zh-CN;q=0.8,zh;q=0.7","669149873799bbea50733fe0","6877631c9844ddd5501205fc","6889de3bc4edeae9d76911ef","3","1","669149873799bbea50733fe0","3","1","2025-07-30T09:06:56.942Z","","","","","","","","","","","StressQ","","50","","","","","","","","","","","","","","","","","","","","","","","","","","","","",""
"8895","","<div style=""width:500px;"">
  <p>What best describes how you currently feel?</p>
  </div>","89","html-slider-response","38","586991","0.0-5.0-4.5","273","1","2025-07-30 08:57:13","1f75c3e559b7213887762d5229550c2b","102.213.27.252","Mozilla/5.0 (Windows NT 10.0; Win64; x64) AppleWebKit/537.36 (KHTML, like Gecko) Chrome/138.0.0.0 Safari/537.36","WebKit","Chrome","138.0.0.0","Windows","10.0","https://app.prolific.com/","en-US,en;q=0.9,zh-CN;q=0.8,zh;q=0.7","669149873799bbea50733fe0","6877631c9844ddd5501205fc","6889de3bc4edeae9d76911ef","3","1","669149873799bbea50733fe0","3","1","2025-07-30T09:07:05.843Z","","","","","","","","","","","MotivationQ","","50","","","","","","","","","","","","","","","","","","","","","","","","","","","","",""
"","","","","ctl-task-cpt","39","680554","0.0-5.0-0.6","273","1","2025-07-30 08:57:13","1f75c3e559b7213887762d5229550c2b","102.213.27.252","Mozilla/5.0 (Windows NT 10.0; Win64; x64) AppleWebKit/537.36 (KHTML, like Gecko) Chrome/138.0.0.0 Safari/537.36","WebKit","Chrome","138.0.0.0","Windows","10.0","https://app.prolific.com/","en-US,en;q=0.9,zh-CN;q=0.8,zh;q=0.7","669149873799bbea50733fe0","6877631c9844ddd5501205fc","6889de3bc4edeae9d76911ef","3","1","669149873799bbea50733fe0","3","1","2025-07-30T09:08:39.405Z","","","","","","","","","","","","","","win-only","0","g1:NW,g2:SE","0.4","7","0","592836.4","29362.6","34397.5","90511.6","1","4","8","6","1","1","1","15","14","0.11363636363636363","2331.8","3000","1220","[""left"",""up""]","{""num_key_presses"":12,""num_perfect"":5,""num_errors"":0,""num_randdir"":7,""num_randdir_good_moves"":3,""num_whilered"":0,""num_whileblue"":0,""num_blue"":2,""num_good_moves"":8}","[349.4642857142857,347.21428666796004,1.6,349.4642857142857,347.21428666796004,108.4,349.4642857142857,347.21428666796004,210.3,349.4642857142857,347.21428666796004,324.6,349.4642857142857,347.21428666796004,612.4,350.7142857142857,347.21428666796004,887.8,374.4642857142857,378.46428666796004,992.7,321.9642857142857,303.46428666796004,1298.2,235.71428571428572,230.96428666796004,1403.8,95.71428571428572,110.96428666796004,1651,95.71428571428572,110.96428666796004,1756.8,73.21428571428572,85.96428666796004,2000.6,69.46428571428572,77.21428666796004,2102.4,69.46428571428572,77.21428666796004,2339.6,69.46428571428572,77.21428666796004,2440.5,69.46428571428572,77.21428666796004,2726.2,69.46428571428572,77.21428666796004,2832.5,69.46428571428572,77.21428666796004,3072.9,69.46428571428572,77.21428666796004,3177.2,69.46428571428572,77.21428666796004,3394.6,69.46428571428572,77.21428666796004,3495.4,69.46428571428572,77.21428666796004,3736.3,69.46428571428572,77.21428666796004,3840,69.46428571428572,77.21428666796004,4036.6,69.46428571428572,77.21428666796004,4137.1,69.46428571428572,77.21428666796004,4245.3,69.46428571428572,77.21428666796004,4481.5,69.46428571428572,77.21428666796004,4593.8,69.46428571428572,77.21428666796004,4698.6,69.46428571428572,77.21428666796004,4881.1,69.46428571428572,77.21428666796004,4985.5]","[1522.7,1522.7,1000,0,522.7,""smooth"",""left"",""left"",""good_move"",6234.7,4710.7,2721.1,1524,1989.6,""smooth"",""left"",""left"",""good_move"",10980.3,4743.3,3066.3,6237,1677,""oops"",""up"",""down"",""bad_move"",15138.1,4156.5,1702.6,10981.6,2453.9,""smooth"",""up"",""up"",""good_move"",19714,4574.5,1848.2,15139.5,2726.3,""oops"",""up"",""right"",""bad_move"",23511.2,3794.8,3123.9,19716.5,670.8,""oops"",""up"",""up"",""good_move"",31417.1,7903.4,2290.3,28560.3,566.5,""oops"",""left"",""right"",""bad_move"",34994.7,3577,2939.3,31417.7,637.7,""oops"",""up"",""up"",""good_move"",39587.6,4591.2,3292.6,34996.5,1298.6,""smooth"",""left"",""left"",""good_move"",44436.5,4847.9,1911.9,39588.7,2935.9,""oops"",""left"",""right"",""bad_move"",51206.3,6768.8,2212.1,48422.6,571.6,""smooth"",""left"",""left"",""good_move"",55725.5,4518.4,2298.7,51207.2,2219.6,""oops"",""left"",""left"",""good_move""]","",""
"5273","","<div style=""width:500px;"">
  <p>What determined the result of this run?</p>
  </div>","87","html-slider-response","40","685829","0.0-5.0-1.6","273","1","2025-07-30 08:57:13","1f75c3e559b7213887762d5229550c2b","102.213.27.252","Mozilla/5.0 (Windows NT 10.0; Win64; x64) AppleWebKit/537.36 (KHTML, like Gecko) Chrome/138.0.0.0 Safari/537.36","WebKit","Chrome","138.0.0.0","Windows","10.0","https://app.prolific.com/","en-US,en;q=0.9,zh-CN;q=0.8,zh;q=0.7","669149873799bbea50733fe0","6877631c9844ddd5501205fc","6889de3bc4edeae9d76911ef","3","1","669149873799bbea50733fe0","3","1","2025-07-30T09:08:44.681Z","","","","","","","","","","","AttribQ","","50","","","","","","","","","","","","","","","","","","","","","","","","","","","","",""
"8167","","<div style=""width:500px;"">
  <p>How much control did you have over the ball?</p>
  </div>","88","html-slider-response","41","694003","0.0-5.0-2.6","273","1","2025-07-30 08:57:13","1f75c3e559b7213887762d5229550c2b","102.213.27.252","Mozilla/5.0 (Windows NT 10.0; Win64; x64) AppleWebKit/537.36 (KHTML, like Gecko) Chrome/138.0.0.0 Safari/537.36","WebKit","Chrome","138.0.0.0","Windows","10.0","https://app.prolific.com/","en-US,en;q=0.9,zh-CN;q=0.8,zh;q=0.7","669149873799bbea50733fe0","6877631c9844ddd5501205fc","6889de3bc4edeae9d76911ef","3","1","669149873799bbea50733fe0","3","1","2025-07-30T09:08:52.854Z","","","","","","","","","","","ControlQ","","50","","","","","","","","","","","","","","","","","","","","","","","","","","","","",""
"6841","","<div style=""width:500px;"">
  <p>How would you describe your current emotional state?</p>
  </div>","28","html-slider-response","42","700848","0.0-5.0-3.6","273","1","2025-07-30 08:57:13","1f75c3e559b7213887762d5229550c2b","102.213.27.252","Mozilla/5.0 (Windows NT 10.0; Win64; x64) AppleWebKit/537.36 (KHTML, like Gecko) Chrome/138.0.0.0 Safari/537.36","WebKit","Chrome","138.0.0.0","Windows","10.0","https://app.prolific.com/","en-US,en;q=0.9,zh-CN;q=0.8,zh;q=0.7","669149873799bbea50733fe0","6877631c9844ddd5501205fc","6889de3bc4edeae9d76911ef","3","1","669149873799bbea50733fe0","3","1","2025-07-30T09:08:59.699Z","","","","","","","","","","","StressQ","","50","","","","","","","","","","","","","","","","","","","","","","","","","","","","",""
"6489","","<div style=""width:500px;"">
  <p>What best describes how you currently feel?</p>
  </div>","83","html-slider-response","43","707341","0.0-5.0-4.6","273","1","2025-07-30 08:57:13","1f75c3e559b7213887762d5229550c2b","102.213.27.252","Mozilla/5.0 (Windows NT 10.0; Win64; x64) AppleWebKit/537.36 (KHTML, like Gecko) Chrome/138.0.0.0 Safari/537.36","WebKit","Chrome","138.0.0.0","Windows","10.0","https://app.prolific.com/","en-US,en;q=0.9,zh-CN;q=0.8,zh;q=0.7","669149873799bbea50733fe0","6877631c9844ddd5501205fc","6889de3bc4edeae9d76911ef","3","1","669149873799bbea50733fe0","3","1","2025-07-30T09:09:06.192Z","","","","","","","","","","","MotivationQ","","50","","","","","","","","","","","","","","","","","","","","","","","","","","","","",""
"","","","","ctl-task-cpt","44","838678","0.0-5.0-0.7","273","1","2025-07-30 08:57:13","1f75c3e559b7213887762d5229550c2b","102.213.27.252","Mozilla/5.0 (Windows NT 10.0; Win64; x64) AppleWebKit/537.36 (KHTML, like Gecko) Chrome/138.0.0.0 Safari/537.36","WebKit","Chrome","138.0.0.0","Windows","10.0","https://app.prolific.com/","en-US,en;q=0.9,zh-CN;q=0.8,zh;q=0.7","669149873799bbea50733fe0","6877631c9844ddd5501205fc","6889de3bc4edeae9d76911ef","3","1","669149873799bbea50733fe0","3","1","2025-07-30T09:11:17.529Z","","","","","","","","","","","","","","win-only","1","g1:NE,g2:SW","0.3","8","0","713235.2","21141.7","26151","128250.5","1","4","4","6","1","-1","-2","13","15","0.09848484848484848","2111.8","3000","-805","[""up"",""right""]","{""num_key_presses"":25,""num_perfect"":8,""num_errors"":1,""num_randdir"":16,""num_randdir_good_moves"":5,""num_whilered"":0,""num_whileblue"":0,""num_blue"":2,""num_good_moves"":12}","[350.7142857142857,349.71428666796004,1.7,350.7142857142857,349.71428666796004,127.2,350.7142857142857,349.71428666796004,233.1,350.7142857142857,349.71428666796004,385.1,350.7142857142857,349.71428666796004,533.3,350.7142857142857,349.71428666796004,634.4,350.7142857142857,349.71428666796004,859.9,366.9642857142857,342.21428666796004,1053.6,666.9642857142857,123.46428666796004,1160.1,803.2142857142857,27.21428666796003,1323.3,761.9642857142857,33.46428666796003,1594.5,680.7142857142857,49.71428666796003,1699,671.9642857142857,55.96428666796003,1850.9,671.9642857142857,55.96428666796003,1952.2,671.9642857142857,55.96428666796003,2124.9,671.9642857142857,55.96428666796003,2234,671.9642857142857,55.96428666796003,2462.1,671.9642857142857,55.96428666796003,2730,671.9642857142857,55.96428666796003,2833.3,638.2142857142857,72.21428666796004,3031.1,551.9642857142857,148.46428666796004,3154.7,521.9642857142857,259.71428666796004,3412.7,520.7142857142857,258.46428666796004,3519.2,519.4642857142857,254.71428666796004,3723.7,519.4642857142857,254.71428666796004,3876,519.4642857142857,254.71428666796004,4007,519.4642857142857,254.71428666796004,4113.6,519.4642857142857,254.71428666796004,4379.3,519.4642857142857,254.71428666796004,4482.3,519.4642857142857,254.71428666796004,4659.8,519.4642857142857,254.71428666796004,4807.3,519.4642857142857,254.71428666796004,4908.9]","[1713,1713,1000,0,713,""smooth"",""down"",""down"",""bad_move"",4941.9,3226.7,2565,1715.2,661.7,""oops"",""right"",""left"",""bad_move"",9703.8,4759,2752.8,4944.9,2006.1,""oops"",""right"",""down"",""bad_move"",15948.9,6244.1,2815.6,12613.5,519.9,""oops"",""right"",""left"",""bad_move"",20398.5,4448.4,2443.3,15950.1,2005.1,""smooth"",""up"",""up"",""good_move"",24887.4,4485.7,2257.2,20401.7,2228.5,""oops"",""up"",""down"",""bad_move"",27943.9,3055.2,2311.5,24888.7,743.7,""oops"",""up"",""up"",""good_move"",33312.1,5367.2,2439.5,27945,2927.7,""smooth"",""right"",""right"",""good_move"",36960.9,3647.4,2934.8,33313.5,712.6,""oops"",""right"",""up"",""good_move"",41982.4,5020.1,3046.4,36962.4,1973.6,""oops"",""up"",""down"",""bad_move"",45537.6,3554.4,2761,41983.4,793.3,""oops"",""right"",""left"",""bad_move"",50230.5,4690.6,2004.2,45539.9,2686.4,""oops"",""up"",""left"",""bad_move"",53898,3666.5,2989,50231.6,677.4,""smooth"",""up"",""up"",""good_move"",57447.4,3547.2,2373.7,53900.2,1173.5,""smooth"",""up"",""up"",""good_move"",61029.1,3580.2,2754.4,57449,825.8,""smooth"",""up"",""up"",""good_move"",67795.4,6757.3,2230.8,65007.6,557,""oops"",""right"",""right"",""good_move"",71178,3381,2709.5,67797,671.5,""oops"",""right"",""left"",""bad_move"",74905.5,3725.3,2238.8,71180.2,1486.5,""oops"",""right"",""down"",""bad_move"",77590.8,2682.7,2017.5,74908.2,665.2,""oops"",""up"",""down"",""bad_move"",80682.6,3088.8,2584.1,77593.9,504.6,""oops"",""up"",""up"",""good_move"",84242.1,3554.1,2540,80688,1014.1,""smooth"",""up"",""up"",""good_move"",87857.7,3612.3,1994,84245.4,1618.4,""smooth"",""right"",""right"",""good_move"",91778.4,3918.7,3519.4,87859.8,399.3,""oops"",""right"",""left"",""bad_move"",95401.4,3621.5,2817.1,91780,804.3,""oops"",""right"",""up"",""good_move"",97795.3,2391.6,2700.8,95403.7,-309.2,""error"",""-"",""-"",""no_move""]","",""
"11761","","<div style=""width:500px;"">
  <p>What determined the result of this run?</p>
  </div>","12","html-slider-response","45","850441","0.0-5.0-1.7","273","1","2025-07-30 08:57:13","1f75c3e559b7213887762d5229550c2b","102.213.27.252","Mozilla/5.0 (Windows NT 10.0; Win64; x64) AppleWebKit/537.36 (KHTML, like Gecko) Chrome/138.0.0.0 Safari/537.36","WebKit","Chrome","138.0.0.0","Windows","10.0","https://app.prolific.com/","en-US,en;q=0.9,zh-CN;q=0.8,zh;q=0.7","669149873799bbea50733fe0","6877631c9844ddd5501205fc","6889de3bc4edeae9d76911ef","3","1","669149873799bbea50733fe0","3","1","2025-07-30T09:11:29.292Z","","","","","","","","","","","AttribQ","","50","","","","","","","","","","","","","","","","","","","","","","","","","","","","",""
"5886","","<div style=""width:500px;"">
  <p>How much control did you have over the ball?</p>
  </div>","80","html-slider-response","46","856330","0.0-5.0-2.7","273","1","2025-07-30 08:57:13","1f75c3e559b7213887762d5229550c2b","102.213.27.252","Mozilla/5.0 (Windows NT 10.0; Win64; x64) AppleWebKit/537.36 (KHTML, like Gecko) Chrome/138.0.0.0 Safari/537.36","WebKit","Chrome","138.0.0.0","Windows","10.0","https://app.prolific.com/","en-US,en;q=0.9,zh-CN;q=0.8,zh;q=0.7","669149873799bbea50733fe0","6877631c9844ddd5501205fc","6889de3bc4edeae9d76911ef","3","1","669149873799bbea50733fe0","3","1","2025-07-30T09:11:35.182Z","","","","","","","","","","","ControlQ","","50","","","","","","","","","","","","","","","","","","","","","","","","","","","","",""
"7093","","<div style=""width:500px;"">
  <p>How would you describe your current emotional state?</p>
  </div>","13","html-slider-response","47","863431","0.0-5.0-3.7","273","1","2025-07-30 08:57:13","1f75c3e559b7213887762d5229550c2b","102.213.27.252","Mozilla/5.0 (Windows NT 10.0; Win64; x64) AppleWebKit/537.36 (KHTML, like Gecko) Chrome/138.0.0.0 Safari/537.36","WebKit","Chrome","138.0.0.0","Windows","10.0","https://app.prolific.com/","en-US,en;q=0.9,zh-CN;q=0.8,zh;q=0.7","669149873799bbea50733fe0","6877631c9844ddd5501205fc","6889de3bc4edeae9d76911ef","3","1","669149873799bbea50733fe0","3","1","2025-07-30T09:11:42.282Z","","","","","","","","","","","StressQ","","50","","","","","","","","","","","","","","","","","","","","","","","","","","","","",""
"6243","","<div style=""width:500px;"">
  <p>What best describes how you currently feel?</p>
  </div>","63","html-slider-response","48","869680","0.0-5.0-4.7","273","1","2025-07-30 08:57:13","1f75c3e559b7213887762d5229550c2b","102.213.27.252","Mozilla/5.0 (Windows NT 10.0; Win64; x64) AppleWebKit/537.36 (KHTML, like Gecko) Chrome/138.0.0.0 Safari/537.36","WebKit","Chrome","138.0.0.0","Windows","10.0","https://app.prolific.com/","en-US,en;q=0.9,zh-CN;q=0.8,zh;q=0.7","669149873799bbea50733fe0","6877631c9844ddd5501205fc","6889de3bc4edeae9d76911ef","3","1","669149873799bbea50733fe0","3","1","2025-07-30T09:11:48.531Z","","","","","","","","","","","MotivationQ","","50","","","","","","","","","","","","","","","","","","","","","","","","","","","","",""
"","","","","ctl-task-cpt","49","998981","0.0-5.0-0.8","273","1","2025-07-30 08:57:13","1f75c3e559b7213887762d5229550c2b","102.213.27.252","Mozilla/5.0 (Windows NT 10.0; Win64; x64) AppleWebKit/537.36 (KHTML, like Gecko) Chrome/138.0.0.0 Safari/537.36","WebKit","Chrome","138.0.0.0","Windows","10.0","https://app.prolific.com/","en-US,en;q=0.9,zh-CN;q=0.8,zh;q=0.7","669149873799bbea50733fe0","6877631c9844ddd5501205fc","6889de3bc4edeae9d76911ef","3","1","669149873799bbea50733fe0","3","1","2025-07-30T09:13:57.833Z","","","","","","","","","","","","","","win-only","0","g1:NW,g2:SE","0.2","9","0","875525.2","25560.1","30602.2","126238","1","4","8","6","2","-8","-8","5","13","0.03787878787878788","1617.1","3000","-780","[""down"",""right""]","{""num_key_presses"":21,""num_perfect"":4,""num_errors"":0,""num_randdir"":17,""num_randdir_good_moves"":9,""num_whilered"":0,""num_whileblue"":0,""num_blue"":6,""num_good_moves"":13}","[346.9642857142857,347.21428666796004,1.1,346.9642857142857,347.21428666796004,106.8,346.9642857142857,347.21428666796004,314.8,346.9642857142857,347.21428666796004,422.7,376.9642857142857,359.71428666796004,626.5,436.9642857142857,397.21428666796004,727.8,551.9642857142857,518.46428666796,831.9,675.7142857142857,683.46428666796,1059.5,676.9642857142857,682.21428666796,1171.8,616.9642857142857,652.21428666796,1364.8,616.9642857142857,652.21428666796,1510.7,616.9642857142857,652.21428666796,1623.8,616.9642857142857,652.21428666796,1849.8,616.9642857142857,652.21428666796,2097.3,616.9642857142857,652.21428666796,2204.3,616.9642857142857,652.21428666796,2433.7,616.9642857142857,652.21428666796,2541.1,616.9642857142857,652.21428666796,2794.5,616.9642857142857,652.21428666796,2910.1,616.9642857142857,652.21428666796,3104.5,616.9642857142857,652.21428666796,3210.3,616.9642857142857,652.21428666796,3415.8,616.9642857142857,652.21428666796,3517.7,616.9642857142857,652.21428666796,3682.4,616.9642857142857,652.21428666796,3789.9,616.9642857142857,652.21428666796,4014.1,616.9642857142857,652.21428666796,4124.4,616.9642857142857,652.21428666796,4289,616.9642857142857,652.21428666796,4389.9,616.9642857142857,652.21428666796,4555.3,616.9642857142857,652.21428666796,4657.7,616.9642857142857,652.21428666796,4850,616.9642857142857,652.21428666796,4957.9]","[1881.6,1881.6,1000,0,881.6,""oops"",""down"",""right"",""good_move"",4665.9,2782.4,2249.4,1883.5,533,""oops"",""right"",""right"",""good_move"",7491.2,2822.7,1981.3,4668.5,841.4,""smooth"",""right"",""right"",""good_move"",14237,6741.5,2379.5,11147.2,710.4,""oops"",""down"",""left"",""bad_move"",18576.5,4338,2229.7,14238.5,2108.3,""oops"",""right"",""left"",""bad_move"",22667.4,4089.7,1874.2,18577.7,2215.5,""smooth"",""down"",""down"",""good_move"",26069.8,3401.1,2823.8,22668.8,577.3,""oops"",""down"",""left"",""bad_move"",33635.7,7563.7,2443.1,30526,666.6,""oops"",""down"",""right"",""good_move"",37212.9,3576.1,2837.3,33636.8,738.8,""oops"",""right"",""down"",""good_move"",43334.9,6120.3,2044.9,40731,559,""oops"",""down"",""down"",""good_move"",46433.2,3097.6,2591.3,43335.6,506.3,""oops"",""right"",""left"",""bad_move"",50542.3,4107.5,2958.5,46434.8,1149,""oops"",""right"",""right"",""good_move"",53556.5,3012.6,2351.3,50543.9,661.3,""oops"",""right"",""up"",""bad_move"",61805.3,8247,2873.4,58467.2,464.7,""oops"",""down"",""right"",""good_move"",64745.1,2938.8,2288.8,61806.3,650,""oops"",""down"",""up"",""bad_move"",68790.6,4043.1,2546.8,64747.5,1496.3,""oops"",""right"",""up"",""bad_move"",72977.2,4185.6,2744.7,68791.7,1440.9,""oops"",""down"",""up"",""bad_move"",76815.3,3837,2313.5,72978.3,1523.5,""smooth"",""right"",""right"",""good_move"",83328.3,6511.4,2325.6,80546,456.7,""smooth"",""down"",""down"",""good_move"",86142.7,2813.5,2232.9,83329.2,580.6,""oops"",""down"",""down"",""good_move"",89072,2926,2403.1,86146.1,522.8,""oops"",""down"",""down"",""good_move""]","",""
"5736","","<div style=""width:500px;"">
  <p>What determined the result of this run?</p>
  </div>","89","html-slider-response","50","1004720","0.0-5.0-1.8","273","1","2025-07-30 08:57:13","1f75c3e559b7213887762d5229550c2b","102.213.27.252","Mozilla/5.0 (Windows NT 10.0; Win64; x64) AppleWebKit/537.36 (KHTML, like Gecko) Chrome/138.0.0.0 Safari/537.36","WebKit","Chrome","138.0.0.0","Windows","10.0","https://app.prolific.com/","en-US,en;q=0.9,zh-CN;q=0.8,zh;q=0.7","669149873799bbea50733fe0","6877631c9844ddd5501205fc","6889de3bc4edeae9d76911ef","3","1","669149873799bbea50733fe0","3","1","2025-07-30T09:14:03.571Z","","","","","","","","","","","AttribQ","","50","","","","","","","","","","","","","","","","","","","","","","","","","","","","",""
"8683","","<div style=""width:500px;"">
  <p>How much control did you have over the ball?</p>
  </div>","18","html-slider-response","51","1013405","0.0-5.0-2.8","273","1","2025-07-30 08:57:13","1f75c3e559b7213887762d5229550c2b","102.213.27.252","Mozilla/5.0 (Windows NT 10.0; Win64; x64) AppleWebKit/537.36 (KHTML, like Gecko) Chrome/138.0.0.0 Safari/537.36","WebKit","Chrome","138.0.0.0","Windows","10.0","https://app.prolific.com/","en-US,en;q=0.9,zh-CN;q=0.8,zh;q=0.7","669149873799bbea50733fe0","6877631c9844ddd5501205fc","6889de3bc4edeae9d76911ef","3","1","669149873799bbea50733fe0","3","1","2025-07-30T09:14:12.257Z","","","","","","","","","","","ControlQ","","50","","","","","","","","","","","","","","","","","","","","","","","","","","","","",""
"5523","","<div style=""width:500px;"">
  <p>How would you describe your current emotional state?</p>
  </div>","63","html-slider-response","52","1018931","0.0-5.0-3.8","273","1","2025-07-30 08:57:13","1f75c3e559b7213887762d5229550c2b","102.213.27.252","Mozilla/5.0 (Windows NT 10.0; Win64; x64) AppleWebKit/537.36 (KHTML, like Gecko) Chrome/138.0.0.0 Safari/537.36","WebKit","Chrome","138.0.0.0","Windows","10.0","https://app.prolific.com/","en-US,en;q=0.9,zh-CN;q=0.8,zh;q=0.7","669149873799bbea50733fe0","6877631c9844ddd5501205fc","6889de3bc4edeae9d76911ef","3","1","669149873799bbea50733fe0","3","1","2025-07-30T09:14:17.782Z","","","","","","","","","","","StressQ","","50","","","","","","","","","","","","","","","","","","","","","","","","","","","","",""
"6343","","<div style=""width:500px;"">
  <p>What best describes how you currently feel?</p>
  </div>","50","html-slider-response","53","1025276","0.0-5.0-4.8","273","1","2025-07-30 08:57:13","1f75c3e559b7213887762d5229550c2b","102.213.27.252","Mozilla/5.0 (Windows NT 10.0; Win64; x64) AppleWebKit/537.36 (KHTML, like Gecko) Chrome/138.0.0.0 Safari/537.36","WebKit","Chrome","138.0.0.0","Windows","10.0","https://app.prolific.com/","en-US,en;q=0.9,zh-CN;q=0.8,zh;q=0.7","669149873799bbea50733fe0","6877631c9844ddd5501205fc","6889de3bc4edeae9d76911ef","3","1","669149873799bbea50733fe0","3","1","2025-07-30T09:14:24.128Z","","","","","","","","","","","MotivationQ","","50","","","","","","","","","","","","","","","","","","","","","","","","","","","","",""
"","","","","ctl-task-cpt","54","1144393","0.0-5.0-0.9","273","1","2025-07-30 08:57:13","1f75c3e559b7213887762d5229550c2b","102.213.27.252","Mozilla/5.0 (Windows NT 10.0; Win64; x64) AppleWebKit/537.36 (KHTML, like Gecko) Chrome/138.0.0.0 Safari/537.36","WebKit","Chrome","138.0.0.0","Windows","10.0","https://app.prolific.com/","en-US,en;q=0.9,zh-CN;q=0.8,zh;q=0.7","669149873799bbea50733fe0","6877631c9844ddd5501205fc","6889de3bc4edeae9d76911ef","3","1","669149873799bbea50733fe0","3","1","2025-07-30T09:16:23.244Z","","","","","","","","","","","","","","win-only","0","g1:NW,g2:SE","0.4","10","0","1031120.7","16605.5","21653.4","116096.1","1","4","4","6","1","1","0","5","5","0.03787878787878788","3007.2","3000","895","[""left"",""up""]","{""num_key_presses"":19,""num_perfect"":7,""num_errors"":1,""num_randdir"":11,""num_randdir_good_moves"":5,""num_whilered"":0,""num_whileblue"":0,""num_blue"":5,""num_good_moves"":11}","[350.7142857142857,353.46428666796004,0,288.2142857142857,-30.28571333203997,188.9,288.2142857142857,-30.28571333203997,1167.7,288.2142857142857,-30.28571333203997,1282.7,288.2142857142857,-30.28571333203997,1390.7,288.2142857142857,-30.28571333203997,1521.2,288.2142857142857,-30.28571333203997,1707,271.9642857142857,-57.78571333203997,1823.6,474.4642857142857,434.71428666796004,2076.7,455.7142857142857,427.21428666796004,2182.9,203.21428571428572,219.71428666796004,2396.2,81.96428571428572,102.21428666796004,2510.7,64.46428571428572,84.71428666796004,2762.8,64.46428571428572,84.71428666796004,2863,64.46428571428572,84.71428666796004,3030.5,64.46428571428572,84.71428666796004,3181.8,64.46428571428572,84.71428666796004,3282.9,64.46428571428572,84.71428666796004,3386.4,64.46428571428572,84.71428666796004,3567,64.46428571428572,84.71428666796004,3680.1,64.46428571428572,84.71428666796004,3844.1,64.46428571428572,84.71428666796004,3945.4,64.46428571428572,84.71428666796004,4111,64.46428571428572,84.71428666796004,4217.6,64.46428571428572,84.71428666796004,4440.7,64.46428571428572,84.71428666796004,4542.5,64.46428571428572,84.71428666796004,4755.8,64.46428571428572,84.71428666796004,4859]","[5108.7,5108.7,2425.4,2162.5,520.8,""smooth"",""left"",""left"",""good_move"",9840.6,4730.6,2770.4,5110,1960.2,""smooth"",""up"",""up"",""good_move"",14328.9,4486.2,2402.2,9842.7,2084,""oops"",""right"",""down"",""bad_move"",22031.7,7700.8,2973.4,18466,592.3,""oops"",""up"",""down"",""bad_move"",24402,2369.5,1615.2,22032.5,754.3,""smooth"",""left"",""left"",""good_move"",29960.8,5557.8,2435.7,24403,3122.1,""oops"",""up"",""down"",""bad_move"",33128.7,3166.9,2521.5,29961.8,645.4,""oops"",""up"",""down"",""bad_move"",39141.3,6011.5,1983.1,36424.9,733.3,""smooth"",""up"",""up"",""good_move"",43790.9,4648.9,2133.5,39142,2515.5,""oops"",""up"",""down"",""bad_move"",47505.3,3713.3,2669.2,43792.1,1044.1,""oops"",""up"",""right"",""bad_move"",50205.9,2694.5,2046.6,47511.4,647.9,""smooth"",""left"",""left"",""good_move"",50873.3,665.1,2172.6,50208.2,-1507.5,""error"",""-"",""-"",""no_move"",59644.9,8769.2,2694.4,56298.2,652.4,""oops"",""up"",""left"",""good_move"",65500.4,5854.4,2351.2,59646,3503.2,""oops"",""right"",""up"",""good_move"",71870.4,6368.8,2483.9,65501.6,3884.9,""oops"",""right"",""up"",""good_move"",77364.5,5493.2,3403.2,71871.3,2090.1,""smooth"",""right"",""right"",""bad_move"",81040.1,3674.8,2996.3,77365.3,678.5,""oops"",""up"",""up"",""good_move"",88840.6,7790.2,1879.4,86162.9,798.3,""smooth"",""up"",""up"",""good_move"",94042,5200.3,2803.4,88841.7,2396.9,""oops"",""up"",""up"",""good_move""]","",""
"7643","","<div style=""width:500px;"">
  <p>What determined the result of this run?</p>
  </div>","10","html-slider-response","55","1152040","0.0-5.0-1.9","273","1","2025-07-30 08:57:13","1f75c3e559b7213887762d5229550c2b","102.213.27.252","Mozilla/5.0 (Windows NT 10.0; Win64; x64) AppleWebKit/537.36 (KHTML, like Gecko) Chrome/138.0.0.0 Safari/537.36","WebKit","Chrome","138.0.0.0","Windows","10.0","https://app.prolific.com/","en-US,en;q=0.9,zh-CN;q=0.8,zh;q=0.7","669149873799bbea50733fe0","6877631c9844ddd5501205fc","6889de3bc4edeae9d76911ef","3","1","669149873799bbea50733fe0","3","1","2025-07-30T09:16:30.892Z","","","","","","","","","","","AttribQ","","50","","","","","","","","","","","","","","","","","","","","","","","","","","","","",""
"6429","","<div style=""width:500px;"">
  <p>How much control did you have over the ball?</p>
  </div>","82","html-slider-response","56","1158473","0.0-5.0-2.9","273","1","2025-07-30 08:57:13","1f75c3e559b7213887762d5229550c2b","102.213.27.252","Mozilla/5.0 (Windows NT 10.0; Win64; x64) AppleWebKit/537.36 (KHTML, like Gecko) Chrome/138.0.0.0 Safari/537.36","WebKit","Chrome","138.0.0.0","Windows","10.0","https://app.prolific.com/","en-US,en;q=0.9,zh-CN;q=0.8,zh;q=0.7","669149873799bbea50733fe0","6877631c9844ddd5501205fc","6889de3bc4edeae9d76911ef","3","1","669149873799bbea50733fe0","3","1","2025-07-30T09:16:37.324Z","","","","","","","","","","","ControlQ","","50","","","","","","","","","","","","","","","","","","","","","","","","","","","","",""
"5630","","<div style=""width:500px;"">
  <p>How would you describe your current emotional state?</p>
  </div>","21","html-slider-response","57","1164108","0.0-5.0-3.9","273","1","2025-07-30 08:57:13","1f75c3e559b7213887762d5229550c2b","102.213.27.252","Mozilla/5.0 (Windows NT 10.0; Win64; x64) AppleWebKit/537.36 (KHTML, like Gecko) Chrome/138.0.0.0 Safari/537.36","WebKit","Chrome","138.0.0.0","Windows","10.0","https://app.prolific.com/","en-US,en;q=0.9,zh-CN;q=0.8,zh;q=0.7","669149873799bbea50733fe0","6877631c9844ddd5501205fc","6889de3bc4edeae9d76911ef","3","1","669149873799bbea50733fe0","3","1","2025-07-30T09:16:42.959Z","","","","","","","","","","","StressQ","","50","","","","","","","","","","","","","","","","","","","","","","","","","","","","",""
"7204","","<div style=""width:500px;"">
  <p>What best describes how you currently feel?</p>
  </div>","50","html-slider-response","58","1171324","0.0-5.0-4.9","273","1","2025-07-30 08:57:13","1f75c3e559b7213887762d5229550c2b","102.213.27.252","Mozilla/5.0 (Windows NT 10.0; Win64; x64) AppleWebKit/537.36 (KHTML, like Gecko) Chrome/138.0.0.0 Safari/537.36","WebKit","Chrome","138.0.0.0","Windows","10.0","https://app.prolific.com/","en-US,en;q=0.9,zh-CN;q=0.8,zh;q=0.7","669149873799bbea50733fe0","6877631c9844ddd5501205fc","6889de3bc4edeae9d76911ef","3","1","669149873799bbea50733fe0","3","1","2025-07-30T09:16:50.175Z","","","","","","","","","","","MotivationQ","","50","","","","","","","","","","","","","","","","","","","","","","","","","","","","",""
"","","","","ctl-task-cpt","59","1247439","0.0-5.0-0.10","273","1","2025-07-30 08:57:13","1f75c3e559b7213887762d5229550c2b","102.213.27.252","Mozilla/5.0 (Windows NT 10.0; Win64; x64) AppleWebKit/537.36 (KHTML, like Gecko) Chrome/138.0.0.0 Safari/537.36","WebKit","Chrome","138.0.0.0","Windows","10.0","https://app.prolific.com/","en-US,en;q=0.9,zh-CN;q=0.8,zh;q=0.7","669149873799bbea50733fe0","6877631c9844ddd5501205fc","6889de3bc4edeae9d76911ef","3","1","669149873799bbea50733fe0","3","1","2025-07-30T09:18:06.290Z","","","","","","","","","","","","","","win-only","2","g1:SE,g2:NW","0.5","11","0","1177170.1","12829","17960.8","73082.2","1","4","4","6","1","1","1","6","5","0.045454545454545456","1846.8","3000","1555","[""down"",""right""]","{""num_key_presses"":12,""num_perfect"":6,""num_errors"":0,""num_randdir"":6,""num_randdir_good_moves"":3,""num_whilered"":0,""num_whileblue"":0,""num_blue"":2,""num_good_moves"":8}","[355.7142857142857,347.21428666796004,1.3,355.7142857142857,347.21428666796004,100.8,355.7142857142857,347.21428666796004,302.8,355.7142857142857,347.21428666796004,408.6,355.7142857142857,347.21428666796004,614.6,640.7142857142857,480.96428666796004,881.8,651.9642857142857,509.71428666796004,987.8,660.7142857142857,629.71428666796,1246.3,666.9642857142857,649.71428666796,1360.8,666.9642857142857,664.71428666796,1557.1,666.9642857142857,664.71428666796,1660.4,666.9642857142857,664.71428666796,1860.1,666.9642857142857,664.71428666796,1962.8,666.9642857142857,664.71428666796,2146.1,666.9642857142857,664.71428666796,2247.2,666.9642857142857,664.71428666796,2439,666.9642857142857,664.71428666796,2539.6,666.9642857142857,664.71428666796,2643,666.9642857142857,664.71428666796,2903.5,666.9642857142857,664.71428666796,3014.7,666.9642857142857,664.71428666796,3266.5,666.9642857142857,664.71428666796,3368.3,666.9642857142857,664.71428666796,3592,666.9642857142857,664.71428666796,3692.7,666.9642857142857,664.71428666796,3922.7,666.9642857142857,664.71428666796,4030.4,666.9642857142857,664.71428666796,4238.1,666.9642857142857,664.71428666796,4341.9,666.9642857142857,664.71428666796,4522.8,666.9642857142857,664.71428666796,4730.7,666.9642857142857,664.71428666796,4847.1,666.9642857142857,664.71428666796,4948.7]","[1577.5,1577.6,1000,0,577.6,""oops"",""right"",""down"",""good_move"",4514.5,2935.9,2230.8,1578.7,705.1,""oops"",""right"",""up"",""bad_move"",13108.5,8592,2291.9,10152.5,664.1,""oops"",""up"",""down"",""good_move"",17104.6,3994.7,2906.7,13109.9,1088,""smooth"",""up"",""up"",""bad_move"",26695.3,9589.1,2753.5,23137.7,804.1,""smooth"",""right"",""right"",""good_move"",30941.6,4244.7,3246.1,26696.9,998.6,""smooth"",""right"",""right"",""good_move"",33942.8,2998.9,2217.2,30943.9,781.7,""oops"",""down"",""left"",""bad_move"",40189.1,6236.4,2947.3,33952.7,3289.1,""oops"",""down"",""left"",""bad_move"",44869.7,4679.3,2330.9,40190.5,2348.3,""smooth"",""right"",""right"",""good_move"",47911.6,3040.6,2369.6,44871,671,""smooth"",""right"",""right"",""good_move"",51651.6,3737.9,2858.8,47913.8,879,""smooth"",""down"",""down"",""good_move"",54725.2,3070.7,2265.7,51654.5,805,""oops"",""down"",""down"",""good_move""]","",""
"5132","","<div style=""width:500px;"">
  <p>What determined the result of this run?</p>
  </div>","26","html-slider-response","60","1252574","0.0-5.0-1.10","273","1","2025-07-30 08:57:13","1f75c3e559b7213887762d5229550c2b","102.213.27.252","Mozilla/5.0 (Windows NT 10.0; Win64; x64) AppleWebKit/537.36 (KHTML, like Gecko) Chrome/138.0.0.0 Safari/537.36","WebKit","Chrome","138.0.0.0","Windows","10.0","https://app.prolific.com/","en-US,en;q=0.9,zh-CN;q=0.8,zh;q=0.7","669149873799bbea50733fe0","6877631c9844ddd5501205fc","6889de3bc4edeae9d76911ef","3","1","669149873799bbea50733fe0","3","1","2025-07-30T09:18:11.426Z","","","","","","","","","","","AttribQ","","50","","","","","","","","","","","","","","","","","","","","","","","","","","","","",""
"6148","","<div style=""width:500px;"">
  <p>How much control did you have over the ball?</p>
  </div>","81","html-slider-response","61","1258728","0.0-5.0-2.10","273","1","2025-07-30 08:57:13","1f75c3e559b7213887762d5229550c2b","102.213.27.252","Mozilla/5.0 (Windows NT 10.0; Win64; x64) AppleWebKit/537.36 (KHTML, like Gecko) Chrome/138.0.0.0 Safari/537.36","WebKit","Chrome","138.0.0.0","Windows","10.0","https://app.prolific.com/","en-US,en;q=0.9,zh-CN;q=0.8,zh;q=0.7","669149873799bbea50733fe0","6877631c9844ddd5501205fc","6889de3bc4edeae9d76911ef","3","1","669149873799bbea50733fe0","3","1","2025-07-30T09:18:17.579Z","","","","","","","","","","","ControlQ","","50","","","","","","","","","","","","","","","","","","","","","","","","","","","","",""
"5499","","<div style=""width:500px;"">
  <p>How would you describe your current emotional state?</p>
  </div>","17","html-slider-response","62","1264231","0.0-5.0-3.10","273","1","2025-07-30 08:57:13","1f75c3e559b7213887762d5229550c2b","102.213.27.252","Mozilla/5.0 (Windows NT 10.0; Win64; x64) AppleWebKit/537.36 (KHTML, like Gecko) Chrome/138.0.0.0 Safari/537.36","WebKit","Chrome","138.0.0.0","Windows","10.0","https://app.prolific.com/","en-US,en;q=0.9,zh-CN;q=0.8,zh;q=0.7","669149873799bbea50733fe0","6877631c9844ddd5501205fc","6889de3bc4edeae9d76911ef","3","1","669149873799bbea50733fe0","3","1","2025-07-30T09:18:23.082Z","","","","","","","","","","","StressQ","","50","","","","","","","","","","","","","","","","","","","","","","","","","","","","",""
"4666","","<div style=""width:500px;"">
  <p>What best describes how you currently feel?</p>
  </div>","81","html-slider-response","63","1268903","0.0-5.0-4.10","273","1","2025-07-30 08:57:13","1f75c3e559b7213887762d5229550c2b","102.213.27.252","Mozilla/5.0 (Windows NT 10.0; Win64; x64) AppleWebKit/537.36 (KHTML, like Gecko) Chrome/138.0.0.0 Safari/537.36","WebKit","Chrome","138.0.0.0","Windows","10.0","https://app.prolific.com/","en-US,en;q=0.9,zh-CN;q=0.8,zh;q=0.7","669149873799bbea50733fe0","6877631c9844ddd5501205fc","6889de3bc4edeae9d76911ef","3","1","669149873799bbea50733fe0","3","1","2025-07-30T09:18:27.754Z","","","","","","","","","","","MotivationQ","","50","","","","","","","","","","","","","","","","","","","","","","","","","","","","",""
"","","","","ctl-task-cpt","64","1312008","0.0-5.0-0.11","273","1","2025-07-30 08:57:13","1f75c3e559b7213887762d5229550c2b","102.213.27.252","Mozilla/5.0 (Windows NT 10.0; Win64; x64) AppleWebKit/537.36 (KHTML, like Gecko) Chrome/138.0.0.0 Safari/537.36","WebKit","Chrome","138.0.0.0","Windows","10.0","https://app.prolific.com/","en-US,en;q=0.9,zh-CN;q=0.8,zh;q=0.7","669149873799bbea50733fe0","6877631c9844ddd5501205fc","6889de3bc4edeae9d76911ef","3","1","669149873799bbea50733fe0","3","1","2025-07-30T09:19:10.859Z","","","","","","","","","","","","","","win-only","2","g1:SE,g2:NW","0.6","12","0","1274748","1759.2","6767.9","40074.4","1","4","8","6","1","1","1","7","6","0.05303030303030303","1954","3000","2165","[""down"",""right""]","{""num_key_presses"":6,""num_perfect"":4,""num_errors"":0,""num_randdir"":2,""num_randdir_good_moves"":1,""num_whilered"":0,""num_whileblue"":0,""num_blue"":4,""num_good_moves"":5}","[355.7142857142857,359.71428666796004,0.1,355.7142857142857,359.71428666796004,119.2,355.7142857142857,359.71428666796004,258.8,355.7142857142857,359.71428666796004,399.5,355.7142857142857,359.71428666796004,530.6,355.7142857142857,359.71428666796004,672,355.7142857142857,359.71428666796004,813.7,563.2142857142857,559.71428666796,933.1,576.9642857142857,573.46428666796,1035.9,576.9642857142857,573.46428666796,1137.6,576.9642857142857,573.46428666796,1250.5,593.2142857142857,585.96428666796,1364,616.9642857142857,602.21428666796,1499.8,616.9642857142857,602.21428666796,1617.5,616.9642857142857,602.21428666796,1967.2,616.9642857142857,602.21428666796,2070.1,616.9642857142857,602.21428666796,2310.4,616.9642857142857,602.21428666796,2416.3,481.9642857142857,535.96428666796,2661.3,456.9642857142857,502.21428666796004,2770.8,445.7142857142857,480.96428666796004,2875.1,406.9642857142857,404.71428666796004,3132.7,406.9642857142857,404.71428666796004,3235.1,406.9642857142857,404.71428666796004,3545.5,406.9642857142857,404.71428666796004,3651.1,406.9642857142857,404.71428666796004,3883.3,406.9642857142857,404.71428666796004,3986.6,406.9642857142857,404.71428666796004,4218,406.9642857142857,404.71428666796004,4322.2,406.9642857142857,404.71428666796004,4561.7,406.9642857142857,404.71428666796004,4663.4,406.9642857142857,404.71428666796004,4921.4]","[1704.7,1704.8,1000,0,704.8,""oops"",""down"",""left"",""bad_move"",10711.4,9005.8,2028.8,7880.8,801.9,""smooth"",""down"",""down"",""good_move"",13954.4,3241.8,2135,10712.6,1106.8,""smooth"",""down"",""down"",""good_move"",17297.7,3335.4,2406.3,13962.3,929.1,""oops"",""right"",""right"",""good_move"",29021.2,11717,1877.1,26141.6,1002.5,""smooth"",""right"",""right"",""good_move"",32745.3,3722.5,2341.4,29022.8,1381.1,""smooth"",""right"",""right"",""good_move""]","",""
"11569","","<div style=""width:500px;"">
  <p>What determined the result of this run?</p>
  </div>","54","html-slider-response","65","1323579","0.0-5.0-1.11","273","1","2025-07-30 08:57:13","1f75c3e559b7213887762d5229550c2b","102.213.27.252","Mozilla/5.0 (Windows NT 10.0; Win64; x64) AppleWebKit/537.36 (KHTML, like Gecko) Chrome/138.0.0.0 Safari/537.36","WebKit","Chrome","138.0.0.0","Windows","10.0","https://app.prolific.com/","en-US,en;q=0.9,zh-CN;q=0.8,zh;q=0.7","669149873799bbea50733fe0","6877631c9844ddd5501205fc","6889de3bc4edeae9d76911ef","3","1","669149873799bbea50733fe0","3","1","2025-07-30T09:19:22.430Z","","","","","","","","","","","AttribQ","","50","","","","","","","","","","","","","","","","","","","","","","","","","","","","",""
"5572","","<div style=""width:500px;"">
  <p>How much control did you have over the ball?</p>
  </div>","78","html-slider-response","66","1329154","0.0-5.0-2.11","273","1","2025-07-30 08:57:13","1f75c3e559b7213887762d5229550c2b","102.213.27.252","Mozilla/5.0 (Windows NT 10.0; Win64; x64) AppleWebKit/537.36 (KHTML, like Gecko) Chrome/138.0.0.0 Safari/537.36","WebKit","Chrome","138.0.0.0","Windows","10.0","https://app.prolific.com/","en-US,en;q=0.9,zh-CN;q=0.8,zh;q=0.7","669149873799bbea50733fe0","6877631c9844ddd5501205fc","6889de3bc4edeae9d76911ef","3","1","669149873799bbea50733fe0","3","1","2025-07-30T09:19:28.005Z","","","","","","","","","","","ControlQ","","50","","","","","","","","","","","","","","","","","","","","","","","","","","","","",""
"5947","","<div style=""width:500px;"">
  <p>How would you describe your current emotional state?</p>
  </div>","17","html-slider-response","67","1335108","0.0-5.0-3.11","273","1","2025-07-30 08:57:13","1f75c3e559b7213887762d5229550c2b","102.213.27.252","Mozilla/5.0 (Windows NT 10.0; Win64; x64) AppleWebKit/537.36 (KHTML, like Gecko) Chrome/138.0.0.0 Safari/537.36","WebKit","Chrome","138.0.0.0","Windows","10.0","https://app.prolific.com/","en-US,en;q=0.9,zh-CN;q=0.8,zh;q=0.7","669149873799bbea50733fe0","6877631c9844ddd5501205fc","6889de3bc4edeae9d76911ef","3","1","669149873799bbea50733fe0","3","1","2025-07-30T09:19:33.959Z","","","","","","","","","","","StressQ","","50","","","","","","","","","","","","","","","","","","","","","","","","","","","","",""
"12040","","<div style=""width:500px;"">
  <p>What best describes how you currently feel?</p>
  </div>","65","html-slider-response","68","1347150","0.0-5.0-4.11","273","1","2025-07-30 08:57:13","1f75c3e559b7213887762d5229550c2b","102.213.27.252","Mozilla/5.0 (Windows NT 10.0; Win64; x64) AppleWebKit/537.36 (KHTML, like Gecko) Chrome/138.0.0.0 Safari/537.36","WebKit","Chrome","138.0.0.0","Windows","10.0","https://app.prolific.com/","en-US,en;q=0.9,zh-CN;q=0.8,zh;q=0.7","669149873799bbea50733fe0","6877631c9844ddd5501205fc","6889de3bc4edeae9d76911ef","3","1","669149873799bbea50733fe0","3","1","2025-07-30T09:19:46.001Z","","","","","","","","","","","MotivationQ","","50","","","","","","","","","","","","","","","","","","","","","","","","","","","","",""
"","","","","ctl-task-cpt","69","1405643","0.0-5.0-0.12","273","1","2025-07-30 08:57:13","1f75c3e559b7213887762d5229550c2b","102.213.27.252","Mozilla/5.0 (Windows NT 10.0; Win64; x64) AppleWebKit/537.36 (KHTML, like Gecko) Chrome/138.0.0.0 Safari/537.36","WebKit","Chrome","138.0.0.0","Windows","10.0","https://app.prolific.com/","en-US,en;q=0.9,zh-CN;q=0.8,zh;q=0.7","669149873799bbea50733fe0","6877631c9844ddd5501205fc","6889de3bc4edeae9d76911ef","3","1","669149873799bbea50733fe0","3","1","2025-07-30T09:20:44.494Z","","","","","","","","","","","","","","win-only","3","g1:SW,g2:NE","0.7","13","0","1352996.3","13122.1","18132.2","55449.8","1","4","8","6","1","1","1","8","7","0.06060606060606061","3125.1","3000","1990","[""down"",""left""]","{""num_key_presses"":8,""num_perfect"":7,""num_errors"":0,""num_randdir"":1,""num_randdir_good_moves"":0,""num_whilered"":0,""num_whileblue"":0,""num_blue"":1,""num_good_moves"":6}","[351.9642857142857,347.21428666796004,2.7,351.9642857142857,347.21428666796004,107,351.9642857142857,347.21428666796004,318.4,351.9642857142857,347.21428666796004,428.6,351.9642857142857,347.21428666796004,641.5,195.71428571428572,473.46428666796004,748.4,159.46428571428572,515.96428666796,861.8,146.96428571428572,533.46428666796,978.5,131.96428571428572,565.96428666796,1081.4,71.96428571428572,663.46428666796,1336.8,71.96428571428572,663.46428666796,1447.5,71.96428571428572,662.21428666796,1568.2,71.96428571428572,662.21428666796,1673.8,320.7142857142857,457.21428666796004,1905.8,373.2142857142857,417.21428666796004,2019.2,49.464285714285715,647.21428666796,2130.1,-66.78571428571428,723.46428666796,2230.5,-61.785714285714285,712.21428666796,2334,88.21428571428572,632.21428666796,2615.8,89.46428571428572,628.46428666796,2749.1,84.46428571428572,630.96428666796,2868.9,81.96428571428572,632.21428666796,3049.1,81.96428571428572,632.21428666796,3165.5,81.96428571428572,632.21428666796,3287.8,81.96428571428572,632.21428666796,3547.9,81.96428571428572,632.21428666796,3658.2,81.96428571428572,632.21428666796,3913.6,81.96428571428572,632.21428666796,4025.2,81.96428571428572,632.21428666796,4183.3,81.96428571428572,632.21428666796,4283.6,81.96428571428572,632.21428666796,4383.6,81.96428571428572,632.21428666796,4562.7,81.96428571428572,632.21428666796,4676.9,81.96428571428572,632.21428666796,4922.4]","[2062.5,2062.5,1000,0,1062.5,""oops"",""down"",""up"",""bad_move"",8121.7,6034.4,3100.2,2087.3,2934.2,""smooth"",""up"",""up"",""bad_move"",13376.3,5254.1,3261.3,8122.5,1992.6,""smooth"",""left"",""left"",""good_move"",18413.7,5035.8,2964.4,13377.9,2071.4,""smooth"",""left"",""left"",""good_move"",23681.2,5264.2,2061.1,18417,3203.1,""smooth"",""down"",""down"",""good_move"",27470.4,3788,2880.4,23682.5,907.5,""smooth"",""down"",""down"",""good_move"",34086,6612.3,2525.8,30791.3,768.9,""smooth"",""down"",""down"",""good_move"",36818.2,2731.4,1961.1,34086.8,770.3,""smooth"",""down"",""down"",""good_move""]","",""
"6423","","<div style=""width:500px;"">
  <p>What determined the result of this run?</p>
  </div>","64","html-slider-response","70","1412071","0.0-5.0-1.12","273","1","2025-07-30 08:57:13","1f75c3e559b7213887762d5229550c2b","102.213.27.252","Mozilla/5.0 (Windows NT 10.0; Win64; x64) AppleWebKit/537.36 (KHTML, like Gecko) Chrome/138.0.0.0 Safari/537.36","WebKit","Chrome","138.0.0.0","Windows","10.0","https://app.prolific.com/","en-US,en;q=0.9,zh-CN;q=0.8,zh;q=0.7","669149873799bbea50733fe0","6877631c9844ddd5501205fc","6889de3bc4edeae9d76911ef","3","1","669149873799bbea50733fe0","3","1","2025-07-30T09:20:50.923Z","","","","","","","","","","","AttribQ","","50","","","","","","","","","","","","","","","","","","","","","","","","","","","","",""
"5920","","<div style=""width:500px;"">
  <p>How much control did you have over the ball?</p>
  </div>","82","html-slider-response","71","1417994","0.0-5.0-2.12","273","1","2025-07-30 08:57:13","1f75c3e559b7213887762d5229550c2b","102.213.27.252","Mozilla/5.0 (Windows NT 10.0; Win64; x64) AppleWebKit/537.36 (KHTML, like Gecko) Chrome/138.0.0.0 Safari/537.36","WebKit","Chrome","138.0.0.0","Windows","10.0","https://app.prolific.com/","en-US,en;q=0.9,zh-CN;q=0.8,zh;q=0.7","669149873799bbea50733fe0","6877631c9844ddd5501205fc","6889de3bc4edeae9d76911ef","3","1","669149873799bbea50733fe0","3","1","2025-07-30T09:20:56.845Z","","","","","","","","","","","ControlQ","","50","","","","","","","","","","","","","","","","","","","","","","","","","","","","",""
"6094","","<div style=""width:500px;"">
  <p>How would you describe your current emotional state?</p>
  </div>","30","html-slider-response","72","1424091","0.0-5.0-3.12","273","1","2025-07-30 08:57:13","1f75c3e559b7213887762d5229550c2b","102.213.27.252","Mozilla/5.0 (Windows NT 10.0; Win64; x64) AppleWebKit/537.36 (KHTML, like Gecko) Chrome/138.0.0.0 Safari/537.36","WebKit","Chrome","138.0.0.0","Windows","10.0","https://app.prolific.com/","en-US,en;q=0.9,zh-CN;q=0.8,zh;q=0.7","669149873799bbea50733fe0","6877631c9844ddd5501205fc","6889de3bc4edeae9d76911ef","3","1","669149873799bbea50733fe0","3","1","2025-07-30T09:21:02.943Z","","","","","","","","","","","StressQ","","50","","","","","","","","","","","","","","","","","","","","","","","","","","","","",""
"5654","","<div style=""width:500px;"">
  <p>What best describes how you currently feel?</p>
  </div>","69","html-slider-response","73","1429748","0.0-5.0-4.12","273","1","2025-07-30 08:57:13","1f75c3e559b7213887762d5229550c2b","102.213.27.252","Mozilla/5.0 (Windows NT 10.0; Win64; x64) AppleWebKit/537.36 (KHTML, like Gecko) Chrome/138.0.0.0 Safari/537.36","WebKit","Chrome","138.0.0.0","Windows","10.0","https://app.prolific.com/","en-US,en;q=0.9,zh-CN;q=0.8,zh;q=0.7","669149873799bbea50733fe0","6877631c9844ddd5501205fc","6889de3bc4edeae9d76911ef","3","1","669149873799bbea50733fe0","3","1","2025-07-30T09:21:08.599Z","","","","","","","","","","","MotivationQ","","50","","","","","","","","","","","","","","","","","","","","","","","","","","","","",""
"","","","","ctl-task-cpt","74","1482908","0.0-5.0-0.13","273","1","2025-07-30 08:57:13","1f75c3e559b7213887762d5229550c2b","102.213.27.252","Mozilla/5.0 (Windows NT 10.0; Win64; x64) AppleWebKit/537.36 (KHTML, like Gecko) Chrome/138.0.0.0 Safari/537.36","WebKit","Chrome","138.0.0.0","Windows","10.0","https://app.prolific.com/","en-US,en;q=0.9,zh-CN;q=0.8,zh;q=0.7","669149873799bbea50733fe0","6877631c9844ddd5501205fc","6889de3bc4edeae9d76911ef","3","1","669149873799bbea50733fe0","3","1","2025-07-30T09:22:01.759Z","","","","","","","","","","","","","","win-only","2","g1:SE,g2:NW","0.8","14","0","1435591.8","9294.8","14447.7","50135.8","1","4","4","6","2","4","4","12","8","0.09090909090909091","1649.8","3000","2375","[""left"",""up""]","{""num_key_presses"":6,""num_perfect"":6,""num_errors"":0,""num_randdir"":0,""num_randdir_good_moves"":0,""num_whilered"":0,""num_whileblue"":0,""num_blue"":1,""num_good_moves"":6}","[359.4642857142857,350.96428666796004,1.3,359.4642857142857,350.96428666796004,102.3,359.4642857142857,350.96428666796004,368.8,359.4642857142857,350.96428666796004,495,386.9642857142857,355.96428666796004,757.9,336.9642857142857,307.21428666796004,864.2,271.9642857142857,247.21428666796004,967.1,96.96428571428572,67.21428666796004,1230,90.71428571428572,62.21428666796003,1339.7,90.71428571428572,62.21428666796003,1441.7,90.71428571428572,62.21428666796003,1665.7,90.71428571428572,62.21428666796003,1772.4,90.71428571428572,62.21428666796003,1877.1,90.71428571428572,62.21428666796003,2105,90.71428571428572,62.21428666796003,2229.1,90.71428571428572,62.21428666796003,2333.3,90.71428571428572,62.21428666796003,2524.2,90.71428571428572,62.21428666796003,2634.6,90.71428571428572,62.21428666796003,2875.3,90.71428571428572,62.21428666796003,2984.3,90.71428571428572,62.21428666796003,3213.2,90.71428571428572,62.21428666796003,3314,90.71428571428572,62.21428666796003,3573.6,90.71428571428572,62.21428666796003,3685.3,90.71428571428572,62.21428666796003,3858.3,90.71428571428572,62.21428666796003,3970.1,90.71428571428572,62.21428666796003,4070.7,90.71428571428572,62.21428666796003,4256.4,90.71428571428572,62.21428666796003,4360.1,90.71428571428572,62.21428666796003,4469.5,90.71428571428572,62.21428666796003,4690.8,90.71428571428572,62.21428666796003,4803.1,90.71428571428572,62.21428666796003,4914.1]","[1737.8,1737.8,1000,0,737.8,""smooth"",""up"",""up"",""good_move"",7991.5,6244.9,1966.2,1746.7,4278.7,""smooth"",""left"",""left"",""good_move"",14157.7,6165.4,2919.5,7992.4,3245.9,""smooth"",""up"",""up"",""good_move"",19431.7,5273.1,2869.1,14158.6,2404,""smooth"",""left"",""left"",""good_move"",28969,9536,2711.1,25635.1,622.8,""smooth"",""left"",""left"",""good_move"",35240.5,6270.9,2493.7,28969.6,3777.2,""smooth"",""up"",""up"",""good_move""]","",""
"6859","","<div style=""width:500px;"">
  <p>What determined the result of this run?</p>
  </div>","82","html-slider-response","75","1489770","0.0-5.0-1.13","273","1","2025-07-30 08:57:13","1f75c3e559b7213887762d5229550c2b","102.213.27.252","Mozilla/5.0 (Windows NT 10.0; Win64; x64) AppleWebKit/537.36 (KHTML, like Gecko) Chrome/138.0.0.0 Safari/537.36","WebKit","Chrome","138.0.0.0","Windows","10.0","https://app.prolific.com/","en-US,en;q=0.9,zh-CN;q=0.8,zh;q=0.7","669149873799bbea50733fe0","6877631c9844ddd5501205fc","6889de3bc4edeae9d76911ef","3","1","669149873799bbea50733fe0","3","1","2025-07-30T09:22:08.621Z","","","","","","","","","","","AttribQ","","50","","","","","","","","","","","","","","","","","","","","","","","","","","","","",""
"7650","","<div style=""width:500px;"">
  <p>How much control did you have over the ball?</p>
  </div>","79","html-slider-response","76","1497425","0.0-5.0-2.13","273","1","2025-07-30 08:57:13","1f75c3e559b7213887762d5229550c2b","102.213.27.252","Mozilla/5.0 (Windows NT 10.0; Win64; x64) AppleWebKit/537.36 (KHTML, like Gecko) Chrome/138.0.0.0 Safari/537.36","WebKit","Chrome","138.0.0.0","Windows","10.0","https://app.prolific.com/","en-US,en;q=0.9,zh-CN;q=0.8,zh;q=0.7","669149873799bbea50733fe0","6877631c9844ddd5501205fc","6889de3bc4edeae9d76911ef","3","1","669149873799bbea50733fe0","3","1","2025-07-30T09:22:16.276Z","","","","","","","","","","","ControlQ","","50","","","","","","","","","","","","","","","","","","","","","","","","","","","","",""
"6290","","<div style=""width:500px;"">
  <p>How would you describe your current emotional state?</p>
  </div>","18","html-slider-response","77","1503717","0.0-5.0-3.13","273","1","2025-07-30 08:57:13","1f75c3e559b7213887762d5229550c2b","102.213.27.252","Mozilla/5.0 (Windows NT 10.0; Win64; x64) AppleWebKit/537.36 (KHTML, like Gecko) Chrome/138.0.0.0 Safari/537.36","WebKit","Chrome","138.0.0.0","Windows","10.0","https://app.prolific.com/","en-US,en;q=0.9,zh-CN;q=0.8,zh;q=0.7","669149873799bbea50733fe0","6877631c9844ddd5501205fc","6889de3bc4edeae9d76911ef","3","1","669149873799bbea50733fe0","3","1","2025-07-30T09:22:22.569Z","","","","","","","","","","","StressQ","","50","","","","","","","","","","","","","","","","","","","","","","","","","","","","",""
"7034","","<div style=""width:500px;"">
  <p>What best describes how you currently feel?</p>
  </div>","73","html-slider-response","78","1510754","0.0-5.0-4.13","273","1","2025-07-30 08:57:13","1f75c3e559b7213887762d5229550c2b","102.213.27.252","Mozilla/5.0 (Windows NT 10.0; Win64; x64) AppleWebKit/537.36 (KHTML, like Gecko) Chrome/138.0.0.0 Safari/537.36","WebKit","Chrome","138.0.0.0","Windows","10.0","https://app.prolific.com/","en-US,en;q=0.9,zh-CN;q=0.8,zh;q=0.7","669149873799bbea50733fe0","6877631c9844ddd5501205fc","6889de3bc4edeae9d76911ef","3","1","669149873799bbea50733fe0","3","1","2025-07-30T09:22:29.606Z","","","","","","","","","","","MotivationQ","","50","","","","","","","","","","","","","","","","","","","","","","","","","","","","",""
