"rt","response_timestamp","stimulus","response","trial_type","trial_index","time_elapsed","internal_node_id","run_id","condition","recorded_at","source_code_version","ip","user_agent","device","browser","browser_version","platform","platform_version","referer","accept_language","PROLIFIC_PID","STUDY_ID","SESSION_ID","WEEK","BATCH","prolific_id","week","batch","realtime","success","responses","item_order","radio_event_ids","radio_event_times","key_event_times","mouse_event_times","straightlining","zigzagging","honeypot","eventType","view_history","slider_start","which_type","canvas_config","goals_layout","control_level","trial_number","tutorial_trial_number","trial_start_time","phase1_start_time","phase2_start_time","phase3_start_time","goal_1_value","goal_1_distance","goal_2_value","goal_2_distance","goal_selected","outcome","outcome_total","participant_final_score","participant_initial_score","participant_final_score_prop","goal_choice_rt","allocated_time","allocated_time_remaining","goal_direction","counts","mouse_movements","key_presses","question_order","question_id"
"73162","1752654622277","<p style='font-size:40px;line-height:1.25'><strong>Welcome to the experiment!</strong></p><p style='font-size:1.1em;line-height:1.25'>Thank you for participanting in our experiment again! You will be asked to play the Dysfunctional Ball Game again. We will briefly recap the rules before we start.</p><p style='font-size:1.1em;line-height:1.25'>Press <strong>Next</strong> to continue.</p>","0","custom-html-button-response","0","73188","0.0-0.0","62","1","2025-07-16 08:29:07","1f75c3e559b7213887762d5229550c2b","89.70.241.158","Mozilla/5.0 (Windows NT 10.0; Win64; x64; rv:140.0) Gecko/20100101 Firefox/140.0","","Firefox","140.0","Windows","10.0","https://app.prolific.com/","pl,en-US;q=0.7,en;q=0.3","5f0214e58782120a8c970fd6","686e379bc37a29ffa5cdc956","687761fa98fe86b60151320b","1","1","5f0214e58782120a8c970fd6","1","1","2025-07-16T08:30:22.282Z","","","","","","","","","","","","","","","","","","","","","","","","","","","","","","","","","","","","","","","","","",""
"9965","","","","fullscreen","1","84234","0.0-1.0","62","1","2025-07-16 08:29:07","1f75c3e559b7213887762d5229550c2b","89.70.241.158","Mozilla/5.0 (Windows NT 10.0; Win64; x64; rv:140.0) Gecko/20100101 Firefox/140.0","","Firefox","140.0","Windows","10.0","https://app.prolific.com/","pl,en-US;q=0.7,en;q=0.3","5f0214e58782120a8c970fd6","686e379bc37a29ffa5cdc956","687761fa98fe86b60151320b","1","1","5f0214e58782120a8c970fd6","1","1","","true","","","","","","","","","","","","","","","","","","","","","","","","","","","","","","","","","","","","","","","","",""
"6458","1752654639792","<p style='font-size:1.1em;line-height:1.25'>In the following, we will ask you a few questions relating to your feelings in the last 24 hours.<br></p><p style='font-size:1.1em;line-height:1.25'>Press the <strong>Next</strong> button to continue.</p>","0","custom-html-button-response","2","90698","0.0-2.0-0.0","62","1","2025-07-16 08:29:07","1f75c3e559b7213887762d5229550c2b","89.70.241.158","Mozilla/5.0 (Windows NT 10.0; Win64; x64; rv:140.0) Gecko/20100101 Firefox/140.0","","Firefox","140.0","Windows","10.0","https://app.prolific.com/","pl,en-US;q=0.7,en;q=0.3","5f0214e58782120a8c970fd6","686e379bc37a29ffa5cdc956","687761fa98fe86b60151320b","1","1","5f0214e58782120a8c970fd6","1","1","2025-07-16T08:30:39.793Z","","","","","","","","","","","","","","","","","","","","","","","","","","","","","","","","","","","","","","","","","",""
"71176","","","","survey-template","3","161902","0.0-2.0-1.0","62","1","2025-07-16 08:29:07","1f75c3e559b7213887762d5229550c2b","89.70.241.158","Mozilla/5.0 (Windows NT 10.0; Win64; x64; rv:140.0) Gecko/20100101 Firefox/140.0","","Firefox","140.0","Windows","10.0","https://app.prolific.com/","pl,en-US;q=0.7,en;q=0.3","5f0214e58782120a8c970fd6","686e379bc37a29ffa5cdc956","687761fa98fe86b60151320b","1","1","5f0214e58782120a8c970fd6","1","1","2025-07-16T08:31:50.997Z","","{""Q01"":""0"",""Q02"":""0"",""Q03"":""0"",""Q04"":""0"",""Q05"":""0"",""Q06"":""0"",""Q07"":""0"",""Q08"":""0"",""Q09"":""0"",""Q10"":""1"",""Q11"":""0"",""Q12"":""0"",""Q13"":""5"",""Q14"":""0"",""Q15"":""0"",""Q16"":""0"",""Q17"":""0"",""Q18"":""0"",""Q19"":""0"",""Q20"":""0"",""Q21"":""0"",""Q22"":""0""}","[0,1,2,3,4,5,6,7,8,9,10,11,12,13,14,15,16,17,18,19,20,21]","[""Q01"",""Q02"",""Q03"",""Q04"",""Q05"",""Q06"",""Q07"",""Q08"",""Q09"",""Q10"",""Q10"",""Q11"",""Q12"",""Q13"",""Q14"",""Q13"",""Q15"",""Q16"",""Q17"",""Q18"",""Q19"",""Q20"",""Q21"",""Q22""]","[9653,11103,15366,17356,18404,20614,22035,23504,24564,26284,28317,29615,30913,39809,41159,44906,48715,49865,51972,53442,60989,65484,67005,69694]","[]","[0,9653,11103,15366,17356,18404,20614,22035,23504,24564,26284,28317,29615,30913,37706,39809,41159,44906,47457,48715,49865,51972,53442,60989,65484,67005,69694,71167]","0.9090909090909091","0.19047619047619047","0","drsp","","","","","","","","","","","","","","","","","","","","","","","","","","","","","","",""
"27039","","","","survey-template","4","188951","0.0-2.0-2.0","62","1","2025-07-16 08:29:07","1f75c3e559b7213887762d5229550c2b","89.70.241.158","Mozilla/5.0 (Windows NT 10.0; Win64; x64; rv:140.0) Gecko/20100101 Firefox/140.0","","Firefox","140.0","Windows","10.0","https://app.prolific.com/","pl,en-US;q=0.7,en;q=0.3","5f0214e58782120a8c970fd6","686e379bc37a29ffa5cdc956","687761fa98fe86b60151320b","1","1","5f0214e58782120a8c970fd6","1","1","2025-07-16T08:32:18.045Z","","{""Q01"":""1"",""Q02"":""5"",""Q03"":""0""}","[0,1,2]","[""Q01"",""Q02"",""Q03""]","[7810,15175,25566]","[]","[7810,15175,25566,27038]","0.6666666666666666","0.5","0","stress","","","","","","","","","","","","","","","","","","","","","","","","","","","","","","",""
"21006","","","","instructions","5","209963","0.0-3.0-0.0","62","1","2025-07-16 08:29:07","1f75c3e559b7213887762d5229550c2b","89.70.241.158","Mozilla/5.0 (Windows NT 10.0; Win64; x64; rv:140.0) Gecko/20100101 Firefox/140.0","","Firefox","140.0","Windows","10.0","https://app.prolific.com/","pl,en-US;q=0.7,en;q=0.3","5f0214e58782120a8c970fd6","686e379bc37a29ffa5cdc956","687761fa98fe86b60151320b","1","1","5f0214e58782120a8c970fd6","1","1","","","","","","","","","","","","","[{""page_index"":0,""viewing_time"":21005}]","","","","","","","","","","","","","","","","","","","","","","","","","","","","","",""
"5573","","<p>Before you start with this game please answer the following three questions yourself. </p>
  <p>Through this game, we measure several aspects of your cognitive performance, such as reaction times, multi-tasking capabilities </p>
  <p>and the ability to assess the situation you are in.</p>
  <p></p>
  <p><b>How good do you usually are in such tasks?</b></p>","66","html-slider-response","6","215544","0.0-4.0-0.0","62","1","2025-07-16 08:29:07","1f75c3e559b7213887762d5229550c2b","89.70.241.158","Mozilla/5.0 (Windows NT 10.0; Win64; x64; rv:140.0) Gecko/20100101 Firefox/140.0","","Firefox","140.0","Windows","10.0","https://app.prolific.com/","pl,en-US;q=0.7,en;q=0.3","5f0214e58782120a8c970fd6","686e379bc37a29ffa5cdc956","687761fa98fe86b60151320b","1","1","5f0214e58782120a8c970fd6","1","1","2025-07-16T08:32:44.638Z","","","","","","","","","","","PreSkillQ","","50","","","","","","","","","","","","","","","","","","","","","","","","","","","","",""
"5410","","<div style=""width:500px;"">
  <p>How well do you think you will perform in this task compared to other participants?</p>
  </div>","57","html-slider-response","7","220959","0.0-4.0-1.0","62","1","2025-07-16 08:29:07","1f75c3e559b7213887762d5229550c2b","89.70.241.158","Mozilla/5.0 (Windows NT 10.0; Win64; x64; rv:140.0) Gecko/20100101 Firefox/140.0","","Firefox","140.0","Windows","10.0","https://app.prolific.com/","pl,en-US;q=0.7,en;q=0.3","5f0214e58782120a8c970fd6","686e379bc37a29ffa5cdc956","687761fa98fe86b60151320b","1","1","5f0214e58782120a8c970fd6","1","1","2025-07-16T08:32:50.054Z","","","","","","","","","","","PrePerfQ","","50","","","","","","","","","","","","","","","","","","","","","","","","","","","","",""
"4985","","<div style=""width:500px;"">
  <p>What best describes how you currently feel?</p>
  </div>","87","html-slider-response","8","225950","0.0-4.0-2.0","62","1","2025-07-16 08:29:07","1f75c3e559b7213887762d5229550c2b","89.70.241.158","Mozilla/5.0 (Windows NT 10.0; Win64; x64; rv:140.0) Gecko/20100101 Firefox/140.0","","Firefox","140.0","Windows","10.0","https://app.prolific.com/","pl,en-US;q=0.7,en;q=0.3","5f0214e58782120a8c970fd6","686e379bc37a29ffa5cdc956","687761fa98fe86b60151320b","1","1","5f0214e58782120a8c970fd6","1","1","2025-07-16T08:32:55.044Z","","","","","","","","","","","PreMotivationQ","","50","","","","","","","","","","","","","","","","","","","","","","","","","","","","",""
"","","","","ctl-task-cpt","9","257394","0.0-5.0-0.0","62","1","2025-07-16 08:29:07","1f75c3e559b7213887762d5229550c2b","89.70.241.158","Mozilla/5.0 (Windows NT 10.0; Win64; x64; rv:140.0) Gecko/20100101 Firefox/140.0","","Firefox","140.0","Windows","10.0","https://app.prolific.com/","pl,en-US;q=0.7,en;q=0.3","5f0214e58782120a8c970fd6","686e379bc37a29ffa5cdc956","687761fa98fe86b60151320b","1","1","5f0214e58782120a8c970fd6","1","1","2025-07-16T08:33:26.488Z","","","","","","","","","","","","","","win-only","1","g1:NE,g2:SW","1","1","0","227789","1891","6902","28407","1","4","8","6","1","1","0","0","0","0","1708","3000","1145","[""up"",""right""]","{""num_key_presses"":5,""num_perfect"":4,""num_errors"":1,""num_randdir"":0,""num_randdir_good_moves"":0,""num_whilered"":0,""num_whileblue"":0,""num_blue"":1,""num_good_moves"":4}","[297.22857753208706,299.92857448032925,2,297.22857753208706,299.92857448032925,106,297.22857753208706,299.92857448032925,223,297.22857753208706,299.92857448032925,326,297.22857753208706,299.92857448032925,433,297.22857753208706,299.92857448032925,542,297.22857753208706,299.92857448032925,648,297.22857753208706,299.92857448032925,757,298.22857753208706,298.92857448032925,860,422.22857753208706,203.92857448032925,962,468.22857753208706,165.92857448032925,1082,494.22857753208706,137.92857448032925,1188,529.228577532087,102.92857448032925,1290,536.228577532087,94.92857448032925,1397,542.228577532087,85.92857448032925,1503,542.228577532087,85.92857448032925,1605,542.228577532087,85.92857448032925,1707,542.228577532087,85.92857448032925,1809,542.228577532087,85.92857448032925,1914,542.228577532087,85.92857448032925,2027,542.228577532087,85.92857448032925,2137,542.228577532087,85.92857448032925,2243,542.228577532087,85.92857448032925,2347,542.228577532087,85.92857448032925,2459,542.228577532087,85.92857448032925,2560,542.228577532087,85.92857448032925,2663,542.228577532087,85.92857448032925,2772,542.228577532087,85.92857448032925,2889,542.228577532087,85.92857448032925,2993,542.228577532087,85.92857448032925,3093,542.228577532087,85.92857448032925,3196,542.228577532087,85.92857448032925,3308,542.228577532087,85.92857448032925,3409,542.228577532087,85.92857448032925,3522,542.228577532087,85.92857448032925,3630,542.228577532087,85.92857448032925,3739,542.228577532087,85.92857448032925,3843,542.228577532087,85.92857448032925,3943,542.228577532087,85.92857448032925,4043,542.228577532087,85.92857448032925,4153,542.228577532087,85.92857448032925,4256,542.228577532087,85.92857448032925,4365,542.228577532087,85.92857448032925,4476,542.228577532087,85.92857448032925,4579,542.228577532087,85.92857448032925,4679,542.228577532087,85.92857448032925,4795,542.228577532087,85.92857448032925,4895]","[229,229,1000,0,-771,""error"",""-"",""-"",""no_move"",6463,6234,3424.7,1237,1801.3,""smooth"",""right"",""right"",""good_move"",9318,2855,2100.7,6463,754.3,""smooth"",""right"",""right"",""good_move"",17757,8439,2579.3,12581,2596.7,""smooth"",""up"",""up"",""good_move"",21224,3466,2719.9,17758,746.1,""smooth"",""up"",""up"",""good_move""]","",""
"4621","","<div style=""width:500px;"">
  <p>What determined the result of this run?</p>
  </div>","87","html-slider-response","10","262017","0.0-5.0-1.0","62","1","2025-07-16 08:29:07","1f75c3e559b7213887762d5229550c2b","89.70.241.158","Mozilla/5.0 (Windows NT 10.0; Win64; x64; rv:140.0) Gecko/20100101 Firefox/140.0","","Firefox","140.0","Windows","10.0","https://app.prolific.com/","pl,en-US;q=0.7,en;q=0.3","5f0214e58782120a8c970fd6","686e379bc37a29ffa5cdc956","687761fa98fe86b60151320b","1","1","5f0214e58782120a8c970fd6","1","1","2025-07-16T08:33:31.111Z","","","","","","","","","","","AttribQ","","50","","","","","","","","","","","","","","","","","","","","","","","","","","","","",""
"4054","","<div style=""width:500px;"">
  <p>How much control did you have over the ball?</p>
  </div>","85","html-slider-response","11","266077","0.0-5.0-2.0","62","1","2025-07-16 08:29:07","1f75c3e559b7213887762d5229550c2b","89.70.241.158","Mozilla/5.0 (Windows NT 10.0; Win64; x64; rv:140.0) Gecko/20100101 Firefox/140.0","","Firefox","140.0","Windows","10.0","https://app.prolific.com/","pl,en-US;q=0.7,en;q=0.3","5f0214e58782120a8c970fd6","686e379bc37a29ffa5cdc956","687761fa98fe86b60151320b","1","1","5f0214e58782120a8c970fd6","1","1","2025-07-16T08:33:35.171Z","","","","","","","","","","","ControlQ","","50","","","","","","","","","","","","","","","","","","","","","","","","","","","","",""
"5052","","<div style=""width:500px;"">
  <p>How would you describe your current emotional state?</p>
  </div>","6","html-slider-response","12","271132","0.0-5.0-3.0","62","1","2025-07-16 08:29:07","1f75c3e559b7213887762d5229550c2b","89.70.241.158","Mozilla/5.0 (Windows NT 10.0; Win64; x64; rv:140.0) Gecko/20100101 Firefox/140.0","","Firefox","140.0","Windows","10.0","https://app.prolific.com/","pl,en-US;q=0.7,en;q=0.3","5f0214e58782120a8c970fd6","686e379bc37a29ffa5cdc956","687761fa98fe86b60151320b","1","1","5f0214e58782120a8c970fd6","1","1","2025-07-16T08:33:40.226Z","","","","","","","","","","","StressQ","","50","","","","","","","","","","","","","","","","","","","","","","","","","","","","",""
"3652","","<div style=""width:500px;"">
  <p>What best describes how you currently feel?</p>
  </div>","93","html-slider-response","13","274789","0.0-5.0-4.0","62","1","2025-07-16 08:29:07","1f75c3e559b7213887762d5229550c2b","89.70.241.158","Mozilla/5.0 (Windows NT 10.0; Win64; x64; rv:140.0) Gecko/20100101 Firefox/140.0","","Firefox","140.0","Windows","10.0","https://app.prolific.com/","pl,en-US;q=0.7,en;q=0.3","5f0214e58782120a8c970fd6","686e379bc37a29ffa5cdc956","687761fa98fe86b60151320b","1","1","5f0214e58782120a8c970fd6","1","1","2025-07-16T08:33:43.883Z","","","","","","","","","","","MotivationQ","","50","","","","","","","","","","","","","","","","","","","","","","","","","","","","",""
"","","","","ctl-task-cpt","14","296363","0.0-5.0-0.1","62","1","2025-07-16 08:29:07","1f75c3e559b7213887762d5229550c2b","89.70.241.158","Mozilla/5.0 (Windows NT 10.0; Win64; x64; rv:140.0) Gecko/20100101 Firefox/140.0","","Firefox","140.0","Windows","10.0","https://app.prolific.com/","pl,en-US;q=0.7,en;q=0.3","5f0214e58782120a8c970fd6","686e379bc37a29ffa5cdc956","687761fa98fe86b60151320b","1","1","5f0214e58782120a8c970fd6","1","1","2025-07-16T08:34:05.457Z","","","","","","","","","","","","","","win-only","3","g1:SW,g2:NE","0.9","2","0","276620","1431","6450","18559","1","4","4","6","1","1","1","1","0","0.007575757575757576","2119","3000","2355","[""down"",""left""]","{""num_key_presses"":4,""num_perfect"":4,""num_errors"":0,""num_randdir"":0,""num_randdir_good_moves"":0,""num_whilered"":0,""num_whileblue"":0,""num_blue"":0,""num_good_moves"":4}","[294.22857753208706,288.92857448032925,0,294.22857753208706,288.92857448032925,100,294.22857753208706,288.92857448032925,203,294.22857753208706,288.92857448032925,309,294.22857753208706,288.92857448032925,425,294.22857753208706,288.92857448032925,536,359.22857753208706,269.92857448032925,649,375.22857753208706,273.92857448032925,753,348.22857753208706,287.92857448032925,858,340.22857753208706,291.92857448032925,964,356.22857753208706,275.92857448032925,1067,412.22857753208706,211.92857448032925,1169,403.22857753208706,218.92857448032925,1279,218.22857753208706,360.92857448032925,1387,164.22857753208706,434.92857448032925,1497,145.22857753208706,462.92857448032925,1603,113.22857753208706,495.92857448032925,1716,79.22857753208706,526.9285744803292,1820,69.22857753208706,533.9285744803292,1931,69.22857753208706,533.9285744803292,2046,69.22857753208706,533.9285744803292,2146,69.22857753208706,533.9285744803292,2251,69.22857753208706,533.9285744803292,2353,69.22857753208706,533.9285744803292,2466,69.22857753208706,533.9285744803292,2571,-0.7714224679129487,447.92857448032925,2681,-74.77142246791294,349.92857448032925,2792,-75.77142246791294,348.92857448032925,2896,-75.77142246791294,348.92857448032925,3002,-75.77142246791294,348.92857448032925,3106,-75.77142246791294,348.92857448032925,3213,-75.77142246791294,348.92857448032925,3323,-75.77142246791294,348.92857448032925,3433,-75.77142246791294,348.92857448032925,3537,-75.77142246791294,348.92857448032925,3641,-75.77142246791294,348.92857448032925,3742,-75.77142246791294,348.92857448032925,3853,-75.77142246791294,348.92857448032925,3959,-75.77142246791294,348.92857448032925,4067,-75.77142246791294,348.92857448032925,4169,-75.77142246791294,348.92857448032925,4274,-75.77142246791294,348.92857448032925,4386,-75.77142246791294,348.92857448032925,4486,-75.77142246791294,348.92857448032925,4589,-75.77142246791294,348.92857448032925,4692,-75.77142246791294,348.92857448032925,4808,-75.77142246791294,348.92857448032925,4920]","[1448,1448,1000,0,448,""smooth"",""down"",""down"",""good_move"",5495,4047,3490.7,1448,556.3,""smooth"",""down"",""down"",""good_move"",8766,3270,2686.3,5496,583.7,""smooth"",""left"",""left"",""good_move"",11785,3018,2439.4,8767,579.6,""smooth"",""left"",""left"",""good_move""]","",""
"3506","","<div style=""width:500px;"">
  <p>What determined the result of this run?</p>
  </div>","89","html-slider-response","15","299872","0.0-5.0-1.1","62","1","2025-07-16 08:29:07","1f75c3e559b7213887762d5229550c2b","89.70.241.158","Mozilla/5.0 (Windows NT 10.0; Win64; x64; rv:140.0) Gecko/20100101 Firefox/140.0","","Firefox","140.0","Windows","10.0","https://app.prolific.com/","pl,en-US;q=0.7,en;q=0.3","5f0214e58782120a8c970fd6","686e379bc37a29ffa5cdc956","687761fa98fe86b60151320b","1","1","5f0214e58782120a8c970fd6","1","1","2025-07-16T08:34:08.967Z","","","","","","","","","","","AttribQ","","50","","","","","","","","","","","","","","","","","","","","","","","","","","","","",""
"2727","","<div style=""width:500px;"">
  <p>How much control did you have over the ball?</p>
  </div>","97","html-slider-response","16","302603","0.0-5.0-2.1","62","1","2025-07-16 08:29:07","1f75c3e559b7213887762d5229550c2b","89.70.241.158","Mozilla/5.0 (Windows NT 10.0; Win64; x64; rv:140.0) Gecko/20100101 Firefox/140.0","","Firefox","140.0","Windows","10.0","https://app.prolific.com/","pl,en-US;q=0.7,en;q=0.3","5f0214e58782120a8c970fd6","686e379bc37a29ffa5cdc956","687761fa98fe86b60151320b","1","1","5f0214e58782120a8c970fd6","1","1","2025-07-16T08:34:11.697Z","","","","","","","","","","","ControlQ","","50","","","","","","","","","","","","","","","","","","","","","","","","","","","","",""
"3747","","<div style=""width:500px;"">
  <p>How would you describe your current emotional state?</p>
  </div>","6","html-slider-response","17","306354","0.0-5.0-3.1","62","1","2025-07-16 08:29:07","1f75c3e559b7213887762d5229550c2b","89.70.241.158","Mozilla/5.0 (Windows NT 10.0; Win64; x64; rv:140.0) Gecko/20100101 Firefox/140.0","","Firefox","140.0","Windows","10.0","https://app.prolific.com/","pl,en-US;q=0.7,en;q=0.3","5f0214e58782120a8c970fd6","686e379bc37a29ffa5cdc956","687761fa98fe86b60151320b","1","1","5f0214e58782120a8c970fd6","1","1","2025-07-16T08:34:15.448Z","","","","","","","","","","","StressQ","","50","","","","","","","","","","","","","","","","","","","","","","","","","","","","",""
"3012","","<div style=""width:500px;"">
  <p>What best describes how you currently feel?</p>
  </div>","90","html-slider-response","18","309370","0.0-5.0-4.1","62","1","2025-07-16 08:29:07","1f75c3e559b7213887762d5229550c2b","89.70.241.158","Mozilla/5.0 (Windows NT 10.0; Win64; x64; rv:140.0) Gecko/20100101 Firefox/140.0","","Firefox","140.0","Windows","10.0","https://app.prolific.com/","pl,en-US;q=0.7,en;q=0.3","5f0214e58782120a8c970fd6","686e379bc37a29ffa5cdc956","687761fa98fe86b60151320b","1","1","5f0214e58782120a8c970fd6","1","1","2025-07-16T08:34:18.464Z","","","","","","","","","","","MotivationQ","","50","","","","","","","","","","","","","","","","","","","","","","","","","","","","",""
"","","","","ctl-task-cpt","19","338564","0.0-5.0-0.2","62","1","2025-07-16 08:29:07","1f75c3e559b7213887762d5229550c2b","89.70.241.158","Mozilla/5.0 (Windows NT 10.0; Win64; x64; rv:140.0) Gecko/20100101 Firefox/140.0","","Firefox","140.0","Windows","10.0","https://app.prolific.com/","pl,en-US;q=0.7,en;q=0.3","5f0214e58782120a8c970fd6","686e379bc37a29ffa5cdc956","687761fa98fe86b60151320b","1","1","5f0214e58782120a8c970fd6","1","1","2025-07-16T08:34:47.658Z","","","","","","","","","","","","","","win-only","3","g1:SW,g2:NE","0.8","3","0","311200","1151","6153","26182","1","4","8","6","2","8","8","9","1","0.06818181818181818","1334","3000","2165","[""up"",""right""]","{""num_key_presses"":6,""num_perfect"":6,""num_errors"":0,""num_randdir"":0,""num_randdir_good_moves"":0,""num_whilered"":0,""num_whileblue"":0,""num_blue"":1,""num_good_moves"":6}","[295.22857753208706,298.92857448032925,0,295.22857753208706,298.92857448032925,104,295.22857753208706,298.92857448032925,215,295.22857753208706,298.92857448032925,318,295.22857753208706,298.92857448032925,435,295.22857753208706,298.92857448032925,547,295.22857753208706,298.92857448032925,651,436.22857753208706,121.92857448032925,764,475.22857753208706,90.92857448032925,877,487.22857753208706,89.92857448032925,989,523.228577532087,74.92857448032925,1089,537.228577532087,69.92857448032925,1189,537.228577532087,69.92857448032925,1302,537.228577532087,69.92857448032925,1402,537.228577532087,69.92857448032925,1505,537.228577532087,69.92857448032925,1617,537.228577532087,69.92857448032925,1723,682.228577532087,117.92857448032925,1828,734.228577532087,133.92857448032925,1929,734.228577532087,133.92857448032925,2029,734.228577532087,133.92857448032925,2135,734.228577532087,133.92857448032925,2248,734.228577532087,133.92857448032925,2349,734.228577532087,133.92857448032925,2464,734.228577532087,133.92857448032925,2572,734.228577532087,133.92857448032925,2673,734.228577532087,133.92857448032925,2785,734.228577532087,133.92857448032925,2901,734.228577532087,133.92857448032925,3011,734.228577532087,133.92857448032925,3117,734.228577532087,133.92857448032925,3219,734.228577532087,133.92857448032925,3324,734.228577532087,133.92857448032925,3434,734.228577532087,133.92857448032925,3547,734.228577532087,133.92857448032925,3656,734.228577532087,133.92857448032925,3757,734.228577532087,133.92857448032925,3861,734.228577532087,133.92857448032925,3972,734.228577532087,133.92857448032925,4082,734.228577532087,133.92857448032925,4190,734.228577532087,133.92857448032925,4294,734.228577532087,133.92857448032925,4399,734.228577532087,133.92857448032925,4505,734.228577532087,133.92857448032925,4605,734.228577532087,133.92857448032925,4706,734.228577532087,133.92857448032925,4818,734.228577532087,133.92857448032925,4918]","[1612,1612,1000,0,612,""smooth"",""right"",""right"",""good_move"",4620,3007,2632.2,1613,374.8,""smooth"",""right"",""right"",""good_move"",7242,2622,2188.3,4620,433.7,""smooth"",""up"",""up"",""good_move"",13814,6570,2528.2,10832,453.8,""smooth"",""up"",""up"",""good_move"",16730,2915,1986.3,13815,928.7,""smooth"",""up"",""up"",""good_move"",19734,3004,2632.5,16730,371.5,""smooth"",""right"",""right"",""good_move""]","",""
"3025","","<div style=""width:500px;"">
  <p>What determined the result of this run?</p>
  </div>","50","html-slider-response","20","341594","0.0-5.0-1.2","62","1","2025-07-16 08:29:07","1f75c3e559b7213887762d5229550c2b","89.70.241.158","Mozilla/5.0 (Windows NT 10.0; Win64; x64; rv:140.0) Gecko/20100101 Firefox/140.0","","Firefox","140.0","Windows","10.0","https://app.prolific.com/","pl,en-US;q=0.7,en;q=0.3","5f0214e58782120a8c970fd6","686e379bc37a29ffa5cdc956","687761fa98fe86b60151320b","1","1","5f0214e58782120a8c970fd6","1","1","2025-07-16T08:34:50.688Z","","","","","","","","","","","AttribQ","","50","","","","","","","","","","","","","","","","","","","","","","","","","","","","",""
"5223","","<div style=""width:500px;"">
  <p>How much control did you have over the ball?</p>
  </div>","97","html-slider-response","21","346821","0.0-5.0-2.2","62","1","2025-07-16 08:29:07","1f75c3e559b7213887762d5229550c2b","89.70.241.158","Mozilla/5.0 (Windows NT 10.0; Win64; x64; rv:140.0) Gecko/20100101 Firefox/140.0","","Firefox","140.0","Windows","10.0","https://app.prolific.com/","pl,en-US;q=0.7,en;q=0.3","5f0214e58782120a8c970fd6","686e379bc37a29ffa5cdc956","687761fa98fe86b60151320b","1","1","5f0214e58782120a8c970fd6","1","1","2025-07-16T08:34:55.915Z","","","","","","","","","","","ControlQ","","50","","","","","","","","","","","","","","","","","","","","","","","","","","","","",""
"3962","","<div style=""width:500px;"">
  <p>How would you describe your current emotional state?</p>
  </div>","2","html-slider-response","22","350787","0.0-5.0-3.2","62","1","2025-07-16 08:29:07","1f75c3e559b7213887762d5229550c2b","89.70.241.158","Mozilla/5.0 (Windows NT 10.0; Win64; x64; rv:140.0) Gecko/20100101 Firefox/140.0","","Firefox","140.0","Windows","10.0","https://app.prolific.com/","pl,en-US;q=0.7,en;q=0.3","5f0214e58782120a8c970fd6","686e379bc37a29ffa5cdc956","687761fa98fe86b60151320b","1","1","5f0214e58782120a8c970fd6","1","1","2025-07-16T08:34:59.881Z","","","","","","","","","","","StressQ","","50","","","","","","","","","","","","","","","","","","","","","","","","","","","","",""
"3949","","<div style=""width:500px;"">
  <p>What best describes how you currently feel?</p>
  </div>","97","html-slider-response","23","354739","0.0-5.0-4.2","62","1","2025-07-16 08:29:07","1f75c3e559b7213887762d5229550c2b","89.70.241.158","Mozilla/5.0 (Windows NT 10.0; Win64; x64; rv:140.0) Gecko/20100101 Firefox/140.0","","Firefox","140.0","Windows","10.0","https://app.prolific.com/","pl,en-US;q=0.7,en;q=0.3","5f0214e58782120a8c970fd6","686e379bc37a29ffa5cdc956","687761fa98fe86b60151320b","1","1","5f0214e58782120a8c970fd6","1","1","2025-07-16T08:35:03.833Z","","","","","","","","","","","MotivationQ","","50","","","","","","","","","","","","","","","","","","","","","","","","","","","","",""
"","","","","ctl-task-cpt","24","388277","0.0-5.0-0.3","62","1","2025-07-16 08:29:07","1f75c3e559b7213887762d5229550c2b","89.70.241.158","Mozilla/5.0 (Windows NT 10.0; Win64; x64; rv:140.0) Gecko/20100101 Firefox/140.0","","Firefox","140.0","Windows","10.0","https://app.prolific.com/","pl,en-US;q=0.7,en;q=0.3","5f0214e58782120a8c970fd6","686e379bc37a29ffa5cdc956","687761fa98fe86b60151320b","1","1","5f0214e58782120a8c970fd6","1","1","2025-07-16T08:35:37.371Z","","","","","","","","","","","","","","win-only","3","g1:SW,g2:NE","0.7","4","0","356570","1044","6046","30524","1","4","4","6","2","4","3","12","9","0.09090909090909091","2390","3000","2025","[""up"",""right""]","{""num_key_presses"":6,""num_perfect"":3,""num_errors"":1,""num_randdir"":2,""num_randdir_good_moves"":2,""num_whilered"":0,""num_whileblue"":1,""num_blue"":3,""num_good_moves"":6}","[294.22857753208706,299.92857448032925,0,294.22857753208706,299.92857448032925,104,294.22857753208706,299.92857448032925,207,294.22857753208706,299.92857448032925,320,294.22857753208706,299.92857448032925,421,294.22857753208706,299.92857448032925,521,294.22857753208706,299.92857448032925,621,294.22857753208706,299.92857448032925,721,379.22857753208706,222.92857448032925,821,468.22857753208706,153.92857448032925,921,476.22857753208706,149.92857448032925,1022,493.22857753208706,136.92857448032925,1139,519.228577532087,108.92857448032925,1242,526.228577532087,93.92857448032925,1343,528.228577532087,89.92857448032925,1449,522.228577532087,97.92857448032925,1549,525.228577532087,85.92857448032925,1669,528.228577532087,78.92857448032925,1770,530.228577532087,76.92857448032925,1870,530.228577532087,76.92857448032925,1971,530.228577532087,76.92857448032925,2071,530.228577532087,76.92857448032925,2178,530.228577532087,76.92857448032925,2290,530.228577532087,76.92857448032925,2399,530.228577532087,76.92857448032925,2499,530.228577532087,76.92857448032925,2600,530.228577532087,76.92857448032925,2701,530.228577532087,76.92857448032925,2816,645.228577532087,117.92857448032925,2921,735.228577532087,141.92857448032925,3033,735.228577532087,141.92857448032925,3146,735.228577532087,141.92857448032925,3248,735.228577532087,141.92857448032925,3367,735.228577532087,141.92857448032925,3468,735.228577532087,141.92857448032925,3571,735.228577532087,141.92857448032925,3682,735.228577532087,141.92857448032925,3790,735.228577532087,141.92857448032925,3890,735.228577532087,141.92857448032925,3990,735.228577532087,141.92857448032925,4090,735.228577532087,141.92857448032925,4192,735.228577532087,141.92857448032925,4300,735.228577532087,141.92857448032925,4417,735.228577532087,141.92857448032925,4523,735.228577532087,141.92857448032925,4632,735.228577532087,141.92857448032925,4738,735.228577532087,141.92857448032925,4838,735.228577532087,141.92857448032925,4939]","[8600,8600,2113.4,5981,505.6,""smooth"",""up"",""up"",""good_move"",11748,3147,2411,8601,736,""smooth"",""right"",""right"",""good_move"",14312,2564,1832.5,11748,731.5,""oops"",""right"",""up"",""good_move"",17367,3054,2700,14313,354,""while_blue"",""right"",""right"",""good_move"",20880,3513,2660.1,17368,851.9,""oops"",""right"",""right"",""good_move"",24202,3322,2801.4,20880,520.6,""smooth"",""up"",""up"",""good_move""]","",""
"3239","","<div style=""width:500px;"">
  <p>What determined the result of this run?</p>
  </div>","92","html-slider-response","25","391518","0.0-5.0-1.3","62","1","2025-07-16 08:29:07","1f75c3e559b7213887762d5229550c2b","89.70.241.158","Mozilla/5.0 (Windows NT 10.0; Win64; x64; rv:140.0) Gecko/20100101 Firefox/140.0","","Firefox","140.0","Windows","10.0","https://app.prolific.com/","pl,en-US;q=0.7,en;q=0.3","5f0214e58782120a8c970fd6","686e379bc37a29ffa5cdc956","687761fa98fe86b60151320b","1","1","5f0214e58782120a8c970fd6","1","1","2025-07-16T08:35:40.612Z","","","","","","","","","","","AttribQ","","50","","","","","","","","","","","","","","","","","","","","","","","","","","","","",""
"3531","","<div style=""width:500px;"">
  <p>How much control did you have over the ball?</p>
  </div>","87","html-slider-response","26","395054","0.0-5.0-2.3","62","1","2025-07-16 08:29:07","1f75c3e559b7213887762d5229550c2b","89.70.241.158","Mozilla/5.0 (Windows NT 10.0; Win64; x64; rv:140.0) Gecko/20100101 Firefox/140.0","","Firefox","140.0","Windows","10.0","https://app.prolific.com/","pl,en-US;q=0.7,en;q=0.3","5f0214e58782120a8c970fd6","686e379bc37a29ffa5cdc956","687761fa98fe86b60151320b","1","1","5f0214e58782120a8c970fd6","1","1","2025-07-16T08:35:44.148Z","","","","","","","","","","","ControlQ","","50","","","","","","","","","","","","","","","","","","","","","","","","","","","","",""
"4124","","<div style=""width:500px;"">
  <p>How would you describe your current emotional state?</p>
  </div>","9","html-slider-response","27","399182","0.0-5.0-3.3","62","1","2025-07-16 08:29:07","1f75c3e559b7213887762d5229550c2b","89.70.241.158","Mozilla/5.0 (Windows NT 10.0; Win64; x64; rv:140.0) Gecko/20100101 Firefox/140.0","","Firefox","140.0","Windows","10.0","https://app.prolific.com/","pl,en-US;q=0.7,en;q=0.3","5f0214e58782120a8c970fd6","686e379bc37a29ffa5cdc956","687761fa98fe86b60151320b","1","1","5f0214e58782120a8c970fd6","1","1","2025-07-16T08:35:48.276Z","","","","","","","","","","","StressQ","","50","","","","","","","","","","","","","","","","","","","","","","","","","","","","",""
"3989","","<div style=""width:500px;"">
  <p>What best describes how you currently feel?</p>
  </div>","94","html-slider-response","28","403176","0.0-5.0-4.3","62","1","2025-07-16 08:29:07","1f75c3e559b7213887762d5229550c2b","89.70.241.158","Mozilla/5.0 (Windows NT 10.0; Win64; x64; rv:140.0) Gecko/20100101 Firefox/140.0","","Firefox","140.0","Windows","10.0","https://app.prolific.com/","pl,en-US;q=0.7,en;q=0.3","5f0214e58782120a8c970fd6","686e379bc37a29ffa5cdc956","687761fa98fe86b60151320b","1","1","5f0214e58782120a8c970fd6","1","1","2025-07-16T08:35:52.270Z","","","","","","","","","","","MotivationQ","","50","","","","","","","","","","","","","","","","","","","","","","","","","","","","",""
"","","","","ctl-task-cpt","29","465791","0.0-5.0-0.4","62","1","2025-07-16 08:29:07","1f75c3e559b7213887762d5229550c2b","89.70.241.158","Mozilla/5.0 (Windows NT 10.0; Win64; x64; rv:140.0) Gecko/20100101 Firefox/140.0","","Firefox","140.0","Windows","10.0","https://app.prolific.com/","pl,en-US;q=0.7,en;q=0.3","5f0214e58782120a8c970fd6","686e379bc37a29ffa5cdc956","687761fa98fe86b60151320b","1","1","5f0214e58782120a8c970fd6","1","1","2025-07-16T08:36:54.885Z","","","","","","","","","","","","","","win-only","2","g1:SE,g2:NW","0.6","5","0","405008","1253","6257","59599","1","4","8","6","2","8","8","20","12","0.15151515151515152","1242","3000","730","[""left"",""up""]","{""num_key_presses"":14,""num_perfect"":9,""num_errors"":0,""num_randdir"":5,""num_randdir_good_moves"":1,""num_whilered"":0,""num_whileblue"":0,""num_blue"":2,""num_good_moves"":10}","[301.22857753208706,300.92857448032925,0,301.22857753208706,300.92857448032925,111,301.22857753208706,300.92857448032925,219,301.22857753208706,300.92857448032925,319,301.22857753208706,300.92857448032925,426,301.22857753208706,300.92857448032925,527,301.22857753208706,300.92857448032925,635,193.22857753208706,166.92857448032925,743,65.22857753208706,35.92857448032924,847,58.22857753208705,31.92857448032924,958,55.22857753208705,31.92857448032924,1073,55.22857753208705,31.92857448032924,1173,55.22857753208705,31.92857448032924,1293,55.22857753208705,31.92857448032924,1393,55.22857753208705,31.92857448032924,1495,55.22857753208705,31.92857448032924,1598,-175.77142246791294,123.92857448032925,1715,-185.77142246791294,126.92857448032925,1815,-185.77142246791294,126.92857448032925,1926,-185.77142246791294,126.92857448032925,2035,-185.77142246791294,126.92857448032925,2146,-185.77142246791294,126.92857448032925,2249,-185.77142246791294,126.92857448032925,2357,-185.77142246791294,126.92857448032925,2457,-185.77142246791294,126.92857448032925,2588,-185.77142246791294,126.92857448032925,2693,-185.77142246791294,126.92857448032925,2816,-185.77142246791294,126.92857448032925,2916,-185.77142246791294,126.92857448032925,3016,-185.77142246791294,126.92857448032925,3132,-185.77142246791294,126.92857448032925,3238,-185.77142246791294,126.92857448032925,3351,-185.77142246791294,126.92857448032925,3457,-185.77142246791294,126.92857448032925,3572,-185.77142246791294,126.92857448032925,3673,-185.77142246791294,126.92857448032925,3784,-185.77142246791294,126.92857448032925,3884,-185.77142246791294,126.92857448032925,3985,-185.77142246791294,126.92857448032925,4100,-185.77142246791294,126.92857448032925,4208,-185.77142246791294,126.92857448032925,4317,-185.77142246791294,126.92857448032925,4430,-185.77142246791294,126.92857448032925,4549,-185.77142246791294,126.92857448032925,4659,-185.77142246791294,126.92857448032925,4772,-185.77142246791294,126.92857448032925,4872,-185.77142246791294,126.92857448032925,4972]","[1521,1521,1000,0,521,""smooth"",""up"",""up"",""good_move"",4499,2977,2514.2,1522,462.8,""oops"",""up"",""right"",""bad_move"",8208,3709,3332.5,4499,376.5,""smooth"",""up"",""up"",""good_move"",11498,3288,2612.7,8211,674.3,""smooth"",""left"",""left"",""good_move"",14781,3283,2359,11498,924,""smooth"",""left"",""left"",""good_move"",18071,3290,2461,14781,829,""oops"",""left"",""down"",""bad_move"",21829,3758,3346.3,18071,411.7,""smooth"",""up"",""up"",""good_move"",25049,3219,2242.1,21830,976.9,""smooth"",""up"",""up"",""good_move"",28049,2999,2528.9,25050,470.1,""oops"",""left"",""right"",""bad_move"",36024,7974,2943.5,32561,519.5,""oops"",""left"",""left"",""good_move"",39971,3946,3259.2,36025,686.8,""smooth"",""left"",""left"",""good_move"",43396,3422,2071.2,39974,1350.8,""oops"",""left"",""down"",""bad_move"",49901,6505,2631.8,46682,587.2,""smooth"",""up"",""up"",""good_move"",53017,3116,2595.4,49901,520.6,""smooth"",""left"",""left"",""good_move""]","",""
"3595","","<div style=""width:500px;"">
  <p>What determined the result of this run?</p>
  </div>","91","html-slider-response","30","469387","0.0-5.0-1.4","62","1","2025-07-16 08:29:07","1f75c3e559b7213887762d5229550c2b","89.70.241.158","Mozilla/5.0 (Windows NT 10.0; Win64; x64; rv:140.0) Gecko/20100101 Firefox/140.0","","Firefox","140.0","Windows","10.0","https://app.prolific.com/","pl,en-US;q=0.7,en;q=0.3","5f0214e58782120a8c970fd6","686e379bc37a29ffa5cdc956","687761fa98fe86b60151320b","1","1","5f0214e58782120a8c970fd6","1","1","2025-07-16T08:36:58.481Z","","","","","","","","","","","AttribQ","","50","","","","","","","","","","","","","","","","","","","","","","","","","","","","",""
"2047","","<div style=""width:500px;"">
  <p>How much control did you have over the ball?</p>
  </div>","62","html-slider-response","31","471438","0.0-5.0-2.4","62","1","2025-07-16 08:29:07","1f75c3e559b7213887762d5229550c2b","89.70.241.158","Mozilla/5.0 (Windows NT 10.0; Win64; x64; rv:140.0) Gecko/20100101 Firefox/140.0","","Firefox","140.0","Windows","10.0","https://app.prolific.com/","pl,en-US;q=0.7,en;q=0.3","5f0214e58782120a8c970fd6","686e379bc37a29ffa5cdc956","687761fa98fe86b60151320b","1","1","5f0214e58782120a8c970fd6","1","1","2025-07-16T08:37:00.532Z","","","","","","","","","","","ControlQ","","50","","","","","","","","","","","","","","","","","","","","","","","","","","","","",""
"3070","","<div style=""width:500px;"">
  <p>How would you describe your current emotional state?</p>
  </div>","21","html-slider-response","32","474513","0.0-5.0-3.4","62","1","2025-07-16 08:29:07","1f75c3e559b7213887762d5229550c2b","89.70.241.158","Mozilla/5.0 (Windows NT 10.0; Win64; x64; rv:140.0) Gecko/20100101 Firefox/140.0","","Firefox","140.0","Windows","10.0","https://app.prolific.com/","pl,en-US;q=0.7,en;q=0.3","5f0214e58782120a8c970fd6","686e379bc37a29ffa5cdc956","687761fa98fe86b60151320b","1","1","5f0214e58782120a8c970fd6","1","1","2025-07-16T08:37:03.608Z","","","","","","","","","","","StressQ","","50","","","","","","","","","","","","","","","","","","","","","","","","","","","","",""
"2602","","<div style=""width:500px;"">
  <p>What best describes how you currently feel?</p>
  </div>","91","html-slider-response","33","477120","0.0-5.0-4.4","62","1","2025-07-16 08:29:07","1f75c3e559b7213887762d5229550c2b","89.70.241.158","Mozilla/5.0 (Windows NT 10.0; Win64; x64; rv:140.0) Gecko/20100101 Firefox/140.0","","Firefox","140.0","Windows","10.0","https://app.prolific.com/","pl,en-US;q=0.7,en;q=0.3","5f0214e58782120a8c970fd6","686e379bc37a29ffa5cdc956","687761fa98fe86b60151320b","1","1","5f0214e58782120a8c970fd6","1","1","2025-07-16T08:37:06.214Z","","","","","","","","","","","MotivationQ","","50","","","","","","","","","","","","","","","","","","","","","","","","","","","","",""
"","","","","ctl-task-cpt","34","506803","0.0-5.0-0.5","62","1","2025-07-16 08:29:07","1f75c3e559b7213887762d5229550c2b","89.70.241.158","Mozilla/5.0 (Windows NT 10.0; Win64; x64; rv:140.0) Gecko/20100101 Firefox/140.0","","Firefox","140.0","Windows","10.0","https://app.prolific.com/","pl,en-US;q=0.7,en;q=0.3","5f0214e58782120a8c970fd6","686e379bc37a29ffa5cdc956","687761fa98fe86b60151320b","1","1","5f0214e58782120a8c970fd6","1","1","2025-07-16T08:37:35.897Z","","","","","","","","","","","","","","win-only","2","g1:SE,g2:NW","0.5","6","0","478950","1293","6296","26667","1","4","4","6","1","1","1","21","20","0.1590909090909091","1564","3000","2295","[""down"",""right""]","{""num_key_presses"":4,""num_perfect"":3,""num_errors"":0,""num_randdir"":1,""num_randdir_good_moves"":1,""num_whilered"":0,""num_whileblue"":0,""num_blue"":3,""num_good_moves"":4}","[296.22857753208706,293.92857448032925,0,296.22857753208706,293.92857448032925,105,296.22857753208706,293.92857448032925,207,296.22857753208706,293.92857448032925,321,296.22857753208706,293.92857448032925,421,296.22857753208706,293.92857448032925,521,296.22857753208706,293.92857448032925,636,296.22857753208706,293.92857448032925,766,296.22857753208706,293.92857448032925,868,471.22857753208706,510.92857448032925,971,488.22857753208706,533.9285744803292,1080,488.22857753208706,533.9285744803292,1182,493.22857753208706,535.9285744803292,1285,519.228577532087,542.9285744803292,1401,519.228577532087,542.9285744803292,1513,519.228577532087,542.9285744803292,1622,519.228577532087,542.9285744803292,1723,519.228577532087,542.9285744803292,1842,519.228577532087,542.9285744803292,1948,657.228577532087,484.92857448032925,2053,742.228577532087,456.92857448032925,2162,742.228577532087,456.92857448032925,2262,742.228577532087,456.92857448032925,2369,742.228577532087,456.92857448032925,2478,742.228577532087,456.92857448032925,2593,742.228577532087,456.92857448032925,2718,742.228577532087,456.92857448032925,2818,742.228577532087,456.92857448032925,2918,742.228577532087,456.92857448032925,3019,742.228577532087,456.92857448032925,3119,742.228577532087,456.92857448032925,3220,742.228577532087,456.92857448032925,3336,742.228577532087,456.92857448032925,3448,742.228577532087,456.92857448032925,3549,742.228577532087,456.92857448032925,3649,742.228577532087,456.92857448032925,3756,742.228577532087,456.92857448032925,3869,742.228577532087,456.92857448032925,3969,742.228577532087,456.92857448032925,4069,742.228577532087,456.92857448032925,4182,742.228577532087,456.92857448032925,4288,742.228577532087,456.92857448032925,4402,742.228577532087,456.92857448032925,4506,742.228577532087,456.92857448032925,4615,742.228577532087,456.92857448032925,4719,742.228577532087,456.92857448032925,4832,742.228577532087,456.92857448032925,4933]","[4615,4615,2053.6,2008,553.4,""smooth"",""down"",""down"",""good_move"",13830,9215,1905.4,11411,513.6,""smooth"",""down"",""down"",""good_move"",17063,3233,2698.7,13830,534.3,""smooth"",""right"",""right"",""good_move"",20014,2950,2289.8,17064,660.2,""oops"",""right"",""right"",""good_move""]","",""
"3347","","<div style=""width:500px;"">
  <p>What determined the result of this run?</p>
  </div>","86","html-slider-response","35","510151","0.0-5.0-1.5","62","1","2025-07-16 08:29:07","1f75c3e559b7213887762d5229550c2b","89.70.241.158","Mozilla/5.0 (Windows NT 10.0; Win64; x64; rv:140.0) Gecko/20100101 Firefox/140.0","","Firefox","140.0","Windows","10.0","https://app.prolific.com/","pl,en-US;q=0.7,en;q=0.3","5f0214e58782120a8c970fd6","686e379bc37a29ffa5cdc956","687761fa98fe86b60151320b","1","1","5f0214e58782120a8c970fd6","1","1","2025-07-16T08:37:39.245Z","","","","","","","","","","","AttribQ","","50","","","","","","","","","","","","","","","","","","","","","","","","","","","","",""
"2932","","<div style=""width:500px;"">
  <p>How much control did you have over the ball?</p>
  </div>","86","html-slider-response","36","513088","0.0-5.0-2.5","62","1","2025-07-16 08:29:07","1f75c3e559b7213887762d5229550c2b","89.70.241.158","Mozilla/5.0 (Windows NT 10.0; Win64; x64; rv:140.0) Gecko/20100101 Firefox/140.0","","Firefox","140.0","Windows","10.0","https://app.prolific.com/","pl,en-US;q=0.7,en;q=0.3","5f0214e58782120a8c970fd6","686e379bc37a29ffa5cdc956","687761fa98fe86b60151320b","1","1","5f0214e58782120a8c970fd6","1","1","2025-07-16T08:37:42.183Z","","","","","","","","","","","ControlQ","","50","","","","","","","","","","","","","","","","","","","","","","","","","","","","",""
"2700","","<div style=""width:500px;"">
  <p>How would you describe your current emotional state?</p>
  </div>","18","html-slider-response","37","515793","0.0-5.0-3.5","62","1","2025-07-16 08:29:07","1f75c3e559b7213887762d5229550c2b","89.70.241.158","Mozilla/5.0 (Windows NT 10.0; Win64; x64; rv:140.0) Gecko/20100101 Firefox/140.0","","Firefox","140.0","Windows","10.0","https://app.prolific.com/","pl,en-US;q=0.7,en;q=0.3","5f0214e58782120a8c970fd6","686e379bc37a29ffa5cdc956","687761fa98fe86b60151320b","1","1","5f0214e58782120a8c970fd6","1","1","2025-07-16T08:37:44.888Z","","","","","","","","","","","StressQ","","50","","","","","","","","","","","","","","","","","","","","","","","","","","","","",""
"3300","","<div style=""width:500px;"">
  <p>What best describes how you currently feel?</p>
  </div>","90","html-slider-response","38","519098","0.0-5.0-4.5","62","1","2025-07-16 08:29:07","1f75c3e559b7213887762d5229550c2b","89.70.241.158","Mozilla/5.0 (Windows NT 10.0; Win64; x64; rv:140.0) Gecko/20100101 Firefox/140.0","","Firefox","140.0","Windows","10.0","https://app.prolific.com/","pl,en-US;q=0.7,en;q=0.3","5f0214e58782120a8c970fd6","686e379bc37a29ffa5cdc956","687761fa98fe86b60151320b","1","1","5f0214e58782120a8c970fd6","1","1","2025-07-16T08:37:48.192Z","","","","","","","","","","","MotivationQ","","50","","","","","","","","","","","","","","","","","","","","","","","","","","","","",""
"","","","","ctl-task-cpt","39","591078","0.0-5.0-0.6","62","1","2025-07-16 08:29:07","1f75c3e559b7213887762d5229550c2b","89.70.241.158","Mozilla/5.0 (Windows NT 10.0; Win64; x64; rv:140.0) Gecko/20100101 Firefox/140.0","","Firefox","140.0","Windows","10.0","https://app.prolific.com/","pl,en-US;q=0.7,en;q=0.3","5f0214e58782120a8c970fd6","686e379bc37a29ffa5cdc956","687761fa98fe86b60151320b","1","1","5f0214e58782120a8c970fd6","1","1","2025-07-16T08:39:00.173Z","","","","","","","","","","","","","","win-only","3","g1:SW,g2:NE","0.4","7","0","520929","2146","7158","68974","1","4","8","6","2","8","7","28","21","0.21212121212121213","1088","3000","25","[""up"",""right""]","{""num_key_presses"":16,""num_perfect"":7,""num_errors"":1,""num_randdir"":8,""num_randdir_good_moves"":4,""num_whilered"":0,""num_whileblue"":1,""num_blue"":5,""num_good_moves"":11}","[294.22857753208706,301.92857448032925,0,294.22857753208706,301.92857448032925,104,294.22857753208706,301.92857448032925,228,294.22857753208706,301.92857448032925,342,294.22857753208706,301.92857448032925,447,294.22857753208706,301.92857448032925,548,509.22857753208706,72.92857448032925,658,533.228577532087,69.92857448032925,761,538.228577532087,69.92857448032925,873,538.228577532087,69.92857448032925,973,538.228577532087,69.92857448032925,1087,538.228577532087,69.92857448032925,1207,538.228577532087,69.92857448032925,1309,538.228577532087,69.92857448032925,1431,538.228577532087,69.92857448032925,1533,682.228577532087,45.92857448032924,1646,690.228577532087,46.92857448032924,1766,690.228577532087,46.92857448032924,1867,690.228577532087,46.92857448032924,1980,690.228577532087,46.92857448032924,2089,690.228577532087,46.92857448032924,2190,690.228577532087,46.92857448032924,2310,690.228577532087,46.92857448032924,2420,690.228577532087,46.92857448032924,2520,690.228577532087,46.92857448032924,2620,690.228577532087,46.92857448032924,2731,690.228577532087,46.92857448032924,2831,690.228577532087,46.92857448032924,2941,690.228577532087,46.92857448032924,3056,690.228577532087,46.92857448032924,3188,690.228577532087,46.92857448032924,3305,690.228577532087,46.92857448032924,3406,690.228577532087,46.92857448032924,3521,690.228577532087,46.92857448032924,3622,690.228577532087,46.92857448032924,3729,690.228577532087,46.92857448032924,3845,690.228577532087,46.92857448032924,3946,690.228577532087,46.92857448032924,4047,690.228577532087,46.92857448032924,4147,690.228577532087,46.92857448032924,4247,690.228577532087,46.92857448032924,4348,690.228577532087,46.92857448032924,4457,690.228577532087,46.92857448032924,4559,690.228577532087,46.92857448032924,4660,690.228577532087,46.92857448032924,4772,690.228577532087,46.92857448032924,4872,690.228577532087,46.92857448032924,4973]","[5666,5666,3189.9,2011,465.1,""smooth"",""up"",""up"",""good_move"",8518,2852,2386.1,5666,465.9,""oops"",""up"",""right"",""good_move"",10871,2352,1866,8519,486,""oops"",""up"",""left"",""bad_move"",14128,3256,2576.6,10872,679.4,""oops"",""right"",""right"",""good_move"",20917,6789,2695.2,17767,454.8,""smooth"",""right"",""right"",""good_move"",23486,2569,2049.7,20917,519.3,""oops"",""right"",""left"",""bad_move"",25938,2452,1766.4,23486,685.6,""oops"",""up"",""right"",""good_move"",28883,2945,2334.9,25938,610.1,""oops"",""up"",""down"",""bad_move"",31770,2886,2503.1,28884,382.9,""smooth"",""up"",""up"",""good_move"",37704,5934,2464,34853,387,""while_blue"",""up"",""down"",""bad_move"",41131,3426,2743.1,37705,682.9,""smooth"",""up"",""up"",""good_move"",44532,3400,2215.6,41132,1184.4,""smooth"",""up"",""up"",""good_move"",47974,3441,2655.8,44533,785.2,""oops"",""up"",""down"",""bad_move"",50880,2906,2393.4,47974,512.6,""oops"",""up"",""up"",""good_move"",54155,3274,2909.5,50881,364.5,""smooth"",""up"",""up"",""good_move"",61501,7345,3107.5,57991,402.5,""smooth"",""right"",""right"",""good_move""]","",""
"2944","","<div style=""width:500px;"">
  <p>What determined the result of this run?</p>
  </div>","87","html-slider-response","40","594024","0.0-5.0-1.6","62","1","2025-07-16 08:29:07","1f75c3e559b7213887762d5229550c2b","89.70.241.158","Mozilla/5.0 (Windows NT 10.0; Win64; x64; rv:140.0) Gecko/20100101 Firefox/140.0","","Firefox","140.0","Windows","10.0","https://app.prolific.com/","pl,en-US;q=0.7,en;q=0.3","5f0214e58782120a8c970fd6","686e379bc37a29ffa5cdc956","687761fa98fe86b60151320b","1","1","5f0214e58782120a8c970fd6","1","1","2025-07-16T08:39:03.118Z","","","","","","","","","","","AttribQ","","50","","","","","","","","","","","","","","","","","","","","","","","","","","","","",""
"2516","","<div style=""width:500px;"">
  <p>How much control did you have over the ball?</p>
  </div>","59","html-slider-response","41","596544","0.0-5.0-2.6","62","1","2025-07-16 08:29:07","1f75c3e559b7213887762d5229550c2b","89.70.241.158","Mozilla/5.0 (Windows NT 10.0; Win64; x64; rv:140.0) Gecko/20100101 Firefox/140.0","","Firefox","140.0","Windows","10.0","https://app.prolific.com/","pl,en-US;q=0.7,en;q=0.3","5f0214e58782120a8c970fd6","686e379bc37a29ffa5cdc956","687761fa98fe86b60151320b","1","1","5f0214e58782120a8c970fd6","1","1","2025-07-16T08:39:05.638Z","","","","","","","","","","","ControlQ","","50","","","","","","","","","","","","","","","","","","","","","","","","","","","","",""
"3507","","<div style=""width:500px;"">
  <p>How would you describe your current emotional state?</p>
  </div>","12","html-slider-response","42","600053","0.0-5.0-3.6","62","1","2025-07-16 08:29:07","1f75c3e559b7213887762d5229550c2b","89.70.241.158","Mozilla/5.0 (Windows NT 10.0; Win64; x64; rv:140.0) Gecko/20100101 Firefox/140.0","","Firefox","140.0","Windows","10.0","https://app.prolific.com/","pl,en-US;q=0.7,en;q=0.3","5f0214e58782120a8c970fd6","686e379bc37a29ffa5cdc956","687761fa98fe86b60151320b","1","1","5f0214e58782120a8c970fd6","1","1","2025-07-16T08:39:09.147Z","","","","","","","","","","","StressQ","","50","","","","","","","","","","","","","","","","","","","","","","","","","","","","",""
"11047","","<div style=""width:500px;"">
  <p>What best describes how you currently feel?</p>
  </div>","84","html-slider-response","43","611106","0.0-5.0-4.6","62","1","2025-07-16 08:29:07","1f75c3e559b7213887762d5229550c2b","89.70.241.158","Mozilla/5.0 (Windows NT 10.0; Win64; x64; rv:140.0) Gecko/20100101 Firefox/140.0","","Firefox","140.0","Windows","10.0","https://app.prolific.com/","pl,en-US;q=0.7,en;q=0.3","5f0214e58782120a8c970fd6","686e379bc37a29ffa5cdc956","687761fa98fe86b60151320b","1","1","5f0214e58782120a8c970fd6","1","1","2025-07-16T08:39:20.200Z","","","","","","","","","","","MotivationQ","","50","","","","","","","","","","","","","","","","","","","","","","","","","","","","",""
"","","","","ctl-task-cpt","44","650330","0.0-5.0-0.7","62","1","2025-07-16 08:29:07","1f75c3e559b7213887762d5229550c2b","89.70.241.158","Mozilla/5.0 (Windows NT 10.0; Win64; x64; rv:140.0) Gecko/20100101 Firefox/140.0","","Firefox","140.0","Windows","10.0","https://app.prolific.com/","pl,en-US;q=0.7,en;q=0.3","5f0214e58782120a8c970fd6","686e379bc37a29ffa5cdc956","687761fa98fe86b60151320b","1","1","5f0214e58782120a8c970fd6","1","1","2025-07-16T08:39:59.424Z","","","","","","","","","","","","","","win-only","3","g1:SW,g2:NE","0.3","8","0","612936","4272","9283","36212","1","4","4","6","1","1","1","29","28","0.2196969696969697","1351","3000","1810","[""down"",""left""]","{""num_key_presses"":8,""num_perfect"":3,""num_errors"":0,""num_randdir"":5,""num_randdir_good_moves"":3,""num_whilered"":0,""num_whileblue"":0,""num_blue"":1,""num_good_moves"":6}","[298.22857753208706,293.92857448032925,0,298.22857753208706,293.92857448032925,113,298.22857753208706,293.92857448032925,213,298.22857753208706,293.92857448032925,327,298.22857753208706,293.92857448032925,434,298.22857753208706,293.92857448032925,542,298.22857753208706,293.92857448032925,648,117.22857753208706,473.92857448032925,759,109.22857753208706,482.92857448032925,863,58.22857753208705,530.9285744803292,963,34.22857753208705,554.9285744803292,1077,31.22857753208705,557.9285744803292,1181,31.22857753208705,557.9285744803292,1294,31.22857753208705,557.9285744803292,1398,31.22857753208705,557.9285744803292,1508,31.22857753208705,557.9285744803292,1608,31.22857753208705,557.9285744803292,1708,31.22857753208705,557.9285744803292,1813,31.22857753208705,557.9285744803292,1917,31.22857753208705,557.9285744803292,2019,31.22857753208705,557.9285744803292,2134,31.22857753208705,557.9285744803292,2234,31.22857753208705,557.9285744803292,2336,31.22857753208705,557.9285744803292,2441,31.22857753208705,557.9285744803292,2543,31.22857753208705,557.9285744803292,2652,31.22857753208705,557.9285744803292,2763,31.22857753208705,557.9285744803292,2870,31.22857753208705,557.9285744803292,2980,31.22857753208705,557.9285744803292,3093,31.22857753208705,557.9285744803292,3197,31.22857753208705,557.9285744803292,3302,31.22857753208705,557.9285744803292,3410,31.22857753208705,557.9285744803292,3512,31.22857753208705,557.9285744803292,3615,31.22857753208705,557.9285744803292,3730,31.22857753208705,557.9285744803292,3830,31.22857753208705,557.9285744803292,3934,31.22857753208705,557.9285744803292,4046,31.22857753208705,557.9285744803292,4151,31.22857753208705,557.9285744803292,4258,31.22857753208705,557.9285744803292,4358,31.22857753208705,557.9285744803292,4461,31.22857753208705,557.9285744803292,4565,31.22857753208705,557.9285744803292,4667,31.22857753208705,557.9285744803292,4768,31.22857753208705,557.9285744803292,4880,31.22857753208705,557.9285744803292,4980]","[1555,1555,1000,0,555,""smooth"",""down"",""down"",""good_move"",5020,3465,2980.4,1555,484.6,""oops"",""down"",""right"",""bad_move"",11232,6212,2087,8615,530,""oops"",""left"",""left"",""good_move"",14171,2939,1949.1,11232,989.9,""smooth"",""left"",""left"",""good_move"",17232,3061,1557.7,14171,1503.3,""oops"",""left"",""up"",""bad_move"",20590,3358,2960.5,17232,397.5,""smooth"",""down"",""down"",""good_move"",23374,2783,2413.3,20591,369.7,""oops"",""down"",""left"",""good_move"",26580,3203,1803.9,23377,1399.1,""oops"",""down"",""down"",""good_move""]","",""
"3042","","<div style=""width:500px;"">
  <p>What determined the result of this run?</p>
  </div>","83","html-slider-response","45","653373","0.0-5.0-1.7","62","1","2025-07-16 08:29:07","1f75c3e559b7213887762d5229550c2b","89.70.241.158","Mozilla/5.0 (Windows NT 10.0; Win64; x64; rv:140.0) Gecko/20100101 Firefox/140.0","","Firefox","140.0","Windows","10.0","https://app.prolific.com/","pl,en-US;q=0.7,en;q=0.3","5f0214e58782120a8c970fd6","686e379bc37a29ffa5cdc956","687761fa98fe86b60151320b","1","1","5f0214e58782120a8c970fd6","1","1","2025-07-16T08:40:02.468Z","","","","","","","","","","","AttribQ","","50","","","","","","","","","","","","","","","","","","","","","","","","","","","","",""
"3006","","<div style=""width:500px;"">
  <p>How much control did you have over the ball?</p>
  </div>","83","html-slider-response","46","656381","0.0-5.0-2.7","62","1","2025-07-16 08:29:07","1f75c3e559b7213887762d5229550c2b","89.70.241.158","Mozilla/5.0 (Windows NT 10.0; Win64; x64; rv:140.0) Gecko/20100101 Firefox/140.0","","Firefox","140.0","Windows","10.0","https://app.prolific.com/","pl,en-US;q=0.7,en;q=0.3","5f0214e58782120a8c970fd6","686e379bc37a29ffa5cdc956","687761fa98fe86b60151320b","1","1","5f0214e58782120a8c970fd6","1","1","2025-07-16T08:40:05.475Z","","","","","","","","","","","ControlQ","","50","","","","","","","","","","","","","","","","","","","","","","","","","","","","",""
"2702","","<div style=""width:500px;"">
  <p>How would you describe your current emotional state?</p>
  </div>","20","html-slider-response","47","659087","0.0-5.0-3.7","62","1","2025-07-16 08:29:07","1f75c3e559b7213887762d5229550c2b","89.70.241.158","Mozilla/5.0 (Windows NT 10.0; Win64; x64; rv:140.0) Gecko/20100101 Firefox/140.0","","Firefox","140.0","Windows","10.0","https://app.prolific.com/","pl,en-US;q=0.7,en;q=0.3","5f0214e58782120a8c970fd6","686e379bc37a29ffa5cdc956","687761fa98fe86b60151320b","1","1","5f0214e58782120a8c970fd6","1","1","2025-07-16T08:40:08.181Z","","","","","","","","","","","StressQ","","50","","","","","","","","","","","","","","","","","","","","","","","","","","","","",""
"2347","","<div style=""width:500px;"">
  <p>What best describes how you currently feel?</p>
  </div>","95","html-slider-response","48","661438","0.0-5.0-4.7","62","1","2025-07-16 08:29:07","1f75c3e559b7213887762d5229550c2b","89.70.241.158","Mozilla/5.0 (Windows NT 10.0; Win64; x64; rv:140.0) Gecko/20100101 Firefox/140.0","","Firefox","140.0","Windows","10.0","https://app.prolific.com/","pl,en-US;q=0.7,en;q=0.3","5f0214e58782120a8c970fd6","686e379bc37a29ffa5cdc956","687761fa98fe86b60151320b","1","1","5f0214e58782120a8c970fd6","1","1","2025-07-16T08:40:10.532Z","","","","","","","","","","","MotivationQ","","50","","","","","","","","","","","","","","","","","","","","","","","","","","","","",""
"","","","","ctl-task-cpt","49","742088","0.0-5.0-0.8","62","1","2025-07-16 08:29:07","1f75c3e559b7213887762d5229550c2b","89.70.241.158","Mozilla/5.0 (Windows NT 10.0; Win64; x64; rv:140.0) Gecko/20100101 Firefox/140.0","","Firefox","140.0","Windows","10.0","https://app.prolific.com/","pl,en-US;q=0.7,en;q=0.3","5f0214e58782120a8c970fd6","686e379bc37a29ffa5cdc956","687761fa98fe86b60151320b","1","1","5f0214e58782120a8c970fd6","1","1","2025-07-16T08:41:31.183Z","","","","","","","","","","","","","","win-only","0","g1:NW,g2:SE","0.2","9","0","663268","1217","6224","77636","1","4","8","6","1","-1","-2","27","29","0.20454545454545456","1658","3000","-1020","[""left"",""up""]","{""num_key_presses"":19,""num_perfect"":4,""num_errors"":1,""num_randdir"":14,""num_randdir_good_moves"":6,""num_whilered"":0,""num_whileblue"":0,""num_blue"":4,""num_good_moves"":10}","[298.22857753208706,298.92857448032925,0,298.22857753208706,298.92857448032925,103,298.22857753208706,298.92857448032925,217,298.22857753208706,298.92857448032925,331,298.22857753208706,298.92857448032925,431,298.22857753208706,298.92857448032925,531,298.22857753208706,298.92857448032925,645,298.22857753208706,298.92857448032925,745,298.22857753208706,298.92857448032925,845,298.22857753208706,298.92857448032925,945,149.22857753208706,60.92857448032924,1050,136.22857753208706,58.92857448032924,1162,136.22857753208706,58.92857448032924,1279,113.22857753208706,54.92857448032924,1379,61.22857753208705,45.92857448032924,1480,61.22857753208705,45.92857448032924,1580,61.22857753208705,45.92857448032924,1700,61.22857753208705,45.92857448032924,1802,61.22857753208705,45.92857448032924,1902,61.22857753208705,45.92857448032924,2002,61.22857753208705,45.92857448032924,2112,61.22857753208705,45.92857448032924,2230,-26.77142246791295,78.92857448032925,2330,-120.77142246791294,119.92857448032925,2440,-120.77142246791294,119.92857448032925,2540,-120.77142246791294,119.92857448032925,2650,-120.77142246791294,119.92857448032925,2758,-120.77142246791294,119.92857448032925,2860,-120.77142246791294,119.92857448032925,2973,-120.77142246791294,119.92857448032925,3073,-120.77142246791294,119.92857448032925,3178,-120.77142246791294,119.92857448032925,3295,-120.77142246791294,119.92857448032925,3405,-120.77142246791294,119.92857448032925,3517,-120.77142246791294,119.92857448032925,3618,-120.77142246791294,119.92857448032925,3723,-120.77142246791294,119.92857448032925,3831,-120.77142246791294,119.92857448032925,3940,-120.77142246791294,119.92857448032925,4050,-120.77142246791294,119.92857448032925,4155,-120.77142246791294,119.92857448032925,4266,-120.77142246791294,119.92857448032925,4368,-120.77142246791294,119.92857448032925,4481,-120.77142246791294,119.92857448032925,4588,-120.77142246791294,119.92857448032925,4695,-120.77142246791294,119.92857448032925,4805,-120.77142246791294,119.92857448032925,4913]","[4728,4728,2189.8,2010,528.2,""oops"",""up"",""left"",""good_move"",8015,3286,2687.2,4729,598.8,""smooth"",""up"",""up"",""good_move"",10945,2929,2477.5,8016,451.5,""smooth"",""up"",""up"",""good_move"",14006,3061,2654,10945,407,""oops"",""left"",""right"",""bad_move"",16797,2791,2186.9,14006,604.1,""oops"",""left"",""left"",""good_move"",20183,3385,2715.5,16798,669.5,""oops"",""left"",""down"",""bad_move"",22962,2779,2058.7,20183,720.3,""oops"",""up"",""down"",""bad_move"",26311,3349,2786.2,22962,562.8,""oops"",""up"",""left"",""good_move"",29557,3246,2683,26311,563,""oops"",""up"",""down"",""bad_move"",39156,9599,2700.7,35972,483.3,""oops"",""up"",""up"",""good_move"",42226,3070,2261.3,39156,808.7,""oops"",""up"",""down"",""bad_move"",45499,3273,2838.7,42226,434.3,""oops"",""up"",""down"",""bad_move"",48564,3062,2512.9,45502,549.1,""oops"",""up"",""right"",""bad_move"",51946,3378,3002.9,48568,375.1,""smooth"",""up"",""up"",""good_move"",55058,3112,2186,51946,926,""smooth"",""up"",""up"",""good_move"",58288,3230,2324.7,55058,905.3,""oops"",""up"",""left"",""good_move"",61427,3139,2517.9,58288,621.1,""oops"",""up"",""up"",""good_move"",64342,2915,2342.4,61427,572.6,""oops"",""up"",""right"",""bad_move"",67788,3445,2520.5,67480,-2212.5,""error"",""-"",""-"",""no_move""]","",""
"2871","","<div style=""width:500px;"">
  <p>What determined the result of this run?</p>
  </div>","64","html-slider-response","50","744961","0.0-5.0-1.8","62","1","2025-07-16 08:29:07","1f75c3e559b7213887762d5229550c2b","89.70.241.158","Mozilla/5.0 (Windows NT 10.0; Win64; x64; rv:140.0) Gecko/20100101 Firefox/140.0","","Firefox","140.0","Windows","10.0","https://app.prolific.com/","pl,en-US;q=0.7,en;q=0.3","5f0214e58782120a8c970fd6","686e379bc37a29ffa5cdc956","687761fa98fe86b60151320b","1","1","5f0214e58782120a8c970fd6","1","1","2025-07-16T08:41:34.056Z","","","","","","","","","","","AttribQ","","50","","","","","","","","","","","","","","","","","","","","","","","","","","","","",""
"2302","","<div style=""width:500px;"">
  <p>How much control did you have over the ball?</p>
  </div>","36","html-slider-response","51","747268","0.0-5.0-2.8","62","1","2025-07-16 08:29:07","1f75c3e559b7213887762d5229550c2b","89.70.241.158","Mozilla/5.0 (Windows NT 10.0; Win64; x64; rv:140.0) Gecko/20100101 Firefox/140.0","","Firefox","140.0","Windows","10.0","https://app.prolific.com/","pl,en-US;q=0.7,en;q=0.3","5f0214e58782120a8c970fd6","686e379bc37a29ffa5cdc956","687761fa98fe86b60151320b","1","1","5f0214e58782120a8c970fd6","1","1","2025-07-16T08:41:36.362Z","","","","","","","","","","","ControlQ","","50","","","","","","","","","","","","","","","","","","","","","","","","","","","","",""
"2718","","<div style=""width:500px;"">
  <p>How would you describe your current emotional state?</p>
  </div>","37","html-slider-response","52","749990","0.0-5.0-3.8","62","1","2025-07-16 08:29:07","1f75c3e559b7213887762d5229550c2b","89.70.241.158","Mozilla/5.0 (Windows NT 10.0; Win64; x64; rv:140.0) Gecko/20100101 Firefox/140.0","","Firefox","140.0","Windows","10.0","https://app.prolific.com/","pl,en-US;q=0.7,en;q=0.3","5f0214e58782120a8c970fd6","686e379bc37a29ffa5cdc956","687761fa98fe86b60151320b","1","1","5f0214e58782120a8c970fd6","1","1","2025-07-16T08:41:39.084Z","","","","","","","","","","","StressQ","","50","","","","","","","","","","","","","","","","","","","","","","","","","","","","",""
"2313","","<div style=""width:500px;"">
  <p>What best describes how you currently feel?</p>
  </div>","92","html-slider-response","53","752306","0.0-5.0-4.8","62","1","2025-07-16 08:29:07","1f75c3e559b7213887762d5229550c2b","89.70.241.158","Mozilla/5.0 (Windows NT 10.0; Win64; x64; rv:140.0) Gecko/20100101 Firefox/140.0","","Firefox","140.0","Windows","10.0","https://app.prolific.com/","pl,en-US;q=0.7,en;q=0.3","5f0214e58782120a8c970fd6","686e379bc37a29ffa5cdc956","687761fa98fe86b60151320b","1","1","5f0214e58782120a8c970fd6","1","1","2025-07-16T08:41:41.400Z","","","","","","","","","","","MotivationQ","","50","","","","","","","","","","","","","","","","","","","","","","","","","","","","",""
"","","","","ctl-task-cpt","54","794199","0.0-5.0-0.9","62","1","2025-07-16 08:29:07","1f75c3e559b7213887762d5229550c2b","89.70.241.158","Mozilla/5.0 (Windows NT 10.0; Win64; x64; rv:140.0) Gecko/20100101 Firefox/140.0","","Firefox","140.0","Windows","10.0","https://app.prolific.com/","pl,en-US;q=0.7,en;q=0.3","5f0214e58782120a8c970fd6","686e379bc37a29ffa5cdc956","687761fa98fe86b60151320b","1","1","5f0214e58782120a8c970fd6","1","1","2025-07-16T08:42:23.293Z","","","","","","","","","","","","","","win-only","2","g1:SE,g2:NW","0.4","10","0","754137","1191","6196","38883","1","4","4","6","1","1","1","28","27","0.21212121212121213","1368","3000","1790","[""down"",""right""]","{""num_key_presses"":8,""num_perfect"":4,""num_errors"":0,""num_randdir"":4,""num_randdir_good_moves"":2,""num_whilered"":0,""num_whileblue"":0,""num_blue"":3,""num_good_moves"":6}","[291.22857753208706,295.92857448032925,0,291.22857753208706,295.92857448032925,104,291.22857753208706,295.92857448032925,209,291.22857753208706,295.92857448032925,321,291.22857753208706,295.92857448032925,421,291.22857753208706,295.92857448032925,535,291.22857753208706,295.92857448032925,641,380.22857753208706,384.92857448032925,742,458.22857753208706,466.92857448032925,850,458.22857753208706,466.92857448032925,955,465.22857753208706,470.92857448032925,1058,530.228577532087,520.9285744803292,1164,531.228577532087,521.9285744803292,1270,531.228577532087,521.9285744803292,1376,531.228577532087,521.9285744803292,1481,531.228577532087,521.9285744803292,1587,531.228577532087,521.9285744803292,1700,531.228577532087,521.9285744803292,1802,588.228577532087,469.92857448032925,1905,686.228577532087,413.92857448032925,2010,686.228577532087,413.92857448032925,2115,686.228577532087,413.92857448032925,2222,686.228577532087,413.92857448032925,2326,686.228577532087,413.92857448032925,2432,686.228577532087,413.92857448032925,2536,686.228577532087,413.92857448032925,2637,686.228577532087,413.92857448032925,2738,686.228577532087,413.92857448032925,2848,686.228577532087,413.92857448032925,2948,686.228577532087,413.92857448032925,3057,686.228577532087,413.92857448032925,3170,686.228577532087,413.92857448032925,3274,686.228577532087,413.92857448032925,3381,686.228577532087,413.92857448032925,3485,686.228577532087,413.92857448032925,3585,686.228577532087,413.92857448032925,3686,686.228577532087,413.92857448032925,3788,686.228577532087,413.92857448032925,3899,686.228577532087,413.92857448032925,3999,686.228577532087,413.92857448032925,4109,686.228577532087,413.92857448032925,4215,686.228577532087,413.92857448032925,4315,686.228577532087,413.92857448032925,4416,686.228577532087,413.92857448032925,4526,686.228577532087,413.92857448032925,4631,686.228577532087,413.92857448032925,4736,686.228577532087,413.92857448032925,4843,686.228577532087,413.92857448032925,4947]","[4880,4880,2344.2,2021,514.8,""smooth"",""down"",""down"",""good_move"",12127,7246,2921.7,8661,544.3,""oops"",""right"",""left"",""bad_move"",18575,6447,1964.2,16016,594.8,""oops"",""right"",""up"",""bad_move"",21844,3268,2395.1,18576,872.9,""smooth"",""right"",""right"",""good_move"",24110,2266,1814.7,21844,451.3,""smooth"",""right"",""right"",""good_move"",27016,2905,2517.7,24111,387.3,""smooth"",""down"",""down"",""good_move"",29244,2228,1852.9,27016,375.1,""oops"",""down"",""right"",""good_move"",32398,3154,2752.9,29244,401.1,""oops"",""down"",""down"",""good_move""]","",""
"44435","","<div style=""width:500px;"">
  <p>What determined the result of this run?</p>
  </div>","82","html-slider-response","55","838634","0.0-5.0-1.9","62","1","2025-07-16 08:29:07","1f75c3e559b7213887762d5229550c2b","89.70.241.158","Mozilla/5.0 (Windows NT 10.0; Win64; x64; rv:140.0) Gecko/20100101 Firefox/140.0","","Firefox","140.0","Windows","10.0","https://app.prolific.com/","pl,en-US;q=0.7,en;q=0.3","5f0214e58782120a8c970fd6","686e379bc37a29ffa5cdc956","687761fa98fe86b60151320b","1","1","5f0214e58782120a8c970fd6","1","1","2025-07-16T08:43:07.728Z","","","","","","","","","","","AttribQ","","50","","","","","","","","","","","","","","","","","","","","","","","","","","","","",""
"2177","","<div style=""width:500px;"">
  <p>How much control did you have over the ball?</p>
  </div>","68","html-slider-response","56","840817","0.0-5.0-2.9","62","1","2025-07-16 08:29:07","1f75c3e559b7213887762d5229550c2b","89.70.241.158","Mozilla/5.0 (Windows NT 10.0; Win64; x64; rv:140.0) Gecko/20100101 Firefox/140.0","","Firefox","140.0","Windows","10.0","https://app.prolific.com/","pl,en-US;q=0.7,en;q=0.3","5f0214e58782120a8c970fd6","686e379bc37a29ffa5cdc956","687761fa98fe86b60151320b","1","1","5f0214e58782120a8c970fd6","1","1","2025-07-16T08:43:09.911Z","","","","","","","","","","","ControlQ","","50","","","","","","","","","","","","","","","","","","","","","","","","","","","","",""
"4137","","<div style=""width:500px;"">
  <p>How would you describe your current emotional state?</p>
  </div>","17","html-slider-response","57","844961","0.0-5.0-3.9","62","1","2025-07-16 08:29:07","1f75c3e559b7213887762d5229550c2b","89.70.241.158","Mozilla/5.0 (Windows NT 10.0; Win64; x64; rv:140.0) Gecko/20100101 Firefox/140.0","","Firefox","140.0","Windows","10.0","https://app.prolific.com/","pl,en-US;q=0.7,en;q=0.3","5f0214e58782120a8c970fd6","686e379bc37a29ffa5cdc956","687761fa98fe86b60151320b","1","1","5f0214e58782120a8c970fd6","1","1","2025-07-16T08:43:14.055Z","","","","","","","","","","","StressQ","","50","","","","","","","","","","","","","","","","","","","","","","","","","","","","",""
"37080","","<div style=""width:500px;"">
  <p>What best describes how you currently feel?</p>
  </div>","82","html-slider-response","58","882044","0.0-5.0-4.9","62","1","2025-07-16 08:29:07","1f75c3e559b7213887762d5229550c2b","89.70.241.158","Mozilla/5.0 (Windows NT 10.0; Win64; x64; rv:140.0) Gecko/20100101 Firefox/140.0","","Firefox","140.0","Windows","10.0","https://app.prolific.com/","pl,en-US;q=0.7,en;q=0.3","5f0214e58782120a8c970fd6","686e379bc37a29ffa5cdc956","687761fa98fe86b60151320b","1","1","5f0214e58782120a8c970fd6","1","1","2025-07-16T08:43:51.138Z","","","","","","","","","","","MotivationQ","","50","","","","","","","","","","","","","","","","","","","","","","","","","","","","",""
"","","","","ctl-task-cpt","59","907236","0.0-5.0-0.10","62","1","2025-07-16 08:29:07","1f75c3e559b7213887762d5229550c2b","89.70.241.158","Mozilla/5.0 (Windows NT 10.0; Win64; x64; rv:140.0) Gecko/20100101 Firefox/140.0","","Firefox","140.0","Windows","10.0","https://app.prolific.com/","pl,en-US;q=0.7,en;q=0.3","5f0214e58782120a8c970fd6","686e379bc37a29ffa5cdc956","687761fa98fe86b60151320b","1","1","5f0214e58782120a8c970fd6","1","1","2025-07-16T08:44:16.330Z","","","","","","","","","","","","","","win-only","0","g1:NW,g2:SE","0.5","11","0","883875","1697","6703","22186","1","4","4","6","1","1","1","29","28","0.2196969696969697","1882","3000","2280","[""left"",""up""]","{""num_key_presses"":4,""num_perfect"":4,""num_errors"":0,""num_randdir"":0,""num_randdir_good_moves"":0,""num_whilered"":0,""num_whileblue"":0,""num_blue"":1,""num_good_moves"":4}","[299.22857753208706,295.92857448032925,0,299.22857753208706,295.92857448032925,114,299.22857753208706,295.92857448032925,220,299.22857753208706,295.92857448032925,325,299.22857753208706,295.92857448032925,437,299.22857753208706,295.92857448032925,537,299.22857753208706,295.92857448032925,638,299.22857753208706,295.92857448032925,748,160.22857753208706,149.92857448032925,849,133.22857753208706,112.92857448032925,954,133.22857753208706,112.92857448032925,1069,133.22857753208706,112.92857448032925,1176,91.22857753208706,72.92857448032925,1287,66.22857753208706,48.92857448032924,1399,66.22857753208706,48.92857448032924,1504,66.22857753208706,48.92857448032924,1611,66.22857753208706,48.92857448032924,1715,66.22857753208706,48.92857448032924,1820,66.22857753208706,48.92857448032924,1932,66.22857753208706,48.92857448032924,2033,66.22857753208706,48.92857448032924,2144,66.22857753208706,48.92857448032924,2250,66.22857753208706,48.92857448032924,2354,66.22857753208706,48.92857448032924,2458,66.22857753208706,48.92857448032924,2566,66.22857753208706,48.92857448032924,2681,66.22857753208706,48.92857448032924,2793,66.22857753208706,48.92857448032924,2902,66.22857753208706,48.92857448032924,3013,66.22857753208706,48.92857448032924,3121,66.22857753208706,48.92857448032924,3223,66.22857753208706,48.92857448032924,3335,66.22857753208706,48.92857448032924,3442,66.22857753208706,48.92857448032924,3554,66.22857753208706,48.92857448032924,3665,66.22857753208706,48.92857448032924,3770,66.22857753208706,48.92857448032924,3872,66.22857753208706,48.92857448032924,3972,66.22857753208706,48.92857448032924,4082,66.22857753208706,48.92857448032924,4190,66.22857753208706,48.92857448032924,4300,66.22857753208706,48.92857448032924,4403,66.22857753208706,48.92857448032924,4506,66.22857753208706,48.92857448032924,4609,66.22857753208706,48.92857448032924,4711,66.22857753208706,48.92857448032924,4821,66.22857753208706,48.92857448032924,4922]","[1533,1533,1000,0,533,""smooth"",""up"",""up"",""good_move"",4617,3083,1841.2,1534,1241.8,""smooth"",""up"",""up"",""good_move"",8079,3461,3014.8,4618,446.2,""smooth"",""left"",""left"",""good_move"",15132,7053,2400.6,12029,702.4,""smooth"",""left"",""left"",""good_move""]","",""
"3521","","<div style=""width:500px;"">
  <p>What determined the result of this run?</p>
  </div>","87","html-slider-response","60","910761","0.0-5.0-1.10","62","1","2025-07-16 08:29:07","1f75c3e559b7213887762d5229550c2b","89.70.241.158","Mozilla/5.0 (Windows NT 10.0; Win64; x64; rv:140.0) Gecko/20100101 Firefox/140.0","","Firefox","140.0","Windows","10.0","https://app.prolific.com/","pl,en-US;q=0.7,en;q=0.3","5f0214e58782120a8c970fd6","686e379bc37a29ffa5cdc956","687761fa98fe86b60151320b","1","1","5f0214e58782120a8c970fd6","1","1","2025-07-16T08:44:19.855Z","","","","","","","","","","","AttribQ","","50","","","","","","","","","","","","","","","","","","","","","","","","","","","","",""
"4903","","<div style=""width:500px;"">
  <p>How much control did you have over the ball?</p>
  </div>","91","html-slider-response","61","915668","0.0-5.0-2.10","62","1","2025-07-16 08:29:07","1f75c3e559b7213887762d5229550c2b","89.70.241.158","Mozilla/5.0 (Windows NT 10.0; Win64; x64; rv:140.0) Gecko/20100101 Firefox/140.0","","Firefox","140.0","Windows","10.0","https://app.prolific.com/","pl,en-US;q=0.7,en;q=0.3","5f0214e58782120a8c970fd6","686e379bc37a29ffa5cdc956","687761fa98fe86b60151320b","1","1","5f0214e58782120a8c970fd6","1","1","2025-07-16T08:44:24.762Z","","","","","","","","","","","ControlQ","","50","","","","","","","","","","","","","","","","","","","","","","","","","","","","",""
"2852","","<div style=""width:500px;"">
  <p>How would you describe your current emotional state?</p>
  </div>","47","html-slider-response","62","918527","0.0-5.0-3.10","62","1","2025-07-16 08:29:07","1f75c3e559b7213887762d5229550c2b","89.70.241.158","Mozilla/5.0 (Windows NT 10.0; Win64; x64; rv:140.0) Gecko/20100101 Firefox/140.0","","Firefox","140.0","Windows","10.0","https://app.prolific.com/","pl,en-US;q=0.7,en;q=0.3","5f0214e58782120a8c970fd6","686e379bc37a29ffa5cdc956","687761fa98fe86b60151320b","1","1","5f0214e58782120a8c970fd6","1","1","2025-07-16T08:44:27.621Z","","","","","","","","","","","StressQ","","50","","","","","","","","","","","","","","","","","","","","","","","","","","","","",""
"4231","","<div style=""width:500px;"">
  <p>What best describes how you currently feel?</p>
  </div>","96","html-slider-response","63","922761","0.0-5.0-4.10","62","1","2025-07-16 08:29:07","1f75c3e559b7213887762d5229550c2b","89.70.241.158","Mozilla/5.0 (Windows NT 10.0; Win64; x64; rv:140.0) Gecko/20100101 Firefox/140.0","","Firefox","140.0","Windows","10.0","https://app.prolific.com/","pl,en-US;q=0.7,en;q=0.3","5f0214e58782120a8c970fd6","686e379bc37a29ffa5cdc956","687761fa98fe86b60151320b","1","1","5f0214e58782120a8c970fd6","1","1","2025-07-16T08:44:31.855Z","","","","","","","","","","","MotivationQ","","50","","","","","","","","","","","","","","","","","","","","","","","","","","","","",""
"","","","","ctl-task-cpt","64","964248","0.0-5.0-0.11","62","1","2025-07-16 08:29:07","1f75c3e559b7213887762d5229550c2b","89.70.241.158","Mozilla/5.0 (Windows NT 10.0; Win64; x64; rv:140.0) Gecko/20100101 Firefox/140.0","","Firefox","140.0","Windows","10.0","https://app.prolific.com/","pl,en-US;q=0.7,en;q=0.3","5f0214e58782120a8c970fd6","686e379bc37a29ffa5cdc956","687761fa98fe86b60151320b","1","1","5f0214e58782120a8c970fd6","1","1","2025-07-16T08:45:13.342Z","","","","","","","","","","","","","","win-only","0","g1:NW,g2:SE","0.6","12","0","924592","1803","6805","38479","1","4","8","6","2","8","8","37","29","0.2803030303030303","1541","3000","1250","[""down"",""right""]","{""num_key_presses"":8,""num_perfect"":4,""num_errors"":0,""num_randdir"":4,""num_randdir_good_moves"":3,""num_whilered"":0,""num_whileblue"":0,""num_blue"":2,""num_good_moves"":7}","[296.22857753208706,297.92857448032925,0,296.22857753208706,297.92857448032925,111,296.22857753208706,297.92857448032925,212,296.22857753208706,297.92857448032925,312,296.22857753208706,297.92857448032925,412,296.22857753208706,297.92857448032925,512,296.22857753208706,297.92857448032925,612,296.22857753208706,297.92857448032925,726,453.22857753208706,536.9285744803292,827,522.228577532087,607.9285744803292,942,522.228577532087,607.9285744803292,1046,522.228577532087,607.9285744803292,1152,542.228577532087,551.9285744803292,1252,546.228577532087,523.9285744803292,1352,546.228577532087,523.9285744803292,1452,546.228577532087,523.9285744803292,1573,546.228577532087,523.9285744803292,1673,546.228577532087,523.9285744803292,1773,546.228577532087,523.9285744803292,1892,546.228577532087,523.9285744803292,2002,546.228577532087,523.9285744803292,2103,546.228577532087,523.9285744803292,2204,546.228577532087,523.9285744803292,2312,546.228577532087,523.9285744803292,2412,546.228577532087,523.9285744803292,2512,546.228577532087,523.9285744803292,2623,546.228577532087,523.9285744803292,2731,546.228577532087,523.9285744803292,2836,546.228577532087,523.9285744803292,2947,546.228577532087,523.9285744803292,3069,546.228577532087,523.9285744803292,3173,546.228577532087,523.9285744803292,3273,546.228577532087,523.9285744803292,3388,546.228577532087,523.9285744803292,3493,546.228577532087,523.9285744803292,3602,546.228577532087,523.9285744803292,3713,546.228577532087,523.9285744803292,3829,546.228577532087,523.9285744803292,3949,546.228577532087,523.9285744803292,4051,546.228577532087,523.9285744803292,4156,546.228577532087,523.9285744803292,4257,546.228577532087,523.9285744803292,4359,546.228577532087,523.9285744803292,4460,546.228577532087,523.9285744803292,4568,546.228577532087,523.9285744803292,4680,546.228577532087,523.9285744803292,4789,546.228577532087,523.9285744803292,4889,546.228577532087,523.9285744803292,4989]","[1524,1524,1000,0,524,""smooth"",""down"",""down"",""good_move"",4900,3375,2844.7,1525,530.3,""oops"",""right"",""right"",""good_move"",7221,2321,1544.6,4900,776.4,""oops"",""right"",""left"",""bad_move"",11143,3922,3006.4,7221,915.6,""oops"",""down"",""down"",""good_move"",17347,6203,2232.5,14499,615.5,""smooth"",""right"",""right"",""good_move"",19978,2631,2101.3,17347,529.7,""smooth"",""right"",""right"",""good_move"",23360,3382,2864.4,19978,517.6,""smooth"",""down"",""down"",""good_move"",31402,8041,3248.2,27248,905.8,""oops"",""right"",""right"",""good_move""]","",""
"2991","","<div style=""width:500px;"">
  <p>What determined the result of this run?</p>
  </div>","83","html-slider-response","65","967242","0.0-5.0-1.11","62","1","2025-07-16 08:29:07","1f75c3e559b7213887762d5229550c2b","89.70.241.158","Mozilla/5.0 (Windows NT 10.0; Win64; x64; rv:140.0) Gecko/20100101 Firefox/140.0","","Firefox","140.0","Windows","10.0","https://app.prolific.com/","pl,en-US;q=0.7,en;q=0.3","5f0214e58782120a8c970fd6","686e379bc37a29ffa5cdc956","687761fa98fe86b60151320b","1","1","5f0214e58782120a8c970fd6","1","1","2025-07-16T08:45:16.336Z","","","","","","","","","","","AttribQ","","50","","","","","","","","","","","","","","","","","","","","","","","","","","","","",""
"17777","","<div style=""width:500px;"">
  <p>How much control did you have over the ball?</p>
  </div>","93","html-slider-response","66","985027","0.0-5.0-2.11","62","1","2025-07-16 08:29:07","1f75c3e559b7213887762d5229550c2b","89.70.241.158","Mozilla/5.0 (Windows NT 10.0; Win64; x64; rv:140.0) Gecko/20100101 Firefox/140.0","","Firefox","140.0","Windows","10.0","https://app.prolific.com/","pl,en-US;q=0.7,en;q=0.3","5f0214e58782120a8c970fd6","686e379bc37a29ffa5cdc956","687761fa98fe86b60151320b","1","1","5f0214e58782120a8c970fd6","1","1","2025-07-16T08:45:34.121Z","","","","","","","","","","","ControlQ","","50","","","","","","","","","","","","","","","","","","","","","","","","","","","","",""
"8166","","<div style=""width:500px;"">
  <p>How would you describe your current emotional state?</p>
  </div>","14","html-slider-response","67","993195","0.0-5.0-3.11","62","1","2025-07-16 08:29:07","1f75c3e559b7213887762d5229550c2b","89.70.241.158","Mozilla/5.0 (Windows NT 10.0; Win64; x64; rv:140.0) Gecko/20100101 Firefox/140.0","","Firefox","140.0","Windows","10.0","https://app.prolific.com/","pl,en-US;q=0.7,en;q=0.3","5f0214e58782120a8c970fd6","686e379bc37a29ffa5cdc956","687761fa98fe86b60151320b","1","1","5f0214e58782120a8c970fd6","1","1","2025-07-16T08:45:42.289Z","","","","","","","","","","","StressQ","","50","","","","","","","","","","","","","","","","","","","","","","","","","","","","",""
"7148","","<div style=""width:500px;"">
  <p>What best describes how you currently feel?</p>
  </div>","91","html-slider-response","68","1000346","0.0-5.0-4.11","62","1","2025-07-16 08:29:07","1f75c3e559b7213887762d5229550c2b","89.70.241.158","Mozilla/5.0 (Windows NT 10.0; Win64; x64; rv:140.0) Gecko/20100101 Firefox/140.0","","Firefox","140.0","Windows","10.0","https://app.prolific.com/","pl,en-US;q=0.7,en;q=0.3","5f0214e58782120a8c970fd6","686e379bc37a29ffa5cdc956","687761fa98fe86b60151320b","1","1","5f0214e58782120a8c970fd6","1","1","2025-07-16T08:45:49.441Z","","","","","","","","","","","MotivationQ","","50","","","","","","","","","","","","","","","","","","","","","","","","","","","","",""
"","","","","ctl-task-cpt","69","1062380","0.0-5.0-0.12","62","1","2025-07-16 08:29:07","1f75c3e559b7213887762d5229550c2b","89.70.241.158","Mozilla/5.0 (Windows NT 10.0; Win64; x64; rv:140.0) Gecko/20100101 Firefox/140.0","","Firefox","140.0","Windows","10.0","https://app.prolific.com/","pl,en-US;q=0.7,en;q=0.3","5f0214e58782120a8c970fd6","686e379bc37a29ffa5cdc956","687761fa98fe86b60151320b","1","1","5f0214e58782120a8c970fd6","1","1","2025-07-16T08:46:51.474Z","","","","","","","","","","","","","","win-only","1","g1:NE,g2:SW","0.7","13","0","1002176","946","5957","59024","1","4","8","6","2","8","8","45","37","0.3409090909090909","1250","3000","1145","[""down"",""left""]","{""num_key_presses"":12,""num_perfect"":9,""num_errors"":0,""num_randdir"":3,""num_randdir_good_moves"":0,""num_whilered"":0,""num_whileblue"":0,""num_blue"":4,""num_good_moves"":9}","[298.22857753208706,298.92857448032925,0,298.22857753208706,298.92857448032925,111,298.22857753208706,298.92857448032925,213,298.22857753208706,298.92857448032925,335,298.22857753208706,298.92857448032925,435,298.22857753208706,298.92857448032925,535,298.22857753208706,298.92857448032925,636,162.22857753208706,401.92857448032925,737,120.22857753208706,451.92857448032925,837,104.22857753208706,463.92857448032925,937,60.22857753208705,517.9285744803292,1046,50.22857753208705,530.9285744803292,1160,50.22857753208705,530.9285744803292,1281,50.22857753208705,530.9285744803292,1400,50.22857753208705,530.9285744803292,1500,50.22857753208705,530.9285744803292,1601,50.22857753208705,530.9285744803292,1710,50.22857753208705,530.9285744803292,1820,50.22857753208705,530.9285744803292,1929,50.22857753208705,530.9285744803292,2035,50.22857753208705,530.9285744803292,2153,50.22857753208705,530.9285744803292,2254,50.22857753208705,530.9285744803292,2368,50.22857753208705,530.9285744803292,2483,50.22857753208705,530.9285744803292,2586,50.22857753208705,530.9285744803292,2697,50.22857753208705,530.9285744803292,2797,50.22857753208705,530.9285744803292,2913,50.22857753208705,530.9285744803292,3016,50.22857753208705,530.9285744803292,3135,50.22857753208705,530.9285744803292,3235,50.22857753208705,530.9285744803292,3335,50.22857753208705,530.9285744803292,3445,50.22857753208705,530.9285744803292,3546,50.22857753208705,530.9285744803292,3650,50.22857753208705,530.9285744803292,3762,50.22857753208705,530.9285744803292,3863,50.22857753208705,530.9285744803292,3963,50.22857753208705,530.9285744803292,4064,50.22857753208705,530.9285744803292,4179,50.22857753208705,530.9285744803292,4291,50.22857753208705,530.9285744803292,4399,50.22857753208705,530.9285744803292,4509,50.22857753208705,530.9285744803292,4625,50.22857753208705,530.9285744803292,4727,50.22857753208705,530.9285744803292,4827,50.22857753208705,530.9285744803292,4938]","[1465,1465,1000,0,465,""oops"",""down"",""up"",""bad_move"",4781,3316,2060.9,1465,1255.1,""smooth"",""left"",""left"",""good_move"",8058,3277,2775.8,4781,501.2,""smooth"",""left"",""left"",""good_move"",11433,3375,2972.9,8058,402.1,""oops"",""down"",""right"",""bad_move"",25880,14446,2053.2,23359,467.8,""smooth"",""down"",""down"",""good_move"",32893,7013,3575.8,28814,503.2,""smooth"",""down"",""down"",""good_move"",35403,2508,1788.5,32895,719.5,""smooth"",""down"",""down"",""good_move"",38589,3185,2676.2,35404,508.8,""oops"",""left"",""right"",""bad_move"",41831,3242,2713.4,38589,528.6,""smooth"",""down"",""down"",""good_move"",45430,3599,3175.9,41831,423.1,""smooth"",""left"",""left"",""good_move"",49372,3942,3287.3,45430,654.7,""smooth"",""left"",""left"",""good_move"",52750,3378,2038.2,49372,1339.8,""smooth"",""left"",""left"",""good_move""]","",""
"3496","","<div style=""width:500px;"">
  <p>What determined the result of this run?</p>
  </div>","87","html-slider-response","70","1065877","0.0-5.0-1.12","62","1","2025-07-16 08:29:07","1f75c3e559b7213887762d5229550c2b","89.70.241.158","Mozilla/5.0 (Windows NT 10.0; Win64; x64; rv:140.0) Gecko/20100101 Firefox/140.0","","Firefox","140.0","Windows","10.0","https://app.prolific.com/","pl,en-US;q=0.7,en;q=0.3","5f0214e58782120a8c970fd6","686e379bc37a29ffa5cdc956","687761fa98fe86b60151320b","1","1","5f0214e58782120a8c970fd6","1","1","2025-07-16T08:46:54.971Z","","","","","","","","","","","AttribQ","","50","","","","","","","","","","","","","","","","","","","","","","","","","","","","",""
"2555","","<div style=""width:500px;"">
  <p>How much control did you have over the ball?</p>
  </div>","83","html-slider-response","71","1068435","0.0-5.0-2.12","62","1","2025-07-16 08:29:07","1f75c3e559b7213887762d5229550c2b","89.70.241.158","Mozilla/5.0 (Windows NT 10.0; Win64; x64; rv:140.0) Gecko/20100101 Firefox/140.0","","Firefox","140.0","Windows","10.0","https://app.prolific.com/","pl,en-US;q=0.7,en;q=0.3","5f0214e58782120a8c970fd6","686e379bc37a29ffa5cdc956","687761fa98fe86b60151320b","1","1","5f0214e58782120a8c970fd6","1","1","2025-07-16T08:46:57.529Z","","","","","","","","","","","ControlQ","","50","","","","","","","","","","","","","","","","","","","","","","","","","","","","",""
"4401","","<div style=""width:500px;"">
  <p>How would you describe your current emotional state?</p>
  </div>","17","html-slider-response","72","1072839","0.0-5.0-3.12","62","1","2025-07-16 08:29:07","1f75c3e559b7213887762d5229550c2b","89.70.241.158","Mozilla/5.0 (Windows NT 10.0; Win64; x64; rv:140.0) Gecko/20100101 Firefox/140.0","","Firefox","140.0","Windows","10.0","https://app.prolific.com/","pl,en-US;q=0.7,en;q=0.3","5f0214e58782120a8c970fd6","686e379bc37a29ffa5cdc956","687761fa98fe86b60151320b","1","1","5f0214e58782120a8c970fd6","1","1","2025-07-16T08:47:01.933Z","","","","","","","","","","","StressQ","","50","","","","","","","","","","","","","","","","","","","","","","","","","","","","",""
"2516","","<div style=""width:500px;"">
  <p>What best describes how you currently feel?</p>
  </div>","90","html-slider-response","73","1075359","0.0-5.0-4.12","62","1","2025-07-16 08:29:07","1f75c3e559b7213887762d5229550c2b","89.70.241.158","Mozilla/5.0 (Windows NT 10.0; Win64; x64; rv:140.0) Gecko/20100101 Firefox/140.0","","Firefox","140.0","Windows","10.0","https://app.prolific.com/","pl,en-US;q=0.7,en;q=0.3","5f0214e58782120a8c970fd6","686e379bc37a29ffa5cdc956","687761fa98fe86b60151320b","1","1","5f0214e58782120a8c970fd6","1","1","2025-07-16T08:47:04.453Z","","","","","","","","","","","MotivationQ","","50","","","","","","","","","","","","","","","","","","","","","","","","","","","","",""
"","","","","ctl-task-cpt","74","1098359","0.0-5.0-0.13","62","1","2025-07-16 08:29:07","1f75c3e559b7213887762d5229550c2b","89.70.241.158","Mozilla/5.0 (Windows NT 10.0; Win64; x64; rv:140.0) Gecko/20100101 Firefox/140.0","","Firefox","140.0","Windows","10.0","https://app.prolific.com/","pl,en-US;q=0.7,en;q=0.3","5f0214e58782120a8c970fd6","686e379bc37a29ffa5cdc956","687761fa98fe86b60151320b","1","1","5f0214e58782120a8c970fd6","1","1","2025-07-16T08:47:27.453Z","","","","","","","","","","","","","","win-only","2","g1:SE,g2:NW","0.8","14","0","1077188","1057","6069","19983","1","4","4","6","1","1","1","46","45","0.3484848484848485","1551","3000","2400","[""down"",""right""]","{""num_key_presses"":4,""num_perfect"":4,""num_errors"":0,""num_randdir"":0,""num_randdir_good_moves"":0,""num_whilered"":0,""num_whileblue"":0,""num_blue"":1,""num_good_moves"":4}","[299.22857753208706,300.92857448032925,1,299.22857753208706,300.92857448032925,110,299.22857753208706,300.92857448032925,224,299.22857753208706,300.92857448032925,324,299.22857753208706,300.92857448032925,424,299.22857753208706,300.92857448032925,525,299.22857753208706,300.92857448032925,627,299.22857753208706,300.92857448032925,741,460.22857753208706,494.92857448032925,856,496.22857753208706,548.9285744803292,956,496.22857753208706,548.9285744803292,1067,496.22857753208706,548.9285744803292,1167,496.22857753208706,548.9285744803292,1286,520.228577532087,545.9285744803292,1406,520.228577532087,545.9285744803292,1516,520.228577532087,545.9285744803292,1616,520.228577532087,545.9285744803292,1716,520.228577532087,545.9285744803292,1816,520.228577532087,545.9285744803292,1916,585.228577532087,517.9285744803292,2018,645.228577532087,499.92857448032925,2118,645.228577532087,499.92857448032925,2220,645.228577532087,499.92857448032925,2333,645.228577532087,499.92857448032925,2435,645.228577532087,499.92857448032925,2545,645.228577532087,499.92857448032925,2651,645.228577532087,499.92857448032925,2757,645.228577532087,499.92857448032925,2860,645.228577532087,499.92857448032925,2960,645.228577532087,499.92857448032925,3060,645.228577532087,499.92857448032925,3170,645.228577532087,499.92857448032925,3288,645.228577532087,499.92857448032925,3389,645.228577532087,499.92857448032925,3500,645.228577532087,499.92857448032925,3609,645.228577532087,499.92857448032925,3721,645.228577532087,499.92857448032925,3822,645.228577532087,499.92857448032925,3925,645.228577532087,499.92857448032925,4041,645.228577532087,499.92857448032925,4150,645.228577532087,499.92857448032925,4261,645.228577532087,499.92857448032925,4377,645.228577532087,499.92857448032925,4478,645.228577532087,499.92857448032925,4582,645.228577532087,499.92857448032925,4690,645.228577532087,499.92857448032925,4810,645.228577532087,499.92857448032925,4911]","[4756,4756,2232.1,2013,510.9,""smooth"",""down"",""down"",""good_move"",7493,2737,2265.1,4756,471.9,""smooth"",""right"",""right"",""good_move"",10631,3138,2620.3,7493,517.7,""smooth"",""right"",""right"",""good_move"",13603,2971,2554.1,10632,416.9,""smooth"",""down"",""down"",""good_move""]","",""
"2475","","<div style=""width:500px;"">
  <p>What determined the result of this run?</p>
  </div>","82","html-slider-response","75","1100834","0.0-5.0-1.13","62","1","2025-07-16 08:29:07","1f75c3e559b7213887762d5229550c2b","89.70.241.158","Mozilla/5.0 (Windows NT 10.0; Win64; x64; rv:140.0) Gecko/20100101 Firefox/140.0","","Firefox","140.0","Windows","10.0","https://app.prolific.com/","pl,en-US;q=0.7,en;q=0.3","5f0214e58782120a8c970fd6","686e379bc37a29ffa5cdc956","687761fa98fe86b60151320b","1","1","5f0214e58782120a8c970fd6","1","1","2025-07-16T08:47:29.929Z","","","","","","","","","","","AttribQ","","50","","","","","","","","","","","","","","","","","","","","","","","","","","","","",""
"2466","","<div style=""width:500px;"">
  <p>How much control did you have over the ball?</p>
  </div>","85","html-slider-response","76","1103304","0.0-5.0-2.13","62","1","2025-07-16 08:29:07","1f75c3e559b7213887762d5229550c2b","89.70.241.158","Mozilla/5.0 (Windows NT 10.0; Win64; x64; rv:140.0) Gecko/20100101 Firefox/140.0","","Firefox","140.0","Windows","10.0","https://app.prolific.com/","pl,en-US;q=0.7,en;q=0.3","5f0214e58782120a8c970fd6","686e379bc37a29ffa5cdc956","687761fa98fe86b60151320b","1","1","5f0214e58782120a8c970fd6","1","1","2025-07-16T08:47:32.398Z","","","","","","","","","","","ControlQ","","50","","","","","","","","","","","","","","","","","","","","","","","","","","","","",""
"3298","","<div style=""width:500px;"">
  <p>How would you describe your current emotional state?</p>
  </div>","15","html-slider-response","77","1106607","0.0-5.0-3.13","62","1","2025-07-16 08:29:07","1f75c3e559b7213887762d5229550c2b","89.70.241.158","Mozilla/5.0 (Windows NT 10.0; Win64; x64; rv:140.0) Gecko/20100101 Firefox/140.0","","Firefox","140.0","Windows","10.0","https://app.prolific.com/","pl,en-US;q=0.7,en;q=0.3","5f0214e58782120a8c970fd6","686e379bc37a29ffa5cdc956","687761fa98fe86b60151320b","1","1","5f0214e58782120a8c970fd6","1","1","2025-07-16T08:47:35.701Z","","","","","","","","","","","StressQ","","50","","","","","","","","","","","","","","","","","","","","","","","","","","","","",""
"2760","","<div style=""width:500px;"">
  <p>What best describes how you currently feel?</p>
  </div>","88","html-slider-response","78","1109371","0.0-5.0-4.13","62","1","2025-07-16 08:29:07","1f75c3e559b7213887762d5229550c2b","89.70.241.158","Mozilla/5.0 (Windows NT 10.0; Win64; x64; rv:140.0) Gecko/20100101 Firefox/140.0","","Firefox","140.0","Windows","10.0","https://app.prolific.com/","pl,en-US;q=0.7,en;q=0.3","5f0214e58782120a8c970fd6","686e379bc37a29ffa5cdc956","687761fa98fe86b60151320b","1","1","5f0214e58782120a8c970fd6","1","1","2025-07-16T08:47:38.465Z","","","","","","","","","","","MotivationQ","","50","","","","","","","","","","","","","","","","","","","","","","","","","","","","",""
"","","","","ctl-task-cpt","79","1138861","0.0-5.0-0.14","62","1","2025-07-16 08:29:07","1f75c3e559b7213887762d5229550c2b","89.70.241.158","Mozilla/5.0 (Windows NT 10.0; Win64; x64; rv:140.0) Gecko/20100101 Firefox/140.0","","Firefox","140.0","Windows","10.0","https://app.prolific.com/","pl,en-US;q=0.7,en;q=0.3","5f0214e58782120a8c970fd6","686e379bc37a29ffa5cdc956","687761fa98fe86b60151320b","1","1","5f0214e58782120a8c970fd6","1","1","2025-07-16T08:48:07.955Z","","","","","","","","","","","","","","win-only","0","g1:NW,g2:SE","0.9","15","0","1111201","1108","6110","26475","1","4","8","6","2","8","8","54","46","0.4090909090909091","1295","3000","2260","[""down"",""right""]","{""num_key_presses"":6,""num_perfect"":5,""num_errors"":0,""num_randdir"":1,""num_randdir_good_moves"":1,""num_whilered"":0,""num_whileblue"":0,""num_blue"":1,""num_good_moves"":6}","[298.22857753208706,292.92857448032925,0,298.22857753208706,292.92857448032925,100,298.22857753208706,292.92857448032925,208,298.22857753208706,292.92857448032925,319,298.22857753208706,292.92857448032925,422,298.22857753208706,292.92857448032925,537,359.22857753208706,346.92857448032925,646,479.22857753208706,475.92857448032925,754,484.22857753208706,482.92857448032925,868,491.22857753208706,485.92857448032925,972,520.228577532087,505.92857448032925,1087,522.228577532087,508.92857448032925,1193,522.228577532087,508.92857448032925,1305,522.228577532087,508.92857448032925,1408,522.228577532087,508.92857448032925,1513,522.228577532087,508.92857448032925,1622,629.228577532087,474.92857448032925,1738,753.228577532087,449.92857448032925,1840,753.228577532087,449.92857448032925,1952,753.228577532087,449.92857448032925,2060,753.228577532087,449.92857448032925,2169,753.228577532087,449.92857448032925,2284,753.228577532087,449.92857448032925,2387,753.228577532087,449.92857448032925,2502,753.228577532087,449.92857448032925,2608,753.228577532087,449.92857448032925,2718,753.228577532087,449.92857448032925,2826,753.228577532087,449.92857448032925,2936,753.228577532087,449.92857448032925,3036,753.228577532087,449.92857448032925,3139,753.228577532087,449.92857448032925,3250,753.228577532087,449.92857448032925,3357,753.228577532087,449.92857448032925,3467,753.228577532087,449.92857448032925,3578,753.228577532087,449.92857448032925,3688,753.228577532087,449.92857448032925,3796,753.228577532087,449.92857448032925,3907,753.228577532087,449.92857448032925,4018,753.228577532087,449.92857448032925,4126,753.228577532087,449.92857448032925,4236,753.228577532087,449.92857448032925,4346,753.228577532087,449.92857448032925,4455,753.228577532087,449.92857448032925,4568,753.228577532087,449.92857448032925,4674,753.228577532087,449.92857448032925,4784,753.228577532087,449.92857448032925,4893]","[4593,4593,2155.7,2016,421.3,""oops"",""down"",""down"",""good_move"",7749,3156,2764.2,4593,391.8,""smooth"",""down"",""down"",""good_move"",11085,3336,2943.8,7749,392.2,""smooth"",""right"",""right"",""good_move"",13959,2874,2472.1,11085,401.9,""smooth"",""right"",""right"",""good_move"",17258,3299,2930.3,13959,368.7,""smooth"",""down"",""down"",""good_move"",20117,2859,2478.8,17258,380.2,""smooth"",""right"",""right"",""good_move""]","",""
"2854","","<div style=""width:500px;"">
  <p>What determined the result of this run?</p>
