"rt","response_timestamp","stimulus","response","trial_type","trial_index","time_elapsed","internal_node_id","run_id","condition","recorded_at","source_code_version","ip","user_agent","device","browser","browser_version","platform","platform_version","referer","accept_language","PROLIFIC_PID","STUDY_ID","SESSION_ID","WEEK","BATCH","prolific_id","week","batch","realtime","success","responses","item_order","radio_event_ids","radio_event_times","key_event_times","mouse_event_times","straightlining","zigzagging","honeypot","eventType","view_history","slider_start","which_type","canvas_config","goals_layout","control_level","trial_number","tutorial_trial_number","trial_start_time","phase1_start_time","phase2_start_time","phase3_start_time","goal_1_value","goal_1_distance","goal_2_value","goal_2_distance","goal_selected","outcome","outcome_total","participant_final_score","participant_initial_score","participant_final_score_prop","goal_choice_rt","allocated_time","allocated_time_remaining","goal_direction","counts","mouse_movements","key_presses","question_order","question_id"
"170111","1752660592518","<p style='font-size:40px;line-height:1.25'><strong>Welcome to the experiment!</strong></p><p style='font-size:1.1em;line-height:1.25'>Thank you for participanting in our experiment again! You will be asked to play the Dysfunctional Ball Game again. We will briefly recap the rules before we start.</p><p style='font-size:1.1em;line-height:1.25'>Press <strong>Next</strong> to continue.</p>","0","custom-html-button-response","0","170116","0.0-0.0","96","1","2025-07-16 10:07:00","1f75c3e559b7213887762d5229550c2b","95.146.241.52","Mozilla/5.0 (Windows NT 10.0; Win64; x64) AppleWebKit/537.36 (KHTML, like Gecko) Chrome/138.0.0.0 Safari/537.36","WebKit","Chrome","138.0.0.0","Windows","10.0","https://app.prolific.com/","en-US,en;q=0.9","60056657125e50465c15533e","686e379bc37a29ffa5cdc956","68777987ed272459e0e03f13","1","1","60056657125e50465c15533e","1","1","2025-07-16T10:09:52.521Z","","","","","","","","","","","","","","","","","","","","","","","","","","","","","","","","","","","","","","","","","",""
"8445","","","","fullscreen","1","179578","0.0-1.0","96","1","2025-07-16 10:07:00","1f75c3e559b7213887762d5229550c2b","95.146.241.52","Mozilla/5.0 (Windows NT 10.0; Win64; x64) AppleWebKit/537.36 (KHTML, like Gecko) Chrome/138.0.0.0 Safari/537.36","WebKit","Chrome","138.0.0.0","Windows","10.0","https://app.prolific.com/","en-US,en;q=0.9","60056657125e50465c15533e","686e379bc37a29ffa5cdc956","68777987ed272459e0e03f13","1","1","60056657125e50465c15533e","1","1","","true","","","","","","","","","","","","","","","","","","","","","","","","","","","","","","","","","","","","","","","","",""
"51679","1752660653665","<p style='font-size:1.1em;line-height:1.25'>In the following, we will ask you a few questions relating to your feelings in the last 24 hours.<br></p><p style='font-size:1.1em;line-height:1.25'>Press the <strong>Next</strong> button to continue.</p>","0","custom-html-button-response","2","231263","0.0-2.0-0.0","96","1","2025-07-16 10:07:00","1f75c3e559b7213887762d5229550c2b","95.146.241.52","Mozilla/5.0 (Windows NT 10.0; Win64; x64) AppleWebKit/537.36 (KHTML, like Gecko) Chrome/138.0.0.0 Safari/537.36","WebKit","Chrome","138.0.0.0","Windows","10.0","https://app.prolific.com/","en-US,en;q=0.9","60056657125e50465c15533e","686e379bc37a29ffa5cdc956","68777987ed272459e0e03f13","1","1","60056657125e50465c15533e","1","1","2025-07-16T10:10:53.667Z","","","","","","","","","","","","","","","","","","","","","","","","","","","","","","","","","","","","","","","","","",""
"68409.59999996424","","","","survey-template","3","299688","0.0-2.0-1.0","96","1","2025-07-16 10:07:00","1f75c3e559b7213887762d5229550c2b","95.146.241.52","Mozilla/5.0 (Windows NT 10.0; Win64; x64) AppleWebKit/537.36 (KHTML, like Gecko) Chrome/138.0.0.0 Safari/537.36","WebKit","Chrome","138.0.0.0","Windows","10.0","https://app.prolific.com/","en-US,en;q=0.9","60056657125e50465c15533e","686e379bc37a29ffa5cdc956","68777987ed272459e0e03f13","1","1","60056657125e50465c15533e","1","1","2025-07-16T10:12:02.092Z","","{""Q01"":""2"",""Q02"":""3"",""Q03"":""3"",""Q04"":""5"",""Q05"":""3"",""Q06"":""4"",""Q07"":""5"",""Q08"":""0"",""Q09"":""4"",""Q10"":""5"",""Q11"":""5"",""Q12"":""0"",""Q13"":""5"",""Q14"":""4"",""Q15"":""5"",""Q16"":""5"",""Q17"":""5"",""Q18"":""5"",""Q19"":""5"",""Q20"":""5"",""Q21"":""5"",""Q22"":""1""}","[0,1,2,3,4,5,6,7,8,9,10,11,12,13,14,15,16,17,18,19,20,21]","[""Q01"",""Q02"",""Q03"",""Q04"",""Q05"",""Q06"",""Q07"",""Q08"",""Q09"",""Q10"",""Q11"",""Q12"",""Q13"",""Q14"",""Q15"",""Q16"",""Q17"",""Q18"",""Q19"",""Q20"",""Q21"",""Q22""]","[3020.599999964237,4961.300000011921,6206.199999988079,7725.199999988079,9797.800000011921,11065.899999976158,12511.300000011921,14876.699999988079,30562.899999976158,31820.399999976158,33877.5,36057,38982.80000001192,40172.39999997616,52346,53794.19999998808,56237.69999998808,57274,58713.80000001192,63785.69999998808,65118.59999996424,67322.89999997616]","[]","[3.899999976158142,3020.599999964237,4961.300000011921,6206.199999988079,7725.199999988079,9797.800000011921,11065.899999976158,12511.300000011921,14876.699999988079,29629.80000001192,30562.899999976158,31820.399999976158,33877.5,36057,37900.09999996424,38557.5,38982.80000001192,40172.39999997616,52346,53794.19999998808,56237.69999998808,57274,58713.80000001192,61439.30000001192,63785.69999998808,65118.59999996424,67322.89999997616,68392.89999997616]","0.5454545454545454","0.42857142857142855","0","drsp","","","","","","","","","","","","","","","","","","","","","","","","","","","","","","",""
"7609","","","","survey-template","4","307302","0.0-2.0-2.0","96","1","2025-07-16 10:07:00","1f75c3e559b7213887762d5229550c2b","95.146.241.52","Mozilla/5.0 (Windows NT 10.0; Win64; x64) AppleWebKit/537.36 (KHTML, like Gecko) Chrome/138.0.0.0 Safari/537.36","WebKit","Chrome","138.0.0.0","Windows","10.0","https://app.prolific.com/","en-US,en;q=0.9","60056657125e50465c15533e","686e379bc37a29ffa5cdc956","68777987ed272459e0e03f13","1","1","60056657125e50465c15533e","1","1","2025-07-16T10:12:09.706Z","","{""Q01"":""5"",""Q02"":""5"",""Q03"":""4""}","[0,1,2]","[""Q01"",""Q02"",""Q03""]","[2294.5,5109.800000011921,6341.100000023842]","[]","[2294.5,3800.5,5109.800000011921,6341.100000023842,7606.800000011921]","0.3333333333333333","0.5","0","stress","","","","","","","","","","","","","","","","","","","","","","","","","","","","","","",""
"254921","","","","instructions","5","562224","0.0-3.0-0.0","96","1","2025-07-16 10:07:00","1f75c3e559b7213887762d5229550c2b","95.146.241.52","Mozilla/5.0 (Windows NT 10.0; Win64; x64) AppleWebKit/537.36 (KHTML, like Gecko) Chrome/138.0.0.0 Safari/537.36","WebKit","Chrome","138.0.0.0","Windows","10.0","https://app.prolific.com/","en-US,en;q=0.9","60056657125e50465c15533e","686e379bc37a29ffa5cdc956","68777987ed272459e0e03f13","1","1","60056657125e50465c15533e","1","1","","","","","","","","","","","","","[{""page_index"":0,""viewing_time"":254917}]","","","","","","","","","","","","","","","","","","","","","","","","","","","","","",""
"3551","","<p>Before you start with this game please answer the following three questions yourself. </p>
  <p>Through this game, we measure several aspects of your cognitive performance, such as reaction times, multi-tasking capabilities </p>
  <p>and the ability to assess the situation you are in.</p>
  <p></p>
  <p><b>How good do you usually are in such tasks?</b></p>","62","html-slider-response","6","565790","0.0-4.0-0.0","96","1","2025-07-16 10:07:00","1f75c3e559b7213887762d5229550c2b","95.146.241.52","Mozilla/5.0 (Windows NT 10.0; Win64; x64) AppleWebKit/537.36 (KHTML, like Gecko) Chrome/138.0.0.0 Safari/537.36","WebKit","Chrome","138.0.0.0","Windows","10.0","https://app.prolific.com/","en-US,en;q=0.9","60056657125e50465c15533e","686e379bc37a29ffa5cdc956","68777987ed272459e0e03f13","1","1","60056657125e50465c15533e","1","1","2025-07-16T10:16:28.195Z","","","","","","","","","","","PreSkillQ","","50","","","","","","","","","","","","","","","","","","","","","","","","","","","","",""
"2647","","<div style=""width:500px;"">
  <p>How well do you think you will perform in this task compared to other participants?</p>
  </div>","35","html-slider-response","7","568440","0.0-4.0-1.0","96","1","2025-07-16 10:07:00","1f75c3e559b7213887762d5229550c2b","95.146.241.52","Mozilla/5.0 (Windows NT 10.0; Win64; x64) AppleWebKit/537.36 (KHTML, like Gecko) Chrome/138.0.0.0 Safari/537.36","WebKit","Chrome","138.0.0.0","Windows","10.0","https://app.prolific.com/","en-US,en;q=0.9","60056657125e50465c15533e","686e379bc37a29ffa5cdc956","68777987ed272459e0e03f13","1","1","60056657125e50465c15533e","1","1","2025-07-16T10:16:30.845Z","","","","","","","","","","","PrePerfQ","","50","","","","","","","","","","","","","","","","","","","","","","","","","","","","",""
"2666","","<div style=""width:500px;"">
  <p>What best describes how you currently feel?</p>
  </div>","16","html-slider-response","8","571109","0.0-4.0-2.0","96","1","2025-07-16 10:07:00","1f75c3e559b7213887762d5229550c2b","95.146.241.52","Mozilla/5.0 (Windows NT 10.0; Win64; x64) AppleWebKit/537.36 (KHTML, like Gecko) Chrome/138.0.0.0 Safari/537.36","WebKit","Chrome","138.0.0.0","Windows","10.0","https://app.prolific.com/","en-US,en;q=0.9","60056657125e50465c15533e","686e379bc37a29ffa5cdc956","68777987ed272459e0e03f13","1","1","60056657125e50465c15533e","1","1","2025-07-16T10:16:33.513Z","","","","","","","","","","","PreMotivationQ","","50","","","","","","","","","","","","","","","","","","","","","","","","","","","","",""
"","","","","ctl-task-cpt","9","596679","0.0-5.0-0.0","96","1","2025-07-16 10:07:00","1f75c3e559b7213887762d5229550c2b","95.146.241.52","Mozilla/5.0 (Windows NT 10.0; Win64; x64) AppleWebKit/537.36 (KHTML, like Gecko) Chrome/138.0.0.0 Safari/537.36","WebKit","Chrome","138.0.0.0","Windows","10.0","https://app.prolific.com/","en-US,en;q=0.9","60056657125e50465c15533e","686e379bc37a29ffa5cdc956","68777987ed272459e0e03f13","1","1","60056657125e50465c15533e","1","1","2025-07-16T10:16:59.083Z","","","","","","","","","","","","","","win-only","3","g1:SW,g2:NE","1","1","0","573146.6","1615.2","6617.6","22531","1","4","8","6","2","8","7","7","0","0.05303030303030303","1350.7","3000","1740","[""up"",""right""]","{""num_key_presses"":6,""num_perfect"":5,""num_errors"":1,""num_randdir"":0,""num_randdir_good_moves"":0,""num_whilered"":0,""num_whileblue"":1,""num_blue"":1,""num_good_moves"":6}","[413.57142857142856,414.6808016640799,2.9,413.57142857142856,414.6808016640799,101.6,413.57142857142856,414.6808016640799,202.5,413.57142857142856,414.6808016640799,306.3,413.57142857142856,414.6808016640799,414.8,413.57142857142856,414.6808016640799,518.6,413.57142857142856,414.6808016640799,626.9,413.57142857142856,414.6808016640799,733.3,535.0714285714286,282.6808016640799,836.4,668.5714285714286,155.18080166407992,941.5,698.5714285714286,132.68080166407992,1042.7,724.0714285714286,110.18080166407994,1146.7,724.0714285714286,110.18080166407994,1246.8,724.0714285714286,110.18080166407994,1346.9,724.0714285714286,110.18080166407994,1447.5,724.0714285714286,110.18080166407994,1556.8,724.0714285714286,110.18080166407994,1662,724.0714285714286,110.18080166407994,1763.2,917.5714285714286,219.68080166407992,1867.1,980.5714285714286,270.6808016640799,1969.2,980.5714285714286,270.6808016640799,2071.2,980.5714285714286,270.6808016640799,2171.6,980.5714285714286,270.6808016640799,2280.2,980.5714285714286,270.6808016640799,2380.9,980.5714285714286,270.6808016640799,2481.2,980.5714285714286,270.6808016640799,2581.9,980.5714285714286,270.6808016640799,2686.6,980.5714285714286,270.6808016640799,2790.5,980.5714285714286,270.6808016640799,2891.8,980.5714285714286,270.6808016640799,2995.7,980.5714285714286,270.6808016640799,3095.7,980.5714285714286,270.6808016640799,3196.2,980.5714285714286,270.6808016640799,3298.7,980.5714285714286,270.6808016640799,3401.2,980.5714285714286,270.6808016640799,3501.2,980.5714285714286,270.6808016640799,3607.7,980.5714285714286,270.6808016640799,3715.5,980.5714285714286,270.6808016640799,3816.8,980.5714285714286,270.6808016640799,3924.9,980.5714285714286,270.6808016640799,4028.7,980.5714285714286,270.6808016640799,4137.5,980.5714285714286,270.6808016640799,4238.1,980.5714285714286,270.6808016640799,4344.9,980.5714285714286,270.6808016640799,4445.8,980.5714285714286,270.6808016640799,4551.8,980.5714285714286,270.6808016640799,4652.8,980.5714285714286,270.6808016640799,4755.4,980.5714285714286,270.6808016640799,4861.7,980.5714285714286,270.6808016640799,4962.8]","[1391.9,1391.7,1000,0.2,391.7,""smooth"",""right"",""right"",""good_move"",4043.3,2650.7,2299.8,1392.7,350.8,""smooth"",""right"",""right"",""good_move"",7840.9,3796.6,3486.7,4044.3,309.9,""smooth"",""right"",""right"",""good_move"",10029.2,2187.8,1754.8,7841.5,432.9,""smooth"",""up"",""up"",""good_move"",13084.9,3055,2767,10029.9,288,""while_blue"",""up"",""up"",""good_move"",15783.3,2695.6,2344.5,13087.7,351.1,""smooth"",""up"",""up"",""good_move""]","",""
"3405","","<div style=""width:500px;"">
  <p>What determined the result of this run?</p>
  </div>","73","html-slider-response","10","600087","0.0-5.0-1.0","96","1","2025-07-16 10:07:00","1f75c3e559b7213887762d5229550c2b","95.146.241.52","Mozilla/5.0 (Windows NT 10.0; Win64; x64) AppleWebKit/537.36 (KHTML, like Gecko) Chrome/138.0.0.0 Safari/537.36","WebKit","Chrome","138.0.0.0","Windows","10.0","https://app.prolific.com/","en-US,en;q=0.9","60056657125e50465c15533e","686e379bc37a29ffa5cdc956","68777987ed272459e0e03f13","1","1","60056657125e50465c15533e","1","1","2025-07-16T10:17:02.491Z","","","","","","","","","","","AttribQ","","50","","","","","","","","","","","","","","","","","","","","","","","","","","","","",""
"2283","","<div style=""width:500px;"">
  <p>How much control did you have over the ball?</p>
  </div>","68","html-slider-response","11","602371","0.0-5.0-2.0","96","1","2025-07-16 10:07:00","1f75c3e559b7213887762d5229550c2b","95.146.241.52","Mozilla/5.0 (Windows NT 10.0; Win64; x64) AppleWebKit/537.36 (KHTML, like Gecko) Chrome/138.0.0.0 Safari/537.36","WebKit","Chrome","138.0.0.0","Windows","10.0","https://app.prolific.com/","en-US,en;q=0.9","60056657125e50465c15533e","686e379bc37a29ffa5cdc956","68777987ed272459e0e03f13","1","1","60056657125e50465c15533e","1","1","2025-07-16T10:17:04.776Z","","","","","","","","","","","ControlQ","","50","","","","","","","","","","","","","","","","","","","","","","","","","","","","",""
"2772","","<div style=""width:500px;"">
  <p>How would you describe your current emotional state?</p>
  </div>","24","html-slider-response","12","605145","0.0-5.0-3.0","96","1","2025-07-16 10:07:00","1f75c3e559b7213887762d5229550c2b","95.146.241.52","Mozilla/5.0 (Windows NT 10.0; Win64; x64) AppleWebKit/537.36 (KHTML, like Gecko) Chrome/138.0.0.0 Safari/537.36","WebKit","Chrome","138.0.0.0","Windows","10.0","https://app.prolific.com/","en-US,en;q=0.9","60056657125e50465c15533e","686e379bc37a29ffa5cdc956","68777987ed272459e0e03f13","1","1","60056657125e50465c15533e","1","1","2025-07-16T10:17:07.550Z","","","","","","","","","","","StressQ","","50","","","","","","","","","","","","","","","","","","","","","","","","","","","","",""
"3198","","<div style=""width:500px;"">
  <p>What best describes how you currently feel?</p>
  </div>","35","html-slider-response","13","608345","0.0-5.0-4.0","96","1","2025-07-16 10:07:00","1f75c3e559b7213887762d5229550c2b","95.146.241.52","Mozilla/5.0 (Windows NT 10.0; Win64; x64) AppleWebKit/537.36 (KHTML, like Gecko) Chrome/138.0.0.0 Safari/537.36","WebKit","Chrome","138.0.0.0","Windows","10.0","https://app.prolific.com/","en-US,en;q=0.9","60056657125e50465c15533e","686e379bc37a29ffa5cdc956","68777987ed272459e0e03f13","1","1","60056657125e50465c15533e","1","1","2025-07-16T10:17:10.749Z","","","","","","","","","","","MotivationQ","","50","","","","","","","","","","","","","","","","","","","","","","","","","","","","",""
"","","","","ctl-task-cpt","14","633191","0.0-5.0-0.1","96","1","2025-07-16 10:07:00","1f75c3e559b7213887762d5229550c2b","95.146.241.52","Mozilla/5.0 (Windows NT 10.0; Win64; x64) AppleWebKit/537.36 (KHTML, like Gecko) Chrome/138.0.0.0 Safari/537.36","WebKit","Chrome","138.0.0.0","Windows","10.0","https://app.prolific.com/","en-US,en;q=0.9","60056657125e50465c15533e","686e379bc37a29ffa5cdc956","68777987ed272459e0e03f13","1","1","60056657125e50465c15533e","1","1","2025-07-16T10:17:35.595Z","","","","","","","","","","","","","","win-only","3","g1:SW,g2:NE","0.9","2","0","610360.4","999.3","6005.2","21835.9","1","4","4","6","2","4","4","11","7","0.08333333333333333","1029","3000","1480","[""up"",""right""]","{""num_key_presses"":6,""num_perfect"":6,""num_errors"":0,""num_randdir"":0,""num_randdir_good_moves"":0,""num_whilered"":0,""num_whileblue"":0,""num_blue"":0,""num_good_moves"":6}","[413.57142857142856,416.1808016640799,0.3,413.57142857142856,416.1808016640799,106.8,413.57142857142856,416.1808016640799,209.2,413.57142857142856,416.1808016640799,309.6,203.57142857142856,635.1808016640799,410.9,122.57142857142857,734.1808016640799,512.6,125.57142857142857,728.1808016640799,614.9,626.5714285714286,225.68080166407992,721,785.5714285714286,59.18080166407994,827.8,785.5714285714286,59.18080166407994,936,785.5714285714286,59.18080166407994,1037.1,785.5714285714286,59.18080166407994,1149.1,653.5714285714286,303.6808016640799,1256.8,587.5714285714286,413.1808016640799,1358.1,587.5714285714286,413.1808016640799,1461.9,587.5714285714286,413.1808016640799,1568.6,587.5714285714286,413.1808016640799,1673,587.5714285714286,413.1808016640799,1775.7,587.5714285714286,413.1808016640799,1882.5,587.5714285714286,413.1808016640799,1992.9,587.5714285714286,413.1808016640799,2100.9,587.5714285714286,413.1808016640799,2206.3,587.5714285714286,413.1808016640799,2307.6,587.5714285714286,413.1808016640799,2414.2,587.5714285714286,413.1808016640799,2521.9,587.5714285714286,413.1808016640799,2624.1,587.5714285714286,413.1808016640799,2731,587.5714285714286,413.1808016640799,2838.3,587.5714285714286,413.1808016640799,2938.8,587.5714285714286,413.1808016640799,3040.5,587.5714285714286,413.1808016640799,3149,587.5714285714286,413.1808016640799,3251.6,587.5714285714286,413.1808016640799,3353.7,587.5714285714286,413.1808016640799,3456.2,587.5714285714286,413.1808016640799,3557.1,587.5714285714286,413.1808016640799,3661.1,587.5714285714286,413.1808016640799,3771.2,587.5714285714286,413.1808016640799,3874.7,587.5714285714286,413.1808016640799,3975.4,587.5714285714286,413.1808016640799,4081.1,587.5714285714286,413.1808016640799,4182.3,587.5714285714286,413.1808016640799,4283.6,587.5714285714286,413.1808016640799,4389.4,587.5714285714286,413.1808016640799,4496.9,587.5714285714286,413.1808016640799,4600,587.5714285714286,413.1808016640799,4704.8,587.5714285714286,413.1808016640799,4812.2,587.5714285714286,413.1808016640799,4920.9]","[1382.5,1382.6,1000,0,382.6,""smooth"",""right"",""right"",""good_move"",4493.7,3110.6,2658.6,1383.1,452,""smooth"",""right"",""right"",""good_move"",7130,2635.6,2260.5,4494.4,375.1,""smooth"",""right"",""right"",""good_move"",9620.9,2490.6,2161.1,7130.3,329.5,""smooth"",""up"",""up"",""good_move"",12239.3,2617.6,2300.1,9621.8,317.5,""smooth"",""up"",""up"",""good_move"",15712.6,3472.6,3162.4,12240,310.2,""smooth"",""up"",""up"",""good_move""]","",""
"3327","","<div style=""width:500px;"">
  <p>What determined the result of this run?</p>
  </div>","73","html-slider-response","15","636520","0.0-5.0-1.1","96","1","2025-07-16 10:07:00","1f75c3e559b7213887762d5229550c2b","95.146.241.52","Mozilla/5.0 (Windows NT 10.0; Win64; x64) AppleWebKit/537.36 (KHTML, like Gecko) Chrome/138.0.0.0 Safari/537.36","WebKit","Chrome","138.0.0.0","Windows","10.0","https://app.prolific.com/","en-US,en;q=0.9","60056657125e50465c15533e","686e379bc37a29ffa5cdc956","68777987ed272459e0e03f13","1","1","60056657125e50465c15533e","1","1","2025-07-16T10:17:38.924Z","","","","","","","","","","","AttribQ","","50","","","","","","","","","","","","","","","","","","","","","","","","","","","","",""
"2355","","<div style=""width:500px;"">
  <p>How much control did you have over the ball?</p>
  </div>","73","html-slider-response","16","638877","0.0-5.0-2.1","96","1","2025-07-16 10:07:00","1f75c3e559b7213887762d5229550c2b","95.146.241.52","Mozilla/5.0 (Windows NT 10.0; Win64; x64) AppleWebKit/537.36 (KHTML, like Gecko) Chrome/138.0.0.0 Safari/537.36","WebKit","Chrome","138.0.0.0","Windows","10.0","https://app.prolific.com/","en-US,en;q=0.9","60056657125e50465c15533e","686e379bc37a29ffa5cdc956","68777987ed272459e0e03f13","1","1","60056657125e50465c15533e","1","1","2025-07-16T10:17:41.281Z","","","","","","","","","","","ControlQ","","50","","","","","","","","","","","","","","","","","","","","","","","","","","","","",""
"2016","","<div style=""width:500px;"">
  <p>How would you describe your current emotional state?</p>
  </div>","29","html-slider-response","17","640895","0.0-5.0-3.1","96","1","2025-07-16 10:07:00","1f75c3e559b7213887762d5229550c2b","95.146.241.52","Mozilla/5.0 (Windows NT 10.0; Win64; x64) AppleWebKit/537.36 (KHTML, like Gecko) Chrome/138.0.0.0 Safari/537.36","WebKit","Chrome","138.0.0.0","Windows","10.0","https://app.prolific.com/","en-US,en;q=0.9","60056657125e50465c15533e","686e379bc37a29ffa5cdc956","68777987ed272459e0e03f13","1","1","60056657125e50465c15533e","1","1","2025-07-16T10:17:43.299Z","","","","","","","","","","","StressQ","","50","","","","","","","","","","","","","","","","","","","","","","","","","","","","",""
"3121","","<div style=""width:500px;"">
  <p>What best describes how you currently feel?</p>
  </div>","42","html-slider-response","18","644017","0.0-5.0-4.1","96","1","2025-07-16 10:07:00","1f75c3e559b7213887762d5229550c2b","95.146.241.52","Mozilla/5.0 (Windows NT 10.0; Win64; x64) AppleWebKit/537.36 (KHTML, like Gecko) Chrome/138.0.0.0 Safari/537.36","WebKit","Chrome","138.0.0.0","Windows","10.0","https://app.prolific.com/","en-US,en;q=0.9","60056657125e50465c15533e","686e379bc37a29ffa5cdc956","68777987ed272459e0e03f13","1","1","60056657125e50465c15533e","1","1","2025-07-16T10:17:46.422Z","","","","","","","","","","","MotivationQ","","50","","","","","","","","","","","","","","","","","","","","","","","","","","","","",""
"","","","","ctl-task-cpt","19","673148","0.0-5.0-0.2","96","1","2025-07-16 10:07:00","1f75c3e559b7213887762d5229550c2b","95.146.241.52","Mozilla/5.0 (Windows NT 10.0; Win64; x64) AppleWebKit/537.36 (KHTML, like Gecko) Chrome/138.0.0.0 Safari/537.36","WebKit","Chrome","138.0.0.0","Windows","10.0","https://app.prolific.com/","en-US,en;q=0.9","60056657125e50465c15533e","686e379bc37a29ffa5cdc956","68777987ed272459e0e03f13","1","1","60056657125e50465c15533e","1","1","2025-07-16T10:18:15.552Z","","","","","","","","","","","","","","win-only","1","g1:NE,g2:SW","0.8","3","0","646035.8","1160.1","6161.8","26120.4","1","4","4","6","2","4","4","15","11","0.11363636363636363","1025.7","3000","1470","[""down"",""left""]","{""num_key_presses"":6,""num_perfect"":6,""num_errors"":0,""num_randdir"":0,""num_randdir_good_moves"":0,""num_whilered"":0,""num_whileblue"":0,""num_blue"":1,""num_good_moves"":6}","[419.57142857142856,416.1808016640799,0.3,419.57142857142856,416.1808016640799,107.9,419.57142857142856,416.1808016640799,208,419.57142857142856,416.1808016640799,313.8,419.57142857142856,416.1808016640799,418.2,364.07142857142856,485.1808016640799,531,196.07142857142856,686.1808016640799,636.9,134.57142857142856,749.1808016640799,738.4,83.57142857142857,762.6808016640799,846.6,83.57142857142857,762.6808016640799,949.3,83.57142857142857,762.6808016640799,1055.2,83.57142857142857,762.6808016640799,1156.2,83.57142857142857,762.6808016640799,1256.5,83.57142857142857,762.6808016640799,1359.9,149.57142857142856,744.6808016640799,1461.7,461.57142857142856,695.1808016640799,1561.8,488.57142857142856,692.1808016640799,1662.7,488.57142857142856,692.1808016640799,1770.1,488.57142857142856,692.1808016640799,1873.7,488.57142857142856,692.1808016640799,1983,488.57142857142856,692.1808016640799,2086,488.57142857142856,692.1808016640799,2186.7,488.57142857142856,692.1808016640799,2289.3,488.57142857142856,692.1808016640799,2393.9,488.57142857142856,692.1808016640799,2496.7,488.57142857142856,692.1808016640799,2603.7,488.57142857142856,692.1808016640799,2703.8,488.57142857142856,692.1808016640799,2812,488.57142857142856,692.1808016640799,2917.9,488.57142857142856,692.1808016640799,3026.7,488.57142857142856,692.1808016640799,3127.4,488.57142857142856,692.1808016640799,3232.2,488.57142857142856,692.1808016640799,3337.8,488.57142857142856,692.1808016640799,3443.1,488.57142857142856,692.1808016640799,3546.3,488.57142857142856,692.1808016640799,3646.8,488.57142857142856,692.1808016640799,3752.7,488.57142857142856,692.1808016640799,3852.7,488.57142857142856,692.1808016640799,3958.8,488.57142857142856,692.1808016640799,4064.8,488.57142857142856,692.1808016640799,4167.9,488.57142857142856,692.1808016640799,4276.9,488.57142857142856,692.1808016640799,4383,488.57142857142856,692.1808016640799,4485.1,488.57142857142856,692.1808016640799,4590.4,488.57142857142856,692.1808016640799,4692.4,488.57142857142856,692.1808016640799,4796.1,488.57142857142856,692.1808016640799,4900.6]","[1403.8,1403.8,1000,0,403.8,""smooth"",""down"",""down"",""good_move"",4568.6,3164.1,2809.2,1404.5,354.9,""smooth"",""down"",""down"",""good_move"",7409.2,2839.9,2431.1,4569.3,408.8,""smooth"",""down"",""down"",""good_move"",13667,6257.1,2394.2,10930.9,341.9,""smooth"",""left"",""left"",""good_move"",17026,3358.4,2993.4,13667.6,365,""smooth"",""left"",""left"",""good_move"",19817.5,2791.1,2412.7,17026.4,378.4,""smooth"",""left"",""left"",""good_move""]","",""
"2356","","<div style=""width:500px;"">
  <p>What determined the result of this run?</p>
  </div>","68","html-slider-response","20","675507","0.0-5.0-1.2","96","1","2025-07-16 10:07:00","1f75c3e559b7213887762d5229550c2b","95.146.241.52","Mozilla/5.0 (Windows NT 10.0; Win64; x64) AppleWebKit/537.36 (KHTML, like Gecko) Chrome/138.0.0.0 Safari/537.36","WebKit","Chrome","138.0.0.0","Windows","10.0","https://app.prolific.com/","en-US,en;q=0.9","60056657125e50465c15533e","686e379bc37a29ffa5cdc956","68777987ed272459e0e03f13","1","1","60056657125e50465c15533e","1","1","2025-07-16T10:18:17.911Z","","","","","","","","","","","AttribQ","","50","","","","","","","","","","","","","","","","","","","","","","","","","","","","",""
"2011","","<div style=""width:500px;"">
  <p>How much control did you have over the ball?</p>
  </div>","66","html-slider-response","21","677519","0.0-5.0-2.2","96","1","2025-07-16 10:07:00","1f75c3e559b7213887762d5229550c2b","95.146.241.52","Mozilla/5.0 (Windows NT 10.0; Win64; x64) AppleWebKit/537.36 (KHTML, like Gecko) Chrome/138.0.0.0 Safari/537.36","WebKit","Chrome","138.0.0.0","Windows","10.0","https://app.prolific.com/","en-US,en;q=0.9","60056657125e50465c15533e","686e379bc37a29ffa5cdc956","68777987ed272459e0e03f13","1","1","60056657125e50465c15533e","1","1","2025-07-16T10:18:19.923Z","","","","","","","","","","","ControlQ","","50","","","","","","","","","","","","","","","","","","","","","","","","","","","","",""
"2186","","<div style=""width:500px;"">
  <p>How would you describe your current emotional state?</p>
  </div>","32","html-slider-response","22","679707","0.0-5.0-3.2","96","1","2025-07-16 10:07:00","1f75c3e559b7213887762d5229550c2b","95.146.241.52","Mozilla/5.0 (Windows NT 10.0; Win64; x64) AppleWebKit/537.36 (KHTML, like Gecko) Chrome/138.0.0.0 Safari/537.36","WebKit","Chrome","138.0.0.0","Windows","10.0","https://app.prolific.com/","en-US,en;q=0.9","60056657125e50465c15533e","686e379bc37a29ffa5cdc956","68777987ed272459e0e03f13","1","1","60056657125e50465c15533e","1","1","2025-07-16T10:18:22.111Z","","","","","","","","","","","StressQ","","50","","","","","","","","","","","","","","","","","","","","","","","","","","","","",""
"4674","","<div style=""width:500px;"">
  <p>What best describes how you currently feel?</p>
  </div>","63","html-slider-response","23","684383","0.0-5.0-4.2","96","1","2025-07-16 10:07:00","1f75c3e559b7213887762d5229550c2b","95.146.241.52","Mozilla/5.0 (Windows NT 10.0; Win64; x64) AppleWebKit/537.36 (KHTML, like Gecko) Chrome/138.0.0.0 Safari/537.36","WebKit","Chrome","138.0.0.0","Windows","10.0","https://app.prolific.com/","en-US,en;q=0.9","60056657125e50465c15533e","686e379bc37a29ffa5cdc956","68777987ed272459e0e03f13","1","1","60056657125e50465c15533e","1","1","2025-07-16T10:18:26.787Z","","","","","","","","","","","MotivationQ","","50","","","","","","","","","","","","","","","","","","","","","","","","","","","","",""
"","","","","ctl-task-cpt","24","710346","0.0-5.0-0.3","96","1","2025-07-16 10:07:00","1f75c3e559b7213887762d5229550c2b","95.146.241.52","Mozilla/5.0 (Windows NT 10.0; Win64; x64) AppleWebKit/537.36 (KHTML, like Gecko) Chrome/138.0.0.0 Safari/537.36","WebKit","Chrome","138.0.0.0","Windows","10.0","https://app.prolific.com/","en-US,en;q=0.9","60056657125e50465c15533e","686e379bc37a29ffa5cdc956","68777987ed272459e0e03f13","1","1","60056657125e50465c15533e","1","1","2025-07-16T10:18:52.750Z","","","","","","","","","","","","","","win-only","2","g1:SE,g2:NW","0.7","4","0","686398.6","1409.5","6411.6","22949","1","4","8","6","2","8","8","23","15","0.17424242424242425","1116.3","3000","1260","[""left"",""up""]","{""num_key_presses"":6,""num_perfect"":4,""num_errors"":0,""num_randdir"":2,""num_randdir_good_moves"":2,""num_whilered"":0,""num_whileblue"":0,""num_blue"":0,""num_good_moves"":6}","[416.57142857142856,423.6808016640799,0.8,416.57142857142856,423.6808016640799,102.4,416.57142857142856,423.6808016640799,212,416.57142857142856,423.6808016640799,318.1,416.57142857142856,423.6808016640799,421.8,416.57142857142856,423.6808016640799,526.2,302.57142857142856,401.1808016640799,629.9,89.57142857142857,161.18080166407992,735.2,79.07142857142857,131.18080166407992,848,80.57142857142857,99.68080166407994,949.9,80.57142857142857,99.68080166407994,1058.8,80.57142857142857,99.68080166407994,1165.3,80.57142857142857,99.68080166407994,1271.1,80.57142857142857,99.68080166407994,1371.2,80.57142857142857,99.68080166407994,1474.2,80.57142857142857,99.68080166407994,1596.7,80.57142857142857,99.68080166407994,1698.3,80.57142857142857,99.68080166407994,1804,80.57142857142857,99.68080166407994,1910.9,80.57142857142857,99.68080166407994,2013.9,80.57142857142857,99.68080166407994,2114.4,80.57142857142857,99.68080166407994,2220.6,80.57142857142857,99.68080166407994,2331.6,80.57142857142857,99.68080166407994,2439.1,80.57142857142857,99.68080166407994,2546.5,80.57142857142857,99.68080166407994,2646.8,80.57142857142857,99.68080166407994,2753.4,80.57142857142857,99.68080166407994,2857.1,80.57142857142857,99.68080166407994,2964.2,80.57142857142857,99.68080166407994,3070.5,80.57142857142857,99.68080166407994,3171.3,80.57142857142857,99.68080166407994,3282,80.57142857142857,99.68080166407994,3388.7,80.57142857142857,99.68080166407994,3489.3,80.57142857142857,99.68080166407994,3597.8,80.57142857142857,99.68080166407994,3703.3,80.57142857142857,99.68080166407994,3813.5,80.57142857142857,99.68080166407994,3913.8,80.57142857142857,99.68080166407994,4017.1,80.57142857142857,99.68080166407994,4128.1,80.57142857142857,99.68080166407994,4230.3,80.57142857142857,99.68080166407994,4331.9,80.57142857142857,99.68080166407994,4437.2,80.57142857142857,99.68080166407994,4544.2,80.57142857142857,99.68080166407994,4647.8,80.57142857142857,99.68080166407994,4756.2,80.57142857142857,99.68080166407994,4862,80.57142857142857,99.68080166407994,4962.2]","[1385.2,1385.2,1000,0,385.2,""smooth"",""left"",""left"",""good_move"",5339,3952.1,3485.2,1387,466.8,""oops"",""left"",""left"",""good_move"",8876.8,3537,2978,5339.8,559,""smooth"",""left"",""left"",""good_move"",11608,2730.7,2373.5,8877.3,357.2,""smooth"",""up"",""up"",""good_move"",13958.1,2348.8,1945.6,11609.3,403.2,""smooth"",""up"",""up"",""good_move"",16413.2,2454.1,2088.5,13959.1,365.6,""oops"",""up"",""up"",""good_move""]","",""
"3457","","<div style=""width:500px;"">
  <p>What determined the result of this run?</p>
  </div>","70","html-slider-response","25","713805","0.0-5.0-1.3","96","1","2025-07-16 10:07:00","1f75c3e559b7213887762d5229550c2b","95.146.241.52","Mozilla/5.0 (Windows NT 10.0; Win64; x64) AppleWebKit/537.36 (KHTML, like Gecko) Chrome/138.0.0.0 Safari/537.36","WebKit","Chrome","138.0.0.0","Windows","10.0","https://app.prolific.com/","en-US,en;q=0.9","60056657125e50465c15533e","686e379bc37a29ffa5cdc956","68777987ed272459e0e03f13","1","1","60056657125e50465c15533e","1","1","2025-07-16T10:18:56.209Z","","","","","","","","","","","AttribQ","","50","","","","","","","","","","","","","","","","","","","","","","","","","","","","",""
"2181","","<div style=""width:500px;"">
  <p>How much control did you have over the ball?</p>
  </div>","76","html-slider-response","26","715988","0.0-5.0-2.3","96","1","2025-07-16 10:07:00","1f75c3e559b7213887762d5229550c2b","95.146.241.52","Mozilla/5.0 (Windows NT 10.0; Win64; x64) AppleWebKit/537.36 (KHTML, like Gecko) Chrome/138.0.0.0 Safari/537.36","WebKit","Chrome","138.0.0.0","Windows","10.0","https://app.prolific.com/","en-US,en;q=0.9","60056657125e50465c15533e","686e379bc37a29ffa5cdc956","68777987ed272459e0e03f13","1","1","60056657125e50465c15533e","1","1","2025-07-16T10:18:58.392Z","","","","","","","","","","","ControlQ","","50","","","","","","","","","","","","","","","","","","","","","","","","","","","","",""
"2664","","<div style=""width:500px;"">
  <p>How would you describe your current emotional state?</p>
  </div>","31","html-slider-response","27","718653","0.0-5.0-3.3","96","1","2025-07-16 10:07:00","1f75c3e559b7213887762d5229550c2b","95.146.241.52","Mozilla/5.0 (Windows NT 10.0; Win64; x64) AppleWebKit/537.36 (KHTML, like Gecko) Chrome/138.0.0.0 Safari/537.36","WebKit","Chrome","138.0.0.0","Windows","10.0","https://app.prolific.com/","en-US,en;q=0.9","60056657125e50465c15533e","686e379bc37a29ffa5cdc956","68777987ed272459e0e03f13","1","1","60056657125e50465c15533e","1","1","2025-07-16T10:19:01.057Z","","","","","","","","","","","StressQ","","50","","","","","","","","","","","","","","","","","","","","","","","","","","","","",""
"2139","","<div style=""width:500px;"">
  <p>What best describes how you currently feel?</p>
  </div>","74","html-slider-response","28","720794","0.0-5.0-4.3","96","1","2025-07-16 10:07:00","1f75c3e559b7213887762d5229550c2b","95.146.241.52","Mozilla/5.0 (Windows NT 10.0; Win64; x64) AppleWebKit/537.36 (KHTML, like Gecko) Chrome/138.0.0.0 Safari/537.36","WebKit","Chrome","138.0.0.0","Windows","10.0","https://app.prolific.com/","en-US,en;q=0.9","60056657125e50465c15533e","686e379bc37a29ffa5cdc956","68777987ed272459e0e03f13","1","1","60056657125e50465c15533e","1","1","2025-07-16T10:19:03.198Z","","","","","","","","","","","MotivationQ","","50","","","","","","","","","","","","","","","","","","","","","","","","","","","","",""
"","","","","ctl-task-cpt","29","760850","0.0-5.0-0.4","96","1","2025-07-16 10:07:00","1f75c3e559b7213887762d5229550c2b","95.146.241.52","Mozilla/5.0 (Windows NT 10.0; Win64; x64) AppleWebKit/537.36 (KHTML, like Gecko) Chrome/138.0.0.0 Safari/537.36","WebKit","Chrome","138.0.0.0","Windows","10.0","https://app.prolific.com/","en-US,en;q=0.9","60056657125e50465c15533e","686e379bc37a29ffa5cdc956","68777987ed272459e0e03f13","1","1","60056657125e50465c15533e","1","1","2025-07-16T10:19:43.254Z","","","","","","","","","","","","","","win-only","0","g1:NW,g2:SE","0.6","5","0","722808.8","1072.1","6080.6","37041.4","1","4","8","6","2","8","8","31","23","0.23484848484848486","1351.5","3000","920","[""down"",""right""]","{""num_key_presses"":8,""num_perfect"":5,""num_errors"":0,""num_randdir"":3,""num_randdir_good_moves"":2,""num_whilered"":0,""num_whileblue"":0,""num_blue"":3,""num_good_moves"":7}","[427.07142857142856,420.6808016640799,0.3,427.07142857142856,420.6808016640799,100.7,427.07142857142856,420.6808016640799,216.8,427.07142857142856,420.6808016640799,321.6,427.07142857142856,420.6808016640799,424.6,427.07142857142856,420.6808016640799,533.6,614.5714285714286,597.6808016640799,644,853.0714285714286,854.1808016640799,745.4,853.0714285714286,854.1808016640799,845.4,853.0714285714286,854.1808016640799,956.4,853.0714285714286,854.1808016640799,1063.2,797.5714285714286,767.1808016640799,1164.5,796.0714285714286,762.6808016640799,1279.3,796.0714285714286,762.6808016640799,1379.9,796.0714285714286,762.6808016640799,1483.5,796.0714285714286,762.6808016640799,1583.9,875.5714285714286,713.1808016640799,1684.3,1058.5714285714287,632.1808016640799,1786.7,1058.5714285714287,632.1808016640799,1896.3,1058.5714285714287,632.1808016640799,1999.3,1058.5714285714287,632.1808016640799,2105,1058.5714285714287,632.1808016640799,2215.7,1058.5714285714287,632.1808016640799,2316.5,1058.5714285714287,632.1808016640799,2416.9,1058.5714285714287,632.1808016640799,2520.5,1058.5714285714287,632.1808016640799,2621.9,1058.5714285714287,632.1808016640799,2722.2,1058.5714285714287,632.1808016640799,2824.1,1058.5714285714287,632.1808016640799,2928.6,1058.5714285714287,632.1808016640799,3032.6,1058.5714285714287,632.1808016640799,3137,1058.5714285714287,632.1808016640799,3241,1058.5714285714287,632.1808016640799,3346.4,1058.5714285714287,632.1808016640799,3446.8,1058.5714285714287,632.1808016640799,3548.2,1058.5714285714287,632.1808016640799,3648.7,1058.5714285714287,632.1808016640799,3757.6,1058.5714285714287,632.1808016640799,3861,1058.5714285714287,632.1808016640799,3966.8,1058.5714285714287,632.1808016640799,4069.5,1058.5714285714287,632.1808016640799,4175.5,1058.5714285714287,632.1808016640799,4283,1058.5714285714287,632.1808016640799,4386.5,1058.5714285714287,632.1808016640799,4495.8,1058.5714285714287,632.1808016640799,4602.7,1058.5714285714287,632.1808016640799,4703.8,1058.5714285714287,632.1808016640799,4810.5,1058.5714285714287,632.1808016640799,4911.1]","[1401.5,1401.5,1000,0,401.5,""smooth"",""down"",""down"",""good_move"",7654.5,6252.5,2625.1,4705.7,323.8,""oops"",""down"",""left"",""bad_move"",10056.7,2400.8,1959.8,7656.2,440.8,""smooth"",""down"",""down"",""good_move"",13025.6,2968,2514.6,10057.8,453.3,""smooth"",""down"",""down"",""good_move"",15138.9,2112.2,1724,13026.7,388.2,""smooth"",""right"",""right"",""good_move"",17931.2,2791.9,2410.6,15139.3,381.3,""smooth"",""right"",""right"",""good_move"",27845.5,9913.5,3012.7,24372.5,460.3,""oops"",""right"",""right"",""good_move"",30828.1,2982.3,2509.5,27845.8,472.9,""oops"",""right"",""right"",""good_move""]","",""
"3960","","<div style=""width:500px;"">
  <p>What determined the result of this run?</p>
  </div>","69","html-slider-response","30","764817","0.0-5.0-1.4","96","1","2025-07-16 10:07:00","1f75c3e559b7213887762d5229550c2b","95.146.241.52","Mozilla/5.0 (Windows NT 10.0; Win64; x64) AppleWebKit/537.36 (KHTML, like Gecko) Chrome/138.0.0.0 Safari/537.36","WebKit","Chrome","138.0.0.0","Windows","10.0","https://app.prolific.com/","en-US,en;q=0.9","60056657125e50465c15533e","686e379bc37a29ffa5cdc956","68777987ed272459e0e03f13","1","1","60056657125e50465c15533e","1","1","2025-07-16T10:19:47.221Z","","","","","","","","","","","AttribQ","","50","","","","","","","","","","","","","","","","","","","","","","","","","","","","",""
"6047","","<div style=""width:500px;"">
  <p>How much control did you have over the ball?</p>
  </div>","64","html-slider-response","31","770867","0.0-5.0-2.4","96","1","2025-07-16 10:07:00","1f75c3e559b7213887762d5229550c2b","95.146.241.52","Mozilla/5.0 (Windows NT 10.0; Win64; x64) AppleWebKit/537.36 (KHTML, like Gecko) Chrome/138.0.0.0 Safari/537.36","WebKit","Chrome","138.0.0.0","Windows","10.0","https://app.prolific.com/","en-US,en;q=0.9","60056657125e50465c15533e","686e379bc37a29ffa5cdc956","68777987ed272459e0e03f13","1","1","60056657125e50465c15533e","1","1","2025-07-16T10:19:53.271Z","","","","","","","","","","","ControlQ","","50","","","","","","","","","","","","","","","","","","","","","","","","","","","","",""
"2398","","<div style=""width:500px;"">
  <p>How would you describe your current emotional state?</p>
  </div>","43","html-slider-response","32","773267","0.0-5.0-3.4","96","1","2025-07-16 10:07:00","1f75c3e559b7213887762d5229550c2b","95.146.241.52","Mozilla/5.0 (Windows NT 10.0; Win64; x64) AppleWebKit/537.36 (KHTML, like Gecko) Chrome/138.0.0.0 Safari/537.36","WebKit","Chrome","138.0.0.0","Windows","10.0","https://app.prolific.com/","en-US,en;q=0.9","60056657125e50465c15533e","686e379bc37a29ffa5cdc956","68777987ed272459e0e03f13","1","1","60056657125e50465c15533e","1","1","2025-07-16T10:19:55.672Z","","","","","","","","","","","StressQ","","50","","","","","","","","","","","","","","","","","","","","","","","","","","","","",""
"2653","","<div style=""width:500px;"">
  <p>What best describes how you currently feel?</p>
  </div>","64","html-slider-response","33","775922","0.0-5.0-4.4","96","1","2025-07-16 10:07:00","1f75c3e559b7213887762d5229550c2b","95.146.241.52","Mozilla/5.0 (Windows NT 10.0; Win64; x64) AppleWebKit/537.36 (KHTML, like Gecko) Chrome/138.0.0.0 Safari/537.36","WebKit","Chrome","138.0.0.0","Windows","10.0","https://app.prolific.com/","en-US,en;q=0.9","60056657125e50465c15533e","686e379bc37a29ffa5cdc956","68777987ed272459e0e03f13","1","1","60056657125e50465c15533e","1","1","2025-07-16T10:19:58.327Z","","","","","","","","","","","MotivationQ","","50","","","","","","","","","","","","","","","","","","","","","","","","","","","","",""
"","","","","ctl-task-cpt","34","831286","0.0-5.0-0.5","96","1","2025-07-16 10:07:00","1f75c3e559b7213887762d5229550c2b","95.146.241.52","Mozilla/5.0 (Windows NT 10.0; Win64; x64) AppleWebKit/537.36 (KHTML, like Gecko) Chrome/138.0.0.0 Safari/537.36","WebKit","Chrome","138.0.0.0","Windows","10.0","https://app.prolific.com/","en-US,en;q=0.9","60056657125e50465c15533e","686e379bc37a29ffa5cdc956","68777987ed272459e0e03f13","1","1","60056657125e50465c15533e","1","1","2025-07-16T10:20:53.690Z","","","","","","","","","","","","","","win-only","1","g1:NE,g2:SW","0.5","6","0","777938.3","977.9","5982.9","52340.7","1","4","4","6","2","-4","-4","27","31","0.20454545454545456","1083.1","3000","-1985","[""down"",""left""]","{""num_key_presses"":11,""num_perfect"":6,""num_errors"":0,""num_randdir"":5,""num_randdir_good_moves"":2,""num_whilered"":0,""num_whileblue"":0,""num_blue"":4,""num_good_moves"":8}","[421.07142857142856,419.1808016640799,0.2,421.07142857142856,419.1808016640799,118,421.07142857142856,419.1808016640799,220.6,421.07142857142856,419.1808016640799,324.8,421.07142857142856,419.1808016640799,431.4,421.07142857142856,419.1808016640799,532.1,269.57142857142856,557.1808016640799,635.2,50.57142857142857,770.1808016640799,735.3,46.07142857142857,773.1808016640799,838.2,46.07142857142857,773.1808016640799,940.1,46.07142857142857,773.1808016640799,1051.8,46.07142857142857,773.1808016640799,1152.3,46.07142857142857,773.1808016640799,1256.9,46.07142857142857,773.1808016640799,1357.9,46.07142857142857,773.1808016640799,1459.8,46.07142857142857,773.1808016640799,1563.6,209.57142857142856,743.1808016640799,1675.1,388.07142857142856,708.6808016640799,1786.3,388.07142857142856,708.6808016640799,1891.8,388.07142857142856,708.6808016640799,1998.2,388.07142857142856,708.6808016640799,2098.3,388.07142857142856,708.6808016640799,2201.7,388.07142857142856,708.6808016640799,2307.3,388.07142857142856,708.6808016640799,2418.9,388.07142857142856,708.6808016640799,2522.7,388.07142857142856,708.6808016640799,2634.7,388.07142857142856,708.6808016640799,2751,388.07142857142856,708.6808016640799,2851.8,388.07142857142856,708.6808016640799,2952.2,388.07142857142856,708.6808016640799,3065.2,388.07142857142856,708.6808016640799,3170.6,388.07142857142856,708.6808016640799,3275,388.07142857142856,708.6808016640799,3383.2,388.07142857142856,708.6808016640799,3488.8,388.07142857142856,708.6808016640799,3599.8,388.07142857142856,708.6808016640799,3700.9,388.07142857142856,708.6808016640799,3801,388.07142857142856,708.6808016640799,3904.5,388.07142857142856,708.6808016640799,4005.6,388.07142857142856,708.6808016640799,4105.7,388.07142857142856,708.6808016640799,4214.5,388.07142857142856,708.6808016640799,4331.6,388.07142857142856,708.6808016640799,4435.8,388.07142857142856,708.6808016640799,4542.8,388.07142857142856,708.6808016640799,4646.2,388.07142857142856,708.6808016640799,4748.7,388.07142857142856,708.6808016640799,4853,388.07142857142856,708.6808016640799,4955.1]","[4901.8,4901.8,2510.8,2008.2,382.8,""smooth"",""down"",""down"",""good_move"",7253.2,2350.7,1913.2,4902.5,437.5,""smooth"",""down"",""down"",""good_move"",12896.1,5642.7,2719.5,9750.6,426.1,""oops"",""down"",""up"",""bad_move"",15761.9,2863.7,2309.6,12898.3,554.1,""oops"",""down"",""down"",""good_move"",18445.9,2683.5,2326.1,15762.4,357.4,""smooth"",""down"",""down"",""good_move"",21748.7,3299.2,2969.6,18449.5,329.6,""oops"",""left"",""up"",""bad_move"",24830,3081,2736.9,21749,344.1,""oops"",""left"",""down"",""good_move"",27359.3,2529,2169.9,24830.3,359.1,""smooth"",""left"",""left"",""good_move"",30047.4,2687.8,2371.9,27359.7,315.9,""smooth"",""left"",""left"",""good_move"",36547.6,6497.9,2371.2,33764.8,411.6,""oops"",""left"",""up"",""bad_move"",39278.3,2730.7,2254.3,36547.7,476.4,""smooth"",""left"",""left"",""good_move""]","",""
"5314","","<div style=""width:500px;"">
  <p>What determined the result of this run?</p>
  </div>","20","html-slider-response","35","836611","0.0-5.0-1.5","96","1","2025-07-16 10:07:00","1f75c3e559b7213887762d5229550c2b","95.146.241.52","Mozilla/5.0 (Windows NT 10.0; Win64; x64) AppleWebKit/537.36 (KHTML, like Gecko) Chrome/138.0.0.0 Safari/537.36","WebKit","Chrome","138.0.0.0","Windows","10.0","https://app.prolific.com/","en-US,en;q=0.9","60056657125e50465c15533e","686e379bc37a29ffa5cdc956","68777987ed272459e0e03f13","1","1","60056657125e50465c15533e","1","1","2025-07-16T10:20:59.016Z","","","","","","","","","","","AttribQ","","50","","","","","","","","","","","","","","","","","","","","","","","","","","","","",""
"3372","","<div style=""width:500px;"">
  <p>How much control did you have over the ball?</p>
  </div>","15","html-slider-response","36","839994","0.0-5.0-2.5","96","1","2025-07-16 10:07:00","1f75c3e559b7213887762d5229550c2b","95.146.241.52","Mozilla/5.0 (Windows NT 10.0; Win64; x64) AppleWebKit/537.36 (KHTML, like Gecko) Chrome/138.0.0.0 Safari/537.36","WebKit","Chrome","138.0.0.0","Windows","10.0","https://app.prolific.com/","en-US,en;q=0.9","60056657125e50465c15533e","686e379bc37a29ffa5cdc956","68777987ed272459e0e03f13","1","1","60056657125e50465c15533e","1","1","2025-07-16T10:21:02.398Z","","","","","","","","","","","ControlQ","","50","","","","","","","","","","","","","","","","","","","","","","","","","","","","",""
"5584","","<div style=""width:500px;"">
  <p>How would you describe your current emotional state?</p>
  </div>","76","html-slider-response","37","845583","0.0-5.0-3.5","96","1","2025-07-16 10:07:00","1f75c3e559b7213887762d5229550c2b","95.146.241.52","Mozilla/5.0 (Windows NT 10.0; Win64; x64) AppleWebKit/537.36 (KHTML, like Gecko) Chrome/138.0.0.0 Safari/537.36","WebKit","Chrome","138.0.0.0","Windows","10.0","https://app.prolific.com/","en-US,en;q=0.9","60056657125e50465c15533e","686e379bc37a29ffa5cdc956","68777987ed272459e0e03f13","1","1","60056657125e50465c15533e","1","1","2025-07-16T10:21:07.987Z","","","","","","","","","","","StressQ","","50","","","","","","","","","","","","","","","","","","","","","","","","","","","","",""
"4364","","<div style=""width:500px;"">
  <p>What best describes how you currently feel?</p>
  </div>","24","html-slider-response","38","849956","0.0-5.0-4.5","96","1","2025-07-16 10:07:00","1f75c3e559b7213887762d5229550c2b","95.146.241.52","Mozilla/5.0 (Windows NT 10.0; Win64; x64) AppleWebKit/537.36 (KHTML, like Gecko) Chrome/138.0.0.0 Safari/537.36","WebKit","Chrome","138.0.0.0","Windows","10.0","https://app.prolific.com/","en-US,en;q=0.9","60056657125e50465c15533e","686e379bc37a29ffa5cdc956","68777987ed272459e0e03f13","1","1","60056657125e50465c15533e","1","1","2025-07-16T10:21:12.361Z","","","","","","","","","","","MotivationQ","","50","","","","","","","","","","","","","","","","","","","","","","","","","","","","",""
"","","","","ctl-task-cpt","39","888916","0.0-5.0-0.6","96","1","2025-07-16 10:07:00","1f75c3e559b7213887762d5229550c2b","95.146.241.52","Mozilla/5.0 (Windows NT 10.0; Win64; x64) AppleWebKit/537.36 (KHTML, like Gecko) Chrome/138.0.0.0 Safari/537.36","WebKit","Chrome","138.0.0.0","Windows","10.0","https://app.prolific.com/","en-US,en;q=0.9","60056657125e50465c15533e","686e379bc37a29ffa5cdc956","68777987ed272459e0e03f13","1","1","60056657125e50465c15533e","1","1","2025-07-16T10:21:51.320Z","","","","","","","","","","","","","","win-only","0","g1:NW,g2:SE","0.4","7","0","851982.5","1856.7","6875.9","35920.6","1","4","4","6","2","4","4","31","27","0.23484848484848486","1241.2","3000","275","[""down"",""right""]","{""num_key_presses"":10,""num_perfect"":4,""num_errors"":0,""num_randdir"":6,""num_randdir_good_moves"":4,""num_whilered"":0,""num_whileblue"":0,""num_blue"":0,""num_good_moves"":8}","[413.57142857142856,419.1808016640799,0.1,413.57142857142856,419.1808016640799,105.7,413.57142857142856,419.1808016640799,209.1,413.57142857142856,419.1808016640799,316.7,413.57142857142856,419.1808016640799,417.6,413.57142857142856,419.1808016640799,518.8,413.57142857142856,419.1808016640799,636.8,641.5714285714286,602.1808016640799,753.7,761.5714285714286,698.1808016640799,855.7,767.5714285714286,716.1808016640799,970.1,776.5714285714286,749.1808016640799,1086.2,776.5714285714286,749.1808016640799,1194.3,776.5714285714286,749.1808016640799,1295.5,776.5714285714286,749.1808016640799,1399.9,776.5714285714286,749.1808016640799,1505.9,776.5714285714286,749.1808016640799,1614.1,776.5714285714286,749.1808016640799,1716,776.5714285714286,749.1808016640799,1819.1,1180.0714285714287,483.6808016640799,1921.6,1222.0714285714287,458.1808016640799,2031.9,1222.0714285714287,458.1808016640799,2142.5,1222.0714285714287,458.1808016640799,2249.4,1222.0714285714287,458.1808016640799,2352,1222.0714285714287,458.1808016640799,2452.9,1222.0714285714287,458.1808016640799,2564.3,1222.0714285714287,458.1808016640799,2671.5,1222.0714285714287,458.1808016640799,2784,1222.0714285714287,458.1808016640799,2888,1222.0714285714287,458.1808016640799,3001.1,1222.0714285714287,458.1808016640799,3103.8,1222.0714285714287,458.1808016640799,3204.4,1222.0714285714287,458.1808016640799,3307.2,1222.0714285714287,458.1808016640799,3414.3,1222.0714285714287,458.1808016640799,3514.3,1222.0714285714287,458.1808016640799,3614.4,1222.0714285714287,458.1808016640799,3716.7,1222.0714285714287,458.1808016640799,3818.1,1222.0714285714287,458.1808016640799,3934.3,1222.0714285714287,458.1808016640799,4038.6,1222.0714285714287,458.1808016640799,4146.8,1222.0714285714287,458.1808016640799,4250.7,1222.0714285714287,458.1808016640799,4363.4,1222.0714285714287,458.1808016640799,4469.1,1222.0714285714287,458.1808016640799,4571,1222.0714285714287,458.1808016640799,4672.4,1222.0714285714287,458.1808016640799,4779.5,1222.0714285714287,458.1808016640799,4885.8,1222.0714285714287,458.1808016640799,4986.9]","[1343.9,1343.9,1000,0,343.9,""smooth"",""down"",""down"",""good_move"",3947.4,2603.2,2203,1344.2,400.2,""smooth"",""down"",""down"",""good_move"",7297.4,3349.5,2913.2,3948,436.2,""oops"",""down"",""up"",""bad_move"",11033.7,3735.7,3379.2,7298,356.5,""oops"",""down"",""right"",""good_move"",14499.4,3465.3,2501.1,11034.1,964.2,""oops"",""down"",""left"",""bad_move"",17914.9,3414.5,3018.2,14500.4,396.3,""smooth"",""down"",""down"",""good_move"",20718.9,2803.6,2253.4,17915.3,550.2,""oops"",""down"",""down"",""good_move"",22967.6,2248.2,1878.6,20719.4,369.6,""oops"",""right"",""right"",""good_move"",25605.9,2638,2277.3,22967.9,360.7,""oops"",""right"",""right"",""good_move"",28919.7,3313.5,2974.3,25606.2,339.2,""smooth"",""right"",""right"",""good_move""]","",""
"7580","","<div style=""width:500px;"">
  <p>What determined the result of this run?</p>
  </div>","63","html-slider-response","40","896497","0.0-5.0-1.6","96","1","2025-07-16 10:07:00","1f75c3e559b7213887762d5229550c2b","95.146.241.52","Mozilla/5.0 (Windows NT 10.0; Win64; x64) AppleWebKit/537.36 (KHTML, like Gecko) Chrome/138.0.0.0 Safari/537.36","WebKit","Chrome","138.0.0.0","Windows","10.0","https://app.prolific.com/","en-US,en;q=0.9","60056657125e50465c15533e","686e379bc37a29ffa5cdc956","68777987ed272459e0e03f13","1","1","60056657125e50465c15533e","1","1","2025-07-16T10:21:58.902Z","","","","","","","","","","","AttribQ","","50","","","","","","","","","","","","","","","","","","","","","","","","","","","","",""
"16837","","<div style=""width:500px;"">
  <p>How much control did you have over the ball?</p>
  </div>","57","html-slider-response","41","913341","0.0-5.0-2.6","96","1","2025-07-16 10:07:00","1f75c3e559b7213887762d5229550c2b","95.146.241.52","Mozilla/5.0 (Windows NT 10.0; Win64; x64) AppleWebKit/537.36 (KHTML, like Gecko) Chrome/138.0.0.0 Safari/537.36","WebKit","Chrome","138.0.0.0","Windows","10.0","https://app.prolific.com/","en-US,en;q=0.9","60056657125e50465c15533e","686e379bc37a29ffa5cdc956","68777987ed272459e0e03f13","1","1","60056657125e50465c15533e","1","1","2025-07-16T10:22:15.746Z","","","","","","","","","","","ControlQ","","50","","","","","","","","","","","","","","","","","","","","","","","","","","","","",""
"11178","","<div style=""width:500px;"">
  <p>How would you describe your current emotional state?</p>
  </div>","63","html-slider-response","42","924533","0.0-5.0-3.6","96","1","2025-07-16 10:07:00","1f75c3e559b7213887762d5229550c2b","95.146.241.52","Mozilla/5.0 (Windows NT 10.0; Win64; x64) AppleWebKit/537.36 (KHTML, like Gecko) Chrome/138.0.0.0 Safari/537.36","WebKit","Chrome","138.0.0.0","Windows","10.0","https://app.prolific.com/","en-US,en;q=0.9","60056657125e50465c15533e","686e379bc37a29ffa5cdc956","68777987ed272459e0e03f13","1","1","60056657125e50465c15533e","1","1","2025-07-16T10:22:26.938Z","","","","","","","","","","","StressQ","","50","","","","","","","","","","","","","","","","","","","","","","","","","","","","",""
"5316","","<div style=""width:500px;"">
  <p>What best describes how you currently feel?</p>
  </div>","34","html-slider-response","43","929852","0.0-5.0-4.6","96","1","2025-07-16 10:07:00","1f75c3e559b7213887762d5229550c2b","95.146.241.52","Mozilla/5.0 (Windows NT 10.0; Win64; x64) AppleWebKit/537.36 (KHTML, like Gecko) Chrome/138.0.0.0 Safari/537.36","WebKit","Chrome","138.0.0.0","Windows","10.0","https://app.prolific.com/","en-US,en;q=0.9","60056657125e50465c15533e","686e379bc37a29ffa5cdc956","68777987ed272459e0e03f13","1","1","60056657125e50465c15533e","1","1","2025-07-16T10:22:32.256Z","","","","","","","","","","","MotivationQ","","50","","","","","","","","","","","","","","","","","","","","","","","","","","","","",""
"","","","","ctl-task-cpt","44","986034","0.0-5.0-0.7","96","1","2025-07-16 10:07:00","1f75c3e559b7213887762d5229550c2b","95.146.241.52","Mozilla/5.0 (Windows NT 10.0; Win64; x64) AppleWebKit/537.36 (KHTML, like Gecko) Chrome/138.0.0.0 Safari/537.36","WebKit","Chrome","138.0.0.0","Windows","10.0","https://app.prolific.com/","en-US,en;q=0.9","60056657125e50465c15533e","686e379bc37a29ffa5cdc956","68777987ed272459e0e03f13","1","1","60056657125e50465c15533e","1","1","2025-07-16T10:23:28.438Z","","","","","","","","","","","","","","win-only","3","g1:SW,g2:NE","0.3","8","0","931865.2","1424.7","6427.6","53162.6","1","4","8","6","2","-8","-8","23","31","0.17424242424242425","1029","3000","-1790","[""up"",""right""]","{""num_key_presses"":14,""num_perfect"":4,""num_errors"":0,""num_randdir"":10,""num_randdir_good_moves"":4,""num_whilered"":0,""num_whileblue"":0,""num_blue"":2,""num_good_moves"":8}","[415.07142857142856,420.6808016640799,0.2,415.07142857142856,420.6808016640799,104,415.07142857142856,420.6808016640799,204,415.07142857142856,420.6808016640799,311,415.07142857142856,420.6808016640799,440.3,434.57142857142856,387.6808016640799,543.6,676.0714285714286,135.68080166407992,646,742.0714285714286,86.18080166407994,757.8,761.5714285714286,66.68080166407994,857.8,761.5714285714286,66.68080166407994,959.7,761.5714285714286,66.68080166407994,1061.4,761.5714285714286,66.68080166407994,1168.2,761.5714285714286,66.68080166407994,1289.1,761.5714285714286,66.68080166407994,1391.1,761.5714285714286,66.68080166407994,1503,1009.0714285714286,126.68080166407994,1619.2,1012.0714285714286,126.68080166407994,1727.3,1012.0714285714286,126.68080166407994,1832.5,1012.0714285714286,126.68080166407994,1945.6,1012.0714285714286,126.68080166407994,2046.4,1012.0714285714286,126.68080166407994,2157.5,1012.0714285714286,126.68080166407994,2266.1,1012.0714285714286,126.68080166407994,2369.6,1012.0714285714286,126.68080166407994,2472.4,1012.0714285714286,126.68080166407994,2573.8,1012.0714285714286,126.68080166407994,2676.9,1012.0714285714286,126.68080166407994,2781,1012.0714285714286,126.68080166407994,2885,1012.0714285714286,126.68080166407994,2999.8,1012.0714285714286,126.68080166407994,3107,1012.0714285714286,126.68080166407994,3207.3,1012.0714285714286,126.68080166407994,3313.3,1012.0714285714286,126.68080166407994,3420.7,1012.0714285714286,126.68080166407994,3522,1012.0714285714286,126.68080166407994,3639.6,1012.0714285714286,126.68080166407994,3748.4,1012.0714285714286,126.68080166407994,3859.8,1012.0714285714286,126.68080166407994,3960.6,1012.0714285714286,126.68080166407994,4067.9,1012.0714285714286,126.68080166407994,4168,1012.0714285714286,126.68080166407994,4271.5,1012.0714285714286,126.68080166407994,4383.6,1012.0714285714286,126.68080166407994,4487.4,1012.0714285714286,126.68080166407994,4601.2,1012.0714285714286,126.68080166407994,4703.8,1012.0714285714286,126.68080166407994,4822,1012.0714285714286,126.68080166407994,4929]","[4341.3,4341.3,1996.1,2015,330.2,""smooth"",""right"",""right"",""good_move"",6377,2035.4,1640,4341.6,395.4,""smooth"",""right"",""right"",""good_move"",13297.9,6920.5,2484.3,10415.8,397.8,""oops"",""right"",""down"",""bad_move"",15711.7,2411,2063.8,13300.7,347.2,""oops"",""right"",""left"",""bad_move"",18547.2,2835,2345.8,15712.2,489.2,""oops"",""right"",""right"",""good_move"",20962.5,2415,2081.9,18547.5,333.1,""smooth"",""right"",""right"",""good_move"",23705.3,2742.6,2427,20962.7,315.6,""oops"",""up"",""down"",""bad_move"",26813.1,3107.6,2726.8,23705.5,380.8,""oops"",""up"",""up"",""good_move"",29839.3,3025.7,2715.1,26813.7,310.6,""oops"",""up"",""up"",""good_move"",32757.5,2917.8,2611.7,29839.8,306,""oops"",""up"",""down"",""bad_move"",35501.1,2743.2,2414.9,32757.9,328.3,""oops"",""up"",""left"",""bad_move"",38059.1,2557.7,2268,35501.5,289.7,""oops"",""up"",""left"",""bad_move"",41203.3,3143.9,2871.5,38059.4,272.4,""oops"",""up"",""right"",""good_move"",44044.4,2838.2,2522.3,41206.3,315.8,""smooth"",""up"",""up"",""good_move""]","",""
"2941","","<div style=""width:500px;"">
  <p>What determined the result of this run?</p>
  </div>","18","html-slider-response","45","988980","0.0-5.0-1.7","96","1","2025-07-16 10:07:00","1f75c3e559b7213887762d5229550c2b","95.146.241.52","Mozilla/5.0 (Windows NT 10.0; Win64; x64) AppleWebKit/537.36 (KHTML, like Gecko) Chrome/138.0.0.0 Safari/537.36","WebKit","Chrome","138.0.0.0","Windows","10.0","https://app.prolific.com/","en-US,en;q=0.9","60056657125e50465c15533e","686e379bc37a29ffa5cdc956","68777987ed272459e0e03f13","1","1","60056657125e50465c15533e","1","1","2025-07-16T10:23:31.385Z","","","","","","","","","","","AttribQ","","50","","","","","","","","","","","","","","","","","","","","","","","","","","","","",""
"6147","","<div style=""width:500px;"">
  <p>How much control did you have over the ball?</p>
  </div>","1","html-slider-response","46","995139","0.0-5.0-2.7","96","1","2025-07-16 10:07:00","1f75c3e559b7213887762d5229550c2b","95.146.241.52","Mozilla/5.0 (Windows NT 10.0; Win64; x64) AppleWebKit/537.36 (KHTML, like Gecko) Chrome/138.0.0.0 Safari/537.36","WebKit","Chrome","138.0.0.0","Windows","10.0","https://app.prolific.com/","en-US,en;q=0.9","60056657125e50465c15533e","686e379bc37a29ffa5cdc956","68777987ed272459e0e03f13","1","1","60056657125e50465c15533e","1","1","2025-07-16T10:23:37.544Z","","","","","","","","","","","ControlQ","","50","","","","","","","","","","","","","","","","","","","","","","","","","","","","",""
"3219","","<div style=""width:500px;"">
  <p>How would you describe your current emotional state?</p>
  </div>","98","html-slider-response","47","998371","0.0-5.0-3.7","96","1","2025-07-16 10:07:00","1f75c3e559b7213887762d5229550c2b","95.146.241.52","Mozilla/5.0 (Windows NT 10.0; Win64; x64) AppleWebKit/537.36 (KHTML, like Gecko) Chrome/138.0.0.0 Safari/537.36","WebKit","Chrome","138.0.0.0","Windows","10.0","https://app.prolific.com/","en-US,en;q=0.9","60056657125e50465c15533e","686e379bc37a29ffa5cdc956","68777987ed272459e0e03f13","1","1","60056657125e50465c15533e","1","1","2025-07-16T10:23:40.776Z","","","","","","","","","","","StressQ","","50","","","","","","","","","","","","","","","","","","","","","","","","","","","","",""
"4257","","<div style=""width:500px;"">
  <p>What best describes how you currently feel?</p>
  </div>","31","html-slider-response","48","1002638","0.0-5.0-4.7","96","1","2025-07-16 10:07:00","1f75c3e559b7213887762d5229550c2b","95.146.241.52","Mozilla/5.0 (Windows NT 10.0; Win64; x64) AppleWebKit/537.36 (KHTML, like Gecko) Chrome/138.0.0.0 Safari/537.36","WebKit","Chrome","138.0.0.0","Windows","10.0","https://app.prolific.com/","en-US,en;q=0.9","60056657125e50465c15533e","686e379bc37a29ffa5cdc956","68777987ed272459e0e03f13","1","1","60056657125e50465c15533e","1","1","2025-07-16T10:23:45.043Z","","","","","","","","","","","MotivationQ","","50","","","","","","","","","","","","","","","","","","","","","","","","","","","","",""
"","","","","ctl-task-cpt","49","1055372","0.0-5.0-0.8","96","1","2025-07-16 10:07:00","1f75c3e559b7213887762d5229550c2b","95.146.241.52","Mozilla/5.0 (Windows NT 10.0; Win64; x64) AppleWebKit/537.36 (KHTML, like Gecko) Chrome/138.0.0.0 Safari/537.36","WebKit","Chrome","138.0.0.0","Windows","10.0","https://app.prolific.com/","en-US,en;q=0.9","60056657125e50465c15533e","686e379bc37a29ffa5cdc956","68777987ed272459e0e03f13","1","1","60056657125e50465c15533e","1","1","2025-07-16T10:24:37.777Z","","","","","","","","","","","","","","win-only","3","g1:SW,g2:NE","0.2","9","0","1004665.8","1134.6","6143.2","49701.4","1","4","8","6","2","-8","-8","15","23","0.11363636363636363","1057.3","3000","-1580","[""up"",""right""]","{""num_key_presses"":15,""num_perfect"":4,""num_errors"":0,""num_randdir"":11,""num_randdir_good_moves"":4,""num_whilered"":0,""num_whileblue"":0,""num_blue"":0,""num_good_moves"":8}","[418.07142857142856,414.6808016640799,0.1,418.07142857142856,414.6808016640799,101.3,418.07142857142856,414.6808016640799,217.8,418.07142857142856,414.6808016640799,321,418.07142857142856,414.6808016640799,439.9,418.07142857142856,414.6808016640799,546.9,610.0714285714286,207.68080166407992,651.2,731.5714285714286,101.18080166407994,753.7,733.0714285714286,99.68080166407994,873.1,733.0714285714286,99.68080166407994,984.1,733.0714285714286,99.68080166407994,1087.2,733.0714285714286,99.68080166407994,1189.7,733.0714285714286,99.68080166407994,1304.9,733.0714285714286,99.68080166407994,1405.9,749.5714285714286,99.68080166407994,1514.9,1021.0714285714286,116.18080166407994,1617.8,1058.5714285714287,114.68080166407994,1720.2,1058.5714285714287,114.68080166407994,1825.8,1058.5714285714287,114.68080166407994,1929.3,1058.5714285714287,114.68080166407994,2056.8,1058.5714285714287,114.68080166407994,2158.9,1058.5714285714287,114.68080166407994,2259.4,1058.5714285714287,114.68080166407994,2367.3,1058.5714285714287,114.68080166407994,2486.4,1058.5714285714287,114.68080166407994,2594.9,1058.5714285714287,114.68080166407994,2699.1,1058.5714285714287,114.68080166407994,2807.7,1058.5714285714287,114.68080166407994,2909.4,1058.5714285714287,114.68080166407994,3024.5,1058.5714285714287,114.68080166407994,3125.1,1058.5714285714287,114.68080166407994,3229.7,1058.5714285714287,114.68080166407994,3339.8,1058.5714285714287,114.68080166407994,3443.3,1058.5714285714287,114.68080166407994,3545.2,1058.5714285714287,114.68080166407994,3647.5,1058.5714285714287,114.68080166407994,3748.3,1058.5714285714287,114.68080166407994,3857.6,1058.5714285714287,114.68080166407994,3979.8,1058.5714285714287,114.68080166407994,4096.3,1058.5714285714287,114.68080166407994,4196.4,1058.5714285714287,114.68080166407994,4296.9,1058.5714285714287,114.68080166407994,4411.1,1058.5714285714287,114.68080166407994,4525.7,1058.5714285714287,114.68080166407994,4628.4,1058.5714285714287,114.68080166407994,4729.6,1058.5714285714287,114.68080166407994,4832.8,1058.5714285714287,114.68080166407994,4937.2]","[1378.3,1378.4,1000,0,378.4,""oops"",""right"",""left"",""bad_move"",4360.9,2981.8,2635.1,1379.2,346.7,""smooth"",""right"",""right"",""good_move"",6934.2,2568.2,2234.4,4366,333.8,""oops"",""right"",""left"",""bad_move"",9790,2855.7,1949.8,6934.3,905.9,""smooth"",""up"",""up"",""good_move"",12252.5,2462.2,2177.6,9790.3,284.6,""oops"",""up"",""up"",""good_move"",15078.5,2825.7,2497.7,12252.8,328,""oops"",""up"",""down"",""bad_move"",17740.8,2661.3,2354.5,15079.5,306.8,""oops"",""up"",""right"",""good_move"",20958.7,3215,2928.5,17743.7,286.5,""oops"",""up"",""down"",""bad_move"",24134.4,3175.4,2872.4,20959,303.1,""oops"",""up"",""right"",""good_move"",27014.5,2879.8,2589,24134.8,290.7,""oops"",""up"",""down"",""bad_move"",29746,2730.6,2343.1,27015.5,387.5,""smooth"",""up"",""up"",""good_move"",32662.9,2915.9,2634.3,29747.1,281.6,""oops"",""right"",""down"",""bad_move"",35815.1,3151.9,2864.6,32663.2,287.3,""smooth"",""right"",""right"",""good_move"",39065.8,3250.3,2880.8,35815.5,369.5,""oops"",""right"",""right"",""good_move"",41408.8,2341.6,1979.3,39067.3,362.2,""oops"",""up"",""down"",""bad_move""]","",""
"4388","","<div style=""width:500px;"">
  <p>What determined the result of this run?</p>
  </div>","5","html-slider-response","50","1059769","0.0-5.0-1.8","96","1","2025-07-16 10:07:00","1f75c3e559b7213887762d5229550c2b","95.146.241.52","Mozilla/5.0 (Windows NT 10.0; Win64; x64) AppleWebKit/537.36 (KHTML, like Gecko) Chrome/138.0.0.0 Safari/537.36","WebKit","Chrome","138.0.0.0","Windows","10.0","https://app.prolific.com/","en-US,en;q=0.9","60056657125e50465c15533e","686e379bc37a29ffa5cdc956","68777987ed272459e0e03f13","1","1","60056657125e50465c15533e","1","1","2025-07-16T10:24:42.174Z","","","","","","","","","","","AttribQ","","50","","","","","","","","","","","","","","","","","","","","","","","","","","","","",""
"4788","","<div style=""width:500px;"">
  <p>How much control did you have over the ball?</p>
  </div>","1","html-slider-response","51","1064569","0.0-5.0-2.8","96","1","2025-07-16 10:07:00","1f75c3e559b7213887762d5229550c2b","95.146.241.52","Mozilla/5.0 (Windows NT 10.0; Win64; x64) AppleWebKit/537.36 (KHTML, like Gecko) Chrome/138.0.0.0 Safari/537.36","WebKit","Chrome","138.0.0.0","Windows","10.0","https://app.prolific.com/","en-US,en;q=0.9","60056657125e50465c15533e","686e379bc37a29ffa5cdc956","68777987ed272459e0e03f13","1","1","60056657125e50465c15533e","1","1","2025-07-16T10:24:46.974Z","","","","","","","","","","","ControlQ","","50","","","","","","","","","","","","","","","","","","","","","","","","","","","","",""
"2678","","<div style=""width:500px;"">
  <p>How would you describe your current emotional state?</p>
  </div>","98","html-slider-response","52","1067262","0.0-5.0-3.8","96","1","2025-07-16 10:07:00","1f75c3e559b7213887762d5229550c2b","95.146.241.52","Mozilla/5.0 (Windows NT 10.0; Win64; x64) AppleWebKit/537.36 (KHTML, like Gecko) Chrome/138.0.0.0 Safari/537.36","WebKit","Chrome","138.0.0.0","Windows","10.0","https://app.prolific.com/","en-US,en;q=0.9","60056657125e50465c15533e","686e379bc37a29ffa5cdc956","68777987ed272459e0e03f13","1","1","60056657125e50465c15533e","1","1","2025-07-16T10:24:49.666Z","","","","","","","","","","","StressQ","","50","","","","","","","","","","","","","","","","","","","","","","","","","","","","",""
"4194","","<div style=""width:500px;"">
  <p>What best describes how you currently feel?</p>
  </div>","25","html-slider-response","53","1071462","0.0-5.0-4.8","96","1","2025-07-16 10:07:00","1f75c3e559b7213887762d5229550c2b","95.146.241.52","Mozilla/5.0 (Windows NT 10.0; Win64; x64) AppleWebKit/537.36 (KHTML, like Gecko) Chrome/138.0.0.0 Safari/537.36","WebKit","Chrome","138.0.0.0","Windows","10.0","https://app.prolific.com/","en-US,en;q=0.9","60056657125e50465c15533e","686e379bc37a29ffa5cdc956","68777987ed272459e0e03f13","1","1","60056657125e50465c15533e","1","1","2025-07-16T10:24:53.868Z","","","","","","","","","","","MotivationQ","","50","","","","","","","","","","","","","","","","","","","","","","","","","","","","",""
"","","","","ctl-task-cpt","54","1117513","0.0-5.0-0.9","96","1","2025-07-16 10:07:00","1f75c3e559b7213887762d5229550c2b","95.146.241.52","Mozilla/5.0 (Windows NT 10.0; Win64; x64) AppleWebKit/537.36 (KHTML, like Gecko) Chrome/138.0.0.0 Safari/537.36","WebKit","Chrome","138.0.0.0","Windows","10.0","https://app.prolific.com/","en-US,en;q=0.9","60056657125e50465c15533e","686e379bc37a29ffa5cdc956","68777987ed272459e0e03f13","1","1","60056657125e50465c15533e","1","1","2025-07-16T10:25:39.917Z","","","","","","","","","","","","","","win-only","1","g1:NE,g2:SW","0.4","10","0","1073492.1","1435.1","6442.4","43024.6","1","4","4","6","2","4","4","19","15","0.14393939393939395","1098.4","3000","1510","[""down"",""left""]","{""num_key_presses"":8,""num_perfect"":3,""num_errors"":0,""num_randdir"":5,""num_randdir_good_moves"":4,""num_whilered"":0,""num_whileblue"":0,""num_blue"":4,""num_good_moves"":7}","[412.07142857142856,413.1808016640799,0.6,412.07142857142856,413.1808016640799,103.1,412.07142857142856,413.1808016640799,204.5,412.07142857142856,413.1808016640799,313.1,412.07142857142856,413.1808016640799,423.6,191.57142857142856,692.1808016640799,540.1,143.57142857142856,773.1808016640799,642,143.57142857142856,773.1808016640799,746.8,104.57142857142857,768.6808016640799,855.6,74.57142857142857,762.6808016640799,956.4,74.57142857142857,762.6808016640799,1059.2,74.57142857142857,762.6808016640799,1167.9,74.57142857142857,762.6808016640799,1281,74.57142857142857,762.6808016640799,1395.9,221.57142857142856,698.1808016640799,1525,734.5714285714286,584.1808016640799,1625.6,739.0714285714286,581.1808016640799,1736.1,739.0714285714286,581.1808016640799,1841.1,739.0714285714286,581.1808016640799,1947.3,739.0714285714286,581.1808016640799,2054.5,739.0714285714286,581.1808016640799,2162.7,739.0714285714286,581.1808016640799,2269.9,739.0714285714286,581.1808016640799,2388.3,739.0714285714286,581.1808016640799,2503.2,739.0714285714286,581.1808016640799,2614.6,739.0714285714286,581.1808016640799,2719.7,739.0714285714286,581.1808016640799,2827.9,739.0714285714286,581.1808016640799,2928.1,739.0714285714286,581.1808016640799,3031,739.0714285714286,581.1808016640799,3149.9,739.0714285714286,581.1808016640799,3258,607.0714285714286,440.1808016640799,3363.2,226.07142857142856,-90.81919833592006,3467.7,226.07142857142856,-90.81919833592006,3610.9,121.07142857142857,-51.81919833592006,3719.5,119.57142857142857,-47.31919833592006,3822.5,119.57142857142857,-47.31919833592006,3928.4,119.57142857142857,-47.31919833592006,4036.6,254.57142857142856,14.180801664079937,4143.7,682.0714285714286,209.18080166407992,4253.2,689.5714285714286,212.18080166407992,4362.8,689.5714285714286,212.18080166407992,4466.8,689.5714285714286,212.18080166407992,4571.6,689.5714285714286,212.18080166407992,4675.1,689.5714285714286,212.18080166407992,4782.4,689.5714285714286,212.18080166407992,4887,689.5714285714286,212.18080166407992,4994]","[4662.3,4662.3,2248.5,2023.5,390.3,""oops"",""down"",""left"",""good_move"",10805.9,6143.3,2425.7,8025.4,354.9,""oops"",""down"",""right"",""bad_move"",14049.6,3239.8,2773.1,10809.9,466.7,""oops"",""down"",""left"",""good_move"",17273.9,3222,2780.3,14051.9,441.7,""smooth"",""down"",""down"",""good_move"",20377.8,3103.5,2767.9,17274.3,335.6,""smooth"",""down"",""down"",""good_move"",23739.7,3358.7,3033.8,20381.1,324.8,""oops"",""down"",""left"",""good_move"",26031,2291.1,2027.5,23739.9,263.6,""smooth"",""down"",""down"",""good_move"",36402.3,10371,2362.8,33641.3,398.2,""oops"",""left"",""left"",""good_move""]","",""
"11354","","<div style=""width:500px;"">
  <p>What determined the result of this run?</p>
  </div>","55","html-slider-response","55","1128867","0.0-5.0-1.9","96","1","2025-07-16 10:07:00","1f75c3e559b7213887762d5229550c2b","95.146.241.52","Mozilla/5.0 (Windows NT 10.0; Win64; x64) AppleWebKit/537.36 (KHTML, like Gecko) Chrome/138.0.0.0 Safari/537.36","WebKit","Chrome","138.0.0.0","Windows","10.0","https://app.prolific.com/","en-US,en;q=0.9","60056657125e50465c15533e","686e379bc37a29ffa5cdc956","68777987ed272459e0e03f13","1","1","60056657125e50465c15533e","1","1","2025-07-16T10:25:51.271Z","","","","","","","","","","","AttribQ","","50","","","","","","","","","","","","","","","","","","","","","","","","","","","","",""
"5759","","<div style=""width:500px;"">
  <p>How much control did you have over the ball?</p>
  </div>","25","html-slider-response","56","1134628","0.0-5.0-2.9","96","1","2025-07-16 10:07:00","1f75c3e559b7213887762d5229550c2b","95.146.241.52","Mozilla/5.0 (Windows NT 10.0; Win64; x64) AppleWebKit/537.36 (KHTML, like Gecko) Chrome/138.0.0.0 Safari/537.36","WebKit","Chrome","138.0.0.0","Windows","10.0","https://app.prolific.com/","en-US,en;q=0.9","60056657125e50465c15533e","686e379bc37a29ffa5cdc956","68777987ed272459e0e03f13","1","1","60056657125e50465c15533e","1","1","2025-07-16T10:25:57.032Z","","","","","","","","","","","ControlQ","","50","","","","","","","","","","","","","","","","","","","","","","","","","","","","",""
"3734","","<div style=""width:500px;"">
  <p>How would you describe your current emotional state?</p>
  </div>","71","html-slider-response","57","1138363","0.0-5.0-3.9","96","1","2025-07-16 10:07:00","1f75c3e559b7213887762d5229550c2b","95.146.241.52","Mozilla/5.0 (Windows NT 10.0; Win64; x64) AppleWebKit/537.36 (KHTML, like Gecko) Chrome/138.0.0.0 Safari/537.36","WebKit","Chrome","138.0.0.0","Windows","10.0","https://app.prolific.com/","en-US,en;q=0.9","60056657125e50465c15533e","686e379bc37a29ffa5cdc956","68777987ed272459e0e03f13","1","1","60056657125e50465c15533e","1","1","2025-07-16T10:26:00.767Z","","","","","","","","","","","StressQ","","50","","","","","","","","","","","","","","","","","","","","","","","","","","","","",""
"2961","","<div style=""width:500px;"">
  <p>What best describes how you currently feel?</p>
  </div>","29","html-slider-response","58","1141325","0.0-5.0-4.9","96","1","2025-07-16 10:07:00","1f75c3e559b7213887762d5229550c2b","95.146.241.52","Mozilla/5.0 (Windows NT 10.0; Win64; x64) AppleWebKit/537.36 (KHTML, like Gecko) Chrome/138.0.0.0 Safari/537.36","WebKit","Chrome","138.0.0.0","Windows","10.0","https://app.prolific.com/","en-US,en;q=0.9","60056657125e50465c15533e","686e379bc37a29ffa5cdc956","68777987ed272459e0e03f13","1","1","60056657125e50465c15533e","1","1","2025-07-16T10:26:03.730Z","","","","","","","","","","","MotivationQ","","50","","","","","","","","","","","","","","","","","","","","","","","","","","","","",""
"","","","","ctl-task-cpt","59","1202863","0.0-5.0-0.10","96","1","2025-07-16 10:07:00","1f75c3e559b7213887762d5229550c2b","95.146.241.52","Mozilla/5.0 (Windows NT 10.0; Win64; x64) AppleWebKit/537.36 (KHTML, like Gecko) Chrome/138.0.0.0 Safari/537.36","WebKit","Chrome","138.0.0.0","Windows","10.0","https://app.prolific.com/","en-US,en;q=0.9","60056657125e50465c15533e","686e379bc37a29ffa5cdc956","68777987ed272459e0e03f13","1","1","60056657125e50465c15533e","1","1","2025-07-16T10:27:05.267Z","","","","","","","","","","","","","","win-only","1","g1:NE,g2:SW","0.5","11","0","1143339.5","2726.4","7734.6","58513.8","1","4","4","6","2","4","3","22","19","0.16666666666666666","1006.7","3000","180","[""down"",""left""]","{""num_key_presses"":15,""num_perfect"":8,""num_errors"":1,""num_randdir"":6,""num_randdir_good_moves"":2,""num_whilered"":0,""num_whileblue"":0,""num_blue"":2,""num_good_moves"":10}","[415.07142857142856,410.1808016640799,0.1,415.07142857142856,410.1808016640799,107.8,415.07142857142856,410.1808016640799,210.1,415.07142857142856,410.1808016640799,322.8,415.07142857142856,410.1808016640799,430.6,415.07142857142856,410.1808016640799,536.7,109.07142857142857,677.1808016640799,645.9,55.07142857142857,722.1808016640799,750.3,44.57142857142857,744.6808016640799,856.5,44.57142857142857,744.6808016640799,964,44.57142857142857,744.6808016640799,1067,44.57142857142857,744.6808016640799,1174.8,44.57142857142857,744.6808016640799,1278.6,44.57142857142857,744.6808016640799,1385,107.57142857142857,710.1808016640799,1492.1,610.0714285714286,491.1808016640799,1599.4,686.5714285714286,474.6808016640799,1710.2,686.5714285714286,474.6808016640799,1816.1,686.5714285714286,474.6808016640799,1921.1,686.5714285714286,474.6808016640799,2031,686.5714285714286,474.6808016640799,2133.4,686.5714285714286,474.6808016640799,2234.1,686.5714285714286,474.6808016640799,2345.5,686.5714285714286,474.6808016640799,2445.7,686.5714285714286,474.6808016640799,2555.2,686.5714285714286,474.6808016640799,2667,686.5714285714286,474.6808016640799,2777.2,686.5714285714286,474.6808016640799,2882.7,686.5714285714286,474.6808016640799,2989.3,686.5714285714286,474.6808016640799,3099.1,686.5714285714286,474.6808016640799,3210.7,686.5714285714286,474.6808016640799,3316.3,686.5714285714286,474.6808016640799,3424.7,686.5714285714286,474.6808016640799,3530.3,686.5714285714286,474.6808016640799,3638.7,686.5714285714286,474.6808016640799,3748.6,686.5714285714286,474.6808016640799,3849.1,686.5714285714286,474.6808016640799,3961.9,686.5714285714286,474.6808016640799,4064.2,686.5714285714286,474.6808016640799,4171.2,686.5714285714286,474.6808016640799,4281,686.5714285714286,474.6808016640799,4394.1,686.5714285714286,474.6808016640799,4494.9,686.5714285714286,474.6808016640799,4603.7,686.5714285714286,474.6808016640799,4705.9,686.5714285714286,474.6808016640799,4806,686.5714285714286,474.6808016640799,4913.8]","[1665.5,1665.5,1000,0,665.5,""smooth"",""down"",""down"",""good_move"",1943.6,277.7,2616.2,1665.9,-2338.5,""error"",""-"",""-"",""no_move"",7672.5,5728.1,2914.3,2952.4,1805.8,""smooth"",""down"",""down"",""good_move"",10123.7,2451.1,1638.9,7672.6,812.2,""oops"",""down"",""up"",""bad_move"",13417.6,3293.6,1757.7,10124,1535.9,""oops"",""down"",""right"",""bad_move"",16663.9,3246.1,2835.2,13417.9,410.9,""smooth"",""down"",""down"",""good_move"",19288.4,2624.1,2262.4,16664.3,361.7,""smooth"",""left"",""left"",""good_move"",22483.4,3194.7,2728.3,19288.7,466.4,""smooth"",""left"",""left"",""good_move"",24988.2,2504.5,1863,22483.7,641.5,""oops"",""left"",""left"",""good_move"",27699.4,2710.7,2380.6,24988.7,330.2,""oops"",""left"",""down"",""good_move"",31131,3431.4,2999.1,27699.6,432.3,""oops"",""left"",""up"",""bad_move"",34450,3318.5,3001.5,31131.5,317,""smooth"",""left"",""left"",""good_move"",37648.8,3198.6,2802.2,34450.2,396.4,""oops"",""down"",""up"",""bad_move"",41124.3,3475.3,3164.3,37649,311,""smooth"",""down"",""down"",""good_move"",50573.8,9448.6,2526.3,47708.9,338.6,""smooth"",""down"",""down"",""good_move""]","",""
"2946","","<div style=""width:500px;"">
  <p>What determined the result of this run?</p>
  </div>","33","html-slider-response","60","1205810","0.0-5.0-1.10","96","1","2025-07-16 10:07:00","1f75c3e559b7213887762d5229550c2b","95.146.241.52","Mozilla/5.0 (Windows NT 10.0; Win64; x64) AppleWebKit/537.36 (KHTML, like Gecko) Chrome/138.0.0.0 Safari/537.36","WebKit","Chrome","138.0.0.0","Windows","10.0","https://app.prolific.com/","en-US,en;q=0.9","60056657125e50465c15533e","686e379bc37a29ffa5cdc956","68777987ed272459e0e03f13","1","1","60056657125e50465c15533e","1","1","2025-07-16T10:27:08.214Z","","","","","","","","","","","AttribQ","","50","","","","","","","","","","","","","","","","","","","","","","","","","","","","",""
"2378","","<div style=""width:500px;"">
  <p>How much control did you have over the ball?</p>
  </div>","26","html-slider-response","61","1208189","0.0-5.0-2.10","96","1","2025-07-16 10:07:00","1f75c3e559b7213887762d5229550c2b","95.146.241.52","Mozilla/5.0 (Windows NT 10.0; Win64; x64) AppleWebKit/537.36 (KHTML, like Gecko) Chrome/138.0.0.0 Safari/537.36","WebKit","Chrome","138.0.0.0","Windows","10.0","https://app.prolific.com/","en-US,en;q=0.9","60056657125e50465c15533e","686e379bc37a29ffa5cdc956","68777987ed272459e0e03f13","1","1","60056657125e50465c15533e","1","1","2025-07-16T10:27:10.593Z","","","","","","","","","","","ControlQ","","50","","","","","","","","","","","","","","","","","","","","","","","","","","","","",""
"2311","","<div style=""width:500px;"">
  <p>How would you describe your current emotional state?</p>
  </div>","76","html-slider-response","62","1210502","0.0-5.0-3.10","96","1","2025-07-16 10:07:00","1f75c3e559b7213887762d5229550c2b","95.146.241.52","Mozilla/5.0 (Windows NT 10.0; Win64; x64) AppleWebKit/537.36 (KHTML, like Gecko) Chrome/138.0.0.0 Safari/537.36","WebKit","Chrome","138.0.0.0","Windows","10.0","https://app.prolific.com/","en-US,en;q=0.9","60056657125e50465c15533e","686e379bc37a29ffa5cdc956","68777987ed272459e0e03f13","1","1","60056657125e50465c15533e","1","1","2025-07-16T10:27:12.906Z","","","","","","","","","","","StressQ","","50","","","","","","","","","","","","","","","","","","","","","","","","","","","","",""
"2592","","<div style=""width:500px;"">
  <p>What best describes how you currently feel?</p>
  </div>","29","html-slider-response","63","1213096","0.0-5.0-4.10","96","1","2025-07-16 10:07:00","1f75c3e559b7213887762d5229550c2b","95.146.241.52","Mozilla/5.0 (Windows NT 10.0; Win64; x64) AppleWebKit/537.36 (KHTML, like Gecko) Chrome/138.0.0.0 Safari/537.36","WebKit","Chrome","138.0.0.0","Windows","10.0","https://app.prolific.com/","en-US,en;q=0.9","60056657125e50465c15533e","686e379bc37a29ffa5cdc956","68777987ed272459e0e03f13","1","1","60056657125e50465c15533e","1","1","2025-07-16T10:27:15.500Z","","","","","","","","","","","MotivationQ","","50","","","","","","","","","","","","","","","","","","","","","","","","","","","","",""
"","","","","ctl-task-cpt","64","1288450","0.0-5.0-0.11","96","1","2025-07-16 10:07:00","1f75c3e559b7213887762d5229550c2b","95.146.241.52","Mozilla/5.0 (Windows NT 10.0; Win64; x64) AppleWebKit/537.36 (KHTML, like Gecko) Chrome/138.0.0.0 Safari/537.36","WebKit","Chrome","138.0.0.0","Windows","10.0","https://app.prolific.com/","en-US,en;q=0.9","60056657125e50465c15533e","686e379bc37a29ffa5cdc956","68777987ed272459e0e03f13","1","1","60056657125e50465c15533e","1","1","2025-07-16T10:28:30.854Z","","","","","","","","","","","","","","win-only","1","g1:NE,g2:SW","0.6","12","0","1215110.8","1835.7","6839.7","72331.2","1","4","8","6","2","8","8","30","22","0.22727272727272727","1073.4","3000","1355","[""down"",""left""]","{""num_key_presses"":14,""num_perfect"":9,""num_errors"":0,""num_randdir"":5,""num_randdir_good_moves"":1,""num_whilered"":0,""num_whileblue"":0,""num_blue"":4,""num_good_moves"":10}","[412.07142857142856,411.6808016640799,0.2,412.07142857142856,411.6808016640799,101.9,412.07142857142856,411.6808016640799,207.6,412.07142857142856,411.6808016640799,319.7,412.07142857142856,411.6808016640799,424.9,412.07142857142856,411.6808016640799,537.1,173.57142857142856,597.6808016640799,651.8,46.07142857142857,704.1808016640799,753.1,35.57142857142857,717.6808016640799,853.7,35.57142857142857,717.6808016640799,961.4,35.57142857142857,717.6808016640799,1070.4,35.57142857142857,717.6808016640799,1172,35.57142857142857,717.6808016640799,1283.8,35.57142857142857,717.6808016640799,1384.6,35.57142857142857,717.6808016640799,1496.2,910.0714285714286,518.1808016640799,1613.5,910.0714285714286,518.1808016640799,1718.9,910.0714285714286,518.1808016640799,1836.3,910.0714285714286,518.1808016640799,1938.3,910.0714285714286,518.1808016640799,2041.8,910.0714285714286,518.1808016640799,2145.5,910.0714285714286,518.1808016640799,2249,910.0714285714286,518.1808016640799,2352,910.0714285714286,518.1808016640799,2456,910.0714285714286,518.1808016640799,2559,910.0714285714286,518.1808016640799,2672.6,910.0714285714286,518.1808016640799,2775.6,910.0714285714286,518.1808016640799,2882.8,910.0714285714286,518.1808016640799,2983,910.0714285714286,518.1808016640799,3087.8,910.0714285714286,518.1808016640799,3192.3,910.0714285714286,518.1808016640799,3307.2,910.0714285714286,518.1808016640799,3428.6,910.0714285714286,518.1808016640799,3549,910.0714285714286,518.1808016640799,3652.1,910.0714285714286,518.1808016640799,3758.3,910.0714285714286,518.1808016640799,3860.6,910.0714285714286,518.1808016640799,3961.7,910.0714285714286,518.1808016640799,4065.7,910.0714285714286,518.1808016640799,4170.8,910.0714285714286,518.1808016640799,4275,910.0714285714286,518.1808016640799,4385.1,910.0714285714286,518.1808016640799,4489.7,910.0714285714286,518.1808016640799,4594.3,910.0714285714286,518.1808016640799,4702.1,910.0714285714286,518.1808016640799,4811.4,910.0714285714286,518.1808016640799,4915.7]","[1485.5,1485.5,1000,0,485.5,""oops"",""down"",""up"",""bad_move"",5705.4,4219.5,2119.6,1485.9,2099.9,""smooth"",""down"",""down"",""good_move"",8037.8,2332.1,1858.9,5705.7,473.2,""smooth"",""down"",""down"",""good_move"",14872.8,6834.9,2363.5,11945.2,564.1,""smooth"",""down"",""down"",""good_move"",22004.9,7131.9,2981.3,18605.2,418.4,""smooth"",""down"",""down"",""good_move"",25621.5,3616.4,3112.2,22005.1,504.2,""smooth"",""left"",""left"",""good_move"",30810.2,5188.4,2230.5,25621.8,2957.9,""oops"",""left"",""right"",""bad_move"",33385.5,2575,1894.5,30810.5,680.5,""oops"",""left"",""right"",""bad_move"",39935.1,6549.3,2285.2,37138.6,511.3,""smooth"",""left"",""left"",""good_move"",47122.2,7186.7,2307.6,39935.5,4879.1,""oops"",""left"",""left"",""good_move"",53626.7,6504.3,2218.4,47122.5,4285.9,""oops"",""left"",""right"",""bad_move"",59597.1,5970.3,2242,56918.6,436.5,""smooth"",""left"",""left"",""good_move"",62766.5,3169.1,2796.4,59597.5,372.6,""smooth"",""left"",""left"",""good_move"",65279.1,2512.4,2129.3,62766.7,383.1,""smooth"",""left"",""left"",""good_move""]","",""
"3363","","<div style=""width:500px;"">
  <p>What determined the result of this run?</p>
  </div>","38","html-slider-response","65","1291815","0.0-5.0-1.11","96","1","2025-07-16 10:07:00","1f75c3e559b7213887762d5229550c2b","95.146.241.52","Mozilla/5.0 (Windows NT 10.0; Win64; x64) AppleWebKit/537.36 (KHTML, like Gecko) Chrome/138.0.0.0 Safari/537.36","WebKit","Chrome","138.0.0.0","Windows","10.0","https://app.prolific.com/","en-US,en;q=0.9","60056657125e50465c15533e","686e379bc37a29ffa5cdc956","68777987ed272459e0e03f13","1","1","60056657125e50465c15533e","1","1","2025-07-16T10:28:34.219Z","","","","","","","","","","","AttribQ","","50","","","","","","","","","","","","","","","","","","","","","","","","","","","","",""
"3316","","<div style=""width:500px;"">
  <p>How much control did you have over the ball?</p>
  </div>","36","html-slider-response","66","1295132","0.0-5.0-2.11","96","1","2025-07-16 10:07:00","1f75c3e559b7213887762d5229550c2b","95.146.241.52","Mozilla/5.0 (Windows NT 10.0; Win64; x64) AppleWebKit/537.36 (KHTML, like Gecko) Chrome/138.0.0.0 Safari/537.36","WebKit","Chrome","138.0.0.0","Windows","10.0","https://app.prolific.com/","en-US,en;q=0.9","60056657125e50465c15533e","686e379bc37a29ffa5cdc956","68777987ed272459e0e03f13","1","1","60056657125e50465c15533e","1","1","2025-07-16T10:28:37.536Z","","","","","","","","","","","ControlQ","","50","","","","","","","","","","","","","","","","","","","","","","","","","","","","",""
"3741","","<div style=""width:500px;"">
  <p>How would you describe your current emotional state?</p>
  </div>","86","html-slider-response","67","1298876","0.0-5.0-3.11","96","1","2025-07-16 10:07:00","1f75c3e559b7213887762d5229550c2b","95.146.241.52","Mozilla/5.0 (Windows NT 10.0; Win64; x64) AppleWebKit/537.36 (KHTML, like Gecko) Chrome/138.0.0.0 Safari/537.36","WebKit","Chrome","138.0.0.0","Windows","10.0","https://app.prolific.com/","en-US,en;q=0.9","60056657125e50465c15533e","686e379bc37a29ffa5cdc956","68777987ed272459e0e03f13","1","1","60056657125e50465c15533e","1","1","2025-07-16T10:28:41.280Z","","","","","","","","","","","StressQ","","50","","","","","","","","","","","","","","","","","","","","","","","","","","","","",""
"3229","","<div style=""width:500px;"">
  <p>What best describes how you currently feel?</p>
  </div>","39","html-slider-response","68","1302108","0.0-5.0-4.11","96","1","2025-07-16 10:07:00","1f75c3e559b7213887762d5229550c2b","95.146.241.52","Mozilla/5.0 (Windows NT 10.0; Win64; x64) AppleWebKit/537.36 (KHTML, like Gecko) Chrome/138.0.0.0 Safari/537.36","WebKit","Chrome","138.0.0.0","Windows","10.0","https://app.prolific.com/","en-US,en;q=0.9","60056657125e50465c15533e","686e379bc37a29ffa5cdc956","68777987ed272459e0e03f13","1","1","60056657125e50465c15533e","1","1","2025-07-16T10:28:44.512Z","","","","","","","","","","","MotivationQ","","50","","","","","","","","","","","","","","","","","","","","","","","","","","","","",""
"","","","","ctl-task-cpt","69","1360848","0.0-5.0-0.12","96","1","2025-07-16 10:07:00","1f75c3e559b7213887762d5229550c2b","95.146.241.52","Mozilla/5.0 (Windows NT 10.0; Win64; x64) AppleWebKit/537.36 (KHTML, like Gecko) Chrome/138.0.0.0 Safari/537.36","WebKit","Chrome","138.0.0.0","Windows","10.0","https://app.prolific.com/","en-US,en;q=0.9","60056657125e50465c15533e","686e379bc37a29ffa5cdc956","68777987ed272459e0e03f13","1","1","60056657125e50465c15533e","1","1","2025-07-16T10:29:43.252Z","","","","","","","","","","","","","","win-only","2","g1:SE,g2:NW","0.7","13","0","1304121.8","1372.7","6376.7","55721.1","1","4","4","6","2","4","4","34","30","0.25757575757575757","1238.3","3000","1925","[""left"",""up""]","{""num_key_presses"":10,""num_perfect"":7,""num_errors"":0,""num_randdir"":3,""num_randdir_good_moves"":1,""num_whilered"":0,""num_whileblue"":0,""num_blue"":4,""num_good_moves"":8}","[416.57142857142856,420.6808016640799,0.2,416.57142857142856,420.6808016640799,107,416.57142857142856,420.6808016640799,215.4,416.57142857142856,420.6808016640799,320.3,416.57142857142856,420.6808016640799,424.8,416.57142857142856,420.6808016640799,536.5,185.57142857142856,191.18080166407992,636.6,163.07142857142856,156.68080166407992,746.3,163.07142857142856,156.68080166407992,847.8,163.07142857142856,156.68080166407992,957.6,131.57142857142856,129.68080166407992,1057.9,131.57142857142856,129.68080166407992,1157.9,131.57142857142856,129.68080166407992,1265.4,131.57142857142856,129.68080166407992,1373.3,131.57142857142856,129.68080166407992,1481.1,131.57142857142856,129.68080166407992,1582.8,257.57142857142856,126.68080166407994,1686.2,593.5714285714286,111.68080166407994,1795.2,601.0714285714286,111.68080166407994,1895.4,601.0714285714286,111.68080166407994,2002.5,601.0714285714286,111.68080166407994,2105,601.0714285714286,111.68080166407994,2205.6,601.0714285714286,111.68080166407994,2312.9,601.0714285714286,111.68080166407994,2423.2,601.0714285714286,111.68080166407994,2523.5,601.0714285714286,111.68080166407994,2628.4,601.0714285714286,111.68080166407994,2728.4,601.0714285714286,111.68080166407994,2837.5,601.0714285714286,111.68080166407994,2946.5,601.0714285714286,111.68080166407994,3046.5,601.0714285714286,111.68080166407994,3156.2,601.0714285714286,111.68080166407994,3266.7,601.0714285714286,111.68080166407994,3367.2,601.0714285714286,111.68080166407994,3467.4,601.0714285714286,111.68080166407994,3569.6,601.0714285714286,111.68080166407994,3679.8,601.0714285714286,111.68080166407994,3780,601.0714285714286,111.68080166407994,3883.4,601.0714285714286,111.68080166407994,3985.8,601.0714285714286,111.68080166407994,4091.1,601.0714285714286,111.68080166407994,4203.9,601.0714285714286,111.68080166407994,4313.1,601.0714285714286,111.68080166407994,4419.2,601.0714285714286,111.68080166407994,4522.2,601.0714285714286,111.68080166407994,4622.5,601.0714285714286,111.68080166407994,4727.6,601.0714285714286,111.68080166407994,4829.2,601.0714285714286,111.68080166407994,4939.6]","[1455.7,1455.7,1000,0,455.7,""smooth"",""left"",""left"",""good_move"",4374.2,2918.1,2350,1456.1,568.1,""oops"",""left"",""left"",""good_move"",14728.9,10354.5,2377.9,11942.3,408.7,""smooth"",""left"",""left"",""good_move"",19198,4468.9,2338.5,14729.1,2130.4,""smooth"",""up"",""up"",""good_move"",23750.2,4551.9,2609.5,19198.4,1942.3,""oops"",""up"",""down"",""bad_move"",27304.5,3553.8,3149,23750.7,404.8,""oops"",""up"",""down"",""bad_move"",32826.2,5521.3,2075,30260.1,491.1,""smooth"",""up"",""up"",""good_move"",37575.6,4749,2171.6,32826.6,2577.4,""smooth"",""up"",""up"",""good_move"",41525.3,3949.4,2245.9,37575.9,1703.5,""smooth"",""up"",""up"",""good_move"",49067.8,7542.1,2466.5,46189.4,411.9,""smooth"",""up"",""up"",""good_move""]","",""
"4588","","<div style=""width:500px;"">
  <p>What determined the result of this run?</p>
  </div>","59","html-slider-response","70","1365438","0.0-5.0-1.12","96","1","2025-07-16 10:07:00","1f75c3e559b7213887762d5229550c2b","95.146.241.52","Mozilla/5.0 (Windows NT 10.0; Win64; x64) AppleWebKit/537.36 (KHTML, like Gecko) Chrome/138.0.0.0 Safari/537.36","WebKit","Chrome","138.0.0.0","Windows","10.0","https://app.prolific.com/","en-US,en;q=0.9","60056657125e50465c15533e","686e379bc37a29ffa5cdc956","68777987ed272459e0e03f13","1","1","60056657125e50465c15533e","1","1","2025-07-16T10:29:47.842Z","","","","","","","","","","","AttribQ","","50","","","","","","","","","","","","","","","","","","","","","","","","","","","","",""
"3032","","<div style=""width:500px;"">
  <p>How much control did you have over the ball?</p>
  </div>","41","html-slider-response","71","1368472","0.0-5.0-2.12","96","1","2025-07-16 10:07:00","1f75c3e559b7213887762d5229550c2b","95.146.241.52","Mozilla/5.0 (Windows NT 10.0; Win64; x64) AppleWebKit/537.36 (KHTML, like Gecko) Chrome/138.0.0.0 Safari/537.36","WebKit","Chrome","138.0.0.0","Windows","10.0","https://app.prolific.com/","en-US,en;q=0.9","60056657125e50465c15533e","686e379bc37a29ffa5cdc956","68777987ed272459e0e03f13","1","1","60056657125e50465c15533e","1","1","2025-07-16T10:29:50.876Z","","","","","","","","","","","ControlQ","","50","","","","","","","","","","","","","","","","","","","","","","","","","","","","",""
"2247","","<div style=""width:500px;"">
  <p>How would you describe your current emotional state?</p>
  </div>","72","html-slider-response","72","1370720","0.0-5.0-3.12","96","1","2025-07-16 10:07:00","1f75c3e559b7213887762d5229550c2b","95.146.241.52","Mozilla/5.0 (Windows NT 10.0; Win64; x64) AppleWebKit/537.36 (KHTML, like Gecko) Chrome/138.0.0.0 Safari/537.36","WebKit","Chrome","138.0.0.0","Windows","10.0","https://app.prolific.com/","en-US,en;q=0.9","60056657125e50465c15533e","686e379bc37a29ffa5cdc956","68777987ed272459e0e03f13","1","1","60056657125e50465c15533e","1","1","2025-07-16T10:29:53.124Z","","","","","","","","","","","StressQ","","50","","","","","","","","","","","","","","","","","","","","","","","","","","","","",""
"2024","","<div style=""width:500px;"">
  <p>What best describes how you currently feel?</p>
  </div>","32","html-slider-response","73","1372746","0.0-5.0-4.12","96","1","2025-07-16 10:07:00","1f75c3e559b7213887762d5229550c2b","95.146.241.52","Mozilla/5.0 (Windows NT 10.0; Win64; x64) AppleWebKit/537.36 (KHTML, like Gecko) Chrome/138.0.0.0 Safari/537.36","WebKit","Chrome","138.0.0.0","Windows","10.0","https://app.prolific.com/","en-US,en;q=0.9","60056657125e50465c15533e","686e379bc37a29ffa5cdc956","68777987ed272459e0e03f13","1","1","60056657125e50465c15533e","1","1","2025-07-16T10:29:55.150Z","","","","","","","","","","","MotivationQ","","50","","","","","","","","","","","","","","","","","","","","","","","","","","","","",""
"","","","","ctl-task-cpt","74","1402470","0.0-5.0-0.13","96","1","2025-07-16 10:07:00","1f75c3e559b7213887762d5229550c2b","95.146.241.52","Mozilla/5.0 (Windows NT 10.0; Win64; x64) AppleWebKit/537.36 (KHTML, like Gecko) Chrome/138.0.0.0 Safari/537.36","WebKit","Chrome","138.0.0.0","Windows","10.0","https://app.prolific.com/","en-US,en;q=0.9","60056657125e50465c15533e","686e379bc37a29ffa5cdc956","68777987ed272459e0e03f13","1","1","60056657125e50465c15533e","1","1","2025-07-16T10:30:24.875Z","","","","","","","","","","","","","","win-only","3","g1:SW,g2:NE","0.8","14","0","1374759.6","1011.7","6015.7","26688.5","1","4","8","6","2","8","7","41","34","0.3106060606060606","879.5","3000","2350","[""up"",""right""]","{""num_key_presses"":6,""num_perfect"":4,""num_errors"":1,""num_randdir"":1,""num_randdir_good_moves"":1,""num_whilered"":0,""num_whileblue"":1,""num_blue"":2,""num_good_moves"":6}","[413.57142857142856,420.6808016640799,0.2,413.57142857142856,420.6808016640799,106.1,413.57142857142856,420.6808016640799,214.9,413.57142857142856,420.6808016640799,330.9,442.07142857142856,387.6808016640799,435.5,698.5714285714286,119.18080166407994,547.6,793.0714285714286,54.68080166407994,652.4,794.5714285714286,53.18080166407994,761.4,794.5714285714286,53.18080166407994,863.6,794.5714285714286,53.18080166407994,972.6,794.5714285714286,53.18080166407994,1078,794.5714285714286,53.18080166407994,1187.1,794.5714285714286,53.18080166407994,1294.5,964.0714285714286,182.18080166407992,1405.1,974.5714285714286,185.18080166407992,1513,974.5714285714286,185.18080166407992,1621.5,974.5714285714286,185.18080166407992,1730.9,974.5714285714286,185.18080166407992,1840.1,974.5714285714286,185.18080166407992,1952.2,974.5714285714286,185.18080166407992,2061.2,974.5714285714286,185.18080166407992,2171.3,974.5714285714286,185.18080166407992,2272.3,974.5714285714286,185.18080166407992,2373.2,974.5714285714286,185.18080166407992,2484.5,974.5714285714286,185.18080166407992,2589.5,974.5714285714286,185.18080166407992,2700,974.5714285714286,185.18080166407992,2804.1,974.5714285714286,185.18080166407992,2909.3,974.5714285714286,185.18080166407992,3013.6,974.5714285714286,185.18080166407992,3120,974.5714285714286,185.18080166407992,3225.9,974.5714285714286,185.18080166407992,3332.1,974.5714285714286,185.18080166407992,3436.5,974.5714285714286,185.18080166407992,3540.6,974.5714285714286,185.18080166407992,3646.2,974.5714285714286,185.18080166407992,3750,974.5714285714286,185.18080166407992,3861.9,974.5714285714286,185.18080166407992,3969.6,974.5714285714286,185.18080166407992,4081.1,974.5714285714286,185.18080166407992,4191.8,974.5714285714286,185.18080166407992,4299.8,974.5714285714286,185.18080166407992,4404.1,974.5714285714286,185.18080166407992,4509.8,974.5714285714286,185.18080166407992,4617.2,974.5714285714286,185.18080166407992,4721.5,974.5714285714286,185.18080166407992,4833,974.5714285714286,185.18080166407992,4937.2]","[4945.3,4945.3,2557.3,2019.1,368.9,""smooth"",""right"",""right"",""good_move"",8003.1,3057.4,2662.9,4945.7,394.5,""smooth"",""right"",""right"",""good_move"",11243.9,3240.3,2848,8003.6,392.3,""smooth"",""right"",""right"",""good_move"",14035.4,2790.5,2457,11244.9,333.5,""smooth"",""up"",""up"",""good_move"",16975.8,2940.1,2626.2,14035.7,313.9,""while_blue"",""up"",""up"",""good_move"",20339.3,3363.3,2154.3,16976.1,1209,""oops"",""up"",""up"",""good_move""]","",""
"2850","","<div style=""width:500px;"">
  <p>What determined the result of this run?</p>
