"rt","response_timestamp","stimulus","response","trial_type","trial_index","time_elapsed","internal_node_id","run_id","condition","recorded_at","source_code_version","ip","user_agent","device","browser","browser_version","platform","platform_version","referer","accept_language","PROLIFIC_PID","STUDY_ID","SESSION_ID","WEEK","BATCH","prolific_id","week","batch","realtime","success","responses","item_order","radio_event_ids","radio_event_times","key_event_times","mouse_event_times","straightlining","zigzagging","honeypot","eventType","view_history","slider_start","which_type","canvas_config","goals_layout","control_level","trial_number","tutorial_trial_number","trial_start_time","phase1_start_time","phase2_start_time","phase3_start_time","goal_1_value","goal_1_distance","goal_2_value","goal_2_distance","goal_selected","outcome","outcome_total","participant_final_score","participant_initial_score","participant_final_score_prop","goal_choice_rt","allocated_time","allocated_time_remaining","goal_direction","counts","mouse_movements","key_presses","question_order","question_id"
"1590","1753866338638","<p style='font-size:40px;line-height:1.25'><strong>Welcome to the experiment!</strong></p><p style='font-size:1.1em;line-height:1.25'>Thank you for participanting in our experiment again! You will be asked to play the Dysfunctional Ball Game again. We will briefly recap the rules before we start.</p><p style='font-size:1.1em;line-height:1.25'>Press <strong>Next</strong> to continue.</p>","0","custom-html-button-response","0","1593","0.0-0.0","279","1","2025-07-30 09:05:36","1f75c3e559b7213887762d5229550c2b","41.114.249.115","Mozilla/5.0 (Windows NT 10.0; Win64; x64) AppleWebKit/537.36 (KHTML, like Gecko) Chrome/138.0.0.0 Safari/537.36","WebKit","Chrome","138.0.0.0","Windows","10.0","https://app.prolific.com/","en-ZA,en-GB;q=0.9,en-US;q=0.8,en;q=0.7","61601e9a6b8306196d2a129c","6877631c9844ddd5501205fc","6889e05846e7b8c56ab6b190","3","1","61601e9a6b8306196d2a129c","3","1","2025-07-30T09:05:38.639Z","","","","","","","","","","","","","","","","","","","","","","","","","","","","","","","","","","","","","","","","","",""
"1514","","","","fullscreen","1","4118","0.0-1.0","279","1","2025-07-30 09:05:36","1f75c3e559b7213887762d5229550c2b","41.114.249.115","Mozilla/5.0 (Windows NT 10.0; Win64; x64) AppleWebKit/537.36 (KHTML, like Gecko) Chrome/138.0.0.0 Safari/537.36","WebKit","Chrome","138.0.0.0","Windows","10.0","https://app.prolific.com/","en-ZA,en-GB;q=0.9,en-US;q=0.8,en;q=0.7","61601e9a6b8306196d2a129c","6877631c9844ddd5501205fc","6889e05846e7b8c56ab6b190","3","1","61601e9a6b8306196d2a129c","3","1","","true","","","","","","","","","","","","","","","","","","","","","","","","","","","","","","","","","","","","","","","","",""
"1333","1753866342498","<p style='font-size:1.1em;line-height:1.25'>In the following, we will ask you a few questions relating to your feelings in the last 24 hours.<br></p><p style='font-size:1.1em;line-height:1.25'>Press the <strong>Next</strong> button to continue.</p>","0","custom-html-button-response","2","5453","0.0-2.0-0.0","279","1","2025-07-30 09:05:36","1f75c3e559b7213887762d5229550c2b","41.114.249.115","Mozilla/5.0 (Windows NT 10.0; Win64; x64) AppleWebKit/537.36 (KHTML, like Gecko) Chrome/138.0.0.0 Safari/537.36","WebKit","Chrome","138.0.0.0","Windows","10.0","https://app.prolific.com/","en-ZA,en-GB;q=0.9,en-US;q=0.8,en;q=0.7","61601e9a6b8306196d2a129c","6877631c9844ddd5501205fc","6889e05846e7b8c56ab6b190","3","1","61601e9a6b8306196d2a129c","3","1","2025-07-30T09:05:42.499Z","","","","","","","","","","","","","","","","","","","","","","","","","","","","","","","","","","","","","","","","","",""
"83564.6","","","","survey-template","3","89022","0.0-2.0-1.0","279","1","2025-07-30 09:05:36","1f75c3e559b7213887762d5229550c2b","41.114.249.115","Mozilla/5.0 (Windows NT 10.0; Win64; x64) AppleWebKit/537.36 (KHTML, like Gecko) Chrome/138.0.0.0 Safari/537.36","WebKit","Chrome","138.0.0.0","Windows","10.0","https://app.prolific.com/","en-ZA,en-GB;q=0.9,en-US;q=0.8,en;q=0.7","61601e9a6b8306196d2a129c","6877631c9844ddd5501205fc","6889e05846e7b8c56ab6b190","3","1","61601e9a6b8306196d2a129c","3","1","2025-07-30T09:07:06.068Z","","{""Q01"":""1"",""Q02"":""3"",""Q03"":""2"",""Q04"":""2"",""Q05"":""1"",""Q06"":""1"",""Q07"":""1"",""Q08"":""1"",""Q09"":""3"",""Q10"":""3"",""Q11"":""3"",""Q12"":""4"",""Q13"":""5"",""Q14"":""4"",""Q15"":""3"",""Q16"":""2"",""Q17"":""2"",""Q18"":""1"",""Q19"":""1"",""Q20"":""1"",""Q21"":""1"",""Q22"":""1""}","[0,1,2,3,4,5,6,7,8,9,10,11,12,13,14,15,16,17,18,19,20,21]","[""Q01"",""Q01"",""Q02"",""Q03"",""Q04"",""Q05"",""Q06"",""Q07"",""Q08"",""Q09"",""Q10"",""Q11"",""Q12"",""Q13"",""Q14"",""Q15"",""Q16"",""Q17"",""Q18"",""Q18"",""Q19"",""Q20"",""Q21"",""Q22""]","[7267.6999999999825,11610.699999999983,13604.799999999988,15763.100000000006,18607.29999999999,23068.199999999983,25536.399999999994,27326.199999999983,29138.79999999999,35933.79999999999,38595.79999999999,42522.5,45207,50266.899999999994,56286.100000000006,59448.49999999997,62820.80000000002,68825.80000000002,69909.9,72270.30000000002,76306.6,77440.69999999998,78406.69999999998,80417.1]","[]","[1.1999999999825377,7267.6999999999825,11610.699999999983,13604.799999999988,15763.100000000006,18607.29999999999,23068.199999999983,25536.399999999994,27326.199999999983,29138.79999999999,35933.79999999999,38595.79999999999,42522.5,45207,50266.899999999994,56286.100000000006,59448.49999999997,62820.80000000002,67285.1,68825.80000000002,69909.9,72270.30000000002,75328.69999999998,76306.6,77440.69999999998,78406.69999999998,80417.1,83559.49999999997]","0.45454545454545453","0.38095238095238093","0","drsp","","","","","","","","","","","","","","","","","","","","","","","","","","","","","","",""
"13751","","","","survey-template","4","102774","0.0-2.0-2.0","279","1","2025-07-30 09:05:36","1f75c3e559b7213887762d5229550c2b","41.114.249.115","Mozilla/5.0 (Windows NT 10.0; Win64; x64) AppleWebKit/537.36 (KHTML, like Gecko) Chrome/138.0.0.0 Safari/537.36","WebKit","Chrome","138.0.0.0","Windows","10.0","https://app.prolific.com/","en-ZA,en-GB;q=0.9,en-US;q=0.8,en;q=0.7","61601e9a6b8306196d2a129c","6877631c9844ddd5501205fc","6889e05846e7b8c56ab6b190","3","1","61601e9a6b8306196d2a129c","3","1","2025-07-30T09:07:19.821Z","","{""Q01"":""1"",""Q02"":""4"",""Q03"":""2""}","[0,1,2]","[""Q01"",""Q02"",""Q03""]","[5008.399999999965,9119,11929.599999999977]","[]","[5008.399999999965,9119,11929.599999999977,13750.099999999977]","0.6666666666666666","0.5","0","stress","","","","","","","","","","","","","","","","","","","","","","","","","","","","","","",""
"23520","","","","instructions","5","126296","0.0-3.0-0.0","279","1","2025-07-30 09:05:36","1f75c3e559b7213887762d5229550c2b","41.114.249.115","Mozilla/5.0 (Windows NT 10.0; Win64; x64) AppleWebKit/537.36 (KHTML, like Gecko) Chrome/138.0.0.0 Safari/537.36","WebKit","Chrome","138.0.0.0","Windows","10.0","https://app.prolific.com/","en-ZA,en-GB;q=0.9,en-US;q=0.8,en;q=0.7","61601e9a6b8306196d2a129c","6877631c9844ddd5501205fc","6889e05846e7b8c56ab6b190","3","1","61601e9a6b8306196d2a129c","3","1","","","","","","","","","","","","","[{""page_index"":0,""viewing_time"":23520}]","","","","","","","","","","","","","","","","","","","","","","","","","","","","","",""
"27680","","<p>Before you start with this game please answer the following three questions yourself. </p>
  <p>Through this game, we measure several aspects of your cognitive performance, such as reaction times, multi-tasking capabilities </p>
  <p>and the ability to assess the situation you are in.</p>
  <p></p>
  <p><b>How good do you usually are in such tasks?</b></p>","50","html-slider-response","6","153977","0.0-4.0-0.0","279","1","2025-07-30 09:05:36","1f75c3e559b7213887762d5229550c2b","41.114.249.115","Mozilla/5.0 (Windows NT 10.0; Win64; x64) AppleWebKit/537.36 (KHTML, like Gecko) Chrome/138.0.0.0 Safari/537.36","WebKit","Chrome","138.0.0.0","Windows","10.0","https://app.prolific.com/","en-ZA,en-GB;q=0.9,en-US;q=0.8,en;q=0.7","61601e9a6b8306196d2a129c","6877631c9844ddd5501205fc","6889e05846e7b8c56ab6b190","3","1","61601e9a6b8306196d2a129c","3","1","2025-07-30T09:08:11.023Z","","","","","","","","","","","PreSkillQ","","50","","","","","","","","","","","","","","","","","","","","","","","","","","","","",""
"5259","","<div style=""width:500px;"">
  <p>How well do you think you will perform in this task compared to other participants?</p>
  </div>","24","html-slider-response","7","159238","0.0-4.0-1.0","279","1","2025-07-30 09:05:36","1f75c3e559b7213887762d5229550c2b","41.114.249.115","Mozilla/5.0 (Windows NT 10.0; Win64; x64) AppleWebKit/537.36 (KHTML, like Gecko) Chrome/138.0.0.0 Safari/537.36","WebKit","Chrome","138.0.0.0","Windows","10.0","https://app.prolific.com/","en-ZA,en-GB;q=0.9,en-US;q=0.8,en;q=0.7","61601e9a6b8306196d2a129c","6877631c9844ddd5501205fc","6889e05846e7b8c56ab6b190","3","1","61601e9a6b8306196d2a129c","3","1","2025-07-30T09:08:16.284Z","","","","","","","","","","","PrePerfQ","","50","","","","","","","","","","","","","","","","","","","","","","","","","","","","",""
"3871","","<div style=""width:500px;"">
  <p>What best describes how you currently feel?</p>
  </div>","50","html-slider-response","8","163110","0.0-4.0-2.0","279","1","2025-07-30 09:05:36","1f75c3e559b7213887762d5229550c2b","41.114.249.115","Mozilla/5.0 (Windows NT 10.0; Win64; x64) AppleWebKit/537.36 (KHTML, like Gecko) Chrome/138.0.0.0 Safari/537.36","WebKit","Chrome","138.0.0.0","Windows","10.0","https://app.prolific.com/","en-ZA,en-GB;q=0.9,en-US;q=0.8,en;q=0.7","61601e9a6b8306196d2a129c","6877631c9844ddd5501205fc","6889e05846e7b8c56ab6b190","3","1","61601e9a6b8306196d2a129c","3","1","2025-07-30T09:08:20.156Z","","","","","","","","","","","PreMotivationQ","","50","","","","","","","","","","","","","","","","","","","","","","","","","","","","",""
"","","","","ctl-task-cpt","9","186825","0.0-5.0-0.0","279","1","2025-07-30 09:05:36","1f75c3e559b7213887762d5229550c2b","41.114.249.115","Mozilla/5.0 (Windows NT 10.0; Win64; x64) AppleWebKit/537.36 (KHTML, like Gecko) Chrome/138.0.0.0 Safari/537.36","WebKit","Chrome","138.0.0.0","Windows","10.0","https://app.prolific.com/","en-ZA,en-GB;q=0.9,en-US;q=0.8,en;q=0.7","61601e9a6b8306196d2a129c","6877631c9844ddd5501205fc","6889e05846e7b8c56ab6b190","3","1","61601e9a6b8306196d2a129c","3","1","2025-07-30T09:08:43.871Z","","","","","","","","","","","","","","win-only","3","g1:SW,g2:NE","1","1","0","165329.1","2059.8","7061.8","20708.8","1","4","4","6","1","1","1","1","0","0.007575757575757576","2647.6","3000","1250","[""down"",""left""]","{""num_key_presses"":4,""num_perfect"":4,""num_errors"":0,""num_randdir"":0,""num_randdir_good_moves"":0,""num_whilered"":0,""num_whileblue"":0,""num_blue"":1,""num_good_moves"":4}","[407.57142857142856,416.1808016640799,0.2,407.57142857142856,417.6808016640799,102.4,407.57142857142856,422.1808016640799,206.3,415.07142857142856,431.1808016640799,306.7,413.57142857142856,431.1808016640799,407.1,413.57142857142856,431.1808016640799,511.9,413.57142857142856,431.1808016640799,612.2,413.57142857142856,431.1808016640799,716.6,413.57142857142856,431.1808016640799,817.8,413.57142857142856,431.1808016640799,922,413.57142857142856,431.1808016640799,1027.1,413.57142857142856,431.1808016640799,1131.6,412.07142857142856,432.6808016640799,1231.9,412.07142857142856,432.6808016640799,1337.5,410.57142857142856,432.6808016640799,1441.9,410.57142857142856,431.1808016640799,1542,406.07142857142856,431.1808016640799,1646.5,406.07142857142856,431.1808016640799,1751.6,404.57142857142856,431.1808016640799,1851.6,404.57142857142856,431.1808016640799,1951.8,389.57142857142856,434.1808016640799,2056.9,157.07142857142856,540.6808016640799,2162.3,74.57142857142857,632.1808016640799,2267.4,28.07142857142857,695.1808016640799,2368.1,17.57142857142857,756.6808016640799,2472.9,29.57142857142857,779.1808016640799,2576.6,28.07142857142857,779.1808016640799,2681.6,28.07142857142857,776.1808016640799,2782.2,28.07142857142857,776.1808016640799,2886.4,146.57142857142856,731.1808016640799,2987,1139.5714285714287,366.6808016640799,3093.5,1358.5714285714287,246.68080166407992,3200.5,1351.0714285714287,249.68080166407992,3302.3,1331.5714285714287,263.1808016640799,3402.3,1301.5714285714287,264.6808016640799,3506.5,1301.5714285714287,264.6808016640799,3607,1301.5714285714287,264.6808016640799,3707.2,1301.5714285714287,264.6808016640799,3812.2,1301.5714285714287,264.6808016640799,3912.3,1301.5714285714287,264.6808016640799,4017.3,1301.5714285714287,264.6808016640799,4117.4,1301.5714285714287,264.6808016640799,4217.4,1301.5714285714287,264.6808016640799,4321.7,1301.5714285714287,264.6808016640799,4427.1,1301.5714285714287,264.6808016640799,4527.3,1300.0714285714287,264.6808016640799,4632.3,1300.0714285714287,264.6808016640799,4735.4,1300.0714285714287,264.6808016640799,4836.8,1300.0714285714287,264.6808016640799,4942.1]","[4592.8,4592.8,2082.1,2009.8,500.9,""smooth"",""down"",""down"",""good_move"",7496.7,2903.5,2458.7,4593.2,444.8,""smooth"",""down"",""down"",""good_move"",10184.6,2687.7,2264.3,7496.9,423.4,""smooth"",""left"",""left"",""good_move"",13552.6,3367.5,2950.6,10185.1,416.9,""smooth"",""left"",""left"",""good_move""]","",""
"6568","","<div style=""width:500px;"">
  <p>What determined the result of this run?</p>
  </div>","100","html-slider-response","10","193394","0.0-5.0-1.0","279","1","2025-07-30 09:05:36","1f75c3e559b7213887762d5229550c2b","41.114.249.115","Mozilla/5.0 (Windows NT 10.0; Win64; x64) AppleWebKit/537.36 (KHTML, like Gecko) Chrome/138.0.0.0 Safari/537.36","WebKit","Chrome","138.0.0.0","Windows","10.0","https://app.prolific.com/","en-ZA,en-GB;q=0.9,en-US;q=0.8,en;q=0.7","61601e9a6b8306196d2a129c","6877631c9844ddd5501205fc","6889e05846e7b8c56ab6b190","3","1","61601e9a6b8306196d2a129c","3","1","2025-07-30T09:08:50.440Z","","","","","","","","","","","AttribQ","","50","","","","","","","","","","","","","","","","","","","","","","","","","","","","",""
"3295","","<div style=""width:500px;"">
  <p>How much control did you have over the ball?</p>
  </div>","100","html-slider-response","11","196690","0.0-5.0-2.0","279","1","2025-07-30 09:05:36","1f75c3e559b7213887762d5229550c2b","41.114.249.115","Mozilla/5.0 (Windows NT 10.0; Win64; x64) AppleWebKit/537.36 (KHTML, like Gecko) Chrome/138.0.0.0 Safari/537.36","WebKit","Chrome","138.0.0.0","Windows","10.0","https://app.prolific.com/","en-ZA,en-GB;q=0.9,en-US;q=0.8,en;q=0.7","61601e9a6b8306196d2a129c","6877631c9844ddd5501205fc","6889e05846e7b8c56ab6b190","3","1","61601e9a6b8306196d2a129c","3","1","2025-07-30T09:08:53.736Z","","","","","","","","","","","ControlQ","","50","","","","","","","","","","","","","","","","","","","","","","","","","","","","",""
"6312","","<div style=""width:500px;"">
  <p>How would you describe your current emotional state?</p>
  </div>","52","html-slider-response","12","203003","0.0-5.0-3.0","279","1","2025-07-30 09:05:36","1f75c3e559b7213887762d5229550c2b","41.114.249.115","Mozilla/5.0 (Windows NT 10.0; Win64; x64) AppleWebKit/537.36 (KHTML, like Gecko) Chrome/138.0.0.0 Safari/537.36","WebKit","Chrome","138.0.0.0","Windows","10.0","https://app.prolific.com/","en-ZA,en-GB;q=0.9,en-US;q=0.8,en;q=0.7","61601e9a6b8306196d2a129c","6877631c9844ddd5501205fc","6889e05846e7b8c56ab6b190","3","1","61601e9a6b8306196d2a129c","3","1","2025-07-30T09:09:00.049Z","","","","","","","","","","","StressQ","","50","","","","","","","","","","","","","","","","","","","","","","","","","","","","",""
"5360","","<div style=""width:500px;"">
  <p>What best describes how you currently feel?</p>
  </div>","52","html-slider-response","13","208364","0.0-5.0-4.0","279","1","2025-07-30 09:05:36","1f75c3e559b7213887762d5229550c2b","41.114.249.115","Mozilla/5.0 (Windows NT 10.0; Win64; x64) AppleWebKit/537.36 (KHTML, like Gecko) Chrome/138.0.0.0 Safari/537.36","WebKit","Chrome","138.0.0.0","Windows","10.0","https://app.prolific.com/","en-ZA,en-GB;q=0.9,en-US;q=0.8,en;q=0.7","61601e9a6b8306196d2a129c","6877631c9844ddd5501205fc","6889e05846e7b8c56ab6b190","3","1","61601e9a6b8306196d2a129c","3","1","2025-07-30T09:09:05.410Z","","","","","","","","","","","MotivationQ","","50","","","","","","","","","","","","","","","","","","","","","","","","","","","","",""
"","","","","ctl-task-cpt","14","243655","0.0-5.0-0.1","279","1","2025-07-30 09:05:36","1f75c3e559b7213887762d5229550c2b","41.114.249.115","Mozilla/5.0 (Windows NT 10.0; Win64; x64) AppleWebKit/537.36 (KHTML, like Gecko) Chrome/138.0.0.0 Safari/537.36","WebKit","Chrome","138.0.0.0","Windows","10.0","https://app.prolific.com/","en-ZA,en-GB;q=0.9,en-US;q=0.8,en;q=0.7","61601e9a6b8306196d2a129c","6877631c9844ddd5501205fc","6889e05846e7b8c56ab6b190","3","1","61601e9a6b8306196d2a129c","3","1","2025-07-30T09:09:40.701Z","","","","","","","","","","","","","","win-only","3","g1:SW,g2:NE","0.9","2","0","210582","1487.8","6500.6","32271.8","1","4","8","6","2","8","8","9","1","0.06818181818181818","2506.5","3000","45","[""up"",""right""]","{""num_key_presses"":8,""num_perfect"":7,""num_errors"":0,""num_randdir"":1,""num_randdir_good_moves"":0,""num_whilered"":0,""num_whileblue"":0,""num_blue"":2,""num_good_moves"":7}","[424.07142857142856,416.1808016640799,0.1,422.57142857142856,416.1808016640799,104,422.57142857142856,416.1808016640799,208.9,422.57142857142856,416.1808016640799,313,422.57142857142856,416.1808016640799,419,422.57142857142856,416.1808016640799,523.9,422.57142857142856,416.1808016640799,628,388.07142857142856,441.6808016640799,729.2,368.57142857142856,497.1808016640799,834.1,313.07142857142856,621.6808016640799,939.1,175.07142857142856,791.1808016640799,1043,-240.42857142857144,960.6808016640799,1143.1,-265.92857142857144,881.1808016640799,1249.1,-120.42857142857143,683.1808016640799,1354,382.07142857142856,165.68080166407992,1459.1,596.5714285714286,-60.81919833592006,1563,847.0714285714286,-90.81919833592006,1668.3,814.0714285714286,-60.81919833592006,1769.1,812.5714285714286,-54.81919833592006,1874.1,806.5714285714286,-35.31919833592006,1979.1,785.5714285714286,-3.8191983359200634,2088,782.5714285714286,17.180801664079937,2188.6,731.5714285714286,110.18080166407994,2293.1,731.5714285714286,110.18080166407994,2393.1,727.0714285714286,107.18080166407994,2493.2,725.5714285714286,107.18080166407994,2594.5,725.5714285714286,105.68080166407994,2702.3,947.5714285714286,119.18080166407994,2803.2,1375.0714285714287,278.1808016640799,2903.2,1349.5714285714287,287.1808016640799,3008.2,1346.5714285714287,287.1808016640799,3108.2,1346.5714285714287,287.1808016640799,3210.2,1346.5714285714287,287.1808016640799,3313.3,1346.5714285714287,285.6808016640799,3419.1,1345.0714285714287,285.6808016640799,3529.2,1343.5714285714287,287.1808016640799,3633.5,1343.5714285714287,287.1808016640799,3736,1343.5714285714287,287.1808016640799,3835.9,1343.5714285714287,287.1808016640799,3937,1343.5714285714287,287.1808016640799,4037.5,1342.0714285714287,287.1808016640799,4138.1,1342.0714285714287,287.1808016640799,4239.1,1340.5714285714287,287.1808016640799,4342.6,1340.5714285714287,287.1808016640799,4442.9,1340.5714285714287,287.1808016640799,4542.9,1340.5714285714287,287.1808016640799,4642.9,1340.5714285714287,287.1808016640799,4742.9,1340.5714285714287,287.1808016640799,4844.1,1340.5714285714287,287.1808016640799,4951.5]","[4941.5,4941.5,2487.7,2005.2,448.6,""smooth"",""up"",""up"",""good_move"",7613.6,2671.7,2241.9,4941.9,429.8,""smooth"",""up"",""up"",""good_move"",10301.4,2687.6,2315.7,7613.8,371.9,""smooth"",""up"",""up"",""good_move"",12565.3,2263.8,1907.9,10301.5,356,""smooth"",""right"",""right"",""good_move"",15301.4,2735.8,2341.2,12565.7,394.6,""smooth"",""right"",""right"",""good_move"",20477.6,5175.9,2134.6,17990.6,352.4,""oops"",""right"",""left"",""bad_move"",23501.4,3023.4,2680.3,20478,343.1,""smooth"",""right"",""right"",""good_move"",25685.4,2183.7,1872.5,23501.7,311.2,""smooth"",""right"",""right"",""good_move""]","",""
"5345","","<div style=""width:500px;"">
  <p>What determined the result of this run?</p>
  </div>","50","html-slider-response","15","249001","0.0-5.0-1.1","279","1","2025-07-30 09:05:36","1f75c3e559b7213887762d5229550c2b","41.114.249.115","Mozilla/5.0 (Windows NT 10.0; Win64; x64) AppleWebKit/537.36 (KHTML, like Gecko) Chrome/138.0.0.0 Safari/537.36","WebKit","Chrome","138.0.0.0","Windows","10.0","https://app.prolific.com/","en-ZA,en-GB;q=0.9,en-US;q=0.8,en;q=0.7","61601e9a6b8306196d2a129c","6877631c9844ddd5501205fc","6889e05846e7b8c56ab6b190","3","1","61601e9a6b8306196d2a129c","3","1","2025-07-30T09:09:46.047Z","","","","","","","","","","","AttribQ","","50","","","","","","","","","","","","","","","","","","","","","","","","","","","","",""
"4688","","<div style=""width:500px;"">
  <p>How much control did you have over the ball?</p>
  </div>","63","html-slider-response","16","253690","0.0-5.0-2.1","279","1","2025-07-30 09:05:36","1f75c3e559b7213887762d5229550c2b","41.114.249.115","Mozilla/5.0 (Windows NT 10.0; Win64; x64) AppleWebKit/537.36 (KHTML, like Gecko) Chrome/138.0.0.0 Safari/537.36","WebKit","Chrome","138.0.0.0","Windows","10.0","https://app.prolific.com/","en-ZA,en-GB;q=0.9,en-US;q=0.8,en;q=0.7","61601e9a6b8306196d2a129c","6877631c9844ddd5501205fc","6889e05846e7b8c56ab6b190","3","1","61601e9a6b8306196d2a129c","3","1","2025-07-30T09:09:50.737Z","","","","","","","","","","","ControlQ","","50","","","","","","","","","","","","","","","","","","","","","","","","","","","","",""
"3839","","<div style=""width:500px;"">
  <p>How would you describe your current emotional state?</p>
  </div>","62","html-slider-response","17","257530","0.0-5.0-3.1","279","1","2025-07-30 09:05:36","1f75c3e559b7213887762d5229550c2b","41.114.249.115","Mozilla/5.0 (Windows NT 10.0; Win64; x64) AppleWebKit/537.36 (KHTML, like Gecko) Chrome/138.0.0.0 Safari/537.36","WebKit","Chrome","138.0.0.0","Windows","10.0","https://app.prolific.com/","en-ZA,en-GB;q=0.9,en-US;q=0.8,en;q=0.7","61601e9a6b8306196d2a129c","6877631c9844ddd5501205fc","6889e05846e7b8c56ab6b190","3","1","61601e9a6b8306196d2a129c","3","1","2025-07-30T09:09:54.577Z","","","","","","","","","","","StressQ","","50","","","","","","","","","","","","","","","","","","","","","","","","","","","","",""
"3899","","<div style=""width:500px;"">
  <p>What best describes how you currently feel?</p>
  </div>","50","html-slider-response","18","261431","0.0-5.0-4.1","279","1","2025-07-30 09:05:36","1f75c3e559b7213887762d5229550c2b","41.114.249.115","Mozilla/5.0 (Windows NT 10.0; Win64; x64) AppleWebKit/537.36 (KHTML, like Gecko) Chrome/138.0.0.0 Safari/537.36","WebKit","Chrome","138.0.0.0","Windows","10.0","https://app.prolific.com/","en-ZA,en-GB;q=0.9,en-US;q=0.8,en;q=0.7","61601e9a6b8306196d2a129c","6877631c9844ddd5501205fc","6889e05846e7b8c56ab6b190","3","1","61601e9a6b8306196d2a129c","3","1","2025-07-30T09:09:58.477Z","","","","","","","","","","","MotivationQ","","50","","","","","","","","","","","","","","","","","","","","","","","","","","","","",""
"","","","","ctl-task-cpt","19","295415","0.0-5.0-0.2","279","1","2025-07-30 09:05:36","1f75c3e559b7213887762d5229550c2b","41.114.249.115","Mozilla/5.0 (Windows NT 10.0; Win64; x64) AppleWebKit/537.36 (KHTML, like Gecko) Chrome/138.0.0.0 Safari/537.36","WebKit","Chrome","138.0.0.0","Windows","10.0","https://app.prolific.com/","en-ZA,en-GB;q=0.9,en-US;q=0.8,en;q=0.7","61601e9a6b8306196d2a129c","6877631c9844ddd5501205fc","6889e05846e7b8c56ab6b190","3","1","61601e9a6b8306196d2a129c","3","1","2025-07-30T09:10:32.462Z","","","","","","","","","","","","","","win-only","2","g1:SE,g2:NW","0.8","3","0","263649.5","1396.9","6405","30971.9","1","4","8","6","1","1","1","10","9","0.07575757575757576","1212.5","3000","560","[""down"",""right""]","{""num_key_presses"":6,""num_perfect"":4,""num_errors"":0,""num_randdir"":2,""num_randdir_good_moves"":1,""num_whilered"":0,""num_whileblue"":0,""num_blue"":2,""num_good_moves"":5}","[424.07142857142856,416.1808016640799,0.1,422.57142857142856,416.1808016640799,109.4,422.57142857142856,416.1808016640799,214.6,422.57142857142856,416.1808016640799,314.6,422.57142857142856,416.1808016640799,414.9,422.57142857142856,416.1808016640799,519,422.57142857142856,416.1808016640799,625.1,505.07142857142856,504.6808016640799,725.3,584.5714285714286,627.6808016640799,825.7,727.0714285714286,764.1808016640799,930.2,784.0714285714286,777.6808016640799,1042.1,794.5714285714286,765.6808016640799,1142.4,790.0714285714286,765.6808016640799,1243.2,790.0714285714286,764.1808016640799,1345.1,790.0714285714286,761.1808016640799,1450,1309.0714285714287,555.6808016640799,1550.1,1370.5714285714287,506.1808016640799,1658.8,1301.5714285714287,516.6808016640799,1764.6,1295.5714285714287,515.1808016640799,1868.9,1295.5714285714287,515.1808016640799,1969,1295.5714285714287,515.1808016640799,2069,1295.5714285714287,515.1808016640799,2174.8,1295.5714285714287,515.1808016640799,2274.8,1295.5714285714287,515.1808016640799,2380,1295.5714285714287,516.6808016640799,2484.5,1295.5714285714287,516.6808016640799,2591.2,1295.5714285714287,516.6808016640799,2694.3,1294.0714285714287,516.6808016640799,2794.6,1292.5714285714287,516.6808016640799,2899.2,1292.5714285714287,516.6808016640799,3007.8,1292.5714285714287,516.6808016640799,3110.2,1292.5714285714287,516.6808016640799,3215.2,1292.5714285714287,516.6808016640799,3318.9,1292.5714285714287,516.6808016640799,3419,1292.5714285714287,516.6808016640799,3524.1,1292.5714285714287,516.6808016640799,3624.2,1292.5714285714287,516.6808016640799,3725.2,1292.5714285714287,516.6808016640799,3829.8,1292.5714285714287,516.6808016640799,3941,1292.5714285714287,516.6808016640799,4044.8,1292.5714285714287,516.6808016640799,4144.9,1292.5714285714287,516.6808016640799,4248.8,1292.5714285714287,516.6808016640799,4349.3,1292.5714285714287,516.6808016640799,4457.8,1292.5714285714287,516.6808016640799,4557.8,1292.5714285714287,516.6808016640799,4658.5,1292.5714285714287,516.6808016640799,4765.3,1292.5714285714287,516.6808016640799,4868.8,1292.5714285714287,516.6808016640799,4973.9]","[9586.1,9586.1,3541.3,5602,442.8,""oops"",""right"",""down"",""good_move"",12673.9,3087.4,2675.9,9586.5,411.5,""smooth"",""right"",""right"",""good_move"",15449.9,2775.7,2321.6,12674.2,454.1,""smooth"",""right"",""right"",""good_move"",18233.9,2783.8,2382.6,15450.1,401.3,""oops"",""down"",""left"",""bad_move"",21442.2,3208,2832.2,18234.3,375.8,""smooth"",""down"",""down"",""good_move"",24482.1,3039.6,2649.4,21442.5,390.2,""smooth"",""right"",""right"",""good_move""]","",""
"5659","","<div style=""width:500px;"">
  <p>What determined the result of this run?</p>
  </div>","32","html-slider-response","20","301076","0.0-5.0-1.2","279","1","2025-07-30 09:05:36","1f75c3e559b7213887762d5229550c2b","41.114.249.115","Mozilla/5.0 (Windows NT 10.0; Win64; x64) AppleWebKit/537.36 (KHTML, like Gecko) Chrome/138.0.0.0 Safari/537.36","WebKit","Chrome","138.0.0.0","Windows","10.0","https://app.prolific.com/","en-ZA,en-GB;q=0.9,en-US;q=0.8,en;q=0.7","61601e9a6b8306196d2a129c","6877631c9844ddd5501205fc","6889e05846e7b8c56ab6b190","3","1","61601e9a6b8306196d2a129c","3","1","2025-07-30T09:10:38.122Z","","","","","","","","","","","AttribQ","","50","","","","","","","","","","","","","","","","","","","","","","","","","","","","",""
"4499","","<div style=""width:500px;"">
  <p>How much control did you have over the ball?</p>
  </div>","50","html-slider-response","21","305576","0.0-5.0-2.2","279","1","2025-07-30 09:05:36","1f75c3e559b7213887762d5229550c2b","41.114.249.115","Mozilla/5.0 (Windows NT 10.0; Win64; x64) AppleWebKit/537.36 (KHTML, like Gecko) Chrome/138.0.0.0 Safari/537.36","WebKit","Chrome","138.0.0.0","Windows","10.0","https://app.prolific.com/","en-ZA,en-GB;q=0.9,en-US;q=0.8,en;q=0.7","61601e9a6b8306196d2a129c","6877631c9844ddd5501205fc","6889e05846e7b8c56ab6b190","3","1","61601e9a6b8306196d2a129c","3","1","2025-07-30T09:10:42.622Z","","","","","","","","","","","ControlQ","","50","","","","","","","","","","","","","","","","","","","","","","","","","","","","",""
"3503","","<div style=""width:500px;"">
  <p>How would you describe your current emotional state?</p>
  </div>","56","html-slider-response","22","309081","0.0-5.0-3.2","279","1","2025-07-30 09:05:36","1f75c3e559b7213887762d5229550c2b","41.114.249.115","Mozilla/5.0 (Windows NT 10.0; Win64; x64) AppleWebKit/537.36 (KHTML, like Gecko) Chrome/138.0.0.0 Safari/537.36","WebKit","Chrome","138.0.0.0","Windows","10.0","https://app.prolific.com/","en-ZA,en-GB;q=0.9,en-US;q=0.8,en;q=0.7","61601e9a6b8306196d2a129c","6877631c9844ddd5501205fc","6889e05846e7b8c56ab6b190","3","1","61601e9a6b8306196d2a129c","3","1","2025-07-30T09:10:46.127Z","","","","","","","","","","","StressQ","","50","","","","","","","","","","","","","","","","","","","","","","","","","","","","",""
"12030","","<div style=""width:500px;"">
  <p>What best describes how you currently feel?</p>
  </div>","50","html-slider-response","23","321112","0.0-5.0-4.2","279","1","2025-07-30 09:05:36","1f75c3e559b7213887762d5229550c2b","41.114.249.115","Mozilla/5.0 (Windows NT 10.0; Win64; x64) AppleWebKit/537.36 (KHTML, like Gecko) Chrome/138.0.0.0 Safari/537.36","WebKit","Chrome","138.0.0.0","Windows","10.0","https://app.prolific.com/","en-ZA,en-GB;q=0.9,en-US;q=0.8,en;q=0.7","61601e9a6b8306196d2a129c","6877631c9844ddd5501205fc","6889e05846e7b8c56ab6b190","3","1","61601e9a6b8306196d2a129c","3","1","2025-07-30T09:10:58.158Z","","","","","","","","","","","MotivationQ","","50","","","","","","","","","","","","","","","","","","","","","","","","","","","","",""
"","","","","ctl-task-cpt","24","353752","0.0-5.0-0.3","279","1","2025-07-30 09:05:36","1f75c3e559b7213887762d5229550c2b","41.114.249.115","Mozilla/5.0 (Windows NT 10.0; Win64; x64) AppleWebKit/537.36 (KHTML, like Gecko) Chrome/138.0.0.0 Safari/537.36","WebKit","Chrome","138.0.0.0","Windows","10.0","https://app.prolific.com/","en-ZA,en-GB;q=0.9,en-US;q=0.8,en;q=0.7","61601e9a6b8306196d2a129c","6877631c9844ddd5501205fc","6889e05846e7b8c56ab6b190","3","1","61601e9a6b8306196d2a129c","3","1","2025-07-30T09:11:30.798Z","","","","","","","","","","","","","","win-only","1","g1:NE,g2:SW","0.7","4","0","323331.5","1790.3","6792","29619.6","1","4","4","6","2","4","4","14","10","0.10606060606060606","2097.8","3000","1010","[""down"",""left""]","{""num_key_presses"":6,""num_perfect"":5,""num_errors"":0,""num_randdir"":1,""num_randdir_good_moves"":1,""num_whilered"":0,""num_whileblue"":0,""num_blue"":2,""num_good_moves"":6}","[412.07142857142856,426.6808016640799,0.2,412.07142857142856,425.1808016640799,101.1,412.07142857142856,425.1808016640799,201.7,415.07142857142856,420.6808016640799,305.8,554.5714285714286,242.18080166407992,414.7,526.0714285714286,272.1808016640799,515.2,431.57142857142856,335.1808016640799,615.7,373.07142857142856,419.1808016640799,720.1,-36.42857142857143,878.1808016640799,821,-414.42857142857144,960.6808016640799,921.6,-405.42857142857144,929.1808016640799,1025.2,-312.42857142857144,794.1808016640799,1125.3,-303.42857142857144,791.1808016640799,1226.9,-264.42857142857144,779.1808016640799,1331.8,-225.42857142857144,785.1808016640799,1435.1,-207.42857142857144,786.6808016640799,1535.1,-144.42857142857144,768.6808016640799,1636.7,22.07142857142857,716.1808016640799,1736.7,77.57142857142857,701.1808016640799,1849.6,77.57142857142857,704.1808016640799,1951.6,68.57142857142857,714.6808016640799,2056.6,68.57142857142857,714.6808016640799,2165.5,68.57142857142857,714.6808016640799,2265.6,68.57142857142857,714.6808016640799,2365.7,67.07142857142857,713.1808016640799,2466.1,22.07142857142857,684.6808016640799,2571.3,14.57142857142857,668.1808016640799,2674.9,-123.42857142857143,633.6808016640799,2775.1,-441.42857142857144,629.1808016640799,2880.9,-543.4285714285714,629.1808016640799,2985.1,-537.4285714285714,632.1808016640799,3086.7,-540.4285714285714,630.6808016640799,3197.5,-540.4285714285714,630.6808016640799,3301.7,-540.4285714285714,630.6808016640799,3406.5,-541.9285714285714,630.6808016640799,3514.3,-543.4285714285714,632.1808016640799,3614.7,-543.4285714285714,632.1808016640799,3714.7,-543.4285714285714,632.1808016640799,3816.4,-543.4285714285714,632.1808016640799,3916.8,-543.4285714285714,632.1808016640799,4016.8,-543.4285714285714,632.1808016640799,4120.9,-543.4285714285714,632.1808016640799,4221.5,-543.4285714285714,632.1808016640799,4326.7,-543.4285714285714,632.1808016640799,4431.4,-543.4285714285714,632.1808016640799,4531.6,-543.4285714285714,632.1808016640799,4635.6,-543.4285714285714,632.1808016640799,4736.4,-543.4285714285714,632.1808016640799,4848.1,-543.4285714285714,632.1808016640799,4952.1]","[1434.1,1434.1,1000,0,434.1,""oops"",""left"",""down"",""good_move"",4062.4,2627.8,2228.7,1434.6,399.1,""smooth"",""left"",""left"",""good_move"",6285.3,2222.5,1804,4062.8,418.5,""smooth"",""left"",""left"",""good_move"",9469.4,3183.8,2802.7,6285.6,381.1,""smooth"",""left"",""left"",""good_move"",16090.5,6620.9,2920.1,12799.2,371.2,""smooth"",""down"",""down"",""good_move"",22725.6,6635,2160.7,20199.6,365.3,""smooth"",""down"",""down"",""good_move""]","",""
"5367","","<div style=""width:500px;"">
  <p>What determined the result of this run?</p>
  </div>","42","html-slider-response","25","359119","0.0-5.0-1.3","279","1","2025-07-30 09:05:36","1f75c3e559b7213887762d5229550c2b","41.114.249.115","Mozilla/5.0 (Windows NT 10.0; Win64; x64) AppleWebKit/537.36 (KHTML, like Gecko) Chrome/138.0.0.0 Safari/537.36","WebKit","Chrome","138.0.0.0","Windows","10.0","https://app.prolific.com/","en-ZA,en-GB;q=0.9,en-US;q=0.8,en;q=0.7","61601e9a6b8306196d2a129c","6877631c9844ddd5501205fc","6889e05846e7b8c56ab6b190","3","1","61601e9a6b8306196d2a129c","3","1","2025-07-30T09:11:36.166Z","","","","","","","","","","","AttribQ","","50","","","","","","","","","","","","","","","","","","","","","","","","","","","","",""
"4347","","<div style=""width:500px;"">
  <p>How much control did you have over the ball?</p>
  </div>","73","html-slider-response","26","363468","0.0-5.0-2.3","279","1","2025-07-30 09:05:36","1f75c3e559b7213887762d5229550c2b","41.114.249.115","Mozilla/5.0 (Windows NT 10.0; Win64; x64) AppleWebKit/537.36 (KHTML, like Gecko) Chrome/138.0.0.0 Safari/537.36","WebKit","Chrome","138.0.0.0","Windows","10.0","https://app.prolific.com/","en-ZA,en-GB;q=0.9,en-US;q=0.8,en;q=0.7","61601e9a6b8306196d2a129c","6877631c9844ddd5501205fc","6889e05846e7b8c56ab6b190","3","1","61601e9a6b8306196d2a129c","3","1","2025-07-30T09:11:40.514Z","","","","","","","","","","","ControlQ","","50","","","","","","","","","","","","","","","","","","","","","","","","","","","","",""
"3824","","<div style=""width:500px;"">
  <p>How would you describe your current emotional state?</p>
  </div>","53","html-slider-response","27","367292","0.0-5.0-3.3","279","1","2025-07-30 09:05:36","1f75c3e559b7213887762d5229550c2b","41.114.249.115","Mozilla/5.0 (Windows NT 10.0; Win64; x64) AppleWebKit/537.36 (KHTML, like Gecko) Chrome/138.0.0.0 Safari/537.36","WebKit","Chrome","138.0.0.0","Windows","10.0","https://app.prolific.com/","en-ZA,en-GB;q=0.9,en-US;q=0.8,en;q=0.7","61601e9a6b8306196d2a129c","6877631c9844ddd5501205fc","6889e05846e7b8c56ab6b190","3","1","61601e9a6b8306196d2a129c","3","1","2025-07-30T09:11:44.339Z","","","","","","","","","","","StressQ","","50","","","","","","","","","","","","","","","","","","","","","","","","","","","","",""
"2875","","<div style=""width:500px;"">
  <p>What best describes how you currently feel?</p>
  </div>","50","html-slider-response","28","370169","0.0-5.0-4.3","279","1","2025-07-30 09:05:36","1f75c3e559b7213887762d5229550c2b","41.114.249.115","Mozilla/5.0 (Windows NT 10.0; Win64; x64) AppleWebKit/537.36 (KHTML, like Gecko) Chrome/138.0.0.0 Safari/537.36","WebKit","Chrome","138.0.0.0","Windows","10.0","https://app.prolific.com/","en-ZA,en-GB;q=0.9,en-US;q=0.8,en;q=0.7","61601e9a6b8306196d2a129c","6877631c9844ddd5501205fc","6889e05846e7b8c56ab6b190","3","1","61601e9a6b8306196d2a129c","3","1","2025-07-30T09:11:47.215Z","","","","","","","","","","","MotivationQ","","50","","","","","","","","","","","","","","","","","","","","","","","","","","","","",""
"","","","","ctl-task-cpt","29","452860","0.0-5.0-0.4","279","1","2025-07-30 09:05:36","1f75c3e559b7213887762d5229550c2b","41.114.249.115","Mozilla/5.0 (Windows NT 10.0; Win64; x64) AppleWebKit/537.36 (KHTML, like Gecko) Chrome/138.0.0.0 Safari/537.36","WebKit","Chrome","138.0.0.0","Windows","10.0","https://app.prolific.com/","en-ZA,en-GB;q=0.9,en-US;q=0.8,en;q=0.7","61601e9a6b8306196d2a129c","6877631c9844ddd5501205fc","6889e05846e7b8c56ab6b190","3","1","61601e9a6b8306196d2a129c","3","1","2025-07-30T09:13:09.906Z","","","","","","","","","","","","","","win-only","3","g1:SW,g2:NE","0.6","5","0","372387.2","49610.9","54611.9","79671.2","1","4","8","6","1","1","1","15","14","0.11363636363636363","1564.1","3000","125","[""down"",""left""]","{""num_key_presses"":8,""num_perfect"":5,""num_errors"":0,""num_randdir"":3,""num_randdir_good_moves"":1,""num_whilered"":0,""num_whileblue"":0,""num_blue"":1,""num_good_moves"":6}","[425.57142857142856,414.6808016640799,0.3,424.07142857142856,414.6808016640799,100.6,424.07142857142856,414.6808016640799,205.5,424.07142857142856,414.6808016640799,305.8,424.07142857142856,414.6808016640799,410.5,424.07142857142856,414.6808016640799,511,347.57142857142856,509.1808016640799,616,335.57142857142856,530.1808016640799,720.6,299.57142857142856,566.1808016640799,824.7,71.57142857142857,798.6808016640799,925.7,-97.92857142857143,960.6808016640799,1030,-108.42857142857143,948.6808016640799,1131.8,-3.4285714285714306,815.1808016640799,1234.9,29.57142857142857,782.1808016640799,1336,49.07142857142857,767.1808016640799,1441.2,47.57142857142857,770.1808016640799,1546.9,47.57142857142857,770.1808016640799,1650.9,47.57142857142857,770.1808016640799,1756.1,356.57142857142856,650.1808016640799,1859.8,1286.5714285714287,368.1808016640799,1960.7,1292.5714285714287,365.1808016640799,2061.3,1213.0714285714287,380.1808016640799,2164.5,1211.5714285714287,383.1808016640799,2265.2,1211.5714285714287,383.1808016640799,2365.9,1211.5714285714287,383.1808016640799,2466.1,1211.5714285714287,383.1808016640799,2570.9,1211.5714285714287,384.6808016640799,2675.8,1210.0714285714287,389.1808016640799,2780.1,1210.0714285714287,389.1808016640799,2880.9,1208.5714285714287,389.1808016640799,2986.2,1208.5714285714287,389.1808016640799,3090.7,1208.5714285714287,389.1808016640799,3197.3,1207.0714285714287,389.1808016640799,3300.9,1205.5714285714287,389.1808016640799,3405.4,1205.5714285714287,389.1808016640799,3505.9,1205.5714285714287,389.1808016640799,3610.4,1205.5714285714287,389.1808016640799,3710.4,1205.5714285714287,389.1808016640799,3810.5,1205.5714285714287,389.1808016640799,3911.2,1205.5714285714287,389.1808016640799,4016,1205.5714285714287,389.1808016640799,4121.2,1205.5714285714287,389.1808016640799,4224.9,1205.5714285714287,389.1808016640799,4330.1,1205.5714285714287,389.1808016640799,4431,1205.5714285714287,389.1808016640799,4534.9,1205.5714285714287,389.1808016640799,4634.9,1205.5714285714287,389.1808016640799,4736.2,1205.5714285714287,389.1808016640799,4840.9,1205.5714285714287,389.1808016640799,4944.5]","[1395.1,1395.1,1000,0,395.1,""oops"",""left"",""up"",""bad_move"",4554.9,3159.3,2778.1,1395.6,381.2,""smooth"",""down"",""down"",""good_move"",6995,2439.8,2067.9,4555.3,371.9,""oops"",""down"",""right"",""bad_move"",10294.9,3299.6,2920.8,6995.3,378.8,""oops"",""down"",""left"",""good_move"",15754.8,5459.6,2639.7,12695.5,419.6,""smooth"",""down"",""down"",""good_move"",18795.1,3039.9,2653.8,15755.2,386.1,""smooth"",""down"",""down"",""good_move"",22002.7,3207.4,2901.5,18795.3,305.9,""smooth"",""left"",""left"",""good_move"",24962.8,2959.7,2668.7,22003.1,291,""smooth"",""left"",""left"",""good_move""]","",""
"4751","","<div style=""width:500px;"">
  <p>What determined the result of this run?</p>
  </div>","5","html-slider-response","30","457612","0.0-5.0-1.4","279","1","2025-07-30 09:05:36","1f75c3e559b7213887762d5229550c2b","41.114.249.115","Mozilla/5.0 (Windows NT 10.0; Win64; x64) AppleWebKit/537.36 (KHTML, like Gecko) Chrome/138.0.0.0 Safari/537.36","WebKit","Chrome","138.0.0.0","Windows","10.0","https://app.prolific.com/","en-ZA,en-GB;q=0.9,en-US;q=0.8,en;q=0.7","61601e9a6b8306196d2a129c","6877631c9844ddd5501205fc","6889e05846e7b8c56ab6b190","3","1","61601e9a6b8306196d2a129c","3","1","2025-07-30T09:13:14.658Z","","","","","","","","","","","AttribQ","","50","","","","","","","","","","","","","","","","","","","","","","","","","","","","",""
"4581","","<div style=""width:500px;"">
  <p>How much control did you have over the ball?</p>
  </div>","5","html-slider-response","31","462194","0.0-5.0-2.4","279","1","2025-07-30 09:05:36","1f75c3e559b7213887762d5229550c2b","41.114.249.115","Mozilla/5.0 (Windows NT 10.0; Win64; x64) AppleWebKit/537.36 (KHTML, like Gecko) Chrome/138.0.0.0 Safari/537.36","WebKit","Chrome","138.0.0.0","Windows","10.0","https://app.prolific.com/","en-ZA,en-GB;q=0.9,en-US;q=0.8,en;q=0.7","61601e9a6b8306196d2a129c","6877631c9844ddd5501205fc","6889e05846e7b8c56ab6b190","3","1","61601e9a6b8306196d2a129c","3","1","2025-07-30T09:13:19.240Z","","","","","","","","","","","ControlQ","","50","","","","","","","","","","","","","","","","","","","","","","","","","","","","",""
"3404","","<div style=""width:500px;"">
  <p>How would you describe your current emotional state?</p>
  </div>","55","html-slider-response","32","465599","0.0-5.0-3.4","279","1","2025-07-30 09:05:36","1f75c3e559b7213887762d5229550c2b","41.114.249.115","Mozilla/5.0 (Windows NT 10.0; Win64; x64) AppleWebKit/537.36 (KHTML, like Gecko) Chrome/138.0.0.0 Safari/537.36","WebKit","Chrome","138.0.0.0","Windows","10.0","https://app.prolific.com/","en-ZA,en-GB;q=0.9,en-US;q=0.8,en;q=0.7","61601e9a6b8306196d2a129c","6877631c9844ddd5501205fc","6889e05846e7b8c56ab6b190","3","1","61601e9a6b8306196d2a129c","3","1","2025-07-30T09:13:22.645Z","","","","","","","","","","","StressQ","","50","","","","","","","","","","","","","","","","","","","","","","","","","","","","",""
"6493","","<div style=""width:500px;"">
  <p>What best describes how you currently feel?</p>
  </div>","48","html-slider-response","33","472094","0.0-5.0-4.4","279","1","2025-07-30 09:05:36","1f75c3e559b7213887762d5229550c2b","41.114.249.115","Mozilla/5.0 (Windows NT 10.0; Win64; x64) AppleWebKit/537.36 (KHTML, like Gecko) Chrome/138.0.0.0 Safari/537.36","WebKit","Chrome","138.0.0.0","Windows","10.0","https://app.prolific.com/","en-ZA,en-GB;q=0.9,en-US;q=0.8,en;q=0.7","61601e9a6b8306196d2a129c","6877631c9844ddd5501205fc","6889e05846e7b8c56ab6b190","3","1","61601e9a6b8306196d2a129c","3","1","2025-07-30T09:13:29.140Z","","","","","","","","","","","MotivationQ","","50","","","","","","","","","","","","","","","","","","","","","","","","","","","","",""
"","","","","ctl-task-cpt","34","516785","0.0-5.0-0.5","279","1","2025-07-30 09:05:36","1f75c3e559b7213887762d5229550c2b","41.114.249.115","Mozilla/5.0 (Windows NT 10.0; Win64; x64) AppleWebKit/537.36 (KHTML, like Gecko) Chrome/138.0.0.0 Safari/537.36","WebKit","Chrome","138.0.0.0","Windows","10.0","https://app.prolific.com/","en-ZA,en-GB;q=0.9,en-US;q=0.8,en;q=0.7","61601e9a6b8306196d2a129c","6877631c9844ddd5501205fc","6889e05846e7b8c56ab6b190","3","1","61601e9a6b8306196d2a129c","3","1","2025-07-30T09:14:13.831Z","","","","","","","","","","","","","","win-only","0","g1:NW,g2:SE","0.5","6","0","474312.3","2302.7","7305.9","41672.2","1","4","4","6","2","-4","-5","10","15","0.07575757575757576","1316.2","3000","-3000","[""down"",""right""]","{""num_key_presses"":10,""num_perfect"":4,""num_errors"":1,""num_randdir"":4,""num_randdir_good_moves"":2,""num_whilered"":1,""num_whileblue"":0,""num_blue"":3,""num_good_moves"":6}","[416.57142857142856,419.1808016640799,0.3,416.57142857142856,419.1808016640799,104.6,416.57142857142856,419.1808016640799,210.6,416.57142857142856,419.1808016640799,314.3,416.57142857142856,419.1808016640799,418.6,422.57142857142856,431.1808016640799,519.2,617.5714285714286,645.6808016640799,624.5,941.5714285714286,842.1808016640799,729,1030.0714285714287,897.6808016640799,830.7,854.5714285714286,839.1808016640799,934.3,740.5714285714286,815.1808016640799,1039.5,731.5714285714286,809.1808016640799,1143,752.5714285714286,803.1808016640799,1243.3,752.5714285714286,803.1808016640799,1344.7,752.5714285714286,803.1808016640799,1450,752.5714285714286,803.1808016640799,1554.3,752.5714285714286,803.1808016640799,1654.5,752.5714285714286,803.1808016640799,1759.2,752.5714285714286,803.1808016640799,1863.4,752.5714285714286,803.1808016640799,1963.9,752.5714285714286,803.1808016640799,2064.1,752.5714285714286,803.1808016640799,2169,752.5714285714286,803.1808016640799,2269,752.5714285714286,803.1808016640799,2374.1,752.5714285714286,803.1808016640799,2474.1,752.5714285714286,803.1808016640799,2578.7,752.5714285714286,803.1808016640799,2684.4,752.5714285714286,803.1808016640799,2788.6,752.5714285714286,803.1808016640799,2889.1,752.5714285714286,803.1808016640799,2994.1,752.5714285714286,803.1808016640799,3097.9,752.5714285714286,803.1808016640799,3199.1,752.5714285714286,803.1808016640799,3304.3,752.5714285714286,803.1808016640799,3409.2,752.5714285714286,803.1808016640799,3509.6,752.5714285714286,803.1808016640799,3613.8,752.5714285714286,803.1808016640799,3714.6,752.5714285714286,803.1808016640799,3819.2,752.5714285714286,803.1808016640799,3919.6,752.5714285714286,803.1808016640799,4024.8,752.5714285714286,803.1808016640799,4131,752.5714285714286,803.1808016640799,4233.8,752.5714285714286,803.1808016640799,4334.4,752.5714285714286,803.1808016640799,4434.4,752.5714285714286,803.1808016640799,4539.1,752.5714285714286,803.1808016640799,4644.5,752.5714285714286,803.1808016640799,4747.2,752.5714285714286,803.1808016640799,4847.8,752.5714285714286,803.1808016640799,4953.4]","[1400.2,1400.2,1000,0,400.2,""oops"",""down"",""right"",""good_move"",7064,5663.4,2106.5,4576.5,381,""smooth"",""down"",""down"",""good_move"",10144.2,3079.9,2703.1,7064.3,376.8,""smooth"",""down"",""down"",""good_move"",13072.4,2928,2548.1,10144.4,379.9,""oops"",""down"",""right"",""good_move"",15473,2400.3,2023.2,13072.7,377.1,""smooth"",""down"",""down"",""good_move"",24328.4,8854.9,1992.9,21959.9,375.6,""oops"",""right"",""left"",""bad_move"",27192.2,2863.5,2511.5,24328.7,352,""smooth"",""right"",""right"",""good_move"",29848.3,2655.9,2327.8,27192.4,328.1,""oops"",""right"",""up"",""bad_move"",30272.6,423.9,2647.8,29848.7,-2223.9,""error"",""-"",""-"",""no_move"",30689.6,416.8,2647.8,29848.7,-1806.9,""while_red"",""-"",""-"",""no_move""]","",""
"6672","","<div style=""width:500px;"">
  <p>What determined the result of this run?</p>
  </div>","0","html-slider-response","35","523458","0.0-5.0-1.5","279","1","2025-07-30 09:05:36","1f75c3e559b7213887762d5229550c2b","41.114.249.115","Mozilla/5.0 (Windows NT 10.0; Win64; x64) AppleWebKit/537.36 (KHTML, like Gecko) Chrome/138.0.0.0 Safari/537.36","WebKit","Chrome","138.0.0.0","Windows","10.0","https://app.prolific.com/","en-ZA,en-GB;q=0.9,en-US;q=0.8,en;q=0.7","61601e9a6b8306196d2a129c","6877631c9844ddd5501205fc","6889e05846e7b8c56ab6b190","3","1","61601e9a6b8306196d2a129c","3","1","2025-07-30T09:14:20.504Z","","","","","","","","","","","AttribQ","","50","","","","","","","","","","","","","","","","","","","","","","","","","","","","",""
"4119","","<div style=""width:500px;"">
  <p>How much control did you have over the ball?</p>
  </div>","0","html-slider-response","36","527579","0.0-5.0-2.5","279","1","2025-07-30 09:05:36","1f75c3e559b7213887762d5229550c2b","41.114.249.115","Mozilla/5.0 (Windows NT 10.0; Win64; x64) AppleWebKit/537.36 (KHTML, like Gecko) Chrome/138.0.0.0 Safari/537.36","WebKit","Chrome","138.0.0.0","Windows","10.0","https://app.prolific.com/","en-ZA,en-GB;q=0.9,en-US;q=0.8,en;q=0.7","61601e9a6b8306196d2a129c","6877631c9844ddd5501205fc","6889e05846e7b8c56ab6b190","3","1","61601e9a6b8306196d2a129c","3","1","2025-07-30T09:14:24.625Z","","","","","","","","","","","ControlQ","","50","","","","","","","","","","","","","","","","","","","","","","","","","","","","",""
"4902","","<div style=""width:500px;"">
  <p>How would you describe your current emotional state?</p>
  </div>","75","html-slider-response","37","532481","0.0-5.0-3.5","279","1","2025-07-30 09:05:36","1f75c3e559b7213887762d5229550c2b","41.114.249.115","Mozilla/5.0 (Windows NT 10.0; Win64; x64) AppleWebKit/537.36 (KHTML, like Gecko) Chrome/138.0.0.0 Safari/537.36","WebKit","Chrome","138.0.0.0","Windows","10.0","https://app.prolific.com/","en-ZA,en-GB;q=0.9,en-US;q=0.8,en;q=0.7","61601e9a6b8306196d2a129c","6877631c9844ddd5501205fc","6889e05846e7b8c56ab6b190","3","1","61601e9a6b8306196d2a129c","3","1","2025-07-30T09:14:29.527Z","","","","","","","","","","","StressQ","","50","","","","","","","","","","","","","","","","","","","","","","","","","","","","",""
"3323","","<div style=""width:500px;"">
  <p>What best describes how you currently feel?</p>
  </div>","50","html-slider-response","38","535806","0.0-5.0-4.5","279","1","2025-07-30 09:05:36","1f75c3e559b7213887762d5229550c2b","41.114.249.115","Mozilla/5.0 (Windows NT 10.0; Win64; x64) AppleWebKit/537.36 (KHTML, like Gecko) Chrome/138.0.0.0 Safari/537.36","WebKit","Chrome","138.0.0.0","Windows","10.0","https://app.prolific.com/","en-ZA,en-GB;q=0.9,en-US;q=0.8,en;q=0.7","61601e9a6b8306196d2a129c","6877631c9844ddd5501205fc","6889e05846e7b8c56ab6b190","3","1","61601e9a6b8306196d2a129c","3","1","2025-07-30T09:14:32.852Z","","","","","","","","","","","MotivationQ","","50","","","","","","","","","","","","","","","","","","","","","","","","","","","","",""
"","","","","ctl-task-cpt","39","575341","0.0-5.0-0.6","279","1","2025-07-30 09:05:36","1f75c3e559b7213887762d5229550c2b","41.114.249.115","Mozilla/5.0 (Windows NT 10.0; Win64; x64) AppleWebKit/537.36 (KHTML, like Gecko) Chrome/138.0.0.0 Safari/537.36","WebKit","Chrome","138.0.0.0","Windows","10.0","https://app.prolific.com/","en-ZA,en-GB;q=0.9,en-US;q=0.8,en;q=0.7","61601e9a6b8306196d2a129c","6877631c9844ddd5501205fc","6889e05846e7b8c56ab6b190","3","1","61601e9a6b8306196d2a129c","3","1","2025-07-30T09:15:12.387Z","","","","","","","","","","","","","","win-only","0","g1:NW,g2:SE","0.4","7","0","538024.6","2248.7","7251.8","36513.4","1","4","8","6","2","-8","-8","2","10","0.015151515151515152","1094.4","3000","-2980","[""down"",""right""]","{""num_key_presses"":7,""num_perfect"":3,""num_errors"":0,""num_randdir"":4,""num_randdir_good_moves"":1,""num_whilered"":0,""num_whileblue"":0,""num_blue"":2,""num_good_moves"":4}","[413.57142857142856,419.1808016640799,0.4,413.57142857142856,419.1808016640799,103.1,413.57142857142856,419.1808016640799,207.8,413.57142857142856,419.1808016640799,307.8,413.57142857142856,419.1808016640799,408.5,521.5714285714286,524.1808016640799,512.7,626.5714285714286,638.1808016640799,613,665.5714285714286,696.6808016640799,713.1,692.5714285714286,708.6808016640799,818.8,778.0714285714286,744.6808016640799,922.8,806.5714285714286,761.1808016640799,1028.1,806.5714285714286,761.1808016640799,1128.1,805.0714285714286,761.1808016640799,1229.1,803.5714285714286,761.1808016640799,1337.8,800.5714285714286,759.6808016640799,1443.5,796.0714285714286,758.1808016640799,1548.3,785.5714285714286,749.1808016640799,1653.1,862.0714285714286,524.1808016640799,1758.1,983.5714285714286,419.1808016640799,1863.3,1012.0714285714286,407.1808016640799,1967.6,982.0714285714286,419.1808016640799,2070.2,932.5714285714286,443.1808016640799,2172.5,932.5714285714286,443.1808016640799,2273.3,932.5714285714286,443.1808016640799,2377.5,931.0714285714286,443.1808016640799,2478.5,931.0714285714286,443.1808016640799,2578.5,931.0714285714286,443.1808016640799,2684.8,931.0714285714286,443.1808016640799,2788.6,931.0714285714286,443.1808016640799,2893.3,931.0714285714286,443.1808016640799,2997.4,931.0714285714286,443.1808016640799,3099.9,931.0714285714286,443.1808016640799,3200,931.0714285714286,443.1808016640799,3300.2,931.0714285714286,443.1808016640799,3403.3,931.0714285714286,443.1808016640799,3508.3,931.0714285714286,443.1808016640799,3608.5,931.0714285714286,443.1808016640799,3711.9,931.0714285714286,443.1808016640799,3814.6,931.0714285714286,443.1808016640799,3917.9,931.0714285714286,443.1808016640799,4018.2,928.0714285714286,446.1808016640799,4118.3,923.5714285714286,447.6808016640799,4221.6,923.5714285714286,447.6808016640799,4321.9,922.0714285714286,449.1808016640799,4428.5,922.0714285714286,449.1808016640799,4528.7,922.0714285714286,449.1808016640799,4635.4,922.0714285714286,449.1808016640799,4738.5,922.0714285714286,449.1808016640799,4843.4,922.0714285714286,449.1808016640799,4943.5]","[1415,1415,1000,0,415,""oops"",""down"",""right"",""good_move"",4054.4,2639.1,2277.7,1415.3,361.4,""smooth"",""down"",""down"",""good_move"",6670.3,2615.4,2245,4054.9,370.4,""oops"",""down"",""left"",""bad_move"",13582.6,6911.9,2818.1,10360.9,403.6,""smooth"",""right"",""right"",""good_move"",16038.4,2455.6,2083.4,13582.8,372.2,""smooth"",""right"",""right"",""good_move"",18863.1,2824.4,2511,16038.7,313.4,""oops"",""right"",""up"",""bad_move"",25774.8,6911.4,2493.2,22855.2,426.4,""oops"",""right"",""up"",""bad_move""]","",""
"2775","","<div style=""width:500px;"">
  <p>What determined the result of this run?</p>
  </div>","0","html-slider-response","40","578117","0.0-5.0-1.6","279","1","2025-07-30 09:05:36","1f75c3e559b7213887762d5229550c2b","41.114.249.115","Mozilla/5.0 (Windows NT 10.0; Win64; x64) AppleWebKit/537.36 (KHTML, like Gecko) Chrome/138.0.0.0 Safari/537.36","WebKit","Chrome","138.0.0.0","Windows","10.0","https://app.prolific.com/","en-ZA,en-GB;q=0.9,en-US;q=0.8,en;q=0.7","61601e9a6b8306196d2a129c","6877631c9844ddd5501205fc","6889e05846e7b8c56ab6b190","3","1","61601e9a6b8306196d2a129c","3","1","2025-07-30T09:15:15.163Z","","","","","","","","","","","AttribQ","","50","","","","","","","","","","","","","","","","","","","","","","","","","","","","",""
"2702","","<div style=""width:500px;"">
  <p>How much control did you have over the ball?</p>
  </div>","0","html-slider-response","41","580820","0.0-5.0-2.6","279","1","2025-07-30 09:05:36","1f75c3e559b7213887762d5229550c2b","41.114.249.115","Mozilla/5.0 (Windows NT 10.0; Win64; x64) AppleWebKit/537.36 (KHTML, like Gecko) Chrome/138.0.0.0 Safari/537.36","WebKit","Chrome","138.0.0.0","Windows","10.0","https://app.prolific.com/","en-ZA,en-GB;q=0.9,en-US;q=0.8,en;q=0.7","61601e9a6b8306196d2a129c","6877631c9844ddd5501205fc","6889e05846e7b8c56ab6b190","3","1","61601e9a6b8306196d2a129c","3","1","2025-07-30T09:15:17.866Z","","","","","","","","","","","ControlQ","","50","","","","","","","","","","","","","","","","","","","","","","","","","","","","",""
"4662","","<div style=""width:500px;"">
  <p>How would you describe your current emotional state?</p>
  </div>","54","html-slider-response","42","585482","0.0-5.0-3.6","279","1","2025-07-30 09:05:36","1f75c3e559b7213887762d5229550c2b","41.114.249.115","Mozilla/5.0 (Windows NT 10.0; Win64; x64) AppleWebKit/537.36 (KHTML, like Gecko) Chrome/138.0.0.0 Safari/537.36","WebKit","Chrome","138.0.0.0","Windows","10.0","https://app.prolific.com/","en-ZA,en-GB;q=0.9,en-US;q=0.8,en;q=0.7","61601e9a6b8306196d2a129c","6877631c9844ddd5501205fc","6889e05846e7b8c56ab6b190","3","1","61601e9a6b8306196d2a129c","3","1","2025-07-30T09:15:22.528Z","","","","","","","","","","","StressQ","","50","","","","","","","","","","","","","","","","","","","","","","","","","","","","",""
"2858","","<div style=""width:500px;"">
  <p>What best describes how you currently feel?</p>
  </div>","50","html-slider-response","43","588341","0.0-5.0-4.6","279","1","2025-07-30 09:05:36","1f75c3e559b7213887762d5229550c2b","41.114.249.115","Mozilla/5.0 (Windows NT 10.0; Win64; x64) AppleWebKit/537.36 (KHTML, like Gecko) Chrome/138.0.0.0 Safari/537.36","WebKit","Chrome","138.0.0.0","Windows","10.0","https://app.prolific.com/","en-ZA,en-GB;q=0.9,en-US;q=0.8,en;q=0.7","61601e9a6b8306196d2a129c","6877631c9844ddd5501205fc","6889e05846e7b8c56ab6b190","3","1","61601e9a6b8306196d2a129c","3","1","2025-07-30T09:15:25.387Z","","","","","","","","","","","MotivationQ","","50","","","","","","","","","","","","","","","","","","","","","","","","","","","","",""
"","","","","ctl-task-cpt","44","622491","0.0-5.0-0.7","279","1","2025-07-30 09:05:36","1f75c3e559b7213887762d5229550c2b","41.114.249.115","Mozilla/5.0 (Windows NT 10.0; Win64; x64) AppleWebKit/537.36 (KHTML, like Gecko) Chrome/138.0.0.0 Safari/537.36","WebKit","Chrome","138.0.0.0","Windows","10.0","https://app.prolific.com/","en-ZA,en-GB;q=0.9,en-US;q=0.8,en;q=0.7","61601e9a6b8306196d2a129c","6877631c9844ddd5501205fc","6889e05846e7b8c56ab6b190","3","1","61601e9a6b8306196d2a129c","3","1","2025-07-30T09:15:59.537Z","","","","","","","","","","","","","","win-only","1","g1:NE,g2:SW","0.3","8","0","590559.5","1831.9","6834.7","31131.4","1","4","4","6","2","-4","-4","0","2","0","1586.9","3000","-3000","[""down"",""left""]","{""num_key_presses"":8,""num_perfect"":2,""num_errors"":0,""num_randdir"":6,""num_randdir_good_moves"":4,""num_whilered"":0,""num_whileblue"":0,""num_blue"":0,""num_good_moves"":6}","[410.57142857142856,416.1808016640799,0.1,410.57142857142856,416.1808016640799,103.4,410.57142857142856,416.1808016640799,204.4,410.57142857142856,416.1808016640799,305,410.57142857142856,416.1808016640799,419.3,410.57142857142856,416.1808016640799,524.5,353.57142857142856,492.6808016640799,624.8,328.07142857142856,512.1808016640799,736.1,275.57142857142856,539.1808016640799,836.9,46.07142857142857,810.6808016640799,938.7,-37.92857142857143,960.6808016640799,1040.1,-93.42857142857143,959.1808016640799,1140.2,4.071428571428569,822.6808016640799,1244.3,29.57142857142857,783.6808016640799,1344.7,64.07142857142857,756.6808016640799,1450.6,92.57142857142857,731.1808016640799,1555,91.07142857142857,731.1808016640799,1659.4,91.07142857142857,731.1808016640799,1764.3,91.07142857142857,732.6808016640799,1865.1,692.5714285714286,449.1808016640799,1970.4,877.0714285714286,348.6808016640799,2074.6,878.5714285714286,347.1808016640799,2174.9,860.5714285714286,366.6808016640799,2278.8,848.5714285714286,375.6808016640799,2379.6,848.5714285714286,375.6808016640799,2483.6,848.5714285714286,375.6808016640799,2584.9,847.0714285714286,377.1808016640799,2685.7,845.5714285714286,377.1808016640799,2790,845.5714285714286,380.1808016640799,2902.4,844.0714285714286,381.6808016640799,3002.9,842.5714285714286,381.6808016640799,3103.5,842.5714285714286,381.6808016640799,3204.9,842.5714285714286,381.6808016640799,3309.6,842.5714285714286,381.6808016640799,3409.7,842.5714285714286,381.6808016640799,3510.3,842.5714285714286,381.6808016640799,3620,841.0714285714286,381.6808016640799,3720,841.0714285714286,381.6808016640799,3825.1,841.0714285714286,381.6808016640799,3928.7,841.0714285714286,381.6808016640799,4029.2,841.0714285714286,381.6808016640799,4130.2,841.0714285714286,381.6808016640799,4235.5,841.0714285714286,381.6808016640799,4340,841.0714285714286,381.6808016640799,4444.2,841.0714285714286,381.6808016640799,4551.7,841.0714285714286,381.6808016640799,4652.4,841.0714285714286,381.6808016640799,4754.7,841.0714285714286,381.6808016640799,4860.1,841.0714285714286,381.6808016640799,4969]","[1441.6,1441.6,1000,0,441.6,""oops"",""down"",""left"",""good_move"",4369,2927,2553.4,1442,373.6,""oops"",""down"",""right"",""bad_move"",7417.2,3047.9,2695.1,4369.3,352.8,""oops"",""left"",""left"",""good_move"",9865.1,2447.7,2066.7,7417.4,381,""oops"",""left"",""up"",""bad_move"",12177.6,2312.1,1962,9865.5,350.1,""smooth"",""left"",""left"",""good_move"",15433.1,3255.3,2891.8,12177.8,363.5,""oops"",""left"",""down"",""good_move"",18609.4,3175.9,2861.2,15433.5,314.7,""oops"",""down"",""down"",""good_move"",21561.1,2951.5,2620.5,18609.6,331,""smooth"",""down"",""down"",""good_move""]","",""
"3890","","<div style=""width:500px;"">
  <p>What determined the result of this run?</p>
  </div>","0","html-slider-response","45","626382","0.0-5.0-1.7","279","1","2025-07-30 09:05:36","1f75c3e559b7213887762d5229550c2b","41.114.249.115","Mozilla/5.0 (Windows NT 10.0; Win64; x64) AppleWebKit/537.36 (KHTML, like Gecko) Chrome/138.0.0.0 Safari/537.36","WebKit","Chrome","138.0.0.0","Windows","10.0","https://app.prolific.com/","en-ZA,en-GB;q=0.9,en-US;q=0.8,en;q=0.7","61601e9a6b8306196d2a129c","6877631c9844ddd5501205fc","6889e05846e7b8c56ab6b190","3","1","61601e9a6b8306196d2a129c","3","1","2025-07-30T09:16:03.428Z","","","","","","","","","","","AttribQ","","50","","","","","","","","","","","","","","","","","","","","","","","","","","","","",""
"2313","","<div style=""width:500px;"">
  <p>How much control did you have over the ball?</p>
  </div>","0","html-slider-response","46","628696","0.0-5.0-2.7","279","1","2025-07-30 09:05:36","1f75c3e559b7213887762d5229550c2b","41.114.249.115","Mozilla/5.0 (Windows NT 10.0; Win64; x64) AppleWebKit/537.36 (KHTML, like Gecko) Chrome/138.0.0.0 Safari/537.36","WebKit","Chrome","138.0.0.0","Windows","10.0","https://app.prolific.com/","en-ZA,en-GB;q=0.9,en-US;q=0.8,en;q=0.7","61601e9a6b8306196d2a129c","6877631c9844ddd5501205fc","6889e05846e7b8c56ab6b190","3","1","61601e9a6b8306196d2a129c","3","1","2025-07-30T09:16:05.742Z","","","","","","","","","","","ControlQ","","50","","","","","","","","","","","","","","","","","","","","","","","","","","","","",""
"2250","","<div style=""width:500px;"">
  <p>How would you describe your current emotional state?</p>
  </div>","55","html-slider-response","47","630947","0.0-5.0-3.7","279","1","2025-07-30 09:05:36","1f75c3e559b7213887762d5229550c2b","41.114.249.115","Mozilla/5.0 (Windows NT 10.0; Win64; x64) AppleWebKit/537.36 (KHTML, like Gecko) Chrome/138.0.0.0 Safari/537.36","WebKit","Chrome","138.0.0.0","Windows","10.0","https://app.prolific.com/","en-ZA,en-GB;q=0.9,en-US;q=0.8,en;q=0.7","61601e9a6b8306196d2a129c","6877631c9844ddd5501205fc","6889e05846e7b8c56ab6b190","3","1","61601e9a6b8306196d2a129c","3","1","2025-07-30T09:16:07.993Z","","","","","","","","","","","StressQ","","50","","","","","","","","","","","","","","","","","","","","","","","","","","","","",""
"3122","","<div style=""width:500px;"">
  <p>What best describes how you currently feel?</p>
  </div>","49","html-slider-response","48","634069","0.0-5.0-4.7","279","1","2025-07-30 09:05:36","1f75c3e559b7213887762d5229550c2b","41.114.249.115","Mozilla/5.0 (Windows NT 10.0; Win64; x64) AppleWebKit/537.36 (KHTML, like Gecko) Chrome/138.0.0.0 Safari/537.36","WebKit","Chrome","138.0.0.0","Windows","10.0","https://app.prolific.com/","en-ZA,en-GB;q=0.9,en-US;q=0.8,en;q=0.7","61601e9a6b8306196d2a129c","6877631c9844ddd5501205fc","6889e05846e7b8c56ab6b190","3","1","61601e9a6b8306196d2a129c","3","1","2025-07-30T09:16:11.116Z","","","","","","","","","","","MotivationQ","","50","","","","","","","","","","","","","","","","","","","","","","","","","","","","",""
"","","","","ctl-task-cpt","49","680660","0.0-5.0-0.8","279","1","2025-07-30 09:05:36","1f75c3e559b7213887762d5229550c2b","41.114.249.115","Mozilla/5.0 (Windows NT 10.0; Win64; x64) AppleWebKit/537.36 (KHTML, like Gecko) Chrome/138.0.0.0 Safari/537.36","WebKit","Chrome","138.0.0.0","Windows","10.0","https://app.prolific.com/","en-ZA,en-GB;q=0.9,en-US;q=0.8,en;q=0.7","61601e9a6b8306196d2a129c","6877631c9844ddd5501205fc","6889e05846e7b8c56ab6b190","3","1","61601e9a6b8306196d2a129c","3","1","2025-07-30T09:16:57.707Z","","","","","","","","","","","","","","win-only","0","g1:NW,g2:SE","0.2","9","0","636288.3","1206.9","6211.3","43571","1","4","4","6","2","-4","-4","0","0","0","1696.6","3000","-3015","[""down"",""right""]","{""num_key_presses"":7,""num_perfect"":1,""num_errors"":0,""num_randdir"":6,""num_randdir_good_moves"":3,""num_whilered"":0,""num_whileblue"":0,""num_blue"":4,""num_good_moves"":4}","[413.57142857142856,413.1808016640799,0.1,413.57142857142856,413.1808016640799,104.3,413.57142857142856,413.1808016640799,213.7,413.57142857142856,413.1808016640799,313.9,413.57142857142856,413.1808016640799,414,451.07142857142856,464.1808016640799,514.3,568.0714285714286,608.1808016640799,614.4,599.5714285714286,641.1808016640799,715.1,662.5714285714286,683.1808016640799,818.3,745.0714285714286,735.6808016640799,920,748.0714285714286,737.1808016640799,1033.5,748.0714285714286,737.1808016640799,1133.7,748.0714285714286,737.1808016640799,1234.9,748.0714285714286,737.1808016640799,1334.9,748.0714285714286,737.1808016640799,1439.8,745.0714285714286,735.6808016640799,1543.6,745.0714285714286,735.6808016640799,1644.6,745.0714285714286,735.6808016640799,1749.9,745.0714285714286,734.1808016640799,1854,743.5714285714286,732.6808016640799,1956.7,862.0714285714286,489.6808016640799,2060.2,1187.5714285714287,146.18080166407992,2164.8,1238.5714285714287,138.68080166407992,2268.6,1199.5714285714287,161.18080166407992,2369.9,1178.5714285714287,164.18080166407992,2470,1178.5714285714287,164.18080166407992,2574.2,1178.5714285714287,164.18080166407992,2674.8,1177.0714285714287,164.18080166407992,2774.8,1175.5714285714287,167.18080166407992,2877.3,1172.5714285714287,168.68080166407992,2979.1,1172.5714285714287,170.18080166407992,3079.3,1172.5714285714287,170.18080166407992,3179.8,1171.0714285714287,170.18080166407992,3284.1,1169.5714285714287,171.68080166407992,3388.8,1169.5714285714287,171.68080166407992,3489.3,1169.5714285714287,171.68080166407992,3593.7,1169.5714285714287,171.68080166407992,3699.2,1169.5714285714287,171.68080166407992,3805.3,1169.5714285714287,171.68080166407992,3910.6,1169.5714285714287,171.68080166407992,4011.7,1169.5714285714287,171.68080166407992,4113.6,1169.5714285714287,171.68080166407992,4215.2,1169.5714285714287,171.68080166407992,4319.1,1169.5714285714287,171.68080166407992,4419.4,1169.5714285714287,171.68080166407992,4524.7,1169.5714285714287,171.68080166407992,4624.9,1169.5714285714287,171.68080166407992,4727.3,1169.5714285714287,171.68080166407992,4830,1169.5714285714287,171.68080166407992,4933.4]","[1407.9,1407.9,1000,0,407.9,""oops"",""down"",""left"",""bad_move"",4360,2951.7,2594.9,1408.3,356.8,""oops"",""down"",""left"",""bad_move"",7096.2,2736,2397.6,4360.2,338.4,""oops"",""down"",""up"",""bad_move"",18024.3,10927.6,2652,14904.5,467.8,""oops"",""right"",""down"",""good_move"",20848.2,2823.5,2437.7,18024.7,385.8,""oops"",""right"",""right"",""good_move"",24056.5,3207.9,2827,20848.6,380.9,""smooth"",""right"",""right"",""good_move"",27064.2,3007.3,2657,24056.9,350.3,""oops"",""right"",""down"",""good_move""]","",""
"6614","","<div style=""width:500px;"">
  <p>What determined the result of this run?</p>
  </div>","0","html-slider-response","50","687275","0.0-5.0-1.8","279","1","2025-07-30 09:05:36","1f75c3e559b7213887762d5229550c2b","41.114.249.115","Mozilla/5.0 (Windows NT 10.0; Win64; x64) AppleWebKit/537.36 (KHTML, like Gecko) Chrome/138.0.0.0 Safari/537.36","WebKit","Chrome","138.0.0.0","Windows","10.0","https://app.prolific.com/","en-ZA,en-GB;q=0.9,en-US;q=0.8,en;q=0.7","61601e9a6b8306196d2a129c","6877631c9844ddd5501205fc","6889e05846e7b8c56ab6b190","3","1","61601e9a6b8306196d2a129c","3","1","2025-07-30T09:17:04.321Z","","","","","","","","","","","AttribQ","","50","","","","","","","","","","","","","","","","","","","","","","","","","","","","",""
"2591","","<div style=""width:500px;"">
  <p>How much control did you have over the ball?</p>
  </div>","0","html-slider-response","51","689867","0.0-5.0-2.8","279","1","2025-07-30 09:05:36","1f75c3e559b7213887762d5229550c2b","41.114.249.115","Mozilla/5.0 (Windows NT 10.0; Win64; x64) AppleWebKit/537.36 (KHTML, like Gecko) Chrome/138.0.0.0 Safari/537.36","WebKit","Chrome","138.0.0.0","Windows","10.0","https://app.prolific.com/","en-ZA,en-GB;q=0.9,en-US;q=0.8,en;q=0.7","61601e9a6b8306196d2a129c","6877631c9844ddd5501205fc","6889e05846e7b8c56ab6b190","3","1","61601e9a6b8306196d2a129c","3","1","2025-07-30T09:17:06.913Z","","","","","","","","","","","ControlQ","","50","","","","","","","","","","","","","","","","","","","","","","","","","","","","",""
"3007","","<div style=""width:500px;"">
  <p>How would you describe your current emotional state?</p>
  </div>","56","html-slider-response","52","692876","0.0-5.0-3.8","279","1","2025-07-30 09:05:36","1f75c3e559b7213887762d5229550c2b","41.114.249.115","Mozilla/5.0 (Windows NT 10.0; Win64; x64) AppleWebKit/537.36 (KHTML, like Gecko) Chrome/138.0.0.0 Safari/537.36","WebKit","Chrome","138.0.0.0","Windows","10.0","https://app.prolific.com/","en-ZA,en-GB;q=0.9,en-US;q=0.8,en;q=0.7","61601e9a6b8306196d2a129c","6877631c9844ddd5501205fc","6889e05846e7b8c56ab6b190","3","1","61601e9a6b8306196d2a129c","3","1","2025-07-30T09:17:09.922Z","","","","","","","","","","","StressQ","","50","","","","","","","","","","","","","","","","","","","","","","","","","","","","",""
"2939","","<div style=""width:500px;"">
  <p>What best describes how you currently feel?</p>
  </div>","49","html-slider-response","53","695816","0.0-5.0-4.8","279","1","2025-07-30 09:05:36","1f75c3e559b7213887762d5229550c2b","41.114.249.115","Mozilla/5.0 (Windows NT 10.0; Win64; x64) AppleWebKit/537.36 (KHTML, like Gecko) Chrome/138.0.0.0 Safari/537.36","WebKit","Chrome","138.0.0.0","Windows","10.0","https://app.prolific.com/","en-ZA,en-GB;q=0.9,en-US;q=0.8,en;q=0.7","61601e9a6b8306196d2a129c","6877631c9844ddd5501205fc","6889e05846e7b8c56ab6b190","3","1","61601e9a6b8306196d2a129c","3","1","2025-07-30T09:17:12.862Z","","","","","","","","","","","MotivationQ","","50","","","","","","","","","","","","","","","","","","","","","","","","","","","","",""
"","","","","ctl-task-cpt","54","723752","0.0-5.0-0.9","279","1","2025-07-30 09:05:36","1f75c3e559b7213887762d5229550c2b","41.114.249.115","Mozilla/5.0 (Windows NT 10.0; Win64; x64) AppleWebKit/537.36 (KHTML, like Gecko) Chrome/138.0.0.0 Safari/537.36","WebKit","Chrome","138.0.0.0","Windows","10.0","https://app.prolific.com/","en-ZA,en-GB;q=0.9,en-US;q=0.8,en;q=0.7","61601e9a6b8306196d2a129c","6877631c9844ddd5501205fc","6889e05846e7b8c56ab6b190","3","1","61601e9a6b8306196d2a129c","3","1","2025-07-30T09:17:40.798Z","","","","","","","","","","","","","","win-only","2","g1:SE,g2:NW","0.4","10","0","698034.5","1095","6101.8","24917.5","1","4","8","6","1","1","1","1","0","0.007575757575757576","1121.7","3000","75","[""down"",""right""]","{""num_key_presses"":6,""num_perfect"":4,""num_errors"":0,""num_randdir"":2,""num_randdir_good_moves"":1,""num_whilered"":0,""num_whileblue"":0,""num_blue"":1,""num_good_moves"":5}","[415.07142857142856,422.1808016640799,0.2,413.57142857142856,422.1808016640799,100.1,413.57142857142856,422.1808016640799,202.1,413.57142857142856,422.1808016640799,302.4,413.57142857142856,422.1808016640799,403.5,413.57142857142856,423.6808016640799,507.5,545.5714285714286,549.6808016640799,611.6,815.5714285714286,825.6808016640799,716.8,800.5714285714286,821.1808016640799,822,800.5714285714286,821.1808016640799,923.4,743.5714285714286,791.1808016640799,1025.9,743.5714285714286,795.6808016640799,1131.7,745.0714285714286,797.1808016640799,1235.4,745.0714285714286,797.1808016640799,1335.7,745.0714285714286,797.1808016640799,1435.8,745.0714285714286,797.1808016640799,1540.2,743.5714285714286,795.6808016640799,1640.2,721.0714285714286,732.6808016640799,1745.5,721.0714285714286,576.6808016640799,1850.4,770.5714285714286,491.1808016640799,1950.6,737.5714285714286,539.1808016640799,2052.4,736.0714285714286,539.1808016640799,2156.5,736.0714285714286,539.1808016640799,2261.4,736.0714285714286,539.1808016640799,2365.9,736.0714285714286,539.1808016640799,2470.4,736.0714285714286,539.1808016640799,2571.7,736.0714285714286,539.1808016640799,2673.3,736.0714285714286,539.1808016640799,2776.3,736.0714285714286,539.1808016640799,2880.8,736.0714285714286,539.1808016640799,2981.3,739.0714285714286,542.1808016640799,3085.5,739.0714285714286,542.1808016640799,3187.4,739.0714285714286,542.1808016640799,3288.6,739.0714285714286,545.1808016640799,3389.1,739.0714285714286,548.1808016640799,3491.2,739.0714285714286,549.6808016640799,3595.4,739.0714285714286,554.1808016640799,3695.9,737.5714285714286,561.6808016640799,3802.5,734.5714285714286,564.6808016640799,3906.4,734.5714285714286,566.1808016640799,4010.5,734.5714285714286,566.1808016640799,4110.5,734.5714285714286,566.1808016640799,4215.6,734.5714285714286,566.1808016640799,4316.3,734.5714285714286,566.1808016640799,4416.7,734.5714285714286,566.1808016640799,4523.6,734.5714285714286,566.1808016640799,4625.3,734.5714285714286,566.1808016640799,4725.6,734.5714285714286,566.1808016640799,4825.7,734.5714285714286,566.1808016640799,4926.2]","[1604,1604,1000,0,604,""oops"",""down"",""right"",""good_move"",4340.1,2735.5,1817.2,1604.6,918.3,""smooth"",""down"",""down"",""good_move"",11044.4,6704,2647,7989.3,408.1,""oops"",""down"",""left"",""bad_move"",13716.2,2671.5,2299.5,11044.7,372,""smooth"",""right"",""right"",""good_move"",16316.1,2599.5,2237.6,13716.7,361.9,""smooth"",""right"",""right"",""good_move"",18716,2399.6,2086.8,16316.5,312.8,""smooth"",""down"",""down"",""good_move""]","",""
"4331","","<div style=""width:500px;"">
  <p>What determined the result of this run?</p>
  </div>","16","html-slider-response","55","728084","0.0-5.0-1.9","279","1","2025-07-30 09:05:36","1f75c3e559b7213887762d5229550c2b","41.114.249.115","Mozilla/5.0 (Windows NT 10.0; Win64; x64) AppleWebKit/537.36 (KHTML, like Gecko) Chrome/138.0.0.0 Safari/537.36","WebKit","Chrome","138.0.0.0","Windows","10.0","https://app.prolific.com/","en-ZA,en-GB;q=0.9,en-US;q=0.8,en;q=0.7","61601e9a6b8306196d2a129c","6877631c9844ddd5501205fc","6889e05846e7b8c56ab6b190","3","1","61601e9a6b8306196d2a129c","3","1","2025-07-30T09:17:45.130Z","","","","","","","","","","","AttribQ","","50","","","","","","","","","","","","","","","","","","","","","","","","","","","","",""
"2812","","<div style=""width:500px;"">
  <p>How much control did you have over the ball?</p>
  </div>","14","html-slider-response","56","730897","0.0-5.0-2.9","279","1","2025-07-30 09:05:36","1f75c3e559b7213887762d5229550c2b","41.114.249.115","Mozilla/5.0 (Windows NT 10.0; Win64; x64) AppleWebKit/537.36 (KHTML, like Gecko) Chrome/138.0.0.0 Safari/537.36","WebKit","Chrome","138.0.0.0","Windows","10.0","https://app.prolific.com/","en-ZA,en-GB;q=0.9,en-US;q=0.8,en;q=0.7","61601e9a6b8306196d2a129c","6877631c9844ddd5501205fc","6889e05846e7b8c56ab6b190","3","1","61601e9a6b8306196d2a129c","3","1","2025-07-30T09:17:47.943Z","","","","","","","","","","","ControlQ","","50","","","","","","","","","","","","","","","","","","","","","","","","","","","","",""
"3567","","<div style=""width:500px;"">
  <p>How would you describe your current emotional state?</p>
  </div>","55","html-slider-response","57","734465","0.0-5.0-3.9","279","1","2025-07-30 09:05:36","1f75c3e559b7213887762d5229550c2b","41.114.249.115","Mozilla/5.0 (Windows NT 10.0; Win64; x64) AppleWebKit/537.36 (KHTML, like Gecko) Chrome/138.0.0.0 Safari/537.36","WebKit","Chrome","138.0.0.0","Windows","10.0","https://app.prolific.com/","en-ZA,en-GB;q=0.9,en-US;q=0.8,en;q=0.7","61601e9a6b8306196d2a129c","6877631c9844ddd5501205fc","6889e05846e7b8c56ab6b190","3","1","61601e9a6b8306196d2a129c","3","1","2025-07-30T09:17:51.511Z","","","","","","","","","","","StressQ","","50","","","","","","","","","","","","","","","","","","","","","","","","","","","","",""
"2389","","<div style=""width:500px;"">
  <p>What best describes how you currently feel?</p>
  </div>","46","html-slider-response","58","736855","0.0-5.0-4.9","279","1","2025-07-30 09:05:36","1f75c3e559b7213887762d5229550c2b","41.114.249.115","Mozilla/5.0 (Windows NT 10.0; Win64; x64) AppleWebKit/537.36 (KHTML, like Gecko) Chrome/138.0.0.0 Safari/537.36","WebKit","Chrome","138.0.0.0","Windows","10.0","https://app.prolific.com/","en-ZA,en-GB;q=0.9,en-US;q=0.8,en;q=0.7","61601e9a6b8306196d2a129c","6877631c9844ddd5501205fc","6889e05846e7b8c56ab6b190","3","1","61601e9a6b8306196d2a129c","3","1","2025-07-30T09:17:53.902Z","","","","","","","","","","","MotivationQ","","50","","","","","","","","","","","","","","","","","","","","","","","","","","","","",""
"","","","","ctl-task-cpt","59","772701","0.0-5.0-0.10","279","1","2025-07-30 09:05:36","1f75c3e559b7213887762d5229550c2b","41.114.249.115","Mozilla/5.0 (Windows NT 10.0; Win64; x64) AppleWebKit/537.36 (KHTML, like Gecko) Chrome/138.0.0.0 Safari/537.36","WebKit","Chrome","138.0.0.0","Windows","10.0","https://app.prolific.com/","en-ZA,en-GB;q=0.9,en-US;q=0.8,en;q=0.7","61601e9a6b8306196d2a129c","6877631c9844ddd5501205fc","6889e05846e7b8c56ab6b190","3","1","61601e9a6b8306196d2a129c","3","1","2025-07-30T09:18:29.747Z","","","","","","","","","","","","","","win-only","0","g1:NW,g2:SE","0.5","11","0","739074","1826.8","6830.8","32826","1","4","8","6","2","8","8","9","1","0.06818181818181818","1356.2","3000","830","[""down"",""right""]","{""num_key_presses"":6,""num_perfect"":5,""num_errors"":0,""num_randdir"":1,""num_randdir_good_moves"":1,""num_whilered"":0,""num_whileblue"":0,""num_blue"":3,""num_good_moves"":6}","[410.57142857142856,410.1808016640799,0.3,410.57142857142856,410.1808016640799,103.7,410.57142857142856,410.1808016640799,203.8,410.57142857142856,410.1808016640799,305.2,410.57142857142856,410.1808016640799,408.8,410.57142857142856,410.1808016640799,509.9,410.57142857142856,410.1808016640799,614.1,421.07142857142856,422.1808016640799,714.9,562.0714285714286,573.6808016640799,820.1,710.5714285714286,713.1808016640799,920.3,722.5714285714286,731.1808016640799,1020.5,746.5714285714286,758.1808016640799,1124.3,764.5714285714286,773.1808016640799,1224.7,764.5714285714286,771.6808016640799,1329.5,761.5714285714286,770.1808016640799,1429.6,760.0714285714286,770.1808016640799,1533.6,758.5714285714286,759.6808016640799,1634.2,1085.5714285714287,453.6808016640799,1739.7,1127.5714285714287,431.1808016640799,1846.3,1079.5714285714287,434.1808016640799,1949,1058.5714285714287,446.1808016640799,2049.5,1058.5714285714287,446.1808016640799,2152.5,1058.5714285714287,446.1808016640799,2253.4,1058.5714285714287,446.1808016640799,2354.9,1058.5714285714287,446.1808016640799,2458.8,1058.5714285714287,446.1808016640799,2560.4,1058.5714285714287,446.1808016640799,2663.7,1058.5714285714287,446.1808016640799,2764.6,1058.5714285714287,446.1808016640799,2868.5,1058.5714285714287,446.1808016640799,2969.1,1058.5714285714287,447.6808016640799,3069.6,1058.5714285714287,449.1808016640799,3173.6,1057.0714285714287,450.6808016640799,3274.2,1054.0714285714287,453.6808016640799,3379.1,1051.0714285714287,456.6808016640799,3479.4,1046.5714285714287,458.1808016640799,3584.8,1045.0714285714287,458.1808016640799,3689.2,1045.0714285714287,458.1808016640799,3790.5,1045.0714285714287,458.1808016640799,3894.6,1043.5714285714287,458.1808016640799,3995.3,1043.5714285714287,458.1808016640799,4097,1043.5714285714287,458.1808016640799,4199.4,1043.5714285714287,458.1808016640799,4300.5,1043.5714285714287,458.1808016640799,4404.4,1043.5714285714287,458.1808016640799,4510.5,1043.5714285714287,458.1808016640799,4615.6,1043.5714285714287,458.1808016640799,4717.7,1043.5714285714287,458.1808016640799,4819.1,1043.5714285714287,458.1808016640799,4920.6]","[1436,1436,1000,0,436,""smooth"",""down"",""down"",""good_move"",4363.8,2927.4,2555.3,1436.4,372.1,""smooth"",""down"",""down"",""good_move"",7444.3,3080.3,2702.2,4364,378.1,""smooth"",""down"",""down"",""good_move"",9845.3,2400.8,2045.5,7444.5,355.3,""oops"",""right"",""right"",""good_move"",12828,2982.4,2648,9845.6,334.4,""smooth"",""right"",""right"",""good_move"",25908.5,13080.3,2221.8,23281.4,405.3,""smooth"",""right"",""right"",""good_move""]","",""
"5185","","<div style=""width:500px;"">
  <p>What determined the result of this run?</p>
  </div>","50","html-slider-response","60","777887","0.0-5.0-1.10","279","1","2025-07-30 09:05:36","1f75c3e559b7213887762d5229550c2b","41.114.249.115","Mozilla/5.0 (Windows NT 10.0; Win64; x64) AppleWebKit/537.36 (KHTML, like Gecko) Chrome/138.0.0.0 Safari/537.36","WebKit","Chrome","138.0.0.0","Windows","10.0","https://app.prolific.com/","en-ZA,en-GB;q=0.9,en-US;q=0.8,en;q=0.7","61601e9a6b8306196d2a129c","6877631c9844ddd5501205fc","6889e05846e7b8c56ab6b190","3","1","61601e9a6b8306196d2a129c","3","1","2025-07-30T09:18:34.933Z","","","","","","","","","","","AttribQ","","50","","","","","","","","","","","","","","","","","","","","","","","","","","","","",""
"6197","","<div style=""width:500px;"">
  <p>How much control did you have over the ball?</p>
  </div>","69","html-slider-response","61","784085","0.0-5.0-2.10","279","1","2025-07-30 09:05:36","1f75c3e559b7213887762d5229550c2b","41.114.249.115","Mozilla/5.0 (Windows NT 10.0; Win64; x64) AppleWebKit/537.36 (KHTML, like Gecko) Chrome/138.0.0.0 Safari/537.36","WebKit","Chrome","138.0.0.0","Windows","10.0","https://app.prolific.com/","en-ZA,en-GB;q=0.9,en-US;q=0.8,en;q=0.7","61601e9a6b8306196d2a129c","6877631c9844ddd5501205fc","6889e05846e7b8c56ab6b190","3","1","61601e9a6b8306196d2a129c","3","1","2025-07-30T09:18:41.131Z","","","","","","","","","","","ControlQ","","50","","","","","","","","","","","","","","","","","","","","","","","","","","","","",""
"3093","","<div style=""width:500px;"">
  <p>How would you describe your current emotional state?</p>
  </div>","52","html-slider-response","62","787180","0.0-5.0-3.10","279","1","2025-07-30 09:05:36","1f75c3e559b7213887762d5229550c2b","41.114.249.115","Mozilla/5.0 (Windows NT 10.0; Win64; x64) AppleWebKit/537.36 (KHTML, like Gecko) Chrome/138.0.0.0 Safari/537.36","WebKit","Chrome","138.0.0.0","Windows","10.0","https://app.prolific.com/","en-ZA,en-GB;q=0.9,en-US;q=0.8,en;q=0.7","61601e9a6b8306196d2a129c","6877631c9844ddd5501205fc","6889e05846e7b8c56ab6b190","3","1","61601e9a6b8306196d2a129c","3","1","2025-07-30T09:18:44.226Z","","","","","","","","","","","StressQ","","50","","","","","","","","","","","","","","","","","","","","","","","","","","","","",""
"4069","","<div style=""width:500px;"">
  <p>What best describes how you currently feel?</p>
  </div>","48","html-slider-response","63","791250","0.0-5.0-4.10","279","1","2025-07-30 09:05:36","1f75c3e559b7213887762d5229550c2b","41.114.249.115","Mozilla/5.0 (Windows NT 10.0; Win64; x64) AppleWebKit/537.36 (KHTML, like Gecko) Chrome/138.0.0.0 Safari/537.36","WebKit","Chrome","138.0.0.0","Windows","10.0","https://app.prolific.com/","en-ZA,en-GB;q=0.9,en-US;q=0.8,en;q=0.7","61601e9a6b8306196d2a129c","6877631c9844ddd5501205fc","6889e05846e7b8c56ab6b190","3","1","61601e9a6b8306196d2a129c","3","1","2025-07-30T09:18:48.296Z","","","","","","","","","","","MotivationQ","","50","","","","","","","","","","","","","","","","","","","","","","","","","","","","",""
"","","","","ctl-task-cpt","64","841404","0.0-5.0-0.11","279","1","2025-07-30 09:05:36","1f75c3e559b7213887762d5229550c2b","41.114.249.115","Mozilla/5.0 (Windows NT 10.0; Win64; x64) AppleWebKit/537.36 (KHTML, like Gecko) Chrome/138.0.0.0 Safari/537.36","WebKit","Chrome","138.0.0.0","Windows","10.0","https://app.prolific.com/","en-ZA,en-GB;q=0.9,en-US;q=0.8,en;q=0.7","61601e9a6b8306196d2a129c","6877631c9844ddd5501205fc","6889e05846e7b8c56ab6b190","3","1","61601e9a6b8306196d2a129c","3","1","2025-07-30T09:19:38.450Z","","","","","","","","","","","","","","win-only","3","g1:SW,g2:NE","0.6","12","0","793469.9","1497.7","6502.4","47137","1","4","4","6","2","-4","-4","5","9","0.03787878787878788","2276.8","3000","-2200","[""up"",""right""]","{""num_key_presses"":9,""num_perfect"":6,""num_errors"":0,""num_randdir"":3,""num_randdir_good_moves"":0,""num_whilered"":0,""num_whileblue"":0,""num_blue"":4,""num_good_moves"":6}","[418.07142857142856,425.1808016640799,0.3,416.57142857142856,425.1808016640799,104.2,416.57142857142856,420.6808016640799,208,413.57142857142856,407.1808016640799,321.3,416.57142857142856,395.1808016640799,424.5,404.57142857142856,407.1808016640799,537.4,416.57142857142856,398.1808016640799,637.8,548.5714285714286,252.68080166407992,745.4,557.5714285714286,225.68080166407992,850.1,560.5714285714286,218.18080166407992,954.1,584.5714285714286,164.18080166407992,1054.2,589.0714285714286,153.68080166407992,1154.5,605.5714285714286,135.68080166407992,1270.9,617.5714285714286,122.18080166407994,1371.1,626.5714285714286,119.18080166407994,1473.3,635.5714285714286,113.18080166407994,1586.7,641.5714285714286,111.68080166407994,1687.2,647.5714285714286,110.18080166407994,1790.2,661.0714285714286,110.18080166407994,1904.2,679.0714285714286,110.18080166407994,2011.8,697.0714285714286,110.18080166407994,2113.4,704.5714285714286,108.68080166407994,2214.4,706.0714285714286,107.18080166407994,2320.7,706.0714285714286,107.18080166407994,2424.5,704.5714285714286,107.18080166407994,2528.8,700.0714285714286,108.68080166407994,2629.6,665.5714285714286,177.68080166407992,2729.9,1048.0714285714287,960.6808016640799,2831.4,1283.5714285714287,960.6808016640799,2935,1292.5714285714287,956.1808016640799,3035.2,1268.5714285714287,948.6808016640799,3139.6,1231.0714285714287,950.1808016640799,3253.2,1228.0714285714287,950.1808016640799,3369.4,1228.0714285714287,950.1808016640799,3474.2,1226.5714285714287,950.1808016640799,3575.2,1226.5714285714287,950.1808016640799,3679,1226.5714285714287,950.1808016640799,3779.5,1226.5714285714287,950.1808016640799,3884.4,1223.5714285714287,953.1808016640799,3989.8,1219.0714285714287,954.6808016640799,4094.6,1213.0714285714287,959.1808016640799,4195.3,1199.5714285714287,960.6808016640799,4304.4,1193.5714285714287,960.6808016640799,4408,1193.5714285714287,960.6808016640799,4509.6,1193.5714285714287,960.6808016640799,4618.6,1193.5714285714287,960.6808016640799,4720,1193.5714285714287,960.6808016640799,4820.3,1193.5714285714287,960.6808016640799,4925]","[1428.4,1428.4,1000,0,428.4,""oops"",""up"",""left"",""bad_move"",7645.4,6216.5,2304.2,4947.6,393.6,""smooth"",""right"",""right"",""good_move"",10977.9,3332.2,2949.3,7645.7,382.9,""smooth"",""right"",""right"",""good_move"",12929,1950.9,1535.6,10978.1,415.3,""smooth"",""right"",""right"",""good_move"",19713.2,6784,2795,16534.7,383.5,""smooth"",""right"",""right"",""good_move"",26377.1,6663.5,2584.8,23380.7,411.7,""smooth"",""up"",""up"",""good_move"",29289.6,2912.1,2451.2,26377.5,460.9,""smooth"",""up"",""up"",""good_move"",31873.5,2583.7,1861.4,29289.8,722.3,""oops"",""up"",""down"",""bad_move"",37665.3,5791.5,2371.5,34920.3,373.5,""oops"",""up"",""down"",""bad_move""]","",""
"3117","","<div style=""width:500px;"">
  <p>What determined the result of this run?</p>
  </div>","3","html-slider-response","65","844522","0.0-5.0-1.11","279","1","2025-07-30 09:05:36","1f75c3e559b7213887762d5229550c2b","41.114.249.115","Mozilla/5.0 (Windows NT 10.0; Win64; x64) AppleWebKit/537.36 (KHTML, like Gecko) Chrome/138.0.0.0 Safari/537.36","WebKit","Chrome","138.0.0.0","Windows","10.0","https://app.prolific.com/","en-ZA,en-GB;q=0.9,en-US;q=0.8,en;q=0.7","61601e9a6b8306196d2a129c","6877631c9844ddd5501205fc","6889e05846e7b8c56ab6b190","3","1","61601e9a6b8306196d2a129c","3","1","2025-07-30T09:19:41.568Z","","","","","","","","","","","AttribQ","","50","","","","","","","","","","","","","","","","","","","","","","","","","","","","",""
"3537","","<div style=""width:500px;"">
  <p>How much control did you have over the ball?</p>
  </div>","8","html-slider-response","66","848060","0.0-5.0-2.11","279","1","2025-07-30 09:05:36","1f75c3e559b7213887762d5229550c2b","41.114.249.115","Mozilla/5.0 (Windows NT 10.0; Win64; x64) AppleWebKit/537.36 (KHTML, like Gecko) Chrome/138.0.0.0 Safari/537.36","WebKit","Chrome","138.0.0.0","Windows","10.0","https://app.prolific.com/","en-ZA,en-GB;q=0.9,en-US;q=0.8,en;q=0.7","61601e9a6b8306196d2a129c","6877631c9844ddd5501205fc","6889e05846e7b8c56ab6b190","3","1","61601e9a6b8306196d2a129c","3","1","2025-07-30T09:19:45.106Z","","","","","","","","","","","ControlQ","","50","","","","","","","","","","","","","","","","","","","","","","","","","","","","",""
"4331","","<div style=""width:500px;"">
  <p>How would you describe your current emotional state?</p>
  </div>","53","html-slider-response","67","852392","0.0-5.0-3.11","279","1","2025-07-30 09:05:36","1f75c3e559b7213887762d5229550c2b","41.114.249.115","Mozilla/5.0 (Windows NT 10.0; Win64; x64) AppleWebKit/537.36 (KHTML, like Gecko) Chrome/138.0.0.0 Safari/537.36","WebKit","Chrome","138.0.0.0","Windows","10.0","https://app.prolific.com/","en-ZA,en-GB;q=0.9,en-US;q=0.8,en;q=0.7","61601e9a6b8306196d2a129c","6877631c9844ddd5501205fc","6889e05846e7b8c56ab6b190","3","1","61601e9a6b8306196d2a129c","3","1","2025-07-30T09:19:49.438Z","","","","","","","","","","","StressQ","","50","","","","","","","","","","","","","","","","","","","","","","","","","","","","",""
"3183","","<div style=""width:500px;"">
  <p>What best describes how you currently feel?</p>
  </div>","48","html-slider-response","68","855576","0.0-5.0-4.11","279","1","2025-07-30 09:05:36","1f75c3e559b7213887762d5229550c2b","41.114.249.115","Mozilla/5.0 (Windows NT 10.0; Win64; x64) AppleWebKit/537.36 (KHTML, like Gecko) Chrome/138.0.0.0 Safari/537.36","WebKit","Chrome","138.0.0.0","Windows","10.0","https://app.prolific.com/","en-ZA,en-GB;q=0.9,en-US;q=0.8,en;q=0.7","61601e9a6b8306196d2a129c","6877631c9844ddd5501205fc","6889e05846e7b8c56ab6b190","3","1","61601e9a6b8306196d2a129c","3","1","2025-07-30T09:19:52.622Z","","","","","","","","","","","MotivationQ","","50","","","","","","","","","","","","","","","","","","","","","","","","","","","","",""
"","","","","ctl-task-cpt","69","881360","0.0-5.0-0.12","279","1","2025-07-30 09:05:36","1f75c3e559b7213887762d5229550c2b","41.114.249.115","Mozilla/5.0 (Windows NT 10.0; Win64; x64) AppleWebKit/537.36 (KHTML, like Gecko) Chrome/138.0.0.0 Safari/537.36","WebKit","Chrome","138.0.0.0","Windows","10.0","https://app.prolific.com/","en-ZA,en-GB;q=0.9,en-US;q=0.8,en;q=0.7","61601e9a6b8306196d2a129c","6877631c9844ddd5501205fc","6889e05846e7b8c56ab6b190","3","1","61601e9a6b8306196d2a129c","3","1","2025-07-30T09:20:18.406Z","","","","","","","","","","","","","","win-only","1","g1:NE,g2:SW","0.7","13","0","857795.1","1242.5","6247.6","22765.2","1","4","8","6","1","1","1","6","5","0.045454545454545456","1662.3","3000","1490","[""up"",""right""]","{""num_key_presses"":4,""num_perfect"":4,""num_errors"":0,""num_randdir"":0,""num_randdir_good_moves"":0,""num_whilered"":0,""num_whileblue"":0,""num_blue"":2,""num_good_moves"":4}","[416.57142857142856,410.1808016640799,0.2,416.57142857142856,410.1808016640799,105.4,416.57142857142856,410.1808016640799,209.9,416.57142857142856,410.1808016640799,313.4,416.57142857142856,410.1808016640799,414.1,416.57142857142856,410.1808016640799,514.1,416.57142857142856,410.1808016640799,614.9,380.57142857142856,476.1808016640799,718.8,316.07142857142856,576.6808016640799,821.7,316.07142857142856,576.6808016640799,924.7,257.57142857142856,642.6808016640799,1028.7,413.57142857142856,572.1808016640799,1129.1,865.0714285714286,92.18080166407994,1234,874.0714285714286,44.18080166407994,1340.1,797.5714285714286,53.18080166407994,1443.3,785.5714285714286,60.68080166407994,1544.7,785.5714285714286,60.68080166407994,1644.8,785.5714285714286,60.68080166407994,1748.3,785.5714285714286,60.68080166407994,1849.8,797.5714285714286,71.18080166407994,1955.9,935.5714285714286,165.68080166407992,2060.5,940.0714285714286,170.18080166407992,2164.4,962.5714285714286,194.18080166407992,2268.9,964.0714285714286,197.18080166407992,2370.4,946.0714285714286,200.18080166407992,2470.6,932.5714285714286,203.18080166407992,2577.5,929.5714285714286,204.68080166407992,2680,926.5714285714286,206.18080166407992,2783,926.5714285714286,206.18080166407992,2883.8,926.5714285714286,206.18080166407992,2988.5,925.0714285714286,206.18080166407992,3089,925.0714285714286,206.18080166407992,3189.2,923.5714285714286,206.18080166407992,3289.9,923.5714285714286,206.18080166407992,3395.4,923.5714285714286,206.18080166407992,3498.6,923.5714285714286,206.18080166407992,3601.8,917.5714285714286,206.18080166407992,3705.5,916.0714285714286,206.18080166407992,3805.9,916.0714285714286,206.18080166407992,3908.3,916.0714285714286,206.18080166407992,4008.4,916.0714285714286,206.18080166407992,4113.6,916.0714285714286,206.18080166407992,4214.1,916.0714285714286,206.18080166407992,4315,916.0714285714286,206.18080166407992,4419.6,916.0714285714286,206.18080166407992,4525.5,916.0714285714286,206.18080166407992,4625.5,916.0714285714286,206.18080166407992,4725.9,916.0714285714286,207.68080166407992,4830.4,914.5714285714286,209.18080166407992,4934.6]","[1398.8,1398.8,1000,0,398.8,""smooth"",""up"",""up"",""good_move"",11859.3,10460.1,2491.4,8979.2,388.7,""smooth"",""up"",""up"",""good_move"",14099.2,2239.5,1761.2,11859.7,478.3,""smooth"",""right"",""right"",""good_move"",16419.7,2320.2,1982.9,14099.5,337.3,""smooth"",""right"",""right"",""good_move""]","",""
"3933","","<div style=""width:500px;"">
  <p>What determined the result of this run?</p>
  </div>","50","html-slider-response","70","885294","0.0-5.0-1.12","279","1","2025-07-30 09:05:36","1f75c3e559b7213887762d5229550c2b","41.114.249.115","Mozilla/5.0 (Windows NT 10.0; Win64; x64) AppleWebKit/537.36 (KHTML, like Gecko) Chrome/138.0.0.0 Safari/537.36","WebKit","Chrome","138.0.0.0","Windows","10.0","https://app.prolific.com/","en-ZA,en-GB;q=0.9,en-US;q=0.8,en;q=0.7","61601e9a6b8306196d2a129c","6877631c9844ddd5501205fc","6889e05846e7b8c56ab6b190","3","1","61601e9a6b8306196d2a129c","3","1","2025-07-30T09:20:22.340Z","","","","","","","","","","","AttribQ","","50","","","","","","","","","","","","","","","","","","","","","","","","","","","","",""
"7822","","<div style=""width:500px;"">
  <p>How much control did you have over the ball?</p>
  </div>","76","html-slider-response","71","893117","0.0-5.0-2.12","279","1","2025-07-30 09:05:36","1f75c3e559b7213887762d5229550c2b","41.114.249.115","Mozilla/5.0 (Windows NT 10.0; Win64; x64) AppleWebKit/537.36 (KHTML, like Gecko) Chrome/138.0.0.0 Safari/537.36","WebKit","Chrome","138.0.0.0","Windows","10.0","https://app.prolific.com/","en-ZA,en-GB;q=0.9,en-US;q=0.8,en;q=0.7","61601e9a6b8306196d2a129c","6877631c9844ddd5501205fc","6889e05846e7b8c56ab6b190","3","1","61601e9a6b8306196d2a129c","3","1","2025-07-30T09:20:30.163Z","","","","","","","","","","","ControlQ","","50","","","","","","","","","","","","","","","","","","","","","","","","","","","","",""
"4362","","<div style=""width:500px;"">
  <p>How would you describe your current emotional state?</p>
  </div>","50","html-slider-response","72","897480","0.0-5.0-3.12","279","1","2025-07-30 09:05:36","1f75c3e559b7213887762d5229550c2b","41.114.249.115","Mozilla/5.0 (Windows NT 10.0; Win64; x64) AppleWebKit/537.36 (KHTML, like Gecko) Chrome/138.0.0.0 Safari/537.36","WebKit","Chrome","138.0.0.0","Windows","10.0","https://app.prolific.com/","en-ZA,en-GB;q=0.9,en-US;q=0.8,en;q=0.7","61601e9a6b8306196d2a129c","6877631c9844ddd5501205fc","6889e05846e7b8c56ab6b190","3","1","61601e9a6b8306196d2a129c","3","1","2025-07-30T09:20:34.526Z","","","","","","","","","","","StressQ","","50","","","","","","","","","","","","","","","","","","","","","","","","","","","","",""
"2983","","<div style=""width:500px;"">
  <p>What best describes how you currently feel?</p>
  </div>","35","html-slider-response","73","900464","0.0-5.0-4.12","279","1","2025-07-30 09:05:36","1f75c3e559b7213887762d5229550c2b","41.114.249.115","Mozilla/5.0 (Windows NT 10.0; Win64; x64) AppleWebKit/537.36 (KHTML, like Gecko) Chrome/138.0.0.0 Safari/537.36","WebKit","Chrome","138.0.0.0","Windows","10.0","https://app.prolific.com/","en-ZA,en-GB;q=0.9,en-US;q=0.8,en;q=0.7","61601e9a6b8306196d2a129c","6877631c9844ddd5501205fc","6889e05846e7b8c56ab6b190","3","1","61601e9a6b8306196d2a129c","3","1","2025-07-30T09:20:37.510Z","","","","","","","","","","","MotivationQ","","50","","","","","","","","","","","","","","","","","","","","","","","","","","","","",""
"","","","","ctl-task-cpt","74","920185","0.0-5.0-0.13","279","1","2025-07-30 09:05:36","1f75c3e559b7213887762d5229550c2b","41.114.249.115","Mozilla/5.0 (Windows NT 10.0; Win64; x64) AppleWebKit/537.36 (KHTML, like Gecko) Chrome/138.0.0.0 Safari/537.36","WebKit","Chrome","138.0.0.0","Windows","10.0","https://app.prolific.com/","en-ZA,en-GB;q=0.9,en-US;q=0.8,en;q=0.7","61601e9a6b8306196d2a129c","6877631c9844ddd5501205fc","6889e05846e7b8c56ab6b190","3","1","61601e9a6b8306196d2a129c","3","1","2025-07-30T09:20:57.231Z","","","","","","","","","","","","","","win-only","2","g1:SE,g2:NW","0.8","14","0","902683","2066.6","7068.1","16701.4","1","4","4","6","1","1","1","7","6","0.05303030303030303","2461.8","3000","1735","[""down"",""right""]","{""num_key_presses"":4,""num_perfect"":3,""num_errors"":0,""num_randdir"":1,""num_randdir_good_moves"":1,""num_whilered"":0,""num_whileblue"":0,""num_blue"":0,""num_good_moves"":4}","[413.57142857142856,413.1808016640799,0.3,412.07142857142856,413.1808016640799,101.4,412.07142857142856,413.1808016640799,218.3,412.07142857142856,413.1808016640799,318.5,412.07142857142856,413.1808016640799,418.5,412.07142857142856,413.1808016640799,519.2,412.07142857142856,413.1808016640799,624.5,412.07142857142856,413.1808016640799,739.9,455.57142857142856,449.1808016640799,844.8,580.0714285714286,536.1808016640799,949.4,695.5714285714286,599.1808016640799,1049.6,757.0714285714286,638.1808016640799,1150.2,724.0714285714286,639.6808016640799,1251.6,575.5714285714286,560.1808016640799,1369.9,560.5714285714286,539.1808016640799,1475.4,569.5714285714286,516.6808016640799,1584.6,656.5714285714286,435.6808016640799,1689.1,674.5714285714286,470.1808016640799,1789.3,704.5714285714286,566.1808016640799,1891.2,755.5714285714286,632.1808016640799,1995.3,778.0714285714286,641.1808016640799,2098.9,758.5714285714286,677.1808016640799,2200.6,730.0714285714286,722.1808016640799,2305.4,728.5714285714286,728.1808016640799,2405.4,722.5714285714286,734.1808016640799,2509.9,722.5714285714286,734.1808016640799,2610.6,800.5714285714286,692.1808016640799,2715,1375.0714285714287,525.6808016640799,2819.5,1375.0714285714287,510.6808016640799,2919.6,1369.0714285714287,509.1808016640799,3020.2,1322.5714285714287,518.1808016640799,3120.7,1318.0714285714287,519.6808016640799,3235.3,1318.0714285714287,519.6808016640799,3351.4,1318.0714285714287,519.6808016640799,3455.6,1318.0714285714287,519.6808016640799,3567.8,1318.0714285714287,521.1808016640799,3670.3,1318.0714285714287,521.1808016640799,3774.9,1318.0714285714287,521.1808016640799,3879.3,1318.0714285714287,521.1808016640799,3979.7,1318.0714285714287,521.1808016640799,4080.7,1318.0714285714287,521.1808016640799,4185.6,1318.0714285714287,521.1808016640799,4300.8,1318.0714285714287,521.1808016640799,4401.2,1318.0714285714287,521.1808016640799,4501.7,1318.0714285714287,521.1808016640799,4603.2,1318.0714285714287,521.1808016640799,4703.9,1318.0714285714287,521.1808016640799,4805.5,1318.0714285714287,521.1808016640799,4909.5]","[1463.1,1463.1,1000,0,463.1,""smooth"",""right"",""right"",""good_move"",3918.9,2455.4,2034.8,1463.5,420.6,""smooth"",""right"",""right"",""good_move"",7447.2,3528.1,3143.2,3919.1,384.9,""smooth"",""down"",""down"",""good_move"",9511.2,2063.6,1618.2,7447.6,445.4,""oops"",""down"",""down"",""good_move""]","",""
"9082","","<div style=""width:500px;"">
  <p>What determined the result of this run?</p>
