"rt","response_timestamp","stimulus","response","trial_type","trial_index","time_elapsed","internal_node_id","run_id","condition","recorded_at","source_code_version","ip","user_agent","device","browser","browser_version","platform","platform_version","referer","accept_language","PROLIFIC_PID","STUDY_ID","SESSION_ID","WEEK","BATCH","prolific_id","week","batch","realtime","success","responses","item_order","radio_event_ids","radio_event_times","key_event_times","mouse_event_times","straightlining","zigzagging","honeypot","eventType","view_history","slider_start","which_type","canvas_config","goals_layout","control_level","trial_number","tutorial_trial_number","trial_start_time","phase1_start_time","phase2_start_time","phase3_start_time","goal_1_value","goal_1_distance","goal_2_value","goal_2_distance","goal_selected","outcome","outcome_total","participant_final_score","participant_initial_score","participant_final_score_prop","goal_choice_rt","allocated_time","allocated_time_remaining","goal_direction","counts","mouse_movements","key_presses","question_order","question_id"
"5046","1753909957454","<p style='font-size:40px;line-height:1.25'><strong>Welcome to the experiment!</strong></p><p style='font-size:1.1em;line-height:1.25'>Thank you for participanting in our experiment again! You will be asked to play the Dysfunctional Ball Game again. We will briefly recap the rules before we start.</p><p style='font-size:1.1em;line-height:1.25'>Press <strong>Next</strong> to continue.</p>","0","custom-html-button-response","0","5053","0.0-0.0","299","1","2025-07-30 21:12:31","1f75c3e559b7213887762d5229550c2b","91.140.28.218","Mozilla/5.0 (Windows NT 10.0; Win64; x64; rv:141.0) Gecko/20100101 Firefox/141.0","","Firefox","141.0","Windows","10.0","https://app.prolific.com/","en-US,en;q=0.5","56e4b2e044b184000b894159","6877631c9844ddd5501205fc","688a8aafd331b68d864fc9a8","3","1","56e4b2e044b184000b894159","3","1","2025-07-30T21:12:37.454Z","","","","","","","","","","","","","","","","","","","","","","","","","","","","","","","","","","","","","","","","","",""
"10196","","","","fullscreen","1","16258","0.0-1.0","299","1","2025-07-30 21:12:31","1f75c3e559b7213887762d5229550c2b","91.140.28.218","Mozilla/5.0 (Windows NT 10.0; Win64; x64; rv:141.0) Gecko/20100101 Firefox/141.0","","Firefox","141.0","Windows","10.0","https://app.prolific.com/","en-US,en;q=0.5","56e4b2e044b184000b894159","6877631c9844ddd5501205fc","688a8aafd331b68d864fc9a8","3","1","56e4b2e044b184000b894159","3","1","","true","","","","","","","","","","","","","","","","","","","","","","","","","","","","","","","","","","","","","","","","",""
"4337","1753909972999","<p style='font-size:1.1em;line-height:1.25'>In the following, we will ask you a few questions relating to your feelings in the last 24 hours.<br></p><p style='font-size:1.1em;line-height:1.25'>Press the <strong>Next</strong> button to continue.</p>","0","custom-html-button-response","2","20599","0.0-2.0-0.0","299","1","2025-07-30 21:12:31","1f75c3e559b7213887762d5229550c2b","91.140.28.218","Mozilla/5.0 (Windows NT 10.0; Win64; x64; rv:141.0) Gecko/20100101 Firefox/141.0","","Firefox","141.0","Windows","10.0","https://app.prolific.com/","en-US,en;q=0.5","56e4b2e044b184000b894159","6877631c9844ddd5501205fc","688a8aafd331b68d864fc9a8","3","1","56e4b2e044b184000b894159","3","1","2025-07-30T21:12:53.000Z","","","","","","","","","","","","","","","","","","","","","","","","","","","","","","","","","","","","","","","","","",""
"112641","","","","survey-template","3","133243","0.0-2.0-1.0","299","1","2025-07-30 21:12:31","1f75c3e559b7213887762d5229550c2b","91.140.28.218","Mozilla/5.0 (Windows NT 10.0; Win64; x64; rv:141.0) Gecko/20100101 Firefox/141.0","","Firefox","141.0","Windows","10.0","https://app.prolific.com/","en-US,en;q=0.5","56e4b2e044b184000b894159","6877631c9844ddd5501205fc","688a8aafd331b68d864fc9a8","3","1","56e4b2e044b184000b894159","3","1","2025-07-30T21:14:45.644Z","","{""Q01"":""3"",""Q02"":""0"",""Q03"":""0"",""Q04"":""1"",""Q05"":""1"",""Q06"":""1"",""Q07"":""1"",""Q08"":""0"",""Q09"":""2"",""Q10"":""0"",""Q11"":""3"",""Q12"":""0"",""Q13"":""5"",""Q14"":""0"",""Q15"":""0"",""Q16"":""3"",""Q17"":""0"",""Q18"":""0"",""Q19"":""2"",""Q20"":""1"",""Q21"":""3"",""Q22"":""1""}","[0,1,2,3,4,5,6,7,8,9,10,11,12,13,14,15,16,17,18,19,20,21]","[""Q01"",""Q02"",""Q03"",""Q04"",""Q05"",""Q06"",""Q07"",""Q08"",""Q09"",""Q10"",""Q11"",""Q12"",""Q13"",""Q14"",""Q15"",""Q16"",""Q17"",""Q18"",""Q19"",""Q20"",""Q21"",""Q22""]","[3920,6733,9321,13644,17372,19844,23413,27188,31685,39265,43062,46430,49062,53429,56510,59165,69017,70589,86689,101795,105727,109662]","[]","[0,3920,6733,8743,9321,13644,16214,17372,19844,23413,27188,31685,39265,43062,46430,49062,53429,56510,59165,69017,70589,86689,101795,105727,109662,112639]","0.4090909090909091","0.23809523809523808","0","drsp","","","","","","","","","","","","","","","","","","","","","","","","","","","","","","",""
"15447","","","","survey-template","4","148692","0.0-2.0-2.0","299","1","2025-07-30 21:12:31","1f75c3e559b7213887762d5229550c2b","91.140.28.218","Mozilla/5.0 (Windows NT 10.0; Win64; x64; rv:141.0) Gecko/20100101 Firefox/141.0","","Firefox","141.0","Windows","10.0","https://app.prolific.com/","en-US,en;q=0.5","56e4b2e044b184000b894159","6877631c9844ddd5501205fc","688a8aafd331b68d864fc9a8","3","1","56e4b2e044b184000b894159","3","1","2025-07-30T21:15:01.093Z","","{""Q01"":""1"",""Q02"":""3"",""Q03"":""0""}","[0,1,2]","[""Q01"",""Q02"",""Q03""]","[2772,7873,13740]","[]","[2772,7873,13740,15446]","0.3333333333333333","0.5","0","stress","","","","","","","","","","","","","","","","","","","","","","","","","","","","","","",""
"22576","","","","instructions","5","171270","0.0-3.0-0.0","299","1","2025-07-30 21:12:31","1f75c3e559b7213887762d5229550c2b","91.140.28.218","Mozilla/5.0 (Windows NT 10.0; Win64; x64; rv:141.0) Gecko/20100101 Firefox/141.0","","Firefox","141.0","Windows","10.0","https://app.prolific.com/","en-US,en;q=0.5","56e4b2e044b184000b894159","6877631c9844ddd5501205fc","688a8aafd331b68d864fc9a8","3","1","56e4b2e044b184000b894159","3","1","","","","","","","","","","","","","[{""page_index"":0,""viewing_time"":22576}]","","","","","","","","","","","","","","","","","","","","","","","","","","","","","",""
"14856","","<p>Before you start with this game please answer the following three questions yourself. </p>
  <p>Through this game, we measure several aspects of your cognitive performance, such as reaction times, multi-tasking capabilities </p>
  <p>and the ability to assess the situation you are in.</p>
  <p></p>
  <p><b>How good do you usually are in such tasks?</b></p>","90","html-slider-response","6","186128","0.0-4.0-0.0","299","1","2025-07-30 21:12:31","1f75c3e559b7213887762d5229550c2b","91.140.28.218","Mozilla/5.0 (Windows NT 10.0; Win64; x64; rv:141.0) Gecko/20100101 Firefox/141.0","","Firefox","141.0","Windows","10.0","https://app.prolific.com/","en-US,en;q=0.5","56e4b2e044b184000b894159","6877631c9844ddd5501205fc","688a8aafd331b68d864fc9a8","3","1","56e4b2e044b184000b894159","3","1","2025-07-30T21:15:38.529Z","","","","","","","","","","","PreSkillQ","","50","","","","","","","","","","","","","","","","","","","","","","","","","","","","",""
"9801","","<div style=""width:500px;"">
  <p>How well do you think you will perform in this task compared to other participants?</p>
  </div>","55","html-slider-response","7","195930","0.0-4.0-1.0","299","1","2025-07-30 21:12:31","1f75c3e559b7213887762d5229550c2b","91.140.28.218","Mozilla/5.0 (Windows NT 10.0; Win64; x64; rv:141.0) Gecko/20100101 Firefox/141.0","","Firefox","141.0","Windows","10.0","https://app.prolific.com/","en-US,en;q=0.5","56e4b2e044b184000b894159","6877631c9844ddd5501205fc","688a8aafd331b68d864fc9a8","3","1","56e4b2e044b184000b894159","3","1","2025-07-30T21:15:48.331Z","","","","","","","","","","","PrePerfQ","","50","","","","","","","","","","","","","","","","","","","","","","","","","","","","",""
"15878","","<div style=""width:500px;"">
  <p>What best describes how you currently feel?</p>
  </div>","70","html-slider-response","8","211811","0.0-4.0-2.0","299","1","2025-07-30 21:12:31","1f75c3e559b7213887762d5229550c2b","91.140.28.218","Mozilla/5.0 (Windows NT 10.0; Win64; x64; rv:141.0) Gecko/20100101 Firefox/141.0","","Firefox","141.0","Windows","10.0","https://app.prolific.com/","en-US,en;q=0.5","56e4b2e044b184000b894159","6877631c9844ddd5501205fc","688a8aafd331b68d864fc9a8","3","1","56e4b2e044b184000b894159","3","1","2025-07-30T21:16:04.212Z","","","","","","","","","","","PreMotivationQ","","50","","","","","","","","","","","","","","","","","","","","","","","","","","","","",""
"","","","","ctl-task-cpt","9","243670","0.0-5.0-0.0","299","1","2025-07-30 21:12:31","1f75c3e559b7213887762d5229550c2b","91.140.28.218","Mozilla/5.0 (Windows NT 10.0; Win64; x64; rv:141.0) Gecko/20100101 Firefox/141.0","","Firefox","141.0","Windows","10.0","https://app.prolific.com/","en-US,en;q=0.5","56e4b2e044b184000b894159","6877631c9844ddd5501205fc","688a8aafd331b68d864fc9a8","3","1","56e4b2e044b184000b894159","3","1","2025-07-30T21:16:36.071Z","","","","","","","","","","","","","","win-only","2","g1:SE,g2:NW","1","1","0","214787","2111","7115","28846","1","4","8","6","2","8","8","8","0","0.06060606060606061","776","3000","2155","[""left"",""up""]","{""num_key_presses"":6,""num_perfect"":6,""num_errors"":0,""num_randdir"":0,""num_randdir_good_moves"":0,""num_whilered"":0,""num_whileblue"":0,""num_blue"":1,""num_good_moves"":6}","[419.0714133126395,413.8214362008231,0,422.8214133126395,413.8214362008231,110,422.8214133126395,413.8214362008231,221,422.8214133126395,413.8214362008231,333,397.8214133126395,402.5714362008231,444,105.3214133126395,138.8214362008231,555,86.5714133126395,98.8214362008231,666,75.3214133126395,73.8214362008231,777,75.3214133126395,73.8214362008231,886,-59.67858668736049,241.3214362008231,997,-329.6785866873605,370.0714362008231,1108,-339.6785866873605,373.8214362008231,1220,-249.6785866873605,428.8214362008231,1331,-248.4285866873605,430.0714362008231,1443,-248.4285866873605,430.0714362008231,1556,-245.9285866873605,431.3214362008231,1664,-245.9285866873605,431.3214362008231,1772,-245.9285866873605,431.3214362008231,1879,-245.9285866873605,431.3214362008231,1990,-245.9285866873605,431.3214362008231,2098,-245.9285866873605,431.3214362008231,2207,-245.9285866873605,431.3214362008231,2316,-245.9285866873605,431.3214362008231,2426,-245.9285866873605,431.3214362008231,2535,-245.9285866873605,431.3214362008231,2643,-245.9285866873605,431.3214362008231,2752,-245.9285866873605,431.3214362008231,2860,-245.9285866873605,431.3214362008231,2970,-245.9285866873605,431.3214362008231,3080,-245.9285866873605,431.3214362008231,3188,-245.9285866873605,431.3214362008231,3296,-245.9285866873605,431.3214362008231,3404,-245.9285866873605,431.3214362008231,3510,-245.9285866873605,431.3214362008231,3617,-245.9285866873605,431.3214362008231,3729,-245.9285866873605,431.3214362008231,3840,-245.9285866873605,431.3214362008231,3951,-245.9285866873605,431.3214362008231,4063,-245.9285866873605,431.3214362008231,4173,-245.9285866873605,431.3214362008231,4284,-245.9285866873605,431.3214362008231,4396,-245.9285866873605,431.3214362008231,4508,-245.9285866873605,431.3214362008231,4620,-245.9285866873605,431.3214362008231,4731,-245.9285866873605,431.3214362008231,4844,-245.9285866873605,431.3214362008231,4956]","[5139,5139,2685.4,2018,435.6,""smooth"",""left"",""left"",""good_move"",8359,3220,2698,5139,522,""smooth"",""left"",""left"",""good_move"",12179,3819,3351.4,8360,467.6,""smooth"",""left"",""left"",""good_move"",15309,3130,1662.3,12179,1467.7,""smooth"",""up"",""up"",""good_move"",18378,3069,2419.6,15309,649.4,""smooth"",""up"",""up"",""good_move"",21436,3058,1950.8,18378,1107.2,""smooth"",""up"",""up"",""good_move""]","",""
"9428","","<div style=""width:500px;"">
  <p>What determined the result of this run?</p>
  </div>","60","html-slider-response","10","253099","0.0-5.0-1.0","299","1","2025-07-30 21:12:31","1f75c3e559b7213887762d5229550c2b","91.140.28.218","Mozilla/5.0 (Windows NT 10.0; Win64; x64; rv:141.0) Gecko/20100101 Firefox/141.0","","Firefox","141.0","Windows","10.0","https://app.prolific.com/","en-US,en;q=0.5","56e4b2e044b184000b894159","6877631c9844ddd5501205fc","688a8aafd331b68d864fc9a8","3","1","56e4b2e044b184000b894159","3","1","2025-07-30T21:16:45.500Z","","","","","","","","","","","AttribQ","","50","","","","","","","","","","","","","","","","","","","","","","","","","","","","",""
"3704","","<div style=""width:500px;"">
  <p>How much control did you have over the ball?</p>
  </div>","100","html-slider-response","11","256805","0.0-5.0-2.0","299","1","2025-07-30 21:12:31","1f75c3e559b7213887762d5229550c2b","91.140.28.218","Mozilla/5.0 (Windows NT 10.0; Win64; x64; rv:141.0) Gecko/20100101 Firefox/141.0","","Firefox","141.0","Windows","10.0","https://app.prolific.com/","en-US,en;q=0.5","56e4b2e044b184000b894159","6877631c9844ddd5501205fc","688a8aafd331b68d864fc9a8","3","1","56e4b2e044b184000b894159","3","1","2025-07-30T21:16:49.206Z","","","","","","","","","","","ControlQ","","50","","","","","","","","","","","","","","","","","","","","","","","","","","","","",""
"4526","","<div style=""width:500px;"">
  <p>How would you describe your current emotional state?</p>
  </div>","0","html-slider-response","12","261332","0.0-5.0-3.0","299","1","2025-07-30 21:12:31","1f75c3e559b7213887762d5229550c2b","91.140.28.218","Mozilla/5.0 (Windows NT 10.0; Win64; x64; rv:141.0) Gecko/20100101 Firefox/141.0","","Firefox","141.0","Windows","10.0","https://app.prolific.com/","en-US,en;q=0.5","56e4b2e044b184000b894159","6877631c9844ddd5501205fc","688a8aafd331b68d864fc9a8","3","1","56e4b2e044b184000b894159","3","1","2025-07-30T21:16:53.733Z","","","","","","","","","","","StressQ","","50","","","","","","","","","","","","","","","","","","","","","","","","","","","","",""
"8941","","<div style=""width:500px;"">
  <p>What best describes how you currently feel?</p>
  </div>","93","html-slider-response","13","270274","0.0-5.0-4.0","299","1","2025-07-30 21:12:31","1f75c3e559b7213887762d5229550c2b","91.140.28.218","Mozilla/5.0 (Windows NT 10.0; Win64; x64; rv:141.0) Gecko/20100101 Firefox/141.0","","Firefox","141.0","Windows","10.0","https://app.prolific.com/","en-US,en;q=0.5","56e4b2e044b184000b894159","6877631c9844ddd5501205fc","688a8aafd331b68d864fc9a8","3","1","56e4b2e044b184000b894159","3","1","2025-07-30T21:17:02.675Z","","","","","","","","","","","MotivationQ","","50","","","","","","","","","","","","","","","","","","","","","","","","","","","","",""
"","","","","ctl-task-cpt","14","303890","0.0-5.0-0.1","299","1","2025-07-30 21:12:31","1f75c3e559b7213887762d5229550c2b","91.140.28.218","Mozilla/5.0 (Windows NT 10.0; Win64; x64; rv:141.0) Gecko/20100101 Firefox/141.0","","Firefox","141.0","Windows","10.0","https://app.prolific.com/","en-US,en;q=0.5","56e4b2e044b184000b894159","6877631c9844ddd5501205fc","688a8aafd331b68d864fc9a8","3","1","56e4b2e044b184000b894159","3","1","2025-07-30T21:17:36.291Z","","","","","","","","","","","","","","win-only","3","g1:SW,g2:NE","0.9","2","0","273250","1091","6093","30604","1","4","4","6","2","4","4","12","8","0.09090909090909091","975","3000","2215","[""up"",""right""]","{""num_key_presses"":6,""num_perfect"":5,""num_errors"":0,""num_randdir"":1,""num_randdir_good_moves"":1,""num_whilered"":0,""num_whileblue"":0,""num_blue"":2,""num_good_moves"":6}","[419.0714133126395,426.3214362008231,0,419.0714133126395,426.3214362008231,108,419.0714133126395,426.3214362008231,216,419.0714133126395,426.3214362008231,325,419.0714133126395,426.3214362008231,435,404.0714133126395,443.8214362008231,544,640.3214133126395,268.8214362008231,654,751.5714133126395,133.8214362008231,763,774.0714133126395,78.8214362008231,873,784.0714133126395,43.8214362008231,981,784.0714133126395,43.8214362008231,1089,784.0714133126395,58.8214362008231,1197,804.0714133126395,95.0714362008231,1307,1375.3214133126396,446.3214362008231,1412,1375.3214133126396,516.3214362008231,1521,1375.3214133126396,516.3214362008231,1630,1375.3214133126396,516.3214362008231,1738,1375.3214133126396,516.3214362008231,1847,1375.3214133126396,516.3214362008231,1954,1375.3214133126396,516.3214362008231,2063,1375.3214133126396,516.3214362008231,2170,1375.3214133126396,516.3214362008231,2277,1375.3214133126396,516.3214362008231,2387,1375.3214133126396,516.3214362008231,2494,1375.3214133126396,516.3214362008231,2601,1375.3214133126396,516.3214362008231,2711,1375.3214133126396,516.3214362008231,2818,1375.3214133126396,516.3214362008231,2929,1375.3214133126396,516.3214362008231,3036,1375.3214133126396,516.3214362008231,3146,1375.3214133126396,516.3214362008231,3255,1375.3214133126396,516.3214362008231,3366,1375.3214133126396,516.3214362008231,3474,1375.3214133126396,516.3214362008231,3584,1375.3214133126396,516.3214362008231,3691,1375.3214133126396,516.3214362008231,3799,1375.3214133126396,516.3214362008231,3907,1375.3214133126396,516.3214362008231,4016,1375.3214133126396,516.3214362008231,4124,1375.3214133126396,516.3214362008231,4224,1375.3214133126396,516.3214362008231,4325,1375.3214133126396,516.3214362008231,4427,1375.3214133126396,516.3214362008231,4537,1375.3214133126396,516.3214362008231,4640,1375.3214133126396,516.3214362008231,4752,1375.3214133126396,516.3214362008231,4853,1375.3214133126396,516.3214362008231,4953]","[1430,1430,1000,0,430,""smooth"",""right"",""right"",""good_move"",5052,3622,3228.8,1430,393.2,""oops"",""right"",""up"",""good_move"",8060,3008,2601.2,5052,406.8,""smooth"",""right"",""right"",""good_move"",11407,3347,2940.9,8060,406.1,""smooth"",""right"",""right"",""good_move"",14538,3131,2728.9,11407,402.1,""smooth"",""up"",""up"",""good_move"",24236,9698,1872.2,21875,488.8,""smooth"",""up"",""up"",""good_move""]","",""
"3711","","<div style=""width:500px;"">
  <p>What determined the result of this run?</p>
  </div>","55","html-slider-response","15","307600","0.0-5.0-1.1","299","1","2025-07-30 21:12:31","1f75c3e559b7213887762d5229550c2b","91.140.28.218","Mozilla/5.0 (Windows NT 10.0; Win64; x64; rv:141.0) Gecko/20100101 Firefox/141.0","","Firefox","141.0","Windows","10.0","https://app.prolific.com/","en-US,en;q=0.5","56e4b2e044b184000b894159","6877631c9844ddd5501205fc","688a8aafd331b68d864fc9a8","3","1","56e4b2e044b184000b894159","3","1","2025-07-30T21:17:40.001Z","","","","","","","","","","","AttribQ","","50","","","","","","","","","","","","","","","","","","","","","","","","","","","","",""
"4955","","<div style=""width:500px;"">
  <p>How much control did you have over the ball?</p>
  </div>","95","html-slider-response","16","312556","0.0-5.0-2.1","299","1","2025-07-30 21:12:31","1f75c3e559b7213887762d5229550c2b","91.140.28.218","Mozilla/5.0 (Windows NT 10.0; Win64; x64; rv:141.0) Gecko/20100101 Firefox/141.0","","Firefox","141.0","Windows","10.0","https://app.prolific.com/","en-US,en;q=0.5","56e4b2e044b184000b894159","6877631c9844ddd5501205fc","688a8aafd331b68d864fc9a8","3","1","56e4b2e044b184000b894159","3","1","2025-07-30T21:17:44.957Z","","","","","","","","","","","ControlQ","","50","","","","","","","","","","","","","","","","","","","","","","","","","","","","",""
"3382","","<div style=""width:500px;"">
  <p>How would you describe your current emotional state?</p>
  </div>","0","html-slider-response","17","315938","0.0-5.0-3.1","299","1","2025-07-30 21:12:31","1f75c3e559b7213887762d5229550c2b","91.140.28.218","Mozilla/5.0 (Windows NT 10.0; Win64; x64; rv:141.0) Gecko/20100101 Firefox/141.0","","Firefox","141.0","Windows","10.0","https://app.prolific.com/","en-US,en;q=0.5","56e4b2e044b184000b894159","6877631c9844ddd5501205fc","688a8aafd331b68d864fc9a8","3","1","56e4b2e044b184000b894159","3","1","2025-07-30T21:17:48.339Z","","","","","","","","","","","StressQ","","50","","","","","","","","","","","","","","","","","","","","","","","","","","","","",""
"5958","","<div style=""width:500px;"">
  <p>What best describes how you currently feel?</p>
  </div>","94","html-slider-response","18","321897","0.0-5.0-4.1","299","1","2025-07-30 21:12:31","1f75c3e559b7213887762d5229550c2b","91.140.28.218","Mozilla/5.0 (Windows NT 10.0; Win64; x64; rv:141.0) Gecko/20100101 Firefox/141.0","","Firefox","141.0","Windows","10.0","https://app.prolific.com/","en-US,en;q=0.5","56e4b2e044b184000b894159","6877631c9844ddd5501205fc","688a8aafd331b68d864fc9a8","3","1","56e4b2e044b184000b894159","3","1","2025-07-30T21:17:54.298Z","","","","","","","","","","","MotivationQ","","50","","","","","","","","","","","","","","","","","","","","","","","","","","","","",""
"","","","","ctl-task-cpt","19","360622","0.0-5.0-0.2","299","1","2025-07-30 21:12:31","1f75c3e559b7213887762d5229550c2b","91.140.28.218","Mozilla/5.0 (Windows NT 10.0; Win64; x64; rv:141.0) Gecko/20100101 Firefox/141.0","","Firefox","141.0","Windows","10.0","https://app.prolific.com/","en-US,en;q=0.5","56e4b2e044b184000b894159","6877631c9844ddd5501205fc","688a8aafd331b68d864fc9a8","3","1","56e4b2e044b184000b894159","3","1","2025-07-30T21:18:33.023Z","","","","","","","","","","","","","","win-only","1","g1:NE,g2:SW","0.8","3","0","324873","1272","6277","35713","1","4","8","6","2","8","8","20","12","0.15151515151515152","874","3000","1935","[""down"",""left""]","{""num_key_presses"":8,""num_perfect"":6,""num_errors"":0,""num_randdir"":2,""num_randdir_good_moves"":1,""num_whilered"":0,""num_whileblue"":0,""num_blue"":2,""num_good_moves"":7}","[406.5714133126395,410.0714362008231,0,406.5714133126395,410.0714362008231,104,406.5714133126395,410.0714362008231,214,406.5714133126395,410.0714362008231,322,410.3214133126395,410.0714362008231,431,314.0714133126395,482.5714362008231,539,61.57141331263951,718.8214362008231,648,41.57141331263951,751.3214362008231,757,30.321413312639507,778.8214362008231,865,30.321413312639507,778.8214362008231,975,30.321413312639507,778.8214362008231,1083,32.82141331263951,781.3214362008231,1193,35.32141331263951,783.8214362008231,1300,37.82141331263951,783.8214362008231,1411,37.82141331263951,783.8214362008231,1517,37.82141331263951,783.8214362008231,1628,37.82141331263951,783.8214362008231,1736,37.82141331263951,787.5714362008231,1848,37.82141331263951,787.5714362008231,1956,39.07141331263951,788.8214362008231,2065,39.07141331263951,788.8214362008231,2173,40.32141331263951,788.8214362008231,2283,40.32141331263951,788.8214362008231,2391,40.32141331263951,788.8214362008231,2499,44.07141331263951,790.0714362008231,2606,44.07141331263951,790.0714362008231,2715,44.07141331263951,790.0714362008231,2822,45.32141331263951,790.0714362008231,2932,45.32141331263951,790.0714362008231,3039,45.32141331263951,790.0714362008231,3150,45.32141331263951,790.0714362008231,3257,45.32141331263951,790.0714362008231,3366,45.32141331263951,790.0714362008231,3474,45.32141331263951,790.0714362008231,3581,45.32141331263951,790.0714362008231,3689,45.32141331263951,790.0714362008231,3796,45.32141331263951,790.0714362008231,3906,45.32141331263951,790.0714362008231,4016,45.32141331263951,790.0714362008231,4123,45.32141331263951,790.0714362008231,4233,45.32141331263951,790.0714362008231,4341,45.32141331263951,790.0714362008231,4448,45.32141331263951,790.0714362008231,4555,45.32141331263951,790.0714362008231,4662,45.32141331263951,790.0714362008231,4770,45.32141331263951,790.0714362008231,4880,45.32141331263951,790.0714362008231,4989]","[1372,1372,1000,0,372,""smooth"",""down"",""down"",""good_move"",7142,5770,2316.1,4418,407.9,""oops"",""down"",""down"",""good_move"",9912,2770,2275.9,7142,494.1,""oops"",""down"",""right"",""bad_move"",12806,2894,2473.4,9912,420.6,""smooth"",""left"",""left"",""good_move"",15846,3040,2056,12807,983,""smooth"",""left"",""left"",""good_move"",22597,6751,2611,19483,503,""smooth"",""left"",""left"",""good_move"",25588,2991,2612.5,22597,378.5,""smooth"",""left"",""left"",""good_move"",29146,3558,3139.2,25588,418.8,""smooth"",""down"",""down"",""good_move""]","",""
"3890","","<div style=""width:500px;"">
  <p>What determined the result of this run?</p>
  </div>","61","html-slider-response","20","364513","0.0-5.0-1.2","299","1","2025-07-30 21:12:31","1f75c3e559b7213887762d5229550c2b","91.140.28.218","Mozilla/5.0 (Windows NT 10.0; Win64; x64; rv:141.0) Gecko/20100101 Firefox/141.0","","Firefox","141.0","Windows","10.0","https://app.prolific.com/","en-US,en;q=0.5","56e4b2e044b184000b894159","6877631c9844ddd5501205fc","688a8aafd331b68d864fc9a8","3","1","56e4b2e044b184000b894159","3","1","2025-07-30T21:18:36.914Z","","","","","","","","","","","AttribQ","","50","","","","","","","","","","","","","","","","","","","","","","","","","","","","",""
"3081","","<div style=""width:500px;"">
  <p>How much control did you have over the ball?</p>
  </div>","96","html-slider-response","21","367595","0.0-5.0-2.2","299","1","2025-07-30 21:12:31","1f75c3e559b7213887762d5229550c2b","91.140.28.218","Mozilla/5.0 (Windows NT 10.0; Win64; x64; rv:141.0) Gecko/20100101 Firefox/141.0","","Firefox","141.0","Windows","10.0","https://app.prolific.com/","en-US,en;q=0.5","56e4b2e044b184000b894159","6877631c9844ddd5501205fc","688a8aafd331b68d864fc9a8","3","1","56e4b2e044b184000b894159","3","1","2025-07-30T21:18:39.996Z","","","","","","","","","","","ControlQ","","50","","","","","","","","","","","","","","","","","","","","","","","","","","","","",""
"2872","","<div style=""width:500px;"">
  <p>How would you describe your current emotional state?</p>
  </div>","0","html-slider-response","22","370468","0.0-5.0-3.2","299","1","2025-07-30 21:12:31","1f75c3e559b7213887762d5229550c2b","91.140.28.218","Mozilla/5.0 (Windows NT 10.0; Win64; x64; rv:141.0) Gecko/20100101 Firefox/141.0","","Firefox","141.0","Windows","10.0","https://app.prolific.com/","en-US,en;q=0.5","56e4b2e044b184000b894159","6877631c9844ddd5501205fc","688a8aafd331b68d864fc9a8","3","1","56e4b2e044b184000b894159","3","1","2025-07-30T21:18:42.869Z","","","","","","","","","","","StressQ","","50","","","","","","","","","","","","","","","","","","","","","","","","","","","","",""
"4379","","<div style=""width:500px;"">
  <p>What best describes how you currently feel?</p>
  </div>","95","html-slider-response","23","374847","0.0-5.0-4.2","299","1","2025-07-30 21:12:31","1f75c3e559b7213887762d5229550c2b","91.140.28.218","Mozilla/5.0 (Windows NT 10.0; Win64; x64; rv:141.0) Gecko/20100101 Firefox/141.0","","Firefox","141.0","Windows","10.0","https://app.prolific.com/","en-US,en;q=0.5","56e4b2e044b184000b894159","6877631c9844ddd5501205fc","688a8aafd331b68d864fc9a8","3","1","56e4b2e044b184000b894159","3","1","2025-07-30T21:18:47.248Z","","","","","","","","","","","MotivationQ","","50","","","","","","","","","","","","","","","","","","","","","","","","","","","","",""
"","","","","ctl-task-cpt","24","405192","0.0-5.0-0.3","299","1","2025-07-30 21:12:31","1f75c3e559b7213887762d5229550c2b","91.140.28.218","Mozilla/5.0 (Windows NT 10.0; Win64; x64; rv:141.0) Gecko/20100101 Firefox/141.0","","Firefox","141.0","Windows","10.0","https://app.prolific.com/","en-US,en;q=0.5","56e4b2e044b184000b894159","6877631c9844ddd5501205fc","688a8aafd331b68d864fc9a8","3","1","56e4b2e044b184000b894159","3","1","2025-07-30T21:19:17.593Z","","","","","","","","","","","","","","win-only","0","g1:NW,g2:SE","0.7","4","0","377824","1294","6301","27329","1","4","4","6","2","4","4","24","20","0.18181818181818182","879","3000","2080","[""down"",""right""]","{""num_key_presses"":6,""num_perfect"":6,""num_errors"":0,""num_randdir"":0,""num_randdir_good_moves"":0,""num_whilered"":0,""num_whileblue"":0,""num_blue"":1,""num_good_moves"":6}","[409.0714133126395,422.5714362008231,0,409.0714133126395,422.5714362008231,109,406.5714133126395,422.5714362008231,217,405.3214133126395,422.5714362008231,326,461.5714133126395,495.0714362008231,435,620.3214133126395,672.5714362008231,543,697.8214133126395,743.8214362008231,653,716.5714133126395,761.3214362008231,761,729.0714133126395,767.5714362008231,869,732.8214133126395,767.5714362008231,978,755.3214133126395,755.0714362008231,1087,1194.0714133126396,551.3214362008231,1198,1375.3214133126396,418.8214362008231,1307,1375.3214133126396,418.8214362008231,1413,1375.3214133126396,418.8214362008231,1522,1375.3214133126396,418.8214362008231,1631,1375.3214133126396,418.8214362008231,1738,1375.3214133126396,418.8214362008231,1847,1375.3214133126396,418.8214362008231,1955,1375.3214133126396,418.8214362008231,2063,1375.3214133126396,418.8214362008231,2170,1375.3214133126396,418.8214362008231,2279,1375.3214133126396,418.8214362008231,2389,1375.3214133126396,418.8214362008231,2497,1375.3214133126396,418.8214362008231,2605,1375.3214133126396,418.8214362008231,2712,1375.3214133126396,418.8214362008231,2821,1375.3214133126396,418.8214362008231,2927,1375.3214133126396,418.8214362008231,3036,1375.3214133126396,418.8214362008231,3145,1375.3214133126396,418.8214362008231,3254,1375.3214133126396,418.8214362008231,3363,1375.3214133126396,418.8214362008231,3470,1375.3214133126396,418.8214362008231,3576,1375.3214133126396,418.8214362008231,3682,1375.3214133126396,418.8214362008231,3791,1375.3214133126396,418.8214362008231,3900,1375.3214133126396,418.8214362008231,4010,1375.3214133126396,418.8214362008231,4120,1375.3214133126396,418.8214362008231,4229,1375.3214133126396,418.8214362008231,4336,1375.3214133126396,418.8214362008231,4445,1375.3214133126396,418.8214362008231,4556,1375.3214133126396,418.8214362008231,4664,1375.3214133126396,418.8214362008231,4772,1375.3214133126396,418.8214362008231,4881,1375.3214133126396,418.8214362008231,4990]","[1431,1431,1000,0,431,""smooth"",""right"",""right"",""good_move"",4572,3141,2678.2,1431,462.8,""smooth"",""right"",""right"",""good_move"",7457,2885,2449.9,4572,435.1,""smooth"",""right"",""right"",""good_move"",11386,3929,3245.7,7457,683.3,""smooth"",""down"",""down"",""good_move"",17445,6059,2004.7,14977,463.3,""smooth"",""down"",""down"",""good_move"",20759,3314,2867.9,17445,446.1,""smooth"",""down"",""down"",""good_move""]","",""
"4026","","<div style=""width:500px;"">
  <p>What determined the result of this run?</p>
  </div>","59","html-slider-response","25","409219","0.0-5.0-1.3","299","1","2025-07-30 21:12:31","1f75c3e559b7213887762d5229550c2b","91.140.28.218","Mozilla/5.0 (Windows NT 10.0; Win64; x64; rv:141.0) Gecko/20100101 Firefox/141.0","","Firefox","141.0","Windows","10.0","https://app.prolific.com/","en-US,en;q=0.5","56e4b2e044b184000b894159","6877631c9844ddd5501205fc","688a8aafd331b68d864fc9a8","3","1","56e4b2e044b184000b894159","3","1","2025-07-30T21:19:21.620Z","","","","","","","","","","","AttribQ","","50","","","","","","","","","","","","","","","","","","","","","","","","","","","","",""
"3629","","<div style=""width:500px;"">
  <p>How much control did you have over the ball?</p>
  </div>","100","html-slider-response","26","412849","0.0-5.0-2.3","299","1","2025-07-30 21:12:31","1f75c3e559b7213887762d5229550c2b","91.140.28.218","Mozilla/5.0 (Windows NT 10.0; Win64; x64; rv:141.0) Gecko/20100101 Firefox/141.0","","Firefox","141.0","Windows","10.0","https://app.prolific.com/","en-US,en;q=0.5","56e4b2e044b184000b894159","6877631c9844ddd5501205fc","688a8aafd331b68d864fc9a8","3","1","56e4b2e044b184000b894159","3","1","2025-07-30T21:19:25.250Z","","","","","","","","","","","ControlQ","","50","","","","","","","","","","","","","","","","","","","","","","","","","","","","",""
"2872","","<div style=""width:500px;"">
  <p>How would you describe your current emotional state?</p>
  </div>","0","html-slider-response","27","415722","0.0-5.0-3.3","299","1","2025-07-30 21:12:31","1f75c3e559b7213887762d5229550c2b","91.140.28.218","Mozilla/5.0 (Windows NT 10.0; Win64; x64; rv:141.0) Gecko/20100101 Firefox/141.0","","Firefox","141.0","Windows","10.0","https://app.prolific.com/","en-US,en;q=0.5","56e4b2e044b184000b894159","6877631c9844ddd5501205fc","688a8aafd331b68d864fc9a8","3","1","56e4b2e044b184000b894159","3","1","2025-07-30T21:19:28.123Z","","","","","","","","","","","StressQ","","50","","","","","","","","","","","","","","","","","","","","","","","","","","","","",""
"5783","","<div style=""width:500px;"">
  <p>What best describes how you currently feel?</p>
  </div>","94","html-slider-response","28","421507","0.0-5.0-4.3","299","1","2025-07-30 21:12:31","1f75c3e559b7213887762d5229550c2b","91.140.28.218","Mozilla/5.0 (Windows NT 10.0; Win64; x64; rv:141.0) Gecko/20100101 Firefox/141.0","","Firefox","141.0","Windows","10.0","https://app.prolific.com/","en-US,en;q=0.5","56e4b2e044b184000b894159","6877631c9844ddd5501205fc","688a8aafd331b68d864fc9a8","3","1","56e4b2e044b184000b894159","3","1","2025-07-30T21:19:33.908Z","","","","","","","","","","","MotivationQ","","50","","","","","","","","","","","","","","","","","","","","","","","","","","","","",""
"","","","","ctl-task-cpt","29","461248","0.0-5.0-0.4","299","1","2025-07-30 21:12:31","1f75c3e559b7213887762d5229550c2b","91.140.28.218","Mozilla/5.0 (Windows NT 10.0; Win64; x64; rv:141.0) Gecko/20100101 Firefox/141.0","","Firefox","141.0","Windows","10.0","https://app.prolific.com/","en-US,en;q=0.5","56e4b2e044b184000b894159","6877631c9844ddd5501205fc","688a8aafd331b68d864fc9a8","3","1","56e4b2e044b184000b894159","3","1","2025-07-30T21:20:13.649Z","","","","","","","","","","","","","","win-only","3","g1:SW,g2:NE","0.6","5","0","424483","1224","6230","36730","1","4","8","6","2","8","8","32","24","0.24242424242424243","878","3000","1950","[""up"",""right""]","{""num_key_presses"":8,""num_perfect"":6,""num_errors"":0,""num_randdir"":2,""num_randdir_good_moves"":1,""num_whilered"":0,""num_whileblue"":0,""num_blue"":2,""num_good_moves"":7}","[419.0714133126395,422.5714362008231,0,419.0714133126395,422.5714362008231,102,419.0714133126395,422.5714362008231,210,419.0714133126395,422.5714362008231,318,469.0714133126395,351.3214362008231,426,610.3214133126395,207.5714362008231,535,635.3214133126395,176.3214362008231,642,687.8214133126395,133.8214362008231,750,762.8214133126395,96.3214362008231,859,762.8214133126395,96.3214362008231,966,804.0714133126395,92.5714362008231,1074,1001.5714133126395,75.0714362008231,1182,1375.3214133126396,-67.4285637991769,1291,1375.3214133126396,-67.4285637991769,1400,1375.3214133126396,-67.4285637991769,1509,1375.3214133126396,-67.4285637991769,1620,1375.3214133126396,-67.4285637991769,1729,1375.3214133126396,-67.4285637991769,1837,1375.3214133126396,-67.4285637991769,1946,1375.3214133126396,-67.4285637991769,2054,1375.3214133126396,-67.4285637991769,2163,1375.3214133126396,-67.4285637991769,2270,1375.3214133126396,-67.4285637991769,2377,1375.3214133126396,-67.4285637991769,2485,1375.3214133126396,-67.4285637991769,2592,1375.3214133126396,-67.4285637991769,2701,1375.3214133126396,-67.4285637991769,2808,1375.3214133126396,-67.4285637991769,2918,1375.3214133126396,-67.4285637991769,3024,1375.3214133126396,-67.4285637991769,3132,1375.3214133126396,-67.4285637991769,3241,1375.3214133126396,-67.4285637991769,3350,1375.3214133126396,-67.4285637991769,3459,1375.3214133126396,-67.4285637991769,3568,1375.3214133126396,-67.4285637991769,3676,1375.3214133126396,-67.4285637991769,3786,1375.3214133126396,-67.4285637991769,3892,1375.3214133126396,-67.4285637991769,4001,1375.3214133126396,-67.4285637991769,4108,1375.3214133126396,-67.4285637991769,4216,1375.3214133126396,-67.4285637991769,4324,1375.3214133126396,-67.4285637991769,4434,1375.3214133126396,-67.4285637991769,4540,1375.3214133126396,-67.4285637991769,4648,1375.3214133126396,-67.4285637991769,4756,1375.3214133126396,-67.4285637991769,4865,1375.3214133126396,-67.4285637991769,4973]","[1387,1387,1000,0,387,""smooth"",""right"",""right"",""good_move"",8475,7088,3013.8,5062,399.2,""smooth"",""right"",""right"",""good_move"",11441,2966,2370.2,8475,595.8,""smooth"",""right"",""right"",""good_move"",14308,2867,2412.5,11441,454.5,""smooth"",""up"",""up"",""good_move"",17518,3210,2826.4,14308,383.6,""oops"",""up"",""down"",""bad_move"",20395,2877,2479.9,17518,397.1,""smooth"",""up"",""up"",""good_move"",23784,3389,3031,20395,358,""oops"",""up"",""up"",""good_move"",30230,6446,1872,27898,460,""smooth"",""up"",""up"",""good_move""]","",""
"9478","","<div style=""width:500px;"">
  <p>What determined the result of this run?</p>
  </div>","57","html-slider-response","30","470726","0.0-5.0-1.4","299","1","2025-07-30 21:12:31","1f75c3e559b7213887762d5229550c2b","91.140.28.218","Mozilla/5.0 (Windows NT 10.0; Win64; x64; rv:141.0) Gecko/20100101 Firefox/141.0","","Firefox","141.0","Windows","10.0","https://app.prolific.com/","en-US,en;q=0.5","56e4b2e044b184000b894159","6877631c9844ddd5501205fc","688a8aafd331b68d864fc9a8","3","1","56e4b2e044b184000b894159","3","1","2025-07-30T21:20:23.127Z","","","","","","","","","","","AttribQ","","50","","","","","","","","","","","","","","","","","","","","","","","","","","","","",""
"3619","","<div style=""width:500px;"">
  <p>How much control did you have over the ball?</p>
  </div>","91","html-slider-response","31","474347","0.0-5.0-2.4","299","1","2025-07-30 21:12:31","1f75c3e559b7213887762d5229550c2b","91.140.28.218","Mozilla/5.0 (Windows NT 10.0; Win64; x64; rv:141.0) Gecko/20100101 Firefox/141.0","","Firefox","141.0","Windows","10.0","https://app.prolific.com/","en-US,en;q=0.5","56e4b2e044b184000b894159","6877631c9844ddd5501205fc","688a8aafd331b68d864fc9a8","3","1","56e4b2e044b184000b894159","3","1","2025-07-30T21:20:26.748Z","","","","","","","","","","","ControlQ","","50","","","","","","","","","","","","","","","","","","","","","","","","","","","","",""
"2669","","<div style=""width:500px;"">
  <p>How would you describe your current emotional state?</p>
  </div>","0","html-slider-response","32","477017","0.0-5.0-3.4","299","1","2025-07-30 21:12:31","1f75c3e559b7213887762d5229550c2b","91.140.28.218","Mozilla/5.0 (Windows NT 10.0; Win64; x64; rv:141.0) Gecko/20100101 Firefox/141.0","","Firefox","141.0","Windows","10.0","https://app.prolific.com/","en-US,en;q=0.5","56e4b2e044b184000b894159","6877631c9844ddd5501205fc","688a8aafd331b68d864fc9a8","3","1","56e4b2e044b184000b894159","3","1","2025-07-30T21:20:29.419Z","","","","","","","","","","","StressQ","","50","","","","","","","","","","","","","","","","","","","","","","","","","","","","",""
"5611","","<div style=""width:500px;"">
  <p>What best describes how you currently feel?</p>
  </div>","94","html-slider-response","33","482628","0.0-5.0-4.4","299","1","2025-07-30 21:12:31","1f75c3e559b7213887762d5229550c2b","91.140.28.218","Mozilla/5.0 (Windows NT 10.0; Win64; x64; rv:141.0) Gecko/20100101 Firefox/141.0","","Firefox","141.0","Windows","10.0","https://app.prolific.com/","en-US,en;q=0.5","56e4b2e044b184000b894159","6877631c9844ddd5501205fc","688a8aafd331b68d864fc9a8","3","1","56e4b2e044b184000b894159","3","1","2025-07-30T21:20:35.029Z","","","","","","","","","","","MotivationQ","","50","","","","","","","","","","","","","","","","","","","","","","","","","","","","",""
"","","","","ctl-task-cpt","34","559114","0.0-5.0-0.5","299","1","2025-07-30 21:12:31","1f75c3e559b7213887762d5229550c2b","91.140.28.218","Mozilla/5.0 (Windows NT 10.0; Win64; x64; rv:141.0) Gecko/20100101 Firefox/141.0","","Firefox","141.0","Windows","10.0","https://app.prolific.com/","en-US,en;q=0.5","56e4b2e044b184000b894159","6877631c9844ddd5501205fc","688a8aafd331b68d864fc9a8","3","1","56e4b2e044b184000b894159","3","1","2025-07-30T21:21:51.515Z","","","","","","","","","","","","","","win-only","3","g1:SW,g2:NE","0.5","6","0","485605","1423","6433","73483","1","4","4","6","2","4","4","36","32","0.2727272727272727","741","3000","1225","[""up"",""right""]","{""num_key_presses"":12,""num_perfect"":7,""num_errors"":0,""num_randdir"":5,""num_randdir_good_moves"":2,""num_whilered"":0,""num_whileblue"":0,""num_blue"":8,""num_good_moves"":9}","[412.8214133126395,422.5714362008231,0,412.8214133126395,422.5714362008231,108,412.8214133126395,422.5714362008231,220,412.8214133126395,422.5714362008231,330,545.3214133126395,287.5714362008231,441,731.5714133126395,158.8214362008231,552,751.5714133126395,135.0714362008231,663,755.3214133126395,128.8214362008231,773,755.3214133126395,128.8214362008231,884,832.8214133126395,111.3214362008231,995,1200.3214133126396,37.5714362008231,1107,1229.0714133126396,35.0714362008231,1218,1229.0714133126396,35.0714362008231,1330,1229.0714133126396,35.0714362008231,1440,1229.0714133126396,35.0714362008231,1550,1229.0714133126396,35.0714362008231,1656,1229.0714133126396,35.0714362008231,1766,1229.0714133126396,35.0714362008231,1874,1229.0714133126396,35.0714362008231,1983,1229.0714133126396,35.0714362008231,2091,1229.0714133126396,35.0714362008231,2200,1229.0714133126396,35.0714362008231,2309,1229.0714133126396,35.0714362008231,2418,1229.0714133126396,35.0714362008231,2525,1229.0714133126396,35.0714362008231,2633,1229.0714133126396,35.0714362008231,2741,1229.0714133126396,35.0714362008231,2850,1229.0714133126396,35.0714362008231,2961,1229.0714133126396,35.0714362008231,3067,1229.0714133126396,35.0714362008231,3174,1229.0714133126396,35.0714362008231,3282,1229.0714133126396,35.0714362008231,3388,1229.0714133126396,35.0714362008231,3497,1229.0714133126396,35.0714362008231,3602,1229.0714133126396,35.0714362008231,3710,1229.0714133126396,35.0714362008231,3819,1229.0714133126396,35.0714362008231,3926,1229.0714133126396,35.0714362008231,4034,1229.0714133126396,35.0714362008231,4143,1229.0714133126396,35.0714362008231,4251,1229.0714133126396,35.0714362008231,4359,1229.0714133126396,35.0714362008231,4467,1229.0714133126396,35.0714362008231,4575,1229.0714133126396,35.0714362008231,4683,1229.0714133126396,35.0714362008231,4792,1229.0714133126396,35.0714362008231,4901]","[1470,1470,1000,0,470,""smooth"",""right"",""right"",""good_move"",4230,2760,2365.7,1470,394.3,""smooth"",""right"",""right"",""good_move"",7560,3330,2811.9,4230,518.1,""smooth"",""right"",""right"",""good_move"",25125,17565,2985,21674,466,""oops"",""up"",""left"",""bad_move"",28367,3241,2169.5,25126,1071.5,""smooth"",""up"",""up"",""good_move"",35566,7199,2258.2,32814,493.8,""smooth"",""up"",""up"",""good_move"",42432,6866,2460.7,39466,505.3,""oops"",""right"",""up"",""good_move"",45668,3236,2802.4,42432,433.6,""oops"",""right"",""down"",""bad_move"",57102,11434,3542.7,53067,492.3,""oops"",""right"",""left"",""bad_move"",60265,3163,2626.2,57102,536.8,""oops"",""right"",""right"",""good_move"",63381,3116,2655.3,60265,460.7,""smooth"",""right"",""right"",""good_move"",66777,3396,2894.5,63381,501.5,""smooth"",""up"",""up"",""good_move""]","",""
"7750","","<div style=""width:500px;"">
  <p>What determined the result of this run?</p>
  </div>","60","html-slider-response","35","566864","0.0-5.0-1.5","299","1","2025-07-30 21:12:31","1f75c3e559b7213887762d5229550c2b","91.140.28.218","Mozilla/5.0 (Windows NT 10.0; Win64; x64; rv:141.0) Gecko/20100101 Firefox/141.0","","Firefox","141.0","Windows","10.0","https://app.prolific.com/","en-US,en;q=0.5","56e4b2e044b184000b894159","6877631c9844ddd5501205fc","688a8aafd331b68d864fc9a8","3","1","56e4b2e044b184000b894159","3","1","2025-07-30T21:21:59.265Z","","","","","","","","","","","AttribQ","","50","","","","","","","","","","","","","","","","","","","","","","","","","","","","",""
"6261","","<div style=""width:500px;"">
  <p>How much control did you have over the ball?</p>
  </div>","84","html-slider-response","36","573126","0.0-5.0-2.5","299","1","2025-07-30 21:12:31","1f75c3e559b7213887762d5229550c2b","91.140.28.218","Mozilla/5.0 (Windows NT 10.0; Win64; x64; rv:141.0) Gecko/20100101 Firefox/141.0","","Firefox","141.0","Windows","10.0","https://app.prolific.com/","en-US,en;q=0.5","56e4b2e044b184000b894159","6877631c9844ddd5501205fc","688a8aafd331b68d864fc9a8","3","1","56e4b2e044b184000b894159","3","1","2025-07-30T21:22:05.527Z","","","","","","","","","","","ControlQ","","50","","","","","","","","","","","","","","","","","","","","","","","","","","","","",""
"2857","","<div style=""width:500px;"">
  <p>How would you describe your current emotional state?</p>
  </div>","0","html-slider-response","37","575984","0.0-5.0-3.5","299","1","2025-07-30 21:12:31","1f75c3e559b7213887762d5229550c2b","91.140.28.218","Mozilla/5.0 (Windows NT 10.0; Win64; x64; rv:141.0) Gecko/20100101 Firefox/141.0","","Firefox","141.0","Windows","10.0","https://app.prolific.com/","en-US,en;q=0.5","56e4b2e044b184000b894159","6877631c9844ddd5501205fc","688a8aafd331b68d864fc9a8","3","1","56e4b2e044b184000b894159","3","1","2025-07-30T21:22:08.385Z","","","","","","","","","","","StressQ","","50","","","","","","","","","","","","","","","","","","","","","","","","","","","","",""
"3555","","<div style=""width:500px;"">
  <p>What best describes how you currently feel?</p>
  </div>","93","html-slider-response","38","579541","0.0-5.0-4.5","299","1","2025-07-30 21:12:31","1f75c3e559b7213887762d5229550c2b","91.140.28.218","Mozilla/5.0 (Windows NT 10.0; Win64; x64; rv:141.0) Gecko/20100101 Firefox/141.0","","Firefox","141.0","Windows","10.0","https://app.prolific.com/","en-US,en;q=0.5","56e4b2e044b184000b894159","6877631c9844ddd5501205fc","688a8aafd331b68d864fc9a8","3","1","56e4b2e044b184000b894159","3","1","2025-07-30T21:22:11.942Z","","","","","","","","","","","MotivationQ","","50","","","","","","","","","","","","","","","","","","","","","","","","","","","","",""
"","","","","ctl-task-cpt","39","607965","0.0-5.0-0.6","299","1","2025-07-30 21:12:31","1f75c3e559b7213887762d5229550c2b","91.140.28.218","Mozilla/5.0 (Windows NT 10.0; Win64; x64; rv:141.0) Gecko/20100101 Firefox/141.0","","Firefox","141.0","Windows","10.0","https://app.prolific.com/","en-US,en;q=0.5","56e4b2e044b184000b894159","6877631c9844ddd5501205fc","688a8aafd331b68d864fc9a8","3","1","56e4b2e044b184000b894159","3","1","2025-07-30T21:22:40.366Z","","","","","","","","","","","","","","win-only","0","g1:NW,g2:SE","0.4","7","0","582516","887","5890","25421","1","4","4","6","2","4","4","40","36","0.30303030303030304","907","3000","2045","[""down"",""right""]","{""num_key_presses"":6,""num_perfect"":4,""num_errors"":0,""num_randdir"":2,""num_randdir_good_moves"":2,""num_whilered"":0,""num_whileblue"":0,""num_blue"":1,""num_good_moves"":6}","[419.0714133126395,415.0714362008231,0,419.0714133126395,415.0714362008231,110,419.0714133126395,415.0714362008231,216,419.0714133126395,415.0714362008231,327,489.0714133126395,558.8214362008231,435,620.3214133126395,658.8214362008231,544,700.3214133126395,693.8214362008231,656,746.5714133126395,723.8214362008231,766,759.0714133126395,741.3214362008231,874,759.0714133126395,741.3214362008231,984,827.8214133126395,697.5714362008231,1093,1059.0714133126396,576.3214362008231,1203,1189.0714133126396,521.3214362008231,1314,1189.0714133126396,521.3214362008231,1425,1189.0714133126396,521.3214362008231,1532,1189.0714133126396,521.3214362008231,1640,1189.0714133126396,521.3214362008231,1747,1189.0714133126396,521.3214362008231,1857,1189.0714133126396,521.3214362008231,1965,1189.0714133126396,521.3214362008231,2074,1189.0714133126396,521.3214362008231,2180,1189.0714133126396,521.3214362008231,2290,1189.0714133126396,521.3214362008231,2400,1189.0714133126396,521.3214362008231,2510,1189.0714133126396,521.3214362008231,2620,1189.0714133126396,521.3214362008231,2727,1189.0714133126396,521.3214362008231,2837,1189.0714133126396,521.3214362008231,2945,1189.0714133126396,521.3214362008231,3053,1191.5714133126396,518.8214362008231,3161,1191.5714133126396,518.8214362008231,3269,1191.5714133126396,518.8214362008231,3377,1191.5714133126396,518.8214362008231,3486,1191.5714133126396,518.8214362008231,3594,1191.5714133126396,518.8214362008231,3702,1191.5714133126396,518.8214362008231,3810,1191.5714133126396,518.8214362008231,3920,1191.5714133126396,518.8214362008231,4030,1191.5714133126396,518.8214362008231,4138,1191.5714133126396,518.8214362008231,4246,1191.5714133126396,518.8214362008231,4354,1191.5714133126396,518.8214362008231,4463,1191.5714133126396,518.8214362008231,4571,1191.5714133126396,518.8214362008231,4679,1191.5714133126396,518.8214362008231,4786,1191.5714133126396,518.8214362008231,4894]","[1409,1409,1000,0,409,""smooth"",""right"",""right"",""good_move"",4346,2937,2532,1409,405,""smooth"",""right"",""right"",""good_move"",7076,2730,2268.5,4346,461.5,""smooth"",""right"",""right"",""good_move"",9313,2237,1799.5,7076,437.5,""smooth"",""down"",""down"",""good_move"",16204,6891,2991.2,12742,470.8,""oops"",""down"",""down"",""good_move"",19264,3059,2148.6,16205,910.4,""oops"",""down"",""down"",""good_move""]","",""
"4632","","<div style=""width:500px;"">
  <p>What determined the result of this run?</p>
  </div>","57","html-slider-response","40","612598","0.0-5.0-1.6","299","1","2025-07-30 21:12:31","1f75c3e559b7213887762d5229550c2b","91.140.28.218","Mozilla/5.0 (Windows NT 10.0; Win64; x64; rv:141.0) Gecko/20100101 Firefox/141.0","","Firefox","141.0","Windows","10.0","https://app.prolific.com/","en-US,en;q=0.5","56e4b2e044b184000b894159","6877631c9844ddd5501205fc","688a8aafd331b68d864fc9a8","3","1","56e4b2e044b184000b894159","3","1","2025-07-30T21:22:44.999Z","","","","","","","","","","","AttribQ","","50","","","","","","","","","","","","","","","","","","","","","","","","","","","","",""
"4932","","<div style=""width:500px;"">
  <p>How much control did you have over the ball?</p>
  </div>","88","html-slider-response","41","617531","0.0-5.0-2.6","299","1","2025-07-30 21:12:31","1f75c3e559b7213887762d5229550c2b","91.140.28.218","Mozilla/5.0 (Windows NT 10.0; Win64; x64; rv:141.0) Gecko/20100101 Firefox/141.0","","Firefox","141.0","Windows","10.0","https://app.prolific.com/","en-US,en;q=0.5","56e4b2e044b184000b894159","6877631c9844ddd5501205fc","688a8aafd331b68d864fc9a8","3","1","56e4b2e044b184000b894159","3","1","2025-07-30T21:22:49.932Z","","","","","","","","","","","ControlQ","","50","","","","","","","","","","","","","","","","","","","","","","","","","","","","",""
"3385","","<div style=""width:500px;"">
  <p>How would you describe your current emotional state?</p>
  </div>","0","html-slider-response","42","620917","0.0-5.0-3.6","299","1","2025-07-30 21:12:31","1f75c3e559b7213887762d5229550c2b","91.140.28.218","Mozilla/5.0 (Windows NT 10.0; Win64; x64; rv:141.0) Gecko/20100101 Firefox/141.0","","Firefox","141.0","Windows","10.0","https://app.prolific.com/","en-US,en;q=0.5","56e4b2e044b184000b894159","6877631c9844ddd5501205fc","688a8aafd331b68d864fc9a8","3","1","56e4b2e044b184000b894159","3","1","2025-07-30T21:22:53.318Z","","","","","","","","","","","StressQ","","50","","","","","","","","","","","","","","","","","","","","","","","","","","","","",""
"4299","","<div style=""width:500px;"">
  <p>What best describes how you currently feel?</p>
  </div>","93","html-slider-response","43","625217","0.0-5.0-4.6","299","1","2025-07-30 21:12:31","1f75c3e559b7213887762d5229550c2b","91.140.28.218","Mozilla/5.0 (Windows NT 10.0; Win64; x64; rv:141.0) Gecko/20100101 Firefox/141.0","","Firefox","141.0","Windows","10.0","https://app.prolific.com/","en-US,en;q=0.5","56e4b2e044b184000b894159","6877631c9844ddd5501205fc","688a8aafd331b68d864fc9a8","3","1","56e4b2e044b184000b894159","3","1","2025-07-30T21:22:57.618Z","","","","","","","","","","","MotivationQ","","50","","","","","","","","","","","","","","","","","","","","","","","","","","","","",""
"","","","","ctl-task-cpt","44","678005","0.0-5.0-0.7","299","1","2025-07-30 21:12:31","1f75c3e559b7213887762d5229550c2b","91.140.28.218","Mozilla/5.0 (Windows NT 10.0; Win64; x64; rv:141.0) Gecko/20100101 Firefox/141.0","","Firefox","141.0","Windows","10.0","https://app.prolific.com/","en-US,en;q=0.5","56e4b2e044b184000b894159","6877631c9844ddd5501205fc","688a8aafd331b68d864fc9a8","3","1","56e4b2e044b184000b894159","3","1","2025-07-30T21:23:50.406Z","","","","","","","","","","","","","","win-only","0","g1:NW,g2:SE","0.3","8","0","628193","1767","6771","49776","1","4","8","6","2","8","8","48","40","0.36363636363636365","813","3000","1395","[""down"",""right""]","{""num_key_presses"":12,""num_perfect"":4,""num_errors"":0,""num_randdir"":8,""num_randdir_good_moves"":5,""num_whilered"":0,""num_whileblue"":0,""num_blue"":2,""num_good_moves"":9}","[424.0714133126395,413.8214362008231,0,420.3214133126395,418.8214362008231,110,419.0714133126395,421.3214362008231,218,419.0714133126395,430.0714362008231,327,514.0714133126395,570.0714362008231,435,661.5714133126395,678.8214362008231,546,731.5714133126395,712.5714362008231,654,802.8214133126395,747.5714362008231,764,802.8214133126395,748.8214362008231,872,809.0714133126395,751.3214362008231,981,852.8214133126395,718.8214362008231,1089,1046.5714133126396,520.0714362008231,1199,1084.0714133126396,457.5714362008231,1309,1084.0714133126396,457.5714362008231,1415,1084.0714133126396,457.5714362008231,1526,1084.0714133126396,457.5714362008231,1638,1084.0714133126396,457.5714362008231,1750,1084.0714133126396,457.5714362008231,1861,1084.0714133126396,457.5714362008231,1972,1084.0714133126396,457.5714362008231,2084,1084.0714133126396,457.5714362008231,2196,1084.0714133126396,457.5714362008231,2307,1084.0714133126396,457.5714362008231,2418,1084.0714133126396,457.5714362008231,2531,1084.0714133126396,457.5714362008231,2637,1084.0714133126396,457.5714362008231,2745,1084.0714133126396,457.5714362008231,2852,1084.0714133126396,457.5714362008231,2960,1084.0714133126396,457.5714362008231,3070,1084.0714133126396,457.5714362008231,3177,1084.0714133126396,457.5714362008231,3286,1084.0714133126396,457.5714362008231,3394,1084.0714133126396,457.5714362008231,3504,1084.0714133126396,457.5714362008231,3611,1084.0714133126396,457.5714362008231,3718,1084.0714133126396,457.5714362008231,3826,1084.0714133126396,457.5714362008231,3935,1084.0714133126396,457.5714362008231,4044,1084.0714133126396,457.5714362008231,4153,1084.0714133126396,457.5714362008231,4258,1084.0714133126396,457.5714362008231,4366,1084.0714133126396,457.5714362008231,4474,1084.0714133126396,457.5714362008231,4586,1084.0714133126396,457.5714362008231,4700,1084.0714133126396,457.5714362008231,4814,1084.0714133126396,457.5714362008231,4925]","[1402,1402,1000,0,402,""smooth"",""right"",""right"",""good_move"",4437,3035,2629.9,1402,405.1,""oops"",""right"",""up"",""bad_move"",7650,3213,2721.4,4437,491.6,""smooth"",""right"",""right"",""good_move"",10783,3133,2745.8,7650,387.2,""smooth"",""right"",""right"",""good_move"",13645,2862,2434.2,10783,427.8,""oops"",""down"",""down"",""good_move"",16750,3105,2639.8,13645,465.2,""oops"",""down"",""down"",""good_move"",19534,2784,2332.1,16750,451.9,""oops"",""down"",""left"",""bad_move"",22653,3118,2457.2,19535,660.8,""oops"",""down"",""up"",""bad_move"",25773,3120,2520.6,22653,599.4,""oops"",""down"",""right"",""good_move"",29049,3276,2889.5,25773,386.5,""oops"",""down"",""down"",""good_move"",35916,6867,2630.6,32771,514.4,""oops"",""down"",""down"",""good_move"",42723,6807,2517.4,39731,474.6,""smooth"",""down"",""down"",""good_move""]","",""
"9210","","<div style=""width:500px;"">
  <p>What determined the result of this run?</p>
  </div>","58","html-slider-response","45","687215","0.0-5.0-1.7","299","1","2025-07-30 21:12:31","1f75c3e559b7213887762d5229550c2b","91.140.28.218","Mozilla/5.0 (Windows NT 10.0; Win64; x64; rv:141.0) Gecko/20100101 Firefox/141.0","","Firefox","141.0","Windows","10.0","https://app.prolific.com/","en-US,en;q=0.5","56e4b2e044b184000b894159","6877631c9844ddd5501205fc","688a8aafd331b68d864fc9a8","3","1","56e4b2e044b184000b894159","3","1","2025-07-30T21:23:59.616Z","","","","","","","","","","","AttribQ","","50","","","","","","","","","","","","","","","","","","","","","","","","","","","","",""
"7940","","<div style=""width:500px;"">
  <p>How much control did you have over the ball?</p>
  </div>","78","html-slider-response","46","695157","0.0-5.0-2.7","299","1","2025-07-30 21:12:31","1f75c3e559b7213887762d5229550c2b","91.140.28.218","Mozilla/5.0 (Windows NT 10.0; Win64; x64; rv:141.0) Gecko/20100101 Firefox/141.0","","Firefox","141.0","Windows","10.0","https://app.prolific.com/","en-US,en;q=0.5","56e4b2e044b184000b894159","6877631c9844ddd5501205fc","688a8aafd331b68d864fc9a8","3","1","56e4b2e044b184000b894159","3","1","2025-07-30T21:24:07.558Z","","","","","","","","","","","ControlQ","","50","","","","","","","","","","","","","","","","","","","","","","","","","","","","",""
"3356","","<div style=""width:500px;"">
  <p>How would you describe your current emotional state?</p>
  </div>","0","html-slider-response","47","698514","0.0-5.0-3.7","299","1","2025-07-30 21:12:31","1f75c3e559b7213887762d5229550c2b","91.140.28.218","Mozilla/5.0 (Windows NT 10.0; Win64; x64; rv:141.0) Gecko/20100101 Firefox/141.0","","Firefox","141.0","Windows","10.0","https://app.prolific.com/","en-US,en;q=0.5","56e4b2e044b184000b894159","6877631c9844ddd5501205fc","688a8aafd331b68d864fc9a8","3","1","56e4b2e044b184000b894159","3","1","2025-07-30T21:24:10.915Z","","","","","","","","","","","StressQ","","50","","","","","","","","","","","","","","","","","","","","","","","","","","","","",""
"4042","","<div style=""width:500px;"">
  <p>What best describes how you currently feel?</p>
  </div>","92","html-slider-response","48","702557","0.0-5.0-4.7","299","1","2025-07-30 21:12:31","1f75c3e559b7213887762d5229550c2b","91.140.28.218","Mozilla/5.0 (Windows NT 10.0; Win64; x64; rv:141.0) Gecko/20100101 Firefox/141.0","","Firefox","141.0","Windows","10.0","https://app.prolific.com/","en-US,en;q=0.5","56e4b2e044b184000b894159","6877631c9844ddd5501205fc","688a8aafd331b68d864fc9a8","3","1","56e4b2e044b184000b894159","3","1","2025-07-30T21:24:14.958Z","","","","","","","","","","","MotivationQ","","50","","","","","","","","","","","","","","","","","","","","","","","","","","","","",""
"","","","","ctl-task-cpt","49","799548","0.0-5.0-0.8","299","1","2025-07-30 21:12:31","1f75c3e559b7213887762d5229550c2b","91.140.28.218","Mozilla/5.0 (Windows NT 10.0; Win64; x64; rv:141.0) Gecko/20100101 Firefox/141.0","","Firefox","141.0","Windows","10.0","https://app.prolific.com/","en-US,en;q=0.5","56e4b2e044b184000b894159","6877631c9844ddd5501205fc","688a8aafd331b68d864fc9a8","3","1","56e4b2e044b184000b894159","3","1","2025-07-30T21:25:51.949Z","","","","","","","","","","","","","","win-only","2","g1:SE,g2:NW","0.2","9","0","705533","1143","6154","93982","1","4","4","6","2","-4","-4","44","48","0.3333333333333333","970","3000","-945","[""left"",""up""]","{""num_key_presses"":22,""num_perfect"":5,""num_errors"":0,""num_randdir"":17,""num_randdir_good_moves"":7,""num_whilered"":0,""num_whileblue"":0,""num_blue"":5,""num_good_moves"":12}","[409.0714133126395,420.0714362008231,0,409.0714133126395,420.0714362008231,107,409.0714133126395,420.0714362008231,216,409.0714133126395,420.0714362008231,325,429.0714133126395,422.5714362008231,435,259.0714133126395,166.3214362008231,545,165.3214133126395,75.0714362008231,653,137.8214133126395,61.3214362008231,762,100.3214133126395,61.3214362008231,871,85.3214133126395,63.8214362008231,979,85.3214133126395,63.8214362008231,1088,66.5714133126395,72.5714362008231,1198,-394.6785866873605,177.5714362008231,1307,-452.1785866873605,183.8214362008231,1416,-460.9285866873605,183.8214362008231,1522,-454.6785866873605,183.8214362008231,1632,-454.6785866873605,183.8214362008231,1743,-454.6785866873605,183.8214362008231,1854,-454.6785866873605,183.8214362008231,1954,-454.6785866873605,183.8214362008231,2056,-454.6785866873605,183.8214362008231,2160,-454.6785866873605,183.8214362008231,2272,-454.6785866873605,183.8214362008231,2378,-454.6785866873605,183.8214362008231,2479,-454.6785866873605,183.8214362008231,2588,-454.6785866873605,183.8214362008231,2692,-454.6785866873605,183.8214362008231,2795,-454.6785866873605,183.8214362008231,2896,-454.6785866873605,183.8214362008231,3008,-454.6785866873605,183.8214362008231,3120,-454.6785866873605,183.8214362008231,3226,-454.6785866873605,183.8214362008231,3338,-454.6785866873605,183.8214362008231,3446,-454.6785866873605,183.8214362008231,3550,-454.6785866873605,183.8214362008231,3651,-454.6785866873605,183.8214362008231,3758,-454.6785866873605,183.8214362008231,3865,-454.6785866873605,183.8214362008231,3973,-454.6785866873605,183.8214362008231,4084,-454.6785866873605,183.8214362008231,4192,-454.6785866873605,183.8214362008231,4300,-454.6785866873605,183.8214362008231,4407,-454.6785866873605,183.8214362008231,4517,-454.6785866873605,183.8214362008231,4626,-454.6785866873605,183.8214362008231,4735,-454.6785866873605,183.8214362008231,4843,-454.6785866873605,183.8214362008231,4951]","[1435,1435,1000,0,435,""smooth"",""left"",""left"",""good_move"",4514,3079,2553.5,1435,525.5,""oops"",""left"",""down"",""bad_move"",7654,3140,2678.2,4514,461.8,""oops"",""left"",""right"",""bad_move"",10646,2991,2571,7655,420,""oops"",""left"",""left"",""good_move"",13625,2979,1970.2,10646,1008.8,""oops"",""left"",""right"",""bad_move"",17505,3880,3470,13625,410,""smooth"",""left"",""left"",""good_move"",20485,2980,2527.8,17505,452.2,""oops"",""left"",""down"",""bad_move"",23259,2774,2384,20485,390,""oops"",""left"",""up"",""good_move"",29410,6151,2038.3,26917,454.7,""oops"",""left"",""left"",""good_move"",32993,3583,3162.6,29410,420.4,""oops"",""left"",""right"",""bad_move"",36412,3419,2992.8,32993,426.2,""oops"",""up"",""right"",""bad_move"",44094,7682,3212.2,40356,525.8,""oops"",""up"",""right"",""bad_move"",53198,9104,1430.2,51330,437.8,""oops"",""left"",""right"",""bad_move"",56882,3683,3211.8,53199,471.2,""oops"",""left"",""up"",""good_move"",59936,3054,1995.6,56882,1058.4,""smooth"",""left"",""left"",""good_move"",62924,2988,1702.8,59936,1285.2,""oops"",""left"",""up"",""good_move"",65910,2986,2667.8,62924,318.2,""smooth"",""left"",""left"",""good_move"",68937,3026,2460.3,65911,565.7,""oops"",""left"",""down"",""bad_move"",72245,3308,2856.2,68937,451.8,""oops"",""left"",""left"",""good_move"",78990,6745,2330.5,76148,511.5,""oops"",""left"",""left"",""good_move"",82139,3149,2086.6,78990,1062.4,""smooth"",""left"",""left"",""good_move"",85232,3093,2728.8,82139,364.2,""oops"",""up"",""down"",""bad_move""]","",""
"5059","","<div style=""width:500px;"">
  <p>What determined the result of this run?</p>
  </div>","38","html-slider-response","50","804607","0.0-5.0-1.8","299","1","2025-07-30 21:12:31","1f75c3e559b7213887762d5229550c2b","91.140.28.218","Mozilla/5.0 (Windows NT 10.0; Win64; x64; rv:141.0) Gecko/20100101 Firefox/141.0","","Firefox","141.0","Windows","10.0","https://app.prolific.com/","en-US,en;q=0.5","56e4b2e044b184000b894159","6877631c9844ddd5501205fc","688a8aafd331b68d864fc9a8","3","1","56e4b2e044b184000b894159","3","1","2025-07-30T21:25:57.008Z","","","","","","","","","","","AttribQ","","50","","","","","","","","","","","","","","","","","","","","","","","","","","","","",""
"6237","","<div style=""width:500px;"">
  <p>How much control did you have over the ball?</p>
  </div>","4","html-slider-response","51","810844","0.0-5.0-2.8","299","1","2025-07-30 21:12:31","1f75c3e559b7213887762d5229550c2b","91.140.28.218","Mozilla/5.0 (Windows NT 10.0; Win64; x64; rv:141.0) Gecko/20100101 Firefox/141.0","","Firefox","141.0","Windows","10.0","https://app.prolific.com/","en-US,en;q=0.5","56e4b2e044b184000b894159","6877631c9844ddd5501205fc","688a8aafd331b68d864fc9a8","3","1","56e4b2e044b184000b894159","3","1","2025-07-30T21:26:03.245Z","","","","","","","","","","","ControlQ","","50","","","","","","","","","","","","","","","","","","","","","","","","","","","","",""
"3805","","<div style=""width:500px;"">
  <p>How would you describe your current emotional state?</p>
  </div>","0","html-slider-response","52","814649","0.0-5.0-3.8","299","1","2025-07-30 21:12:31","1f75c3e559b7213887762d5229550c2b","91.140.28.218","Mozilla/5.0 (Windows NT 10.0; Win64; x64; rv:141.0) Gecko/20100101 Firefox/141.0","","Firefox","141.0","Windows","10.0","https://app.prolific.com/","en-US,en;q=0.5","56e4b2e044b184000b894159","6877631c9844ddd5501205fc","688a8aafd331b68d864fc9a8","3","1","56e4b2e044b184000b894159","3","1","2025-07-30T21:26:07.050Z","","","","","","","","","","","StressQ","","50","","","","","","","","","","","","","","","","","","","","","","","","","","","","",""
"6587","","<div style=""width:500px;"">
  <p>What best describes how you currently feel?</p>
  </div>","92","html-slider-response","53","821237","0.0-5.0-4.8","299","1","2025-07-30 21:12:31","1f75c3e559b7213887762d5229550c2b","91.140.28.218","Mozilla/5.0 (Windows NT 10.0; Win64; x64; rv:141.0) Gecko/20100101 Firefox/141.0","","Firefox","141.0","Windows","10.0","https://app.prolific.com/","en-US,en;q=0.5","56e4b2e044b184000b894159","6877631c9844ddd5501205fc","688a8aafd331b68d864fc9a8","3","1","56e4b2e044b184000b894159","3","1","2025-07-30T21:26:13.638Z","","","","","","","","","","","MotivationQ","","50","","","","","","","","","","","","","","","","","","","","","","","","","","","","",""
"","","","","ctl-task-cpt","54","847236","0.0-5.0-0.9","299","1","2025-07-30 21:12:31","1f75c3e559b7213887762d5229550c2b","91.140.28.218","Mozilla/5.0 (Windows NT 10.0; Win64; x64; rv:141.0) Gecko/20100101 Firefox/141.0","","Firefox","141.0","Windows","10.0","https://app.prolific.com/","en-US,en;q=0.5","56e4b2e044b184000b894159","6877631c9844ddd5501205fc","688a8aafd331b68d864fc9a8","3","1","56e4b2e044b184000b894159","3","1","2025-07-30T21:26:39.637Z","","","","","","","","","","","","","","win-only","0","g1:NW,g2:SE","0.4","10","0","824213","1379","6381","22993","1","4","8","6","2","8","8","52","44","0.3939393939393939","803","3000","2230","[""down"",""right""]","{""num_key_presses"":6,""num_perfect"":4,""num_errors"":0,""num_randdir"":2,""num_randdir_good_moves"":2,""num_whilered"":0,""num_whileblue"":0,""num_blue"":0,""num_good_moves"":6}","[424.0714133126395,422.5714362008231,0,424.0714133126395,422.5714362008231,108,424.0714133126395,422.5714362008231,216,424.0714133126395,422.5714362008231,325,424.0714133126395,422.5714362008231,434,589.0714133126395,682.5714362008231,543,744.0714133126395,797.5714362008231,652,760.3214133126395,807.5714362008231,760,760.3214133126395,807.5714362008231,867,819.0714133126395,690.0714362008231,977,992.8214133126395,543.8214362008231,1085,1029.0714133126396,517.5714362008231,1192,1029.0714133126396,517.5714362008231,1300,1029.0714133126396,517.5714362008231,1408,1029.0714133126396,517.5714362008231,1518,1029.0714133126396,517.5714362008231,1626,1029.0714133126396,517.5714362008231,1736,1029.0714133126396,517.5714362008231,1844,1029.0714133126396,517.5714362008231,1953,1029.0714133126396,517.5714362008231,2058,1029.0714133126396,517.5714362008231,2166,1029.0714133126396,517.5714362008231,2277,1029.0714133126396,517.5714362008231,2385,1029.0714133126396,517.5714362008231,2494,1029.0714133126396,517.5714362008231,2603,1029.0714133126396,517.5714362008231,2711,1029.0714133126396,517.5714362008231,2819,1029.0714133126396,517.5714362008231,2928,1029.0714133126396,517.5714362008231,3037,1029.0714133126396,517.5714362008231,3143,1029.0714133126396,517.5714362008231,3252,1029.0714133126396,517.5714362008231,3359,1029.0714133126396,517.5714362008231,3468,1029.0714133126396,517.5714362008231,3575,1029.0714133126396,517.5714362008231,3685,1029.0714133126396,517.5714362008231,3795,1029.0714133126396,517.5714362008231,3905,1029.0714133126396,517.5714362008231,4013,1029.0714133126396,517.5714362008231,4122,1029.0714133126396,517.5714362008231,4228,1029.0714133126396,517.5714362008231,4337,1029.0714133126396,517.5714362008231,4446,1029.0714133126396,517.5714362008231,4554,1029.0714133126396,517.5714362008231,4662,1029.0714133126396,517.5714362008231,4770,1029.0714133126396,517.5714362008231,4876,1029.0714133126396,517.5714362008231,4988]","[1405,1405,1000,0,405,""smooth"",""right"",""right"",""good_move"",4433,3028,2660.1,1405,367.9,""smooth"",""right"",""right"",""good_move"",7301,2868,2470.4,4433,397.6,""smooth"",""right"",""right"",""good_move"",9655,2354,1828,7301,526,""smooth"",""down"",""down"",""good_move"",12967,3312,2905.7,9655,406.3,""oops"",""down"",""down"",""good_move"",16344,3377,2993.9,12967,383.1,""oops"",""down"",""down"",""good_move""]","",""
"5028","","<div style=""width:500px;"">
  <p>What determined the result of this run?</p>
  </div>","59","html-slider-response","55","852265","0.0-5.0-1.9","299","1","2025-07-30 21:12:31","1f75c3e559b7213887762d5229550c2b","91.140.28.218","Mozilla/5.0 (Windows NT 10.0; Win64; x64; rv:141.0) Gecko/20100101 Firefox/141.0","","Firefox","141.0","Windows","10.0","https://app.prolific.com/","en-US,en;q=0.5","56e4b2e044b184000b894159","6877631c9844ddd5501205fc","688a8aafd331b68d864fc9a8","3","1","56e4b2e044b184000b894159","3","1","2025-07-30T21:26:44.666Z","","","","","","","","","","","AttribQ","","50","","","","","","","","","","","","","","","","","","","","","","","","","","","","",""
"4104","","<div style=""width:500px;"">
  <p>How much control did you have over the ball?</p>
  </div>","97","html-slider-response","56","856370","0.0-5.0-2.9","299","1","2025-07-30 21:12:31","1f75c3e559b7213887762d5229550c2b","91.140.28.218","Mozilla/5.0 (Windows NT 10.0; Win64; x64; rv:141.0) Gecko/20100101 Firefox/141.0","","Firefox","141.0","Windows","10.0","https://app.prolific.com/","en-US,en;q=0.5","56e4b2e044b184000b894159","6877631c9844ddd5501205fc","688a8aafd331b68d864fc9a8","3","1","56e4b2e044b184000b894159","3","1","2025-07-30T21:26:48.771Z","","","","","","","","","","","ControlQ","","50","","","","","","","","","","","","","","","","","","","","","","","","","","","","",""
"2675","","<div style=""width:500px;"">
  <p>How would you describe your current emotional state?</p>
  </div>","0","html-slider-response","57","859047","0.0-5.0-3.9","299","1","2025-07-30 21:12:31","1f75c3e559b7213887762d5229550c2b","91.140.28.218","Mozilla/5.0 (Windows NT 10.0; Win64; x64; rv:141.0) Gecko/20100101 Firefox/141.0","","Firefox","141.0","Windows","10.0","https://app.prolific.com/","en-US,en;q=0.5","56e4b2e044b184000b894159","6877631c9844ddd5501205fc","688a8aafd331b68d864fc9a8","3","1","56e4b2e044b184000b894159","3","1","2025-07-30T21:26:51.448Z","","","","","","","","","","","StressQ","","50","","","","","","","","","","","","","","","","","","","","","","","","","","","","",""
"3850","","<div style=""width:500px;"">
  <p>What best describes how you currently feel?</p>
  </div>","94","html-slider-response","58","862897","0.0-5.0-4.9","299","1","2025-07-30 21:12:31","1f75c3e559b7213887762d5229550c2b","91.140.28.218","Mozilla/5.0 (Windows NT 10.0; Win64; x64; rv:141.0) Gecko/20100101 Firefox/141.0","","Firefox","141.0","Windows","10.0","https://app.prolific.com/","en-US,en;q=0.5","56e4b2e044b184000b894159","6877631c9844ddd5501205fc","688a8aafd331b68d864fc9a8","3","1","56e4b2e044b184000b894159","3","1","2025-07-30T21:26:55.298Z","","","","","","","","","","","MotivationQ","","50","","","","","","","","","","","","","","","","","","","","","","","","","","","","",""
"","","","","ctl-task-cpt","59","963566","0.0-5.0-0.10","299","1","2025-07-30 21:12:31","1f75c3e559b7213887762d5229550c2b","91.140.28.218","Mozilla/5.0 (Windows NT 10.0; Win64; x64; rv:141.0) Gecko/20100101 Firefox/141.0","","Firefox","141.0","Windows","10.0","https://app.prolific.com/","en-US,en;q=0.5","56e4b2e044b184000b894159","6877631c9844ddd5501205fc","688a8aafd331b68d864fc9a8","3","1","56e4b2e044b184000b894159","3","1","2025-07-30T21:28:35.967Z","","","","","","","","","","","","","","win-only","2","g1:SE,g2:NW","0.5","11","0","865873","743","5756","97667","1","4","4","6","2","-4","-4","48","52","0.36363636363636365","897","3000","-945","[""left"",""up""]","{""num_key_presses"":20,""num_perfect"":10,""num_errors"":0,""num_randdir"":10,""num_randdir_good_moves"":2,""num_whilered"":0,""num_whileblue"":0,""num_blue"":8,""num_good_moves"":12}","[411.5714133126395,423.8214362008231,0,411.5714133126395,423.8214362008231,101,411.5714133126395,423.8214362008231,210,415.3214133126395,423.8214362008231,316,426.5714133126395,433.8214362008231,427,184.0714133126395,251.3214362008231,537,99.0714133126395,186.3214362008231,644,70.3214133126395,140.0714362008231,756,52.82141331263951,97.5714362008231,863,52.82141331263951,97.5714362008231,971,34.07141331263951,108.8214362008231,1079,-167.1785866873605,183.8214362008231,1189,-242.1785866873605,196.3214362008231,1298,-250.9285866873605,196.3214362008231,1407,-250.9285866873605,196.3214362008231,1516,-250.9285866873605,196.3214362008231,1624,-250.9285866873605,196.3214362008231,1731,-250.9285866873605,196.3214362008231,1839,-250.9285866873605,196.3214362008231,1948,-250.9285866873605,196.3214362008231,2055,-250.9285866873605,196.3214362008231,2165,-250.9285866873605,196.3214362008231,2274,-250.9285866873605,196.3214362008231,2383,-250.9285866873605,196.3214362008231,2493,-250.9285866873605,196.3214362008231,2600,-250.9285866873605,196.3214362008231,2708,-250.9285866873605,196.3214362008231,2816,-250.9285866873605,196.3214362008231,2924,-250.9285866873605,196.3214362008231,3034,-250.9285866873605,196.3214362008231,3140,-250.9285866873605,196.3214362008231,3248,-250.9285866873605,196.3214362008231,3358,-250.9285866873605,196.3214362008231,3468,-250.9285866873605,196.3214362008231,3577,-250.9285866873605,196.3214362008231,3684,-250.9285866873605,196.3214362008231,3792,-250.9285866873605,196.3214362008231,3899,-250.9285866873605,196.3214362008231,4006,-250.9285866873605,196.3214362008231,4114,-250.9285866873605,196.3214362008231,4222,-250.9285866873605,196.3214362008231,4330,-250.9285866873605,196.3214362008231,4440,-250.9285866873605,196.3214362008231,4547,-250.9285866873605,196.3214362008231,4655,-250.9285866873605,196.3214362008231,4764,-250.9285866873605,196.3214362008231,4873,-250.9285866873605,196.3214362008231,4982]","[10937,10937,2081.1,8319,536.9,""oops"",""left"",""down"",""bad_move"",14013,3076,2588.7,10937,487.3,""smooth"",""left"",""left"",""good_move"",17129,3116,2408.3,14013,707.7,""oops"",""left"",""right"",""bad_move"",20699,3570,3168.6,17129,401.4,""smooth"",""left"",""left"",""good_move"",23779,3079,2624.3,20700,454.7,""oops"",""left"",""left"",""good_move"",26936,3157,2032,23779,1125,""smooth"",""left"",""left"",""good_move"",33187,6251,2156.5,30566,464.5,""smooth"",""up"",""up"",""good_move"",36196,3009,2630.3,33187,378.7,""smooth"",""up"",""up"",""good_move"",43915,7719,3317.1,40025,572.9,""oops"",""up"",""down"",""bad_move"",47089,3173,2536.7,43916,636.3,""oops"",""up"",""down"",""bad_move"",49838,2749,2305.2,47089,443.8,""oops"",""up"",""down"",""bad_move"",52992,3154,2715.4,49838,438.6,""smooth"",""up"",""up"",""good_move"",55951,2959,2249.5,52992,709.5,""oops"",""up"",""right"",""bad_move"",58533,2581,2047.8,55952,533.2,""smooth"",""up"",""up"",""good_move"",70324,11791,3090.1,66717,516.9,""oops"",""up"",""right"",""bad_move"",74023,3699,3224.4,70324,474.6,""smooth"",""up"",""up"",""good_move"",77419,3396,1958.4,74023,1437.6,""smooth"",""up"",""up"",""good_move"",80391,2972,2618.3,77419,353.7,""smooth"",""left"",""left"",""good_move"",86709,6318,2186.2,84083,439.8,""oops"",""left"",""down"",""bad_move"",89113,2404,1917.5,86709,486.5,""oops"",""left"",""up"",""good_move""]","",""
"5566","","<div style=""width:500px;"">
  <p>What determined the result of this run?</p>
  </div>","25","html-slider-response","60","969131","0.0-5.0-1.10","299","1","2025-07-30 21:12:31","1f75c3e559b7213887762d5229550c2b","91.140.28.218","Mozilla/5.0 (Windows NT 10.0; Win64; x64; rv:141.0) Gecko/20100101 Firefox/141.0","","Firefox","141.0","Windows","10.0","https://app.prolific.com/","en-US,en;q=0.5","56e4b2e044b184000b894159","6877631c9844ddd5501205fc","688a8aafd331b68d864fc9a8","3","1","56e4b2e044b184000b894159","3","1","2025-07-30T21:28:41.532Z","","","","","","","","","","","AttribQ","","50","","","","","","","","","","","","","","","","","","","","","","","","","","","","",""
"6083","","<div style=""width:500px;"">
  <p>How much control did you have over the ball?</p>
  </div>","18","html-slider-response","61","975215","0.0-5.0-2.10","299","1","2025-07-30 21:12:31","1f75c3e559b7213887762d5229550c2b","91.140.28.218","Mozilla/5.0 (Windows NT 10.0; Win64; x64; rv:141.0) Gecko/20100101 Firefox/141.0","","Firefox","141.0","Windows","10.0","https://app.prolific.com/","en-US,en;q=0.5","56e4b2e044b184000b894159","6877631c9844ddd5501205fc","688a8aafd331b68d864fc9a8","3","1","56e4b2e044b184000b894159","3","1","2025-07-30T21:28:47.616Z","","","","","","","","","","","ControlQ","","50","","","","","","","","","","","","","","","","","","","","","","","","","","","","",""
"2949","","<div style=""width:500px;"">
  <p>How would you describe your current emotional state?</p>
  </div>","0","html-slider-response","62","978164","0.0-5.0-3.10","299","1","2025-07-30 21:12:31","1f75c3e559b7213887762d5229550c2b","91.140.28.218","Mozilla/5.0 (Windows NT 10.0; Win64; x64; rv:141.0) Gecko/20100101 Firefox/141.0","","Firefox","141.0","Windows","10.0","https://app.prolific.com/","en-US,en;q=0.5","56e4b2e044b184000b894159","6877631c9844ddd5501205fc","688a8aafd331b68d864fc9a8","3","1","56e4b2e044b184000b894159","3","1","2025-07-30T21:28:50.565Z","","","","","","","","","","","StressQ","","50","","","","","","","","","","","","","","","","","","","","","","","","","","","","",""
"10534","","<div style=""width:500px;"">
  <p>What best describes how you currently feel?</p>
  </div>","91","html-slider-response","63","988699","0.0-5.0-4.10","299","1","2025-07-30 21:12:31","1f75c3e559b7213887762d5229550c2b","91.140.28.218","Mozilla/5.0 (Windows NT 10.0; Win64; x64; rv:141.0) Gecko/20100101 Firefox/141.0","","Firefox","141.0","Windows","10.0","https://app.prolific.com/","en-US,en;q=0.5","56e4b2e044b184000b894159","6877631c9844ddd5501205fc","688a8aafd331b68d864fc9a8","3","1","56e4b2e044b184000b894159","3","1","2025-07-30T21:29:01.100Z","","","","","","","","","","","MotivationQ","","50","","","","","","","","","","","","","","","","","","","","","","","","","","","","",""
"","","","","ctl-task-cpt","64","1036503","0.0-5.0-0.11","299","1","2025-07-30 21:12:31","1f75c3e559b7213887762d5229550c2b","91.140.28.218","Mozilla/5.0 (Windows NT 10.0; Win64; x64; rv:141.0) Gecko/20100101 Firefox/141.0","","Firefox","141.0","Windows","10.0","https://app.prolific.com/","en-US,en;q=0.5","56e4b2e044b184000b894159","6877631c9844ddd5501205fc","688a8aafd331b68d864fc9a8","3","1","56e4b2e044b184000b894159","3","1","2025-07-30T21:29:48.905Z","","","","","","","","","","","","","","win-only","0","g1:NW,g2:SE","0.6","12","0","991675","835","5850","44790","1","4","8","6","2","8","8","56","48","0.42424242424242425","870","3000","2100","[""down"",""right""]","{""num_key_presses"":6,""num_perfect"":4,""num_errors"":0,""num_randdir"":2,""num_randdir_good_moves"":2,""num_whilered"":0,""num_whileblue"":0,""num_blue"":6,""num_good_moves"":6}","[414.0714133126395,408.8214362008231,0,414.0714133126395,408.8214362008231,102,414.0714133126395,408.8214362008231,211,414.0714133126395,408.8214362008231,320,461.5714133126395,471.3214362008231,430,651.5714133126395,658.8214362008231,539,669.0714133126395,671.3214362008231,647,715.3214133126395,718.8214362008231,757,729.0714133126395,727.5714362008231,866,729.0714133126395,727.5714362008231,973,741.5714133126395,710.0714362008231,1074,851.5714133126395,597.5714362008231,1176,1184.0714133126396,367.5714362008231,1286,1370.3214133126396,250.0714362008231,1396,1372.8214133126396,248.8214362008231,1504,1372.8214133126396,248.8214362008231,1611,1372.8214133126396,248.8214362008231,1721,1372.8214133126396,248.8214362008231,1827,1372.8214133126396,248.8214362008231,1934,1372.8214133126396,248.8214362008231,2042,1372.8214133126396,248.8214362008231,2151,1372.8214133126396,248.8214362008231,2260,1372.8214133126396,248.8214362008231,2370,1372.8214133126396,248.8214362008231,2477,1372.8214133126396,248.8214362008231,2587,1372.8214133126396,248.8214362008231,2694,1372.8214133126396,248.8214362008231,2801,1372.8214133126396,248.8214362008231,2908,1372.8214133126396,248.8214362008231,3016,1372.8214133126396,248.8214362008231,3124,1372.8214133126396,248.8214362008231,3233,1372.8214133126396,248.8214362008231,3341,1372.8214133126396,248.8214362008231,3451,1372.8214133126396,248.8214362008231,3558,1372.8214133126396,248.8214362008231,3666,1372.8214133126396,248.8214362008231,3774,1372.8214133126396,248.8214362008231,3884,1372.8214133126396,248.8214362008231,3991,1372.8214133126396,248.8214362008231,4098,1372.8214133126396,248.8214362008231,4206,1372.8214133126396,248.8214362008231,4315,1372.8214133126396,248.8214362008231,4423,1372.8214133126396,248.8214362008231,4534,1372.8214133126396,248.8214362008231,4641,1372.8214133126396,248.8214362008231,4750,1372.8214133126396,248.8214362008231,4859,1372.8214133126396,248.8214362008231,4967]","[5019,5019,2579.7,2024,415.3,""smooth"",""right"",""right"",""good_move"",11270,6251,2229.6,8579,461.4,""oops"",""right"",""right"",""good_move"",18643,7373,3001.9,15184,457.1,""smooth"",""right"",""right"",""good_move"",25678,7035,2474.6,22829,374.4,""smooth"",""down"",""down"",""good_move"",35727,10049,2574.5,32619,533.5,""oops"",""down"",""down"",""good_move"",38659,2932,2311.3,35727,620.7,""smooth"",""down"",""down"",""good_move""]","",""
"5101","","<div style=""width:500px;"">
  <p>What determined the result of this run?</p>
  </div>","59","html-slider-response","65","1041608","0.0-5.0-1.11","299","1","2025-07-30 21:12:31","1f75c3e559b7213887762d5229550c2b","91.140.28.218","Mozilla/5.0 (Windows NT 10.0; Win64; x64; rv:141.0) Gecko/20100101 Firefox/141.0","","Firefox","141.0","Windows","10.0","https://app.prolific.com/","en-US,en;q=0.5","56e4b2e044b184000b894159","6877631c9844ddd5501205fc","688a8aafd331b68d864fc9a8","3","1","56e4b2e044b184000b894159","3","1","2025-07-30T21:29:54.009Z","","","","","","","","","","","AttribQ","","50","","","","","","","","","","","","","","","","","","","","","","","","","","","","",""
"4565","","<div style=""width:500px;"">
  <p>How much control did you have over the ball?</p>
  </div>","89","html-slider-response","66","1046174","0.0-5.0-2.11","299","1","2025-07-30 21:12:31","1f75c3e559b7213887762d5229550c2b","91.140.28.218","Mozilla/5.0 (Windows NT 10.0; Win64; x64; rv:141.0) Gecko/20100101 Firefox/141.0","","Firefox","141.0","Windows","10.0","https://app.prolific.com/","en-US,en;q=0.5","56e4b2e044b184000b894159","6877631c9844ddd5501205fc","688a8aafd331b68d864fc9a8","3","1","56e4b2e044b184000b894159","3","1","2025-07-30T21:29:58.575Z","","","","","","","","","","","ControlQ","","50","","","","","","","","","","","","","","","","","","","","","","","","","","","","",""
"2178","","<div style=""width:500px;"">
  <p>How would you describe your current emotional state?</p>
  </div>","0","html-slider-response","67","1048354","0.0-5.0-3.11","299","1","2025-07-30 21:12:31","1f75c3e559b7213887762d5229550c2b","91.140.28.218","Mozilla/5.0 (Windows NT 10.0; Win64; x64; rv:141.0) Gecko/20100101 Firefox/141.0","","Firefox","141.0","Windows","10.0","https://app.prolific.com/","en-US,en;q=0.5","56e4b2e044b184000b894159","6877631c9844ddd5501205fc","688a8aafd331b68d864fc9a8","3","1","56e4b2e044b184000b894159","3","1","2025-07-30T21:30:00.755Z","","","","","","","","","","","StressQ","","50","","","","","","","","","","","","","","","","","","","","","","","","","","","","",""
"3118","","<div style=""width:500px;"">
  <p>What best describes how you currently feel?</p>
  </div>","92","html-slider-response","68","1051472","0.0-5.0-4.11","299","1","2025-07-30 21:12:31","1f75c3e559b7213887762d5229550c2b","91.140.28.218","Mozilla/5.0 (Windows NT 10.0; Win64; x64; rv:141.0) Gecko/20100101 Firefox/141.0","","Firefox","141.0","Windows","10.0","https://app.prolific.com/","en-US,en;q=0.5","56e4b2e044b184000b894159","6877631c9844ddd5501205fc","688a8aafd331b68d864fc9a8","3","1","56e4b2e044b184000b894159","3","1","2025-07-30T21:30:03.873Z","","","","","","","","","","","MotivationQ","","50","","","","","","","","","","","","","","","","","","","","","","","","","","","","",""
"","","","","ctl-task-cpt","69","1086137","0.0-5.0-0.12","299","1","2025-07-30 21:12:31","1f75c3e559b7213887762d5229550c2b","91.140.28.218","Mozilla/5.0 (Windows NT 10.0; Win64; x64; rv:141.0) Gecko/20100101 Firefox/141.0","","Firefox","141.0","Windows","10.0","https://app.prolific.com/","en-US,en;q=0.5","56e4b2e044b184000b894159","6877631c9844ddd5501205fc","688a8aafd331b68d864fc9a8","3","1","56e4b2e044b184000b894159","3","1","2025-07-30T21:30:38.538Z","","","","","","","","","","","","","","win-only","3","g1:SW,g2:NE","0.7","13","0","1054450","3798","8808","31654","1","4","4","6","2","4","4","60","56","0.45454545454545453","829","3000","1930","[""up"",""right""]","{""num_key_presses"":8,""num_perfect"":7,""num_errors"":0,""num_randdir"":1,""num_randdir_good_moves"":0,""num_whilered"":0,""num_whileblue"":0,""num_blue"":0,""num_good_moves"":7}","[416.5714133126395,413.8214362008231,0,416.5714133126395,413.8214362008231,109,416.5714133126395,413.8214362008231,219,416.5714133126395,413.8214362008231,326,482.8214133126395,327.5714362008231,433,674.0714133126395,115.0714362008231,541,689.0714133126395,101.3214362008231,647,735.3214133126395,97.5714362008231,757,794.0714133126395,97.5714362008231,867,794.0714133126395,97.5714362008231,975,841.5714133126395,83.8214362008231,1084,1231.5714133126396,-68.6785637991769,1193,1244.0714133126396,-77.4285637991769,1302,1244.0714133126396,-77.4285637991769,1410,1244.0714133126396,-77.4285637991769,1518,1244.0714133126396,-77.4285637991769,1629,1244.0714133126396,-77.4285637991769,1734,1244.0714133126396,-77.4285637991769,1844,1244.0714133126396,-77.4285637991769,1952,1244.0714133126396,-77.4285637991769,2062,1244.0714133126396,-77.4285637991769,2171,1244.0714133126396,-77.4285637991769,2281,1244.0714133126396,-77.4285637991769,2390,1244.0714133126396,-77.4285637991769,2497,1244.0714133126396,-77.4285637991769,2605,1244.0714133126396,-77.4285637991769,2715,1244.0714133126396,-77.4285637991769,2822,1244.0714133126396,-77.4285637991769,2929,1244.0714133126396,-77.4285637991769,3038,1244.0714133126396,-77.4285637991769,3146,1244.0714133126396,-77.4285637991769,3255,1244.0714133126396,-77.4285637991769,3364,1244.0714133126396,-77.4285637991769,3473,1244.0714133126396,-77.4285637991769,3582,1244.0714133126396,-77.4285637991769,3688,1244.0714133126396,-77.4285637991769,3797,1244.0714133126396,-77.4285637991769,3905,1244.0714133126396,-77.4285637991769,4013,1244.0714133126396,-77.4285637991769,4123,1244.0714133126396,-77.4285637991769,4233,1244.0714133126396,-77.4285637991769,4342,1244.0714133126396,-77.4285637991769,4451,1244.0714133126396,-77.4285637991769,4560,1244.0714133126396,-77.4285637991769,4669,1244.0714133126396,-77.4285637991769,4778,1244.0714133126396,-77.4285637991769,4885,1244.0714133126396,-77.4285637991769,4994]","[1428,1428,1000,0,428,""smooth"",""right"",""right"",""good_move"",4232,2804,2454.4,1428,349.6,""smooth"",""right"",""right"",""good_move"",7514,3282,2817,4232,465,""smooth"",""right"",""right"",""good_move"",9797,2283,1874.2,7514,408.8,""smooth"",""up"",""up"",""good_move"",12827,3030,2108,9797,922,""smooth"",""up"",""up"",""good_move"",15835,3008,2116.4,12827,891.6,""oops"",""up"",""down"",""bad_move"",18801,2966,2578.2,15835,387.8,""smooth"",""up"",""up"",""good_move"",22564,3763,3178.3,18801,584.7,""smooth"",""up"",""up"",""good_move""]","",""
"4600","","<div style=""width:500px;"">
  <p>What determined the result of this run?</p>
  </div>","59","html-slider-response","70","1090739","0.0-5.0-1.12","299","1","2025-07-30 21:12:31","1f75c3e559b7213887762d5229550c2b","91.140.28.218","Mozilla/5.0 (Windows NT 10.0; Win64; x64; rv:141.0) Gecko/20100101 Firefox/141.0","","Firefox","141.0","Windows","10.0","https://app.prolific.com/","en-US,en;q=0.5","56e4b2e044b184000b894159","6877631c9844ddd5501205fc","688a8aafd331b68d864fc9a8","3","1","56e4b2e044b184000b894159","3","1","2025-07-30T21:30:43.140Z","","","","","","","","","","","AttribQ","","50","","","","","","","","","","","","","","","","","","","","","","","","","","","","",""
"4543","","<div style=""width:500px;"">
  <p>How much control did you have over the ball?</p>
  </div>","96","html-slider-response","71","1095282","0.0-5.0-2.12","299","1","2025-07-30 21:12:31","1f75c3e559b7213887762d5229550c2b","91.140.28.218","Mozilla/5.0 (Windows NT 10.0; Win64; x64; rv:141.0) Gecko/20100101 Firefox/141.0","","Firefox","141.0","Windows","10.0","https://app.prolific.com/","en-US,en;q=0.5","56e4b2e044b184000b894159","6877631c9844ddd5501205fc","688a8aafd331b68d864fc9a8","3","1","56e4b2e044b184000b894159","3","1","2025-07-30T21:30:47.683Z","","","","","","","","","","","ControlQ","","50","","","","","","","","","","","","","","","","","","","","","","","","","","","","",""
"3255","","<div style=""width:500px;"">
  <p>How would you describe your current emotional state?</p>
  </div>","0","html-slider-response","72","1098539","0.0-5.0-3.12","299","1","2025-07-30 21:12:31","1f75c3e559b7213887762d5229550c2b","91.140.28.218","Mozilla/5.0 (Windows NT 10.0; Win64; x64; rv:141.0) Gecko/20100101 Firefox/141.0","","Firefox","141.0","Windows","10.0","https://app.prolific.com/","en-US,en;q=0.5","56e4b2e044b184000b894159","6877631c9844ddd5501205fc","688a8aafd331b68d864fc9a8","3","1","56e4b2e044b184000b894159","3","1","2025-07-30T21:30:50.940Z","","","","","","","","","","","StressQ","","50","","","","","","","","","","","","","","","","","","","","","","","","","","","","",""
"6676","","<div style=""width:500px;"">
  <p>What best describes how you currently feel?</p>
  </div>","91","html-slider-response","73","1105217","0.0-5.0-4.12","299","1","2025-07-30 21:12:31","1f75c3e559b7213887762d5229550c2b","91.140.28.218","Mozilla/5.0 (Windows NT 10.0; Win64; x64; rv:141.0) Gecko/20100101 Firefox/141.0","","Firefox","141.0","Windows","10.0","https://app.prolific.com/","en-US,en;q=0.5","56e4b2e044b184000b894159","6877631c9844ddd5501205fc","688a8aafd331b68d864fc9a8","3","1","56e4b2e044b184000b894159","3","1","2025-07-30T21:30:57.618Z","","","","","","","","","","","MotivationQ","","50","","","","","","","","","","","","","","","","","","","","","","","","","","","","",""
"","","","","ctl-task-cpt","74","1131427","0.0-5.0-0.13","299","1","2025-07-30 21:12:31","1f75c3e559b7213887762d5229550c2b","91.140.28.218","Mozilla/5.0 (Windows NT 10.0; Win64; x64; rv:141.0) Gecko/20100101 Firefox/141.0","","Firefox","141.0","Windows","10.0","https://app.prolific.com/","en-US,en;q=0.5","56e4b2e044b184000b894159","6877631c9844ddd5501205fc","688a8aafd331b68d864fc9a8","3","1","56e4b2e044b184000b894159","3","1","2025-07-30T21:31:23.828Z","","","","","","","","","","","","","","win-only","1","g1:NE,g2:SW","0.8","14","0","1108192","988","5996","23193","1","4","8","6","2","8","8","68","60","0.5151515151515151","873","3000","2275","[""down"",""left""]","{""num_key_presses"":6,""num_perfect"":6,""num_errors"":0,""num_randdir"":0,""num_randdir_good_moves"":0,""num_whilered"":0,""num_whileblue"":0,""num_blue"":0,""num_good_moves"":6}","[421.5714133126395,423.8214362008231,0,421.5714133126395,423.8214362008231,115,421.5714133126395,423.8214362008231,224,411.5714133126395,447.5714362008231,336,260.3214133126395,603.8214362008231,448,210.3214133126395,680.0714362008231,559,159.0714133126395,731.3214362008231,669,106.5714133126395,760.0714362008231,781,89.0714133126395,766.3214362008231,891,89.0714133126395,767.5714362008231,1003,89.0714133126395,745.0714362008231,1114,-99.6785866873605,630.0714362008231,1225,-185.9285866873605,621.3214362008231,1333,-259.6785866873605,603.8214362008231,1441,-267.1785866873605,598.8214362008231,1550,-267.1785866873605,598.8214362008231,1657,-267.1785866873605,598.8214362008231,1766,-267.1785866873605,598.8214362008231,1874,-267.1785866873605,598.8214362008231,1981,-267.1785866873605,598.8214362008231,2090,-267.1785866873605,598.8214362008231,2198,-267.1785866873605,598.8214362008231,2305,-267.1785866873605,598.8214362008231,2415,-267.1785866873605,598.8214362008231,2524,-267.1785866873605,598.8214362008231,2631,-267.1785866873605,598.8214362008231,2738,-267.1785866873605,598.8214362008231,2847,-267.1785866873605,598.8214362008231,2954,-267.1785866873605,598.8214362008231,3064,-267.1785866873605,598.8214362008231,3174,-267.1785866873605,598.8214362008231,3287,-267.1785866873605,598.8214362008231,3399,-267.1785866873605,598.8214362008231,3512,-267.1785866873605,598.8214362008231,3624,-267.1785866873605,598.8214362008231,3735,-267.1785866873605,598.8214362008231,3848,-267.1785866873605,598.8214362008231,3959,-267.1785866873605,598.8214362008231,4069,-267.1785866873605,598.8214362008231,4181,-267.1785866873605,598.8214362008231,4292,-267.1785866873605,598.8214362008231,4404,-267.1785866873605,598.8214362008231,4515,-267.1785866873605,598.8214362008231,4627,-267.1785866873605,598.8214362008231,4737,-267.1785866873605,598.8214362008231,4849,-267.1785866873605,598.8214362008231,4962]","[1395,1395,1000,0,395,""smooth"",""left"",""left"",""good_move"",4751,3356,3011.2,1395,344.8,""smooth"",""left"",""left"",""good_move"",7864,3113,2678.9,4751,434.1,""smooth"",""left"",""left"",""good_move"",10911,3046,2151,7865,895,""smooth"",""down"",""down"",""good_move"",13831,2920,2545.3,10911,374.7,""smooth"",""down"",""down"",""good_move"",16905,3073,2710.4,13832,362.6,""smooth"",""down"",""down"",""good_move""]","",""
"4007","","<div style=""width:500px;"">
  <p>What determined the result of this run?</p>
  </div>","57","html-slider-response","75","1135435","0.0-5.0-1.13","299","1","2025-07-30 21:12:31","1f75c3e559b7213887762d5229550c2b","91.140.28.218","Mozilla/5.0 (Windows NT 10.0; Win64; x64; rv:141.0) Gecko/20100101 Firefox/141.0","","Firefox","141.0","Windows","10.0","https://app.prolific.com/","en-US,en;q=0.5","56e4b2e044b184000b894159","6877631c9844ddd5501205fc","688a8aafd331b68d864fc9a8","3","1","56e4b2e044b184000b894159","3","1","2025-07-30T21:31:27.836Z","","","","","","","","","","","AttribQ","","50","","","","","","","","","","","","","","","","","","","","","","","","","","","","",""
"3096","","<div style=""width:500px;"">
  <p>How much control did you have over the ball?</p>
  </div>","100","html-slider-response","76","1138531","0.0-5.0-2.13","299","1","2025-07-30 21:12:31","1f75c3e559b7213887762d5229550c2b","91.140.28.218","Mozilla/5.0 (Windows NT 10.0; Win64; x64; rv:141.0) Gecko/20100101 Firefox/141.0","","Firefox","141.0","Windows","10.0","https://app.prolific.com/","en-US,en;q=0.5","56e4b2e044b184000b894159","6877631c9844ddd5501205fc","688a8aafd331b68d864fc9a8","3","1","56e4b2e044b184000b894159","3","1","2025-07-30T21:31:30.932Z","","","","","","","","","","","ControlQ","","50","","","","","","","","","","","","","","","","","","","","","","","","","","","","",""
"3133","","<div style=""width:500px;"">
  <p>How would you describe your current emotional state?</p>
  </div>","0","html-slider-response","77","1141665","0.0-5.0-3.13","299","1","2025-07-30 21:12:31","1f75c3e559b7213887762d5229550c2b","91.140.28.218","Mozilla/5.0 (Windows NT 10.0; Win64; x64; rv:141.0) Gecko/20100101 Firefox/141.0","","Firefox","141.0","Windows","10.0","https://app.prolific.com/","en-US,en;q=0.5","56e4b2e044b184000b894159","6877631c9844ddd5501205fc","688a8aafd331b68d864fc9a8","3","1","56e4b2e044b184000b894159","3","1","2025-07-30T21:31:34.066Z","","","","","","","","","","","StressQ","","50","","","","","","","","","","","","","","","","","","","","","","","","","","","","",""
"4807","","<div style=""width:500px;"">
  <p>What best describes how you currently feel?</p>
  </div>","92","html-slider-response","78","1146474","0.0-5.0-4.13","299","1","2025-07-30 21:12:31","1f75c3e559b7213887762d5229550c2b","91.140.28.218","Mozilla/5.0 (Windows NT 10.0; Win64; x64; rv:141.0) Gecko/20100101 Firefox/141.0","","Firefox","141.0","Windows","10.0","https://app.prolific.com/","en-US,en;q=0.5","56e4b2e044b184000b894159","6877631c9844ddd5501205fc","688a8aafd331b68d864fc9a8","3","1","56e4b2e044b184000b894159","3","1","2025-07-30T21:31:38.875Z","","","","","","","","","","","MotivationQ","","50","","","","","","","","","","","","","","","","","","","","","","","","","","","","",""
"","","","","ctl-task-cpt","79","1183717","0.0-5.0-0.14","299","1","2025-07-30 21:12:31","1f75c3e559b7213887762d5229550c2b","91.140.28.218","Mozilla/5.0 (Windows NT 10.0; Win64; x64; rv:141.0) Gecko/20100101 Firefox/141.0","","Firefox","141.0","Windows","10.0","https://app.prolific.com/","en-US,en;q=0.5","56e4b2e044b184000b894159","6877631c9844ddd5501205fc","688a8aafd331b68d864fc9a8","3","1","56e4b2e044b184000b894159","3","1","2025-07-30T21:32:16.118Z","","","","","","","","","","","","","","win-only","3","g1:SW,g2:NE","0.9","15","0","1149450","1082","6096","34230","1","4","4","6","2","4","4","72","68","0.5454545454545454","808","3000","2220","[""up"",""right""]","{""num_key_presses"":6,""num_perfect"":6,""num_errors"":0,""num_randdir"":0,""num_randdir_good_moves"":0,""num_whilered"":0,""num_whileblue"":0,""num_blue"":3,""num_good_moves"":6}","[411.5714133126395,405.0714362008231,0,411.5714133126395,405.0714362008231,110,419.0714133126395,403.8214362008231,218,509.0714133126395,303.8214362008231,327,679.0714133126395,192.5714362008231,437,719.0714133126395,163.8214362008231,545,737.8214133126395,143.8214362008231,652,744.0714133126395,128.8214362008231,761,747.8214133126395,122.5714362008231,870,747.8214133126395,122.5714362008231,979,747.8214133126395,122.5714362008231,1086,747.8214133126395,122.5714362008231,1195,747.8214133126395,122.5714362008231,1303,747.8214133126395,122.5714362008231,1410,747.8214133126395,122.5714362008231,1517,747.8214133126395,122.5714362008231,1626,747.8214133126395,122.5714362008231,1734,747.8214133126395,122.5714362008231,1841,747.8214133126395,122.5714362008231,1952,747.8214133126395,122.5714362008231,2059,747.8214133126395,122.5714362008231,2168,747.8214133126395,122.5714362008231,2275,747.8214133126395,122.5714362008231,2385,747.8214133126395,122.5714362008231,2492,747.8214133126395,122.5714362008231,2600,747.8214133126395,122.5714362008231,2710,747.8214133126395,122.5714362008231,2818,747.8214133126395,122.5714362008231,2926,747.8214133126395,122.5714362008231,3034,747.8214133126395,122.5714362008231,3140,747.8214133126395,122.5714362008231,3251,747.8214133126395,122.5714362008231,3359,747.8214133126395,122.5714362008231,3468,747.8214133126395,122.5714362008231,3576,747.8214133126395,122.5714362008231,3685,747.8214133126395,122.5714362008231,3794,747.8214133126395,122.5714362008231,3902,747.8214133126395,122.5714362008231,4009,747.8214133126395,122.5714362008231,4119,747.8214133126395,122.5714362008231,4228,747.8214133126395,122.5714362008231,4335,747.8214133126395,122.5714362008231,4443,747.8214133126395,122.5714362008231,4550,747.8214133126395,122.5714362008231,4657,747.8214133126395,122.5714362008231,4765,747.8214133126395,122.5714362008231,4874,747.8214133126395,122.5714362008231,4983]","[1383,1383,1000,0,383,""smooth"",""right"",""right"",""good_move"",4416,3033,2587.5,1383,445.5,""smooth"",""right"",""right"",""good_move"",10797,6381,2041.8,8309,446.2,""smooth"",""right"",""right"",""good_move"",14223,3426,3004.1,10797,421.9,""smooth"",""up"",""up"",""good_move"",21551,7328,2828.9,18276,446.1,""smooth"",""up"",""up"",""good_move"",27864,6312,2243.4,25193,427.6,""smooth"",""up"",""up"",""good_move""]","",""
"4944","","<div style=""width:500px;"">
  <p>What determined the result of this run?</p>
