"rt","response_timestamp","stimulus","response","trial_type","trial_index","time_elapsed","internal_node_id","run_id","condition","recorded_at","source_code_version","ip","user_agent","device","browser","browser_version","platform","platform_version","referer","accept_language","PROLIFIC_PID","STUDY_ID","SESSION_ID","WEEK","BATCH","prolific_id","week","batch","realtime","success","responses","item_order","radio_event_ids","radio_event_times","key_event_times","mouse_event_times","straightlining","zigzagging","honeypot","eventType","view_history","slider_start","which_type","canvas_config","goals_layout","control_level","trial_number","tutorial_trial_number","trial_start_time","phase1_start_time","phase2_start_time","phase3_start_time","goal_1_value","goal_1_distance","goal_2_value","goal_2_distance","goal_selected","outcome","outcome_total","participant_final_score","participant_initial_score","participant_final_score_prop","goal_choice_rt","allocated_time","allocated_time_remaining","goal_direction","counts","mouse_movements","key_presses","question_order","question_id"
"5207","1753944863907","<p style='font-size:40px;line-height:1.25'><strong>Welcome to the experiment!</strong></p><p style='font-size:1.1em;line-height:1.25'>Thank you for participanting in our experiment again! You will be asked to play the Dysfunctional Ball Game again. We will briefly recap the rules before we start.</p><p style='font-size:1.1em;line-height:1.25'>Press <strong>Next</strong> to continue.</p>","0","custom-html-button-response","0","5214","0.0-0.0","306","1","2025-07-31 06:54:04","1f75c3e559b7213887762d5229550c2b","194.152.129.18","Mozilla/5.0 (Windows NT 10.0; Win64; x64) AppleWebKit/537.36 (KHTML, like Gecko) Chrome/131.0.0.0 Safari/537.36","WebKit","Chrome","131.0.0.0","Windows","10.0","https://app.prolific.com/","en-GB,en;q=0.9","677fb45dee7e90f416b55aea","6877631c9844ddd5501205fc","688b12f58fb5d44752020f73","3","1","677fb45dee7e90f416b55aea","3","1","2025-07-31T06:54:23.910Z","","","","","","","","","","","","","","","","","","","","","","","","","","","","","","","","","","","","","","","","","",""
"4657","","","","fullscreen","1","10880","0.0-1.0","306","1","2025-07-31 06:54:04","1f75c3e559b7213887762d5229550c2b","194.152.129.18","Mozilla/5.0 (Windows NT 10.0; Win64; x64) AppleWebKit/537.36 (KHTML, like Gecko) Chrome/131.0.0.0 Safari/537.36","WebKit","Chrome","131.0.0.0","Windows","10.0","https://app.prolific.com/","en-GB,en;q=0.9","677fb45dee7e90f416b55aea","6877631c9844ddd5501205fc","688b12f58fb5d44752020f73","3","1","677fb45dee7e90f416b55aea","3","1","","true","","","","","","","","","","","","","","","","","","","","","","","","","","","","","","","","","","","","","","","","",""
"6465","1753944876043","<p style='font-size:1.1em;line-height:1.25'>In the following, we will ask you a few questions relating to your feelings in the last 24 hours.<br></p><p style='font-size:1.1em;line-height:1.25'>Press the <strong>Next</strong> button to continue.</p>","0","custom-html-button-response","2","17348","0.0-2.0-0.0","306","1","2025-07-31 06:54:04","1f75c3e559b7213887762d5229550c2b","194.152.129.18","Mozilla/5.0 (Windows NT 10.0; Win64; x64) AppleWebKit/537.36 (KHTML, like Gecko) Chrome/131.0.0.0 Safari/537.36","WebKit","Chrome","131.0.0.0","Windows","10.0","https://app.prolific.com/","en-GB,en;q=0.9","677fb45dee7e90f416b55aea","6877631c9844ddd5501205fc","688b12f58fb5d44752020f73","3","1","677fb45dee7e90f416b55aea","3","1","2025-07-31T06:54:36.044Z","","","","","","","","","","","","","","","","","","","","","","","","","","","","","","","","","","","","","","","","","",""
"119627.10000002384","","","","survey-template","3","136986","0.0-2.0-1.0","306","1","2025-07-31 06:54:04","1f75c3e559b7213887762d5229550c2b","194.152.129.18","Mozilla/5.0 (Windows NT 10.0; Win64; x64) AppleWebKit/537.36 (KHTML, like Gecko) Chrome/131.0.0.0 Safari/537.36","WebKit","Chrome","131.0.0.0","Windows","10.0","https://app.prolific.com/","en-GB,en;q=0.9","677fb45dee7e90f416b55aea","6877631c9844ddd5501205fc","688b12f58fb5d44752020f73","3","1","677fb45dee7e90f416b55aea","3","1","2025-07-31T06:56:35.682Z","","{""Q01"":""3"",""Q02"":""3"",""Q03"":""3"",""Q04"":""3"",""Q05"":""3"",""Q06"":""3"",""Q07"":""3"",""Q08"":""3"",""Q09"":""3"",""Q10"":""3"",""Q11"":""3"",""Q12"":""3"",""Q13"":""5"",""Q14"":""3"",""Q15"":""3"",""Q16"":""3"",""Q17"":""3"",""Q18"":""3"",""Q19"":""3"",""Q20"":""3"",""Q21"":""3"",""Q22"":""3""}","[0,1,2,3,4,5,6,7,8,9,10,11,12,13,14,15,16,17,18,19,20,21]","[""Q01"",""Q02"",""Q03"",""Q04"",""Q05"",""Q06"",""Q07"",""Q08"",""Q09"",""Q10"",""Q11"",""Q12"",""Q13"",""Q14"",""Q15"",""Q16"",""Q17"",""Q18"",""Q19"",""Q20"",""Q21"",""Q22""]","[10501.100000023842,12877.600000023842,18399.600000023842,21671.5,24490,27868.100000023842,37113.10000002384,39202.30000001192,42770,45373,49032.80000001192,51024.60000002384,56591.70000001788,66702,83121.20000001788,86524.40000000596,92265.10000002384,96226,99253.60000002384,104895.90000000596,109010.70000001788,113379.90000000596]","[]","[0.10000002384185791,10501.100000023842,12877.600000023842,18399.600000023842,21671.5,24490,27868.100000023842,37113.10000002384,39202.30000001192,42770,45373,49032.80000001192,51024.60000002384,56591.70000001788,66702,83121.20000001788,86524.40000000596,92265.10000002384,96226,99253.60000002384,104895.90000000596,109010.70000001788,113379.90000000596,119617.30000001192]","0.9545454545454546","0","0","drsp","","","","","","","","","","","","","","","","","","","","","","","","","","","","","","",""
"21822.90000000596","","","","survey-template","4","158812","0.0-2.0-2.0","306","1","2025-07-31 06:54:04","1f75c3e559b7213887762d5229550c2b","194.152.129.18","Mozilla/5.0 (Windows NT 10.0; Win64; x64) AppleWebKit/537.36 (KHTML, like Gecko) Chrome/131.0.0.0 Safari/537.36","WebKit","Chrome","131.0.0.0","Windows","10.0","https://app.prolific.com/","en-GB,en;q=0.9","677fb45dee7e90f416b55aea","6877631c9844ddd5501205fc","688b12f58fb5d44752020f73","3","1","677fb45dee7e90f416b55aea","3","1","2025-07-31T06:56:57.509Z","","{""Q01"":""3"",""Q02"":""2"",""Q03"":""3""}","[0,1,2]","[""Q01"",""Q02"",""Q03""]","[4531.800000011921,7632.199999988079,12940]","[]","[4531.800000011921,7632.199999988079,12940,21821.30000001192]","1","0","0","stress","","","","","","","","","","","","","","","","","","","","","","","","","","","","","","",""
"3877","","","","instructions","5","162692","0.0-3.0-0.0","306","1","2025-07-31 06:54:04","1f75c3e559b7213887762d5229550c2b","194.152.129.18","Mozilla/5.0 (Windows NT 10.0; Win64; x64) AppleWebKit/537.36 (KHTML, like Gecko) Chrome/131.0.0.0 Safari/537.36","WebKit","Chrome","131.0.0.0","Windows","10.0","https://app.prolific.com/","en-GB,en;q=0.9","677fb45dee7e90f416b55aea","6877631c9844ddd5501205fc","688b12f58fb5d44752020f73","3","1","677fb45dee7e90f416b55aea","3","1","","","","","","","","","","","","","[{""page_index"":0,""viewing_time"":3877}]","","","","","","","","","","","","","","","","","","","","","","","","","","","","","",""
"20016","","<p>Before you start with this game please answer the following three questions yourself. </p>
  <p>Through this game, we measure several aspects of your cognitive performance, such as reaction times, multi-tasking capabilities </p>
  <p>and the ability to assess the situation you are in.</p>
  <p></p>
  <p><b>How good do you usually are in such tasks?</b></p>","59","html-slider-response","6","182711","0.0-4.0-0.0","306","1","2025-07-31 06:54:04","1f75c3e559b7213887762d5229550c2b","194.152.129.18","Mozilla/5.0 (Windows NT 10.0; Win64; x64) AppleWebKit/537.36 (KHTML, like Gecko) Chrome/131.0.0.0 Safari/537.36","WebKit","Chrome","131.0.0.0","Windows","10.0","https://app.prolific.com/","en-GB,en;q=0.9","677fb45dee7e90f416b55aea","6877631c9844ddd5501205fc","688b12f58fb5d44752020f73","3","1","677fb45dee7e90f416b55aea","3","1","2025-07-31T06:57:21.407Z","","","","","","","","","","","PreSkillQ","","50","","","","","","","","","","","","","","","","","","","","","","","","","","","","",""
"7145","","<div style=""width:500px;"">
  <p>How well do you think you will perform in this task compared to other participants?</p>
  </div>","62","html-slider-response","7","189859","0.0-4.0-1.0","306","1","2025-07-31 06:54:04","1f75c3e559b7213887762d5229550c2b","194.152.129.18","Mozilla/5.0 (Windows NT 10.0; Win64; x64) AppleWebKit/537.36 (KHTML, like Gecko) Chrome/131.0.0.0 Safari/537.36","WebKit","Chrome","131.0.0.0","Windows","10.0","https://app.prolific.com/","en-GB,en;q=0.9","677fb45dee7e90f416b55aea","6877631c9844ddd5501205fc","688b12f58fb5d44752020f73","3","1","677fb45dee7e90f416b55aea","3","1","2025-07-31T06:57:28.555Z","","","","","","","","","","","PrePerfQ","","50","","","","","","","","","","","","","","","","","","","","","","","","","","","","",""
"15089","","<div style=""width:500px;"">
  <p>What best describes how you currently feel?</p>
  </div>","58","html-slider-response","8","204950","0.0-4.0-2.0","306","1","2025-07-31 06:54:04","1f75c3e559b7213887762d5229550c2b","194.152.129.18","Mozilla/5.0 (Windows NT 10.0; Win64; x64) AppleWebKit/537.36 (KHTML, like Gecko) Chrome/131.0.0.0 Safari/537.36","WebKit","Chrome","131.0.0.0","Windows","10.0","https://app.prolific.com/","en-GB,en;q=0.9","677fb45dee7e90f416b55aea","6877631c9844ddd5501205fc","688b12f58fb5d44752020f73","3","1","677fb45dee7e90f416b55aea","3","1","2025-07-31T06:57:43.646Z","","","","","","","","","","","PreMotivationQ","","50","","","","","","","","","","","","","","","","","","","","","","","","","","","","",""
"","","","","ctl-task-cpt","9","244744","0.0-5.0-0.0","306","1","2025-07-31 06:54:04","1f75c3e559b7213887762d5229550c2b","194.152.129.18","Mozilla/5.0 (Windows NT 10.0; Win64; x64) AppleWebKit/537.36 (KHTML, like Gecko) Chrome/131.0.0.0 Safari/537.36","WebKit","Chrome","131.0.0.0","Windows","10.0","https://app.prolific.com/","en-GB,en;q=0.9","677fb45dee7e90f416b55aea","6877631c9844ddd5501205fc","688b12f58fb5d44752020f73","3","1","677fb45dee7e90f416b55aea","3","1","2025-07-31T06:58:23.440Z","","","","","","","","","","","","","","win-only","0","g1:NW,g2:SE","1","1","0","221023.5","3035.5","8042.8","36785.5","1","4","8","6","2","-8","-8","0","0","0","5007.1","3000","-2295","[""down"",""right""]","{""num_key_presses"":5,""num_perfect"":5,""num_errors"":0,""num_randdir"":0,""num_randdir_good_moves"":0,""num_whilered"":0,""num_whileblue"":0,""num_blue"":3,""num_good_moves"":5}","[418.57142857142856,410.47767857142856,0.4,418.57142857142856,410.47767857142856,102.2,418.57142857142856,410.47767857142856,202.5,418.57142857142856,410.47767857142856,310.8,418.57142857142856,410.47767857142856,419.2,418.57142857142856,410.47767857142856,522.2,418.57142857142856,410.47767857142856,623.6,418.57142857142856,410.47767857142856,726.1,418.57142857142856,410.47767857142856,827.1,418.57142857142856,410.47767857142856,930.5,418.57142857142856,410.47767857142856,1031.9,418.57142857142856,410.47767857142856,1136.3,418.57142857142856,410.47767857142856,1245.2,418.57142857142856,410.47767857142856,1350.1,418.57142857142856,410.47767857142856,1452.6,418.57142857142856,410.47767857142856,1556.2,418.57142857142856,410.47767857142856,1659.7,418.57142857142856,410.47767857142856,1767,418.57142857142856,410.47767857142856,1869.4,418.57142857142856,410.47767857142856,1971,418.57142857142856,410.47767857142856,2075.5,418.57142857142856,410.47767857142856,2181.4,418.57142857142856,410.47767857142856,2286.6,418.57142857142856,410.47767857142856,2390.3,418.57142857142856,410.47767857142856,2497.2,418.57142857142856,410.47767857142856,2603.7,418.57142857142856,410.47767857142856,2708.7,418.57142857142856,410.47767857142856,2815,418.57142857142856,410.47767857142856,2920.4,418.57142857142856,410.47767857142856,3028.2,418.57142857142856,410.47767857142856,3133.6,418.57142857142856,410.47767857142856,3235.3,418.57142857142856,410.47767857142856,3337.8,418.57142857142856,410.47767857142856,3437.9,418.57142857142856,410.47767857142856,3544.3,418.57142857142856,410.47767857142856,3651.3,418.57142857142856,410.47767857142856,3754.9,418.57142857142856,410.47767857142856,3856.1,418.57142857142856,410.47767857142856,3956.2,418.57142857142856,410.47767857142856,4062.3,418.57142857142856,410.47767857142856,4163.2,418.57142857142856,410.47767857142856,4269.3,418.57142857142856,410.47767857142856,4371.9,418.57142857142856,410.47767857142856,4471.9,418.57142857142856,410.47767857142856,4574.4,418.57142857142856,410.47767857142856,4675.6,418.57142857142856,410.47767857142856,4776.7,418.57142857142856,410.47767857142856,4882,418.57142857142856,410.47767857142856,4982]","[5857.1,5857,3186.3,2013.5,657.3,""smooth"",""right"",""right"",""good_move"",16367,10507.9,2636.3,12850.3,880.5,""smooth"",""right"",""right"",""good_move"",19587.3,3218.9,2227,16368.5,991.9,""smooth"",""right"",""right"",""good_move"",23222.2,3631.2,2775.8,19591,855.4,""smooth"",""down"",""down"",""good_move"",26138.8,2914.3,2165.6,23224.7,748.6,""smooth"",""down"",""down"",""good_move""]","",""
"5802","","<div style=""width:500px;"">
  <p>What determined the result of this run?</p>
  </div>","55","html-slider-response","10","250550","0.0-5.0-1.0","306","1","2025-07-31 06:54:04","1f75c3e559b7213887762d5229550c2b","194.152.129.18","Mozilla/5.0 (Windows NT 10.0; Win64; x64) AppleWebKit/537.36 (KHTML, like Gecko) Chrome/131.0.0.0 Safari/537.36","WebKit","Chrome","131.0.0.0","Windows","10.0","https://app.prolific.com/","en-GB,en;q=0.9","677fb45dee7e90f416b55aea","6877631c9844ddd5501205fc","688b12f58fb5d44752020f73","3","1","677fb45dee7e90f416b55aea","3","1","2025-07-31T06:58:29.246Z","","","","","","","","","","","AttribQ","","50","","","","","","","","","","","","","","","","","","","","","","","","","","","","",""
"3232","","<div style=""width:500px;"">
  <p>How much control did you have over the ball?</p>
  </div>","59","html-slider-response","11","253785","0.0-5.0-2.0","306","1","2025-07-31 06:54:04","1f75c3e559b7213887762d5229550c2b","194.152.129.18","Mozilla/5.0 (Windows NT 10.0; Win64; x64) AppleWebKit/537.36 (KHTML, like Gecko) Chrome/131.0.0.0 Safari/537.36","WebKit","Chrome","131.0.0.0","Windows","10.0","https://app.prolific.com/","en-GB,en;q=0.9","677fb45dee7e90f416b55aea","6877631c9844ddd5501205fc","688b12f58fb5d44752020f73","3","1","677fb45dee7e90f416b55aea","3","1","2025-07-31T06:58:32.482Z","","","","","","","","","","","ControlQ","","50","","","","","","","","","","","","","","","","","","","","","","","","","","","","",""
"4862","","<div style=""width:500px;"">
  <p>How would you describe your current emotional state?</p>
  </div>","60","html-slider-response","12","258651","0.0-5.0-3.0","306","1","2025-07-31 06:54:04","1f75c3e559b7213887762d5229550c2b","194.152.129.18","Mozilla/5.0 (Windows NT 10.0; Win64; x64) AppleWebKit/537.36 (KHTML, like Gecko) Chrome/131.0.0.0 Safari/537.36","WebKit","Chrome","131.0.0.0","Windows","10.0","https://app.prolific.com/","en-GB,en;q=0.9","677fb45dee7e90f416b55aea","6877631c9844ddd5501205fc","688b12f58fb5d44752020f73","3","1","677fb45dee7e90f416b55aea","3","1","2025-07-31T06:58:37.347Z","","","","","","","","","","","StressQ","","50","","","","","","","","","","","","","","","","","","","","","","","","","","","","",""
"17266","","<div style=""width:500px;"">
  <p>What best describes how you currently feel?</p>
  </div>","59","html-slider-response","13","275921","0.0-5.0-4.0","306","1","2025-07-31 06:54:04","1f75c3e559b7213887762d5229550c2b","194.152.129.18","Mozilla/5.0 (Windows NT 10.0; Win64; x64) AppleWebKit/537.36 (KHTML, like Gecko) Chrome/131.0.0.0 Safari/537.36","WebKit","Chrome","131.0.0.0","Windows","10.0","https://app.prolific.com/","en-GB,en;q=0.9","677fb45dee7e90f416b55aea","6877631c9844ddd5501205fc","688b12f58fb5d44752020f73","3","1","677fb45dee7e90f416b55aea","3","1","2025-07-31T06:58:54.617Z","","","","","","","","","","","MotivationQ","","50","","","","","","","","","","","","","","","","","","","","","","","","","","","","",""
"","","","","ctl-task-cpt","14","315110","0.0-5.0-0.1","306","1","2025-07-31 06:54:04","1f75c3e559b7213887762d5229550c2b","194.152.129.18","Mozilla/5.0 (Windows NT 10.0; Win64; x64) AppleWebKit/537.36 (KHTML, like Gecko) Chrome/131.0.0.0 Safari/537.36","WebKit","Chrome","131.0.0.0","Windows","10.0","https://app.prolific.com/","en-GB,en;q=0.9","677fb45dee7e90f416b55aea","6877631c9844ddd5501205fc","688b12f58fb5d44752020f73","3","1","677fb45dee7e90f416b55aea","3","1","2025-07-31T06:59:33.807Z","","","","","","","","","","","","","","win-only","3","g1:SW,g2:NE","0.9","2","0","291995.1","20513.3","25519.2","36177.4","1","4","4","6","1","1","1","1","0","0.007575757575757576","5005.9","3000","1285","[""down"",""left""]","{""num_key_presses"":4,""num_perfect"":4,""num_errors"":0,""num_randdir"":0,""num_randdir_good_moves"":0,""num_whilered"":0,""num_whileblue"":0,""num_blue"":0,""num_good_moves"":4}","[425.57142857142856,419.47767857142856,1.9,425.57142857142856,419.47767857142856,103.1,425.57142857142856,419.47767857142856,204.6,425.57142857142856,419.47767857142856,311.9,425.57142857142856,419.47767857142856,413.7,425.57142857142856,419.47767857142856,514.8,425.57142857142856,419.47767857142856,628.7,425.57142857142856,419.47767857142856,739.3,425.57142857142856,419.47767857142856,841.1,425.57142857142856,419.47767857142856,942.8,425.57142857142856,419.47767857142856,1049.2,425.57142857142856,419.47767857142856,1149.9,425.57142857142856,419.47767857142856,1250,425.57142857142856,419.47767857142856,1355.4,425.57142857142856,419.47767857142856,1462,425.57142857142856,419.47767857142856,1562.8,425.57142857142856,419.47767857142856,1672.1,425.57142857142856,419.47767857142856,1779.1,425.57142857142856,419.47767857142856,1879.5,425.57142857142856,419.47767857142856,1983.3,425.57142857142856,419.47767857142856,2093.2,425.57142857142856,419.47767857142856,2198.6,425.57142857142856,419.47767857142856,2299.5,425.57142857142856,419.47767857142856,2400.7,425.57142857142856,419.47767857142856,2502.6,425.57142857142856,419.47767857142856,2603,425.57142857142856,419.47767857142856,2703.9,425.57142857142856,419.47767857142856,2816.6,425.57142857142856,419.47767857142856,2918,425.57142857142856,419.47767857142856,3018.5,425.57142857142856,419.47767857142856,3129.5,425.57142857142856,419.47767857142856,3230.1,425.57142857142856,419.47767857142856,3333.8,425.57142857142856,419.47767857142856,3434.3,425.57142857142856,419.47767857142856,3538.6,425.57142857142856,419.47767857142856,3647.7,425.57142857142856,419.47767857142856,3749.9,425.57142857142856,419.47767857142856,3852.6,425.57142857142856,419.47767857142856,3953.9,425.57142857142856,419.47767857142856,4060.1,425.57142857142856,419.47767857142856,4161,425.57142857142856,419.47767857142856,4264.2,425.57142857142856,419.47767857142856,4371.1,425.57142857142856,419.47767857142856,4479.1,425.57142857142856,419.47767857142856,4585.9,425.57142857142856,419.47767857142856,4688.6,425.57142857142856,419.47767857142856,4791.3,425.57142857142856,419.47767857142856,4893.4,425.57142857142856,419.47767857142856,4995.2]","[1904.7,1904.7,1000,0.1,904.6,""smooth"",""down"",""down"",""good_move"",5337.3,3430.4,2867.8,1906.9,562.6,""smooth"",""down"",""down"",""good_move"",8188.2,2848,2465.4,5340.2,382.6,""smooth"",""left"",""left"",""good_move"",10547.2,2357.5,1861.1,8189.7,496.5,""smooth"",""left"",""left"",""good_move""]","",""
"15692","","<div style=""width:500px;"">
  <p>What determined the result of this run?</p>
  </div>","61","html-slider-response","15","330805","0.0-5.0-1.1","306","1","2025-07-31 06:54:04","1f75c3e559b7213887762d5229550c2b","194.152.129.18","Mozilla/5.0 (Windows NT 10.0; Win64; x64) AppleWebKit/537.36 (KHTML, like Gecko) Chrome/131.0.0.0 Safari/537.36","WebKit","Chrome","131.0.0.0","Windows","10.0","https://app.prolific.com/","en-GB,en;q=0.9","677fb45dee7e90f416b55aea","6877631c9844ddd5501205fc","688b12f58fb5d44752020f73","3","1","677fb45dee7e90f416b55aea","3","1","2025-07-31T06:59:49.502Z","","","","","","","","","","","AttribQ","","50","","","","","","","","","","","","","","","","","","","","","","","","","","","","",""
"4778","","<div style=""width:500px;"">
  <p>How much control did you have over the ball?</p>
  </div>","81","html-slider-response","16","335590","0.0-5.0-2.1","306","1","2025-07-31 06:54:04","1f75c3e559b7213887762d5229550c2b","194.152.129.18","Mozilla/5.0 (Windows NT 10.0; Win64; x64) AppleWebKit/537.36 (KHTML, like Gecko) Chrome/131.0.0.0 Safari/537.36","WebKit","Chrome","131.0.0.0","Windows","10.0","https://app.prolific.com/","en-GB,en;q=0.9","677fb45dee7e90f416b55aea","6877631c9844ddd5501205fc","688b12f58fb5d44752020f73","3","1","677fb45dee7e90f416b55aea","3","1","2025-07-31T06:59:54.286Z","","","","","","","","","","","ControlQ","","50","","","","","","","","","","","","","","","","","","","","","","","","","","","","",""
"5404","","<div style=""width:500px;"">
  <p>How would you describe your current emotional state?</p>
  </div>","57","html-slider-response","17","340999","0.0-5.0-3.1","306","1","2025-07-31 06:54:04","1f75c3e559b7213887762d5229550c2b","194.152.129.18","Mozilla/5.0 (Windows NT 10.0; Win64; x64) AppleWebKit/537.36 (KHTML, like Gecko) Chrome/131.0.0.0 Safari/537.36","WebKit","Chrome","131.0.0.0","Windows","10.0","https://app.prolific.com/","en-GB,en;q=0.9","677fb45dee7e90f416b55aea","6877631c9844ddd5501205fc","688b12f58fb5d44752020f73","3","1","677fb45dee7e90f416b55aea","3","1","2025-07-31T06:59:59.695Z","","","","","","","","","","","StressQ","","50","","","","","","","","","","","","","","","","","","","","","","","","","","","","",""
"4450","","<div style=""width:500px;"">
  <p>What best describes how you currently feel?</p>
  </div>","57","html-slider-response","18","345455","0.0-5.0-4.1","306","1","2025-07-31 06:54:04","1f75c3e559b7213887762d5229550c2b","194.152.129.18","Mozilla/5.0 (Windows NT 10.0; Win64; x64) AppleWebKit/537.36 (KHTML, like Gecko) Chrome/131.0.0.0 Safari/537.36","WebKit","Chrome","131.0.0.0","Windows","10.0","https://app.prolific.com/","en-GB,en;q=0.9","677fb45dee7e90f416b55aea","6877631c9844ddd5501205fc","688b12f58fb5d44752020f73","3","1","677fb45dee7e90f416b55aea","3","1","2025-07-31T07:00:04.152Z","","","","","","","","","","","MotivationQ","","50","","","","","","","","","","","","","","","","","","","","","","","","","","","","",""
"","","","","ctl-task-cpt","19","390715","0.0-5.0-0.2","306","1","2025-07-31 06:54:04","1f75c3e559b7213887762d5229550c2b","194.152.129.18","Mozilla/5.0 (Windows NT 10.0; Win64; x64) AppleWebKit/537.36 (KHTML, like Gecko) Chrome/131.0.0.0 Safari/537.36","WebKit","Chrome","131.0.0.0","Windows","10.0","https://app.prolific.com/","en-GB,en;q=0.9","677fb45dee7e90f416b55aea","6877631c9844ddd5501205fc","688b12f58fb5d44752020f73","3","1","677fb45dee7e90f416b55aea","3","1","2025-07-31T07:00:49.411Z","","","","","","","","","","","","","","win-only","2","g1:SE,g2:NW","0.8","3","0","361533","1387.2","6390.5","42231.6","1","4","4","6","2","-4","-5","0","1","0","5003.3","3000","-2285","[""left"",""up""]","{""num_key_presses"":8,""num_perfect"":6,""num_errors"":1,""num_randdir"":1,""num_randdir_good_moves"":0,""num_whilered"":0,""num_whileblue"":0,""num_blue"":3,""num_good_moves"":6}","[417.57142857142856,425.47767857142856,5.9,417.57142857142856,425.47767857142856,103.5,417.57142857142856,425.47767857142856,220,417.57142857142856,425.47767857142856,324,417.57142857142856,425.47767857142856,442.9,417.57142857142856,425.47767857142856,544.4,417.57142857142856,425.47767857142856,645.4,417.57142857142856,425.47767857142856,748.1,417.57142857142856,425.47767857142856,848.1,417.57142857142856,425.47767857142856,953,417.57142857142856,425.47767857142856,1056.6,417.57142857142856,425.47767857142856,1166.6,417.57142857142856,425.47767857142856,1276.8,417.57142857142856,425.47767857142856,1381.3,417.57142857142856,425.47767857142856,1487.3,417.57142857142856,425.47767857142856,1589.9,417.57142857142856,425.47767857142856,1700.4,417.57142857142856,425.47767857142856,1806.5,417.57142857142856,425.47767857142856,1918,417.57142857142856,425.47767857142856,2021.7,417.57142857142856,425.47767857142856,2124,417.57142857142856,425.47767857142856,2224,417.57142857142856,425.47767857142856,2335.3,417.57142857142856,425.47767857142856,2449,417.57142857142856,425.47767857142856,2550.4,417.57142857142856,425.47767857142856,2652.4,417.57142857142856,425.47767857142856,2765.2,417.57142857142856,425.47767857142856,2873.3,417.57142857142856,425.47767857142856,2976.7,417.57142857142856,425.47767857142856,3076.9,417.57142857142856,425.47767857142856,3181.1,417.57142857142856,425.47767857142856,3286,417.57142857142856,425.47767857142856,3403,417.57142857142856,425.47767857142856,3512.7,417.57142857142856,425.47767857142856,3613.8,417.57142857142856,425.47767857142856,3715.2,417.57142857142856,425.47767857142856,3820,417.57142857142856,425.47767857142856,3922.7,417.57142857142856,425.47767857142856,4035.8,417.57142857142856,425.47767857142856,4139.4,417.57142857142856,425.47767857142856,4245,417.57142857142856,425.47767857142856,4348.2,417.57142857142856,425.47767857142856,4450.7,417.57142857142856,425.47767857142856,4562.1,417.57142857142856,425.47767857142856,4665.1,417.57142857142856,425.47767857142856,4765.4,417.57142857142856,425.47767857142856,4872.1,417.57142857142856,425.47767857142856,4975.4]","[2160.2,2160.2,1000,0,1160.2,""smooth"",""left"",""left"",""good_move"",4745.8,2584.3,1997.4,2161.5,587,""smooth"",""left"",""left"",""good_move"",8471.6,3725.2,3249.6,4746.5,475.6,""smooth"",""left"",""left"",""good_move"",11257.6,2785.2,2329.4,8472.4,455.8,""smooth"",""up"",""up"",""good_move"",14454,3196,2743.8,11258.1,452.1,""oops"",""up"",""down"",""bad_move"",17322.6,2866.7,2385.8,14456,480.9,""smooth"",""up"",""up"",""good_move"",20673.4,3350,2883,17323.5,467,""smooth"",""up"",""up"",""good_move"",20800.2,124.9,2271.6,20675.4,-2146.7,""error"",""-"",""-"",""no_move""]","",""
"18390","","<div style=""width:500px;"">
  <p>What determined the result of this run?</p>
  </div>","55","html-slider-response","20","409108","0.0-5.0-1.2","306","1","2025-07-31 06:54:04","1f75c3e559b7213887762d5229550c2b","194.152.129.18","Mozilla/5.0 (Windows NT 10.0; Win64; x64) AppleWebKit/537.36 (KHTML, like Gecko) Chrome/131.0.0.0 Safari/537.36","WebKit","Chrome","131.0.0.0","Windows","10.0","https://app.prolific.com/","en-GB,en;q=0.9","677fb45dee7e90f416b55aea","6877631c9844ddd5501205fc","688b12f58fb5d44752020f73","3","1","677fb45dee7e90f416b55aea","3","1","2025-07-31T07:01:07.805Z","","","","","","","","","","","AttribQ","","50","","","","","","","","","","","","","","","","","","","","","","","","","","","","",""
"2917","","<div style=""width:500px;"">
  <p>How much control did you have over the ball?</p>
  </div>","56","html-slider-response","21","412029","0.0-5.0-2.2","306","1","2025-07-31 06:54:04","1f75c3e559b7213887762d5229550c2b","194.152.129.18","Mozilla/5.0 (Windows NT 10.0; Win64; x64) AppleWebKit/537.36 (KHTML, like Gecko) Chrome/131.0.0.0 Safari/537.36","WebKit","Chrome","131.0.0.0","Windows","10.0","https://app.prolific.com/","en-GB,en;q=0.9","677fb45dee7e90f416b55aea","6877631c9844ddd5501205fc","688b12f58fb5d44752020f73","3","1","677fb45dee7e90f416b55aea","3","1","2025-07-31T07:01:10.725Z","","","","","","","","","","","ControlQ","","50","","","","","","","","","","","","","","","","","","","","","","","","","","","","",""
"2555","","<div style=""width:500px;"">
  <p>How would you describe your current emotional state?</p>
  </div>","57","html-slider-response","22","414589","0.0-5.0-3.2","306","1","2025-07-31 06:54:04","1f75c3e559b7213887762d5229550c2b","194.152.129.18","Mozilla/5.0 (Windows NT 10.0; Win64; x64) AppleWebKit/537.36 (KHTML, like Gecko) Chrome/131.0.0.0 Safari/537.36","WebKit","Chrome","131.0.0.0","Windows","10.0","https://app.prolific.com/","en-GB,en;q=0.9","677fb45dee7e90f416b55aea","6877631c9844ddd5501205fc","688b12f58fb5d44752020f73","3","1","677fb45dee7e90f416b55aea","3","1","2025-07-31T07:01:13.285Z","","","","","","","","","","","StressQ","","50","","","","","","","","","","","","","","","","","","","","","","","","","","","","",""
"24005","","<div style=""width:500px;"">
  <p>What best describes how you currently feel?</p>
  </div>","60","html-slider-response","23","438597","0.0-5.0-4.2","306","1","2025-07-31 06:54:04","1f75c3e559b7213887762d5229550c2b","194.152.129.18","Mozilla/5.0 (Windows NT 10.0; Win64; x64) AppleWebKit/537.36 (KHTML, like Gecko) Chrome/131.0.0.0 Safari/537.36","WebKit","Chrome","131.0.0.0","Windows","10.0","https://app.prolific.com/","en-GB,en;q=0.9","677fb45dee7e90f416b55aea","6877631c9844ddd5501205fc","688b12f58fb5d44752020f73","3","1","677fb45dee7e90f416b55aea","3","1","2025-07-31T07:01:37.294Z","","","","","","","","","","","MotivationQ","","50","","","","","","","","","","","","","","","","","","","","","","","","","","","","",""
"","","","","ctl-task-cpt","24","456058","0.0-5.0-0.3","306","1","2025-07-31 06:54:04","1f75c3e559b7213887762d5229550c2b","194.152.129.18","Mozilla/5.0 (Windows NT 10.0; Win64; x64) AppleWebKit/537.36 (KHTML, like Gecko) Chrome/131.0.0.0 Safari/537.36","WebKit","Chrome","131.0.0.0","Windows","10.0","https://app.prolific.com/","en-GB,en;q=0.9","677fb45dee7e90f416b55aea","6877631c9844ddd5501205fc","688b12f58fb5d44752020f73","3","1","677fb45dee7e90f416b55aea","3","1","2025-07-31T07:01:54.754Z","","","","","","","","","","","","","","win-only","1","g1:NE,g2:SW","0.7","4","0","454681.2","2250","7252.9","14418.9","1","4","8","6","1","-1","-1","0","0","0","5002.9","3000","-2090","[""up"",""right""]","{""num_key_presses"":1,""num_perfect"":1,""num_errors"":0,""num_randdir"":0,""num_randdir_good_moves"":0,""num_whilered"":0,""num_whileblue"":0,""num_blue"":0,""num_good_moves"":1}","[413.57142857142856,421.47767857142856,1.1,413.57142857142856,421.47767857142856,101.8,413.57142857142856,421.47767857142856,203.2,413.57142857142856,421.47767857142856,307.9,413.57142857142856,421.47767857142856,419.7,413.57142857142856,421.47767857142856,523.7,413.57142857142856,421.47767857142856,628.2,413.57142857142856,421.47767857142856,734.8,413.57142857142856,421.47767857142856,836.8,413.57142857142856,421.47767857142856,939,413.57142857142856,421.47767857142856,1045.1,413.57142857142856,421.47767857142856,1153.3,413.57142857142856,421.47767857142856,1268.9,413.57142857142856,421.47767857142856,1374.9,413.57142857142856,421.47767857142856,1488.5,413.57142857142856,421.47767857142856,1594.2,413.57142857142856,421.47767857142856,1697.6,413.57142857142856,421.47767857142856,1809.5,413.57142857142856,421.47767857142856,1909.6,413.57142857142856,421.47767857142856,2012,413.57142857142856,421.47767857142856,2113.2,413.57142857142856,421.47767857142856,2220.8,413.57142857142856,421.47767857142856,2338.4,413.57142857142856,421.47767857142856,2447.4,413.57142857142856,421.47767857142856,2548.7,413.57142857142856,421.47767857142856,2653.4,413.57142857142856,421.47767857142856,2759.4,413.57142857142856,421.47767857142856,2866.3,413.57142857142856,421.47767857142856,2978.8,413.57142857142856,421.47767857142856,3080.3,413.57142857142856,421.47767857142856,3187.9,413.57142857142856,421.47767857142856,3289.9,413.57142857142856,421.47767857142856,3408,413.57142857142856,421.47767857142856,3510.3,413.57142857142856,421.47767857142856,3623,413.57142857142856,421.47767857142856,3725.3,413.57142857142856,421.47767857142856,3828.4,413.57142857142856,421.47767857142856,3929.1,413.57142857142856,421.47767857142856,4044.3,413.57142857142856,421.47767857142856,4145.6,413.57142857142856,421.47767857142856,4246.8,413.57142857142856,421.47767857142856,4346.9,413.57142857142856,421.47767857142856,4464,413.57142857142856,421.47767857142856,4567.9,413.57142857142856,421.47767857142856,4669,413.57142857142856,421.47767857142856,4773.9,413.57142857142856,421.47767857142856,4877.2,413.57142857142856,421.47767857142856,4979.3]","[4840,4840,1000,0,3840,""smooth"",""right"",""right"",""good_move""]","",""
"62754","","<div style=""width:500px;"">
  <p>What determined the result of this run?</p>
  </div>","58","html-slider-response","25","518815","0.0-5.0-1.3","306","1","2025-07-31 06:54:04","1f75c3e559b7213887762d5229550c2b","194.152.129.18","Mozilla/5.0 (Windows NT 10.0; Win64; x64) AppleWebKit/537.36 (KHTML, like Gecko) Chrome/131.0.0.0 Safari/537.36","WebKit","Chrome","131.0.0.0","Windows","10.0","https://app.prolific.com/","en-GB,en;q=0.9","677fb45dee7e90f416b55aea","6877631c9844ddd5501205fc","688b12f58fb5d44752020f73","3","1","677fb45dee7e90f416b55aea","3","1","2025-07-31T07:02:57.511Z","","","","","","","","","","","AttribQ","","50","","","","","","","","","","","","","","","","","","","","","","","","","","","","",""
"4410","","<div style=""width:500px;"">
  <p>How much control did you have over the ball?</p>
  </div>","59","html-slider-response","26","523230","0.0-5.0-2.3","306","1","2025-07-31 06:54:04","1f75c3e559b7213887762d5229550c2b","194.152.129.18","Mozilla/5.0 (Windows NT 10.0; Win64; x64) AppleWebKit/537.36 (KHTML, like Gecko) Chrome/131.0.0.0 Safari/537.36","WebKit","Chrome","131.0.0.0","Windows","10.0","https://app.prolific.com/","en-GB,en;q=0.9","677fb45dee7e90f416b55aea","6877631c9844ddd5501205fc","688b12f58fb5d44752020f73","3","1","677fb45dee7e90f416b55aea","3","1","2025-07-31T07:03:01.926Z","","","","","","","","","","","ControlQ","","50","","","","","","","","","","","","","","","","","","","","","","","","","","","","",""
"4463","","<div style=""width:500px;"">
  <p>How would you describe your current emotional state?</p>
  </div>","56","html-slider-response","27","527696","0.0-5.0-3.3","306","1","2025-07-31 06:54:04","1f75c3e559b7213887762d5229550c2b","194.152.129.18","Mozilla/5.0 (Windows NT 10.0; Win64; x64) AppleWebKit/537.36 (KHTML, like Gecko) Chrome/131.0.0.0 Safari/537.36","WebKit","Chrome","131.0.0.0","Windows","10.0","https://app.prolific.com/","en-GB,en;q=0.9","677fb45dee7e90f416b55aea","6877631c9844ddd5501205fc","688b12f58fb5d44752020f73","3","1","677fb45dee7e90f416b55aea","3","1","2025-07-31T07:03:06.392Z","","","","","","","","","","","StressQ","","50","","","","","","","","","","","","","","","","","","","","","","","","","","","","",""
"4265","","<div style=""width:500px;"">
  <p>What best describes how you currently feel?</p>
  </div>","60","html-slider-response","28","531964","0.0-5.0-4.3","306","1","2025-07-31 06:54:04","1f75c3e559b7213887762d5229550c2b","194.152.129.18","Mozilla/5.0 (Windows NT 10.0; Win64; x64) AppleWebKit/537.36 (KHTML, like Gecko) Chrome/131.0.0.0 Safari/537.36","WebKit","Chrome","131.0.0.0","Windows","10.0","https://app.prolific.com/","en-GB,en;q=0.9","677fb45dee7e90f416b55aea","6877631c9844ddd5501205fc","688b12f58fb5d44752020f73","3","1","677fb45dee7e90f416b55aea","3","1","2025-07-31T07:03:10.661Z","","","","","","","","","","","MotivationQ","","50","","","","","","","","","","","","","","","","","","","","","","","","","","","","",""
"","","","","ctl-task-cpt","29","562805","0.0-5.0-0.4","306","1","2025-07-31 06:54:04","1f75c3e559b7213887762d5229550c2b","194.152.129.18","Mozilla/5.0 (Windows NT 10.0; Win64; x64) AppleWebKit/537.36 (KHTML, like Gecko) Chrome/131.0.0.0 Safari/537.36","WebKit","Chrome","131.0.0.0","Windows","10.0","https://app.prolific.com/","en-GB,en;q=0.9","677fb45dee7e90f416b55aea","6877631c9844ddd5501205fc","688b12f58fb5d44752020f73","3","1","677fb45dee7e90f416b55aea","3","1","2025-07-31T07:03:41.502Z","","","","","","","","","","","","","","win-only","2","g1:SE,g2:NW","0.6","5","0","548041.7","1837.7","6842.9","27821.4","1","4","4","6","1","-1","-1","0","0","0","5005.2","3000","-1910","[""down"",""right""]","{""num_key_presses"":7,""num_perfect"":5,""num_errors"":0,""num_randdir"":2,""num_randdir_good_moves"":0,""num_whilered"":0,""num_whileblue"":0,""num_blue"":0,""num_good_moves"":5}","[420.57142857142856,425.47767857142856,0.9,420.57142857142856,425.47767857142856,101.8,420.57142857142856,425.47767857142856,203.6,420.57142857142856,425.47767857142856,322.1,420.57142857142856,425.47767857142856,422.3,420.57142857142856,425.47767857142856,524.8,420.57142857142856,425.47767857142856,644.1,420.57142857142856,425.47767857142856,745.7,420.57142857142856,425.47767857142856,848.1,420.57142857142856,425.47767857142856,948.8,420.57142857142856,425.47767857142856,1049.4,420.57142857142856,425.47767857142856,1150.6,420.57142857142856,425.47767857142856,1259,420.57142857142856,425.47767857142856,1360.4,420.57142857142856,425.47767857142856,1470.8,420.57142857142856,425.47767857142856,1577.7,420.57142857142856,425.47767857142856,1681.2,420.57142857142856,425.47767857142856,1783.6,420.57142857142856,425.47767857142856,1884.3,420.57142857142856,425.47767857142856,1988.8,420.57142857142856,425.47767857142856,2092.3,420.57142857142856,425.47767857142856,2209,420.57142857142856,425.47767857142856,2311.6,420.57142857142856,425.47767857142856,2414.3,420.57142857142856,425.47767857142856,2515,420.57142857142856,425.47767857142856,2620.7,420.57142857142856,425.47767857142856,2726.6,420.57142857142856,425.47767857142856,2834,420.57142857142856,425.47767857142856,2935.2,420.57142857142856,425.47767857142856,3051.1,420.57142857142856,425.47767857142856,3154.6,420.57142857142856,425.47767857142856,3254.6,420.57142857142856,425.47767857142856,3360.7,420.57142857142856,425.47767857142856,3466.3,420.57142857142856,425.47767857142856,3568.6,420.57142857142856,425.47767857142856,3670,420.57142857142856,425.47767857142856,3777,420.57142857142856,425.47767857142856,3879.7,420.57142857142856,425.47767857142856,3983.6,420.57142857142856,425.47767857142856,4084.2,420.57142857142856,425.47767857142856,4195,420.57142857142856,425.47767857142856,4298.3,420.57142857142856,425.47767857142856,4404,420.57142857142856,425.47767857142856,4506.5,420.57142857142856,425.47767857142856,4621.7,420.57142857142856,425.47767857142856,4725.5,420.57142857142856,425.47767857142856,4836.4,420.57142857142856,425.47767857142856,4947.2]","[1745.3,1745.3,1000,0,745.3,""smooth"",""right"",""right"",""good_move"",5283.9,3537.4,2498.4,1746.5,1039.1,""oops"",""down"",""left"",""bad_move"",8874,3588.3,2583.1,5285.7,1005.2,""smooth"",""down"",""down"",""good_move"",11362,2487.2,1989.6,8874.8,497.6,""oops"",""down"",""left"",""bad_move"",14010.4,2647.2,2216.6,11363.3,430.6,""smooth"",""right"",""right"",""good_move"",16142.5,2131.1,1670.6,14011.5,460.5,""smooth"",""right"",""right"",""good_move"",18806.4,2662.7,2200.8,16143.7,461.9,""smooth"",""right"",""right"",""good_move""]","",""
"7601","","<div style=""width:500px;"">
  <p>What determined the result of this run?</p>
  </div>","55","html-slider-response","30","570409","0.0-5.0-1.4","306","1","2025-07-31 06:54:04","1f75c3e559b7213887762d5229550c2b","194.152.129.18","Mozilla/5.0 (Windows NT 10.0; Win64; x64) AppleWebKit/537.36 (KHTML, like Gecko) Chrome/131.0.0.0 Safari/537.36","WebKit","Chrome","131.0.0.0","Windows","10.0","https://app.prolific.com/","en-GB,en;q=0.9","677fb45dee7e90f416b55aea","6877631c9844ddd5501205fc","688b12f58fb5d44752020f73","3","1","677fb45dee7e90f416b55aea","3","1","2025-07-31T07:03:49.106Z","","","","","","","","","","","AttribQ","","50","","","","","","","","","","","","","","","","","","","","","","","","","","","","",""
"5974","","<div style=""width:500px;"">
  <p>How much control did you have over the ball?</p>
  </div>","57","html-slider-response","31","576387","0.0-5.0-2.4","306","1","2025-07-31 06:54:04","1f75c3e559b7213887762d5229550c2b","194.152.129.18","Mozilla/5.0 (Windows NT 10.0; Win64; x64) AppleWebKit/537.36 (KHTML, like Gecko) Chrome/131.0.0.0 Safari/537.36","WebKit","Chrome","131.0.0.0","Windows","10.0","https://app.prolific.com/","en-GB,en;q=0.9","677fb45dee7e90f416b55aea","6877631c9844ddd5501205fc","688b12f58fb5d44752020f73","3","1","677fb45dee7e90f416b55aea","3","1","2025-07-31T07:03:55.083Z","","","","","","","","","","","ControlQ","","50","","","","","","","","","","","","","","","","","","","","","","","","","","","","",""
"3416","","<div style=""width:500px;"">
  <p>How would you describe your current emotional state?</p>
  </div>","62","html-slider-response","32","579806","0.0-5.0-3.4","306","1","2025-07-31 06:54:04","1f75c3e559b7213887762d5229550c2b","194.152.129.18","Mozilla/5.0 (Windows NT 10.0; Win64; x64) AppleWebKit/537.36 (KHTML, like Gecko) Chrome/131.0.0.0 Safari/537.36","WebKit","Chrome","131.0.0.0","Windows","10.0","https://app.prolific.com/","en-GB,en;q=0.9","677fb45dee7e90f416b55aea","6877631c9844ddd5501205fc","688b12f58fb5d44752020f73","3","1","677fb45dee7e90f416b55aea","3","1","2025-07-31T07:03:58.502Z","","","","","","","","","","","StressQ","","50","","","","","","","","","","","","","","","","","","","","","","","","","","","","",""
"2746","","<div style=""width:500px;"">
  <p>What best describes how you currently feel?</p>
  </div>","61","html-slider-response","33","582555","0.0-5.0-4.4","306","1","2025-07-31 06:54:04","1f75c3e559b7213887762d5229550c2b","194.152.129.18","Mozilla/5.0 (Windows NT 10.0; Win64; x64) AppleWebKit/537.36 (KHTML, like Gecko) Chrome/131.0.0.0 Safari/537.36","WebKit","Chrome","131.0.0.0","Windows","10.0","https://app.prolific.com/","en-GB,en;q=0.9","677fb45dee7e90f416b55aea","6877631c9844ddd5501205fc","688b12f58fb5d44752020f73","3","1","677fb45dee7e90f416b55aea","3","1","2025-07-31T07:04:01.251Z","","","","","","","","","","","MotivationQ","","50","","","","","","","","","","","","","","","","","","","","","","","","","","","","",""
"","","","","ctl-task-cpt","34","605307","0.0-5.0-0.5","306","1","2025-07-31 06:54:04","1f75c3e559b7213887762d5229550c2b","194.152.129.18","Mozilla/5.0 (Windows NT 10.0; Win64; x64) AppleWebKit/537.36 (KHTML, like Gecko) Chrome/131.0.0.0 Safari/537.36","WebKit","Chrome","131.0.0.0","Windows","10.0","https://app.prolific.com/","en-GB,en;q=0.9","677fb45dee7e90f416b55aea","6877631c9844ddd5501205fc","688b12f58fb5d44752020f73","3","1","677fb45dee7e90f416b55aea","3","1","2025-07-31T07:04:24.004Z","","","","","","","","","","","","","","win-only","1","g1:NE,g2:SW","0.5","6","0","598631.6","1415.6","6417.4","19723.8","1","4","8","6","1","-1","-1","0","0","0","5001.7","3000","-1870","[""up"",""right""]","{""num_key_presses"":3,""num_perfect"":3,""num_errors"":0,""num_randdir"":0,""num_randdir_good_moves"":0,""num_whilered"":0,""num_whileblue"":0,""num_blue"":0,""num_good_moves"":2}","[422.57142857142856,404.47767857142856,0.3,422.57142857142856,404.47767857142856,100.5,422.57142857142856,404.47767857142856,200.6,422.57142857142856,404.47767857142856,300.8,422.57142857142856,404.47767857142856,401.9,422.57142857142856,404.47767857142856,508.4,422.57142857142856,404.47767857142856,611.8,422.57142857142856,404.47767857142856,718.9,422.57142857142856,404.47767857142856,824.4,422.57142857142856,404.47767857142856,926.7,422.57142857142856,404.47767857142856,1035.3,468.57142857142856,342.47767857142856,1143.9,491.57142857142856,314.47767857142856,1244.5,479.57142857142856,332.47767857142856,1346.2,467.57142857142856,346.47767857142856,1452.2,466.57142857142856,347.47767857142856,1552.5,466.57142857142856,347.47767857142856,1657.9,466.57142857142856,347.47767857142856,1785.1,466.57142857142856,347.47767857142856,1889.9,466.57142857142856,347.47767857142856,1997.7,466.57142857142856,347.47767857142856,2104.3,466.57142857142856,347.47767857142856,2204.3,466.57142857142856,347.47767857142856,2312.7,466.57142857142856,347.47767857142856,2418,466.57142857142856,347.47767857142856,2518.1,466.57142857142856,347.47767857142856,2621.9,466.57142857142856,347.47767857142856,2724,466.57142857142856,347.47767857142856,2830.1,466.57142857142856,347.47767857142856,2937.8,466.57142857142856,347.47767857142856,3045.2,466.57142857142856,347.47767857142856,3149.6,466.57142857142856,347.47767857142856,3256,466.57142857142856,347.47767857142856,3364,466.57142857142856,347.47767857142856,3466.2,466.57142857142856,347.47767857142856,3570.7,466.57142857142856,347.47767857142856,3678.3,466.57142857142856,347.47767857142856,3781,466.57142857142856,347.47767857142856,3882.3,466.57142857142856,347.47767857142856,3982.3,466.57142857142856,347.47767857142856,4083.5,466.57142857142856,347.47767857142856,4187.2,466.57142857142856,347.47767857142856,4292.2,466.57142857142856,347.47767857142856,4405,466.57142857142856,347.47767857142856,4516.3,466.57142857142856,347.47767857142856,4627.4,466.57142857142856,347.47767857142856,4737.3,466.57142857142856,347.47767857142856,4840.7,466.57142857142856,347.47767857142856,4942.7]","[1817.4,1817.5,1000,0,817.5,""smooth"",""left"",""left"",""bad_move"",4835.5,3016,2205,1819.5,811,""smooth"",""up"",""up"",""good_move"",7977.7,3140.4,2103,4837.3,1037.4,""smooth"",""up"",""up"",""good_move""]","",""
"4111","","<div style=""width:500px;"">
  <p>What determined the result of this run?</p>
  </div>","58","html-slider-response","35","609423","0.0-5.0-1.5","306","1","2025-07-31 06:54:04","1f75c3e559b7213887762d5229550c2b","194.152.129.18","Mozilla/5.0 (Windows NT 10.0; Win64; x64) AppleWebKit/537.36 (KHTML, like Gecko) Chrome/131.0.0.0 Safari/537.36","WebKit","Chrome","131.0.0.0","Windows","10.0","https://app.prolific.com/","en-GB,en;q=0.9","677fb45dee7e90f416b55aea","6877631c9844ddd5501205fc","688b12f58fb5d44752020f73","3","1","677fb45dee7e90f416b55aea","3","1","2025-07-31T07:04:28.119Z","","","","","","","","","","","AttribQ","","50","","","","","","","","","","","","","","","","","","","","","","","","","","","","",""
"5071","","<div style=""width:500px;"">
  <p>How much control did you have over the ball?</p>
  </div>","57","html-slider-response","36","614496","0.0-5.0-2.5","306","1","2025-07-31 06:54:04","1f75c3e559b7213887762d5229550c2b","194.152.129.18","Mozilla/5.0 (Windows NT 10.0; Win64; x64) AppleWebKit/537.36 (KHTML, like Gecko) Chrome/131.0.0.0 Safari/537.36","WebKit","Chrome","131.0.0.0","Windows","10.0","https://app.prolific.com/","en-GB,en;q=0.9","677fb45dee7e90f416b55aea","6877631c9844ddd5501205fc","688b12f58fb5d44752020f73","3","1","677fb45dee7e90f416b55aea","3","1","2025-07-31T07:04:33.192Z","","","","","","","","","","","ControlQ","","50","","","","","","","","","","","","","","","","","","","","","","","","","","","","",""
"4476","","<div style=""width:500px;"">
  <p>How would you describe your current emotional state?</p>
  </div>","59","html-slider-response","37","618975","0.0-5.0-3.5","306","1","2025-07-31 06:54:04","1f75c3e559b7213887762d5229550c2b","194.152.129.18","Mozilla/5.0 (Windows NT 10.0; Win64; x64) AppleWebKit/537.36 (KHTML, like Gecko) Chrome/131.0.0.0 Safari/537.36","WebKit","Chrome","131.0.0.0","Windows","10.0","https://app.prolific.com/","en-GB,en;q=0.9","677fb45dee7e90f416b55aea","6877631c9844ddd5501205fc","688b12f58fb5d44752020f73","3","1","677fb45dee7e90f416b55aea","3","1","2025-07-31T07:04:37.671Z","","","","","","","","","","","StressQ","","50","","","","","","","","","","","","","","","","","","","","","","","","","","","","",""
"3611","","<div style=""width:500px;"">
  <p>What best describes how you currently feel?</p>
  </div>","62","html-slider-response","38","622588","0.0-5.0-4.5","306","1","2025-07-31 06:54:04","1f75c3e559b7213887762d5229550c2b","194.152.129.18","Mozilla/5.0 (Windows NT 10.0; Win64; x64) AppleWebKit/537.36 (KHTML, like Gecko) Chrome/131.0.0.0 Safari/537.36","WebKit","Chrome","131.0.0.0","Windows","10.0","https://app.prolific.com/","en-GB,en;q=0.9","677fb45dee7e90f416b55aea","6877631c9844ddd5501205fc","688b12f58fb5d44752020f73","3","1","677fb45dee7e90f416b55aea","3","1","2025-07-31T07:04:41.285Z","","","","","","","","","","","MotivationQ","","50","","","","","","","","","","","","","","","","","","","","","","","","","","","","",""
"","","","","ctl-task-cpt","39","671599","0.0-5.0-0.6","306","1","2025-07-31 06:54:04","1f75c3e559b7213887762d5229550c2b","194.152.129.18","Mozilla/5.0 (Windows NT 10.0; Win64; x64) AppleWebKit/537.36 (KHTML, like Gecko) Chrome/131.0.0.0 Safari/537.36","WebKit","Chrome","131.0.0.0","Windows","10.0","https://app.prolific.com/","en-GB,en;q=0.9","677fb45dee7e90f416b55aea","6877631c9844ddd5501205fc","688b12f58fb5d44752020f73","3","1","677fb45dee7e90f416b55aea","3","1","2025-07-31T07:05:30.295Z","","","","","","","","","","","","","","win-only","2","g1:SE,g2:NW","0.4","7","0","638668.2","1408.3","6415.6","45974","1","4","4","6","2","-4","-4","0","0","0","5007.3","3000","-1830","[""left"",""up""]","{""num_key_presses"":8,""num_perfect"":3,""num_errors"":0,""num_randdir"":5,""num_randdir_good_moves"":1,""num_whilered"":0,""num_whileblue"":0,""num_blue"":4,""num_good_moves"":4}","[409.57142857142856,413.47767857142856,0.5,409.57142857142856,413.47767857142856,103,409.57142857142856,413.47767857142856,209.3,409.57142857142856,413.47767857142856,310.7,409.57142857142856,413.47767857142856,415.8,409.57142857142856,413.47767857142856,518.6,409.57142857142856,413.47767857142856,624.9,409.57142857142856,413.47767857142856,728.6,409.57142857142856,413.47767857142856,831,428.57142857142856,428.47767857142856,936.3,440.57142857142856,468.47767857142856,1044.8,447.57142857142856,508.47767857142856,1150.2,449.57142857142856,514.4776785714286,1252.9,449.57142857142856,514.4776785714286,1362.5,449.57142857142856,514.4776785714286,1463.8,449.57142857142856,514.4776785714286,1566,449.57142857142856,514.4776785714286,1666.1,449.57142857142856,514.4776785714286,1768.7,449.57142857142856,514.4776785714286,1873.8,449.57142857142856,514.4776785714286,1975.5,449.57142857142856,514.4776785714286,2089.1,449.57142857142856,514.4776785714286,2191.2,449.57142857142856,514.4776785714286,2293.5,449.57142857142856,514.4776785714286,2410.9,449.57142857142856,514.4776785714286,2511,449.57142857142856,514.4776785714286,2616.1,449.57142857142856,514.4776785714286,2718.2,449.57142857142856,514.4776785714286,2825.5,449.57142857142856,514.4776785714286,2937.2,449.57142857142856,514.4776785714286,3039.1,449.57142857142856,514.4776785714286,3141.1,449.57142857142856,514.4776785714286,3243.3,449.57142857142856,514.4776785714286,3345.3,449.57142857142856,514.4776785714286,3446.5,449.57142857142856,514.4776785714286,3550.5,449.57142857142856,514.4776785714286,3651.4,449.57142857142856,514.4776785714286,3753,449.57142857142856,514.4776785714286,3860.1,449.57142857142856,514.4776785714286,3960.5,456.57142857142856,513.4776785714286,4065.2,464.57142857142856,512.4776785714286,4166.6,474.57142857142856,511.47767857142856,4267.8,474.57142857142856,511.47767857142856,4368.3,474.57142857142856,511.47767857142856,4471.6,474.57142857142856,511.47767857142856,4572.8,474.57142857142856,511.47767857142856,4676.1,474.57142857142856,511.47767857142856,4782.5,474.57142857142856,511.47767857142856,4886,474.57142857142856,511.47767857142856,4993.9]","[2226.4,2226.5,1000,0,1226.5,""oops"",""up"",""down"",""bad_move"",9443.7,7216.4,2690.6,6091,662.1,""oops"",""left"",""up"",""good_move"",12497.8,3052.3,2448.8,9445.6,603.5,""oops"",""left"",""down"",""bad_move"",19475.8,6976.5,2532.8,16457.5,485.5,""oops"",""up"",""down"",""bad_move"",21855.2,2378.1,1837.1,19477.1,541,""oops"",""left"",""right"",""bad_move"",24592.3,2735.5,2096.3,21856.8,639.2,""smooth"",""left"",""left"",""good_move"",27483.6,2889.7,2458.4,24594,431.3,""smooth"",""left"",""left"",""good_move"",37032.2,9546.9,2734.8,33811.7,485.7,""smooth"",""left"",""left"",""good_move""]","",""
"34319","","<div style=""width:500px;"">
  <p>What determined the result of this run?</p>
  </div>","55","html-slider-response","40","705920","0.0-5.0-1.6","306","1","2025-07-31 06:54:04","1f75c3e559b7213887762d5229550c2b","194.152.129.18","Mozilla/5.0 (Windows NT 10.0; Win64; x64) AppleWebKit/537.36 (KHTML, like Gecko) Chrome/131.0.0.0 Safari/537.36","WebKit","Chrome","131.0.0.0","Windows","10.0","https://app.prolific.com/","en-GB,en;q=0.9","677fb45dee7e90f416b55aea","6877631c9844ddd5501205fc","688b12f58fb5d44752020f73","3","1","677fb45dee7e90f416b55aea","3","1","2025-07-31T07:06:04.617Z","","","","","","","","","","","AttribQ","","50","","","","","","","","","","","","","","","","","","","","","","","","","","","","",""
"5053","","<div style=""width:500px;"">
  <p>How much control did you have over the ball?</p>
  </div>","53","html-slider-response","41","710976","0.0-5.0-2.6","306","1","2025-07-31 06:54:04","1f75c3e559b7213887762d5229550c2b","194.152.129.18","Mozilla/5.0 (Windows NT 10.0; Win64; x64) AppleWebKit/537.36 (KHTML, like Gecko) Chrome/131.0.0.0 Safari/537.36","WebKit","Chrome","131.0.0.0","Windows","10.0","https://app.prolific.com/","en-GB,en;q=0.9","677fb45dee7e90f416b55aea","6877631c9844ddd5501205fc","688b12f58fb5d44752020f73","3","1","677fb45dee7e90f416b55aea","3","1","2025-07-31T07:06:09.672Z","","","","","","","","","","","ControlQ","","50","","","","","","","","","","","","","","","","","","","","","","","","","","","","",""
"6322","","<div style=""width:500px;"">
  <p>How would you describe your current emotional state?</p>
  </div>","56","html-slider-response","42","717301","0.0-5.0-3.6","306","1","2025-07-31 06:54:04","1f75c3e559b7213887762d5229550c2b","194.152.129.18","Mozilla/5.0 (Windows NT 10.0; Win64; x64) AppleWebKit/537.36 (KHTML, like Gecko) Chrome/131.0.0.0 Safari/537.36","WebKit","Chrome","131.0.0.0","Windows","10.0","https://app.prolific.com/","en-GB,en;q=0.9","677fb45dee7e90f416b55aea","6877631c9844ddd5501205fc","688b12f58fb5d44752020f73","3","1","677fb45dee7e90f416b55aea","3","1","2025-07-31T07:06:15.997Z","","","","","","","","","","","StressQ","","50","","","","","","","","","","","","","","","","","","","","","","","","","","","","",""
"5432","","<div style=""width:500px;"">
  <p>What best describes how you currently feel?</p>
  </div>","55","html-slider-response","43","722736","0.0-5.0-4.6","306","1","2025-07-31 06:54:04","1f75c3e559b7213887762d5229550c2b","194.152.129.18","Mozilla/5.0 (Windows NT 10.0; Win64; x64) AppleWebKit/537.36 (KHTML, like Gecko) Chrome/131.0.0.0 Safari/537.36","WebKit","Chrome","131.0.0.0","Windows","10.0","https://app.prolific.com/","en-GB,en;q=0.9","677fb45dee7e90f416b55aea","6877631c9844ddd5501205fc","688b12f58fb5d44752020f73","3","1","677fb45dee7e90f416b55aea","3","1","2025-07-31T07:06:21.432Z","","","","","","","","","","","MotivationQ","","50","","","","","","","","","","","","","","","","","","","","","","","","","","","","",""
"","","","","ctl-task-cpt","44","758219","0.0-5.0-0.7","306","1","2025-07-31 06:54:04","1f75c3e559b7213887762d5229550c2b","194.152.129.18","Mozilla/5.0 (Windows NT 10.0; Win64; x64) AppleWebKit/537.36 (KHTML, like Gecko) Chrome/131.0.0.0 Safari/537.36","WebKit","Chrome","131.0.0.0","Windows","10.0","https://app.prolific.com/","en-GB,en;q=0.9","677fb45dee7e90f416b55aea","6877631c9844ddd5501205fc","688b12f58fb5d44752020f73","3","1","677fb45dee7e90f416b55aea","3","1","2025-07-31T07:06:56.916Z","","","","","","","","","","","","","","win-only","2","g1:SE,g2:NW","0.3","8","0","738809.5","20832.9","25837.7","32462","1","4","8","6","1","-1","-1","0","0","0","5004.7","3000","-1365","[""down"",""right""]","{""num_key_presses"":0,""num_perfect"":0,""num_errors"":0,""num_randdir"":0,""num_randdir_good_moves"":0,""num_whilered"":0,""num_whileblue"":0,""num_blue"":0,""num_good_moves"":0}","[428.57142857142856,418.47767857142856,3.5,428.57142857142856,418.47767857142856,109.2,428.57142857142856,418.47767857142856,222.8,428.57142857142856,418.47767857142856,330.1,428.57142857142856,418.47767857142856,439.4,428.57142857142856,418.47767857142856,542.7,428.57142857142856,418.47767857142856,648.8,428.57142857142856,418.47767857142856,753.1,428.57142857142856,418.47767857142856,861.6,428.57142857142856,418.47767857142856,964.2,428.57142857142856,418.47767857142856,1069.8,428.57142857142856,418.47767857142856,1177.7,428.57142857142856,418.47767857142856,1279.2,428.57142857142856,418.47767857142856,1389.3,428.57142857142856,418.47767857142856,1494.6,428.57142857142856,418.47767857142856,1599.4,428.57142857142856,418.47767857142856,1703.6,428.57142857142856,418.47767857142856,1809.9,428.57142857142856,418.47767857142856,1913.2,428.57142857142856,418.47767857142856,2024.4,428.57142857142856,418.47767857142856,2135.3,428.57142857142856,418.47767857142856,2237.8,428.57142857142856,418.47767857142856,2344,428.57142857142856,418.47767857142856,2448.2,428.57142857142856,418.47767857142856,2549.4,428.57142857142856,418.47767857142856,2653.2,428.57142857142856,418.47767857142856,2756.9,428.57142857142856,418.47767857142856,2859.6,428.57142857142856,418.47767857142856,2966.5,428.57142857142856,418.47767857142856,3070.1,428.57142857142856,418.47767857142856,3176.2,428.57142857142856,418.47767857142856,3279.1,428.57142857142856,418.47767857142856,3380.7,428.57142857142856,418.47767857142856,3484.9,428.57142857142856,418.47767857142856,3593,428.57142857142856,418.47767857142856,3701.6,428.57142857142856,418.47767857142856,3807.2,428.57142857142856,418.47767857142856,3908.9,428.57142857142856,418.47767857142856,4012,428.57142857142856,418.47767857142856,4118.6,428.57142857142856,418.47767857142856,4223.2,428.57142857142856,418.47767857142856,4326.5,428.57142857142856,418.47767857142856,4433.3,428.57142857142856,418.47767857142856,4539.1,428.57142857142856,418.47767857142856,4640.3,428.57142857142856,418.47767857142856,4741.9,428.57142857142856,418.47767857142856,4841.9,428.57142857142856,418.47767857142856,4951.7]","[]","",""
"6545","","<div style=""width:500px;"">
  <p>What determined the result of this run?</p>
  </div>","56","html-slider-response","45","764769","0.0-5.0-1.7","306","1","2025-07-31 06:54:04","1f75c3e559b7213887762d5229550c2b","194.152.129.18","Mozilla/5.0 (Windows NT 10.0; Win64; x64) AppleWebKit/537.36 (KHTML, like Gecko) Chrome/131.0.0.0 Safari/537.36","WebKit","Chrome","131.0.0.0","Windows","10.0","https://app.prolific.com/","en-GB,en;q=0.9","677fb45dee7e90f416b55aea","6877631c9844ddd5501205fc","688b12f58fb5d44752020f73","3","1","677fb45dee7e90f416b55aea","3","1","2025-07-31T07:07:03.465Z","","","","","","","","","","","AttribQ","","50","","","","","","","","","","","","","","","","","","","","","","","","","","","","",""
"3929","","<div style=""width:500px;"">
  <p>How much control did you have over the ball?</p>
  </div>","55","html-slider-response","46","768701","0.0-5.0-2.7","306","1","2025-07-31 06:54:04","1f75c3e559b7213887762d5229550c2b","194.152.129.18","Mozilla/5.0 (Windows NT 10.0; Win64; x64) AppleWebKit/537.36 (KHTML, like Gecko) Chrome/131.0.0.0 Safari/537.36","WebKit","Chrome","131.0.0.0","Windows","10.0","https://app.prolific.com/","en-GB,en;q=0.9","677fb45dee7e90f416b55aea","6877631c9844ddd5501205fc","688b12f58fb5d44752020f73","3","1","677fb45dee7e90f416b55aea","3","1","2025-07-31T07:07:07.397Z","","","","","","","","","","","ControlQ","","50","","","","","","","","","","","","","","","","","","","","","","","","","","","","",""
"5517","","<div style=""width:500px;"">
  <p>How would you describe your current emotional state?</p>
  </div>","64","html-slider-response","47","774221","0.0-5.0-3.7","306","1","2025-07-31 06:54:04","1f75c3e559b7213887762d5229550c2b","194.152.129.18","Mozilla/5.0 (Windows NT 10.0; Win64; x64) AppleWebKit/537.36 (KHTML, like Gecko) Chrome/131.0.0.0 Safari/537.36","WebKit","Chrome","131.0.0.0","Windows","10.0","https://app.prolific.com/","en-GB,en;q=0.9","677fb45dee7e90f416b55aea","6877631c9844ddd5501205fc","688b12f58fb5d44752020f73","3","1","677fb45dee7e90f416b55aea","3","1","2025-07-31T07:07:12.917Z","","","","","","","","","","","StressQ","","50","","","","","","","","","","","","","","","","","","","","","","","","","","","","",""
"5256","","<div style=""width:500px;"">
  <p>What best describes how you currently feel?</p>
  </div>","63","html-slider-response","48","779480","0.0-5.0-4.7","306","1","2025-07-31 06:54:04","1f75c3e559b7213887762d5229550c2b","194.152.129.18","Mozilla/5.0 (Windows NT 10.0; Win64; x64) AppleWebKit/537.36 (KHTML, like Gecko) Chrome/131.0.0.0 Safari/537.36","WebKit","Chrome","131.0.0.0","Windows","10.0","https://app.prolific.com/","en-GB,en;q=0.9","677fb45dee7e90f416b55aea","6877631c9844ddd5501205fc","688b12f58fb5d44752020f73","3","1","677fb45dee7e90f416b55aea","3","1","2025-07-31T07:07:18.176Z","","","","","","","","","","","MotivationQ","","50","","","","","","","","","","","","","","","","","","","","","","","","","","","","",""
"","","","","ctl-task-cpt","49","828977","0.0-5.0-0.8","306","1","2025-07-31 06:54:04","1f75c3e559b7213887762d5229550c2b","194.152.129.18","Mozilla/5.0 (Windows NT 10.0; Win64; x64) AppleWebKit/537.36 (KHTML, like Gecko) Chrome/131.0.0.0 Safari/537.36","WebKit","Chrome","131.0.0.0","Windows","10.0","https://app.prolific.com/","en-GB,en;q=0.9","677fb45dee7e90f416b55aea","6877631c9844ddd5501205fc","688b12f58fb5d44752020f73","3","1","677fb45dee7e90f416b55aea","3","1","2025-07-31T07:08:07.673Z","","","","","","","","","","","","","","win-only","1","g1:NE,g2:SW","0.2","9","0","795557.1","1504","6509.7","46468.2","1","4","4","6","2","-4","-4","0","0","0","5005.7","3000","-1130","[""down"",""left""]","{""num_key_presses"":8,""num_perfect"":1,""num_errors"":0,""num_randdir"":7,""num_randdir_good_moves"":5,""num_whilered"":0,""num_whileblue"":0,""num_blue"":4,""num_good_moves"":6}","[420.57142857142856,420.47767857142856,0.4,420.57142857142856,420.47767857142856,102.4,420.57142857142856,420.47767857142856,208.9,420.57142857142856,420.47767857142856,310.1,420.57142857142856,420.47767857142856,415.2,420.57142857142856,420.47767857142856,519.6,420.57142857142856,420.47767857142856,622.6,420.57142857142856,420.47767857142856,724.6,420.57142857142856,420.47767857142856,836.3,420.57142857142856,420.47767857142856,948.7,420.57142857142856,420.47767857142856,1056.7,420.57142857142856,420.47767857142856,1157.3,420.57142857142856,420.47767857142856,1264.9,420.57142857142856,420.47767857142856,1368.8,420.57142857142856,420.47767857142856,1471.2,420.57142857142856,420.47767857142856,1573.7,420.57142857142856,420.47767857142856,1681.7,420.57142857142856,420.47767857142856,1783.5,420.57142857142856,420.47767857142856,1888.3,420.57142857142856,420.47767857142856,1990.3,420.57142857142856,420.47767857142856,2092.5,420.57142857142856,420.47767857142856,2204.7,420.57142857142856,420.47767857142856,2308.6,420.57142857142856,420.47767857142856,2416.9,420.57142857142856,420.47767857142856,2520,420.57142857142856,420.47767857142856,2629.4,420.57142857142856,420.47767857142856,2729.5,420.57142857142856,420.47767857142856,2832.6,420.57142857142856,420.47767857142856,2933.2,420.57142857142856,420.47767857142856,3055.2,420.57142857142856,420.47767857142856,3158.8,420.57142857142856,420.47767857142856,3266,420.57142857142856,420.47767857142856,3366.8,420.57142857142856,420.47767857142856,3468.7,420.57142857142856,420.47767857142856,3574.6,420.57142857142856,420.47767857142856,3675.9,420.57142857142856,420.47767857142856,3779.9,420.57142857142856,420.47767857142856,3882.3,420.57142857142856,420.47767857142856,3987.7,420.57142857142856,420.47767857142856,4088.3,420.57142857142856,420.47767857142856,4196.7,420.57142857142856,420.47767857142856,4297.3,420.57142857142856,420.47767857142856,4400.6,420.57142857142856,420.47767857142856,4511.2,420.57142857142856,420.47767857142856,4614.1,420.57142857142856,420.47767857142856,4727.5,420.57142857142856,420.47767857142856,4831.1,420.57142857142856,420.47767857142856,4946.1]","[6495.2,6495.2,2336,2017.2,2142,""oops"",""left"",""down"",""good_move"",9068.3,2571.3,2022.1,6497,549.3,""smooth"",""down"",""down"",""good_move"",15190,6120,2698.9,12031.1,460.1,""oops"",""down"",""left"",""good_move"",18547.9,3356.4,2782.2,15191.5,574.2,""oops"",""left"",""left"",""good_move"",24847.2,6298.5,2369.9,22044.4,433,""oops"",""left"",""down"",""good_move"",27588.6,2740,1922.8,24848.6,817.3,""oops"",""left"",""right"",""bad_move"",30733.8,3143.5,2718.6,27590.3,424.9,""oops"",""left"",""left"",""good_move"",33987.6,3251.3,2822.9,30736.4,428.4,""oops"",""left"",""right"",""bad_move""]","",""
"7613","","<div style=""width:500px;"">
  <p>What determined the result of this run?</p>
  </div>","58","html-slider-response","50","836592","0.0-5.0-1.8","306","1","2025-07-31 06:54:04","1f75c3e559b7213887762d5229550c2b","194.152.129.18","Mozilla/5.0 (Windows NT 10.0; Win64; x64) AppleWebKit/537.36 (KHTML, like Gecko) Chrome/131.0.0.0 Safari/537.36","WebKit","Chrome","131.0.0.0","Windows","10.0","https://app.prolific.com/","en-GB,en;q=0.9","677fb45dee7e90f416b55aea","6877631c9844ddd5501205fc","688b12f58fb5d44752020f73","3","1","677fb45dee7e90f416b55aea","3","1","2025-07-31T07:08:15.288Z","","","","","","","","","","","AttribQ","","50","","","","","","","","","","","","","","","","","","","","","","","","","","","","",""
"3682","","<div style=""width:500px;"">
  <p>How much control did you have over the ball?</p>
  </div>","56","html-slider-response","51","840275","0.0-5.0-2.8","306","1","2025-07-31 06:54:04","1f75c3e559b7213887762d5229550c2b","194.152.129.18","Mozilla/5.0 (Windows NT 10.0; Win64; x64) AppleWebKit/537.36 (KHTML, like Gecko) Chrome/131.0.0.0 Safari/537.36","WebKit","Chrome","131.0.0.0","Windows","10.0","https://app.prolific.com/","en-GB,en;q=0.9","677fb45dee7e90f416b55aea","6877631c9844ddd5501205fc","688b12f58fb5d44752020f73","3","1","677fb45dee7e90f416b55aea","3","1","2025-07-31T07:08:18.972Z","","","","","","","","","","","ControlQ","","50","","","","","","","","","","","","","","","","","","","","","","","","","","","","",""
"3539","","<div style=""width:500px;"">
  <p>How would you describe your current emotional state?</p>
  </div>","66","html-slider-response","52","843816","0.0-5.0-3.8","306","1","2025-07-31 06:54:04","1f75c3e559b7213887762d5229550c2b","194.152.129.18","Mozilla/5.0 (Windows NT 10.0; Win64; x64) AppleWebKit/537.36 (KHTML, like Gecko) Chrome/131.0.0.0 Safari/537.36","WebKit","Chrome","131.0.0.0","Windows","10.0","https://app.prolific.com/","en-GB,en;q=0.9","677fb45dee7e90f416b55aea","6877631c9844ddd5501205fc","688b12f58fb5d44752020f73","3","1","677fb45dee7e90f416b55aea","3","1","2025-07-31T07:08:22.512Z","","","","","","","","","","","StressQ","","50","","","","","","","","","","","","","","","","","","","","","","","","","","","","",""
"2925","","<div style=""width:500px;"">
  <p>What best describes how you currently feel?</p>
  </div>","64","html-slider-response","53","846743","0.0-5.0-4.8","306","1","2025-07-31 06:54:04","1f75c3e559b7213887762d5229550c2b","194.152.129.18","Mozilla/5.0 (Windows NT 10.0; Win64; x64) AppleWebKit/537.36 (KHTML, like Gecko) Chrome/131.0.0.0 Safari/537.36","WebKit","Chrome","131.0.0.0","Windows","10.0","https://app.prolific.com/","en-GB,en;q=0.9","677fb45dee7e90f416b55aea","6877631c9844ddd5501205fc","688b12f58fb5d44752020f73","3","1","677fb45dee7e90f416b55aea","3","1","2025-07-31T07:08:25.439Z","","","","","","","","","","","MotivationQ","","50","","","","","","","","","","","","","","","","","","","","","","","","","","","","",""
"","","","","ctl-task-cpt","54","894349","0.0-5.0-0.9","306","1","2025-07-31 06:54:04","1f75c3e559b7213887762d5229550c2b","194.152.129.18","Mozilla/5.0 (Windows NT 10.0; Win64; x64) AppleWebKit/537.36 (KHTML, like Gecko) Chrome/131.0.0.0 Safari/537.36","WebKit","Chrome","131.0.0.0","Windows","10.0","https://app.prolific.com/","en-GB,en;q=0.9","677fb45dee7e90f416b55aea","6877631c9844ddd5501205fc","688b12f58fb5d44752020f73","3","1","677fb45dee7e90f416b55aea","3","1","2025-07-31T07:09:13.045Z","","","","","","","","","","","","","","win-only","1","g1:NE,g2:SW","0.4","10","0","862817","2084.5","7095.8","44580.3","1","4","8","6","1","1","1","1","0","0.007575757575757576","5011.3","3000","1220","[""up"",""right""]","{""num_key_presses"":8,""num_perfect"":3,""num_errors"":0,""num_randdir"":5,""num_randdir_good_moves"":4,""num_whilered"":0,""num_whileblue"":0,""num_blue"":4,""num_good_moves"":6}","[417.57142857142856,408.47767857142856,5.1,417.57142857142856,408.47767857142856,104.8,417.57142857142856,408.47767857142856,207.4,417.57142857142856,408.47767857142856,310.1,417.57142857142856,408.47767857142856,417.9,417.57142857142856,408.47767857142856,519.3,417.57142857142856,408.47767857142856,623.8,417.57142857142856,408.47767857142856,730.4,417.57142857142856,408.47767857142856,840.9,417.57142857142856,408.47767857142856,947.1,417.57142857142856,408.47767857142856,1049.7,417.57142857142856,408.47767857142856,1151.2,417.57142857142856,408.47767857142856,1255.1,417.57142857142856,408.47767857142856,1356.7,417.57142857142856,408.47767857142856,1463.7,417.57142857142856,408.47767857142856,1566.7,417.57142857142856,408.47767857142856,1669,417.57142857142856,408.47767857142856,1770.9,417.57142857142856,408.47767857142856,1876.4,417.57142857142856,408.47767857142856,1979.9,417.57142857142856,408.47767857142856,2090.5,417.57142857142856,408.47767857142856,2195,417.57142857142856,408.47767857142856,2305,417.57142857142856,408.47767857142856,2407.6,417.57142857142856,408.47767857142856,2518.1,417.57142857142856,408.47767857142856,2632.2,417.57142857142856,408.47767857142856,2733.9,417.57142857142856,408.47767857142856,2838,417.57142857142856,408.47767857142856,2939.4,417.57142857142856,408.47767857142856,3045.5,417.57142857142856,408.47767857142856,3152.3,417.57142857142856,408.47767857142856,3265.2,417.57142857142856,408.47767857142856,3373.1,417.57142857142856,408.47767857142856,3475.7,417.57142857142856,408.47767857142856,3578.4,417.57142857142856,408.47767857142856,3687.7,417.57142857142856,408.47767857142856,3793.2,417.57142857142856,408.47767857142856,3899.7,417.57142857142856,408.47767857142856,4003.2,417.57142857142856,408.47767857142856,4113.4,417.57142857142856,408.47767857142856,4217.3,417.57142857142856,408.47767857142856,4324.3,417.57142857142856,408.47767857142856,4429.8,417.57142857142856,408.47767857142856,4533.4,417.57142857142856,408.47767857142856,4638.8,417.57142857142856,408.47767857142856,4743.6,417.57142857142856,408.47767857142856,4844.1,417.57142857142856,408.47767857142856,4944.3]","[1667.6,1667.6,1000,0,667.6,""smooth"",""left"",""left"",""bad_move"",4509.4,2840,2352,1669.5,487.9,""oops"",""up"",""up"",""good_move"",17777.7,13263.5,2379.7,14921.1,476.9,""oops"",""up"",""right"",""good_move"",20680.1,2901.2,2348.7,17779,552.5,""oops"",""up"",""right"",""good_move"",27290.6,6609.1,2708.7,24121.2,460.7,""oops"",""up"",""left"",""bad_move"",30343.6,3052.2,2516.4,27291.4,535.8,""smooth"",""right"",""right"",""good_move"",34127.8,3779,3239.3,30348.8,539.7,""smooth"",""right"",""right"",""good_move"",37292.8,3163.1,2764.6,34129.8,398.5,""oops"",""up"",""up"",""good_move""]","",""
"8097","","<div style=""width:500px;"">
  <p>What determined the result of this run?</p>
  </div>","78","html-slider-response","55","902449","0.0-5.0-1.9","306","1","2025-07-31 06:54:04","1f75c3e559b7213887762d5229550c2b","194.152.129.18","Mozilla/5.0 (Windows NT 10.0; Win64; x64) AppleWebKit/537.36 (KHTML, like Gecko) Chrome/131.0.0.0 Safari/537.36","WebKit","Chrome","131.0.0.0","Windows","10.0","https://app.prolific.com/","en-GB,en;q=0.9","677fb45dee7e90f416b55aea","6877631c9844ddd5501205fc","688b12f58fb5d44752020f73","3","1","677fb45dee7e90f416b55aea","3","1","2025-07-31T07:09:21.145Z","","","","","","","","","","","AttribQ","","50","","","","","","","","","","","","","","","","","","","","","","","","","","","","",""
"5055","","<div style=""width:500px;"">
  <p>How much control did you have over the ball?</p>
  </div>","63","html-slider-response","56","907510","0.0-5.0-2.9","306","1","2025-07-31 06:54:04","1f75c3e559b7213887762d5229550c2b","194.152.129.18","Mozilla/5.0 (Windows NT 10.0; Win64; x64) AppleWebKit/537.36 (KHTML, like Gecko) Chrome/131.0.0.0 Safari/537.36","WebKit","Chrome","131.0.0.0","Windows","10.0","https://app.prolific.com/","en-GB,en;q=0.9","677fb45dee7e90f416b55aea","6877631c9844ddd5501205fc","688b12f58fb5d44752020f73","3","1","677fb45dee7e90f416b55aea","3","1","2025-07-31T07:09:26.206Z","","","","","","","","","","","ControlQ","","50","","","","","","","","","","","","","","","","","","","","","","","","","","","","",""
"4599","","<div style=""width:500px;"">
  <p>How would you describe your current emotional state?</p>
  </div>","65","html-slider-response","57","912112","0.0-5.0-3.9","306","1","2025-07-31 06:54:04","1f75c3e559b7213887762d5229550c2b","194.152.129.18","Mozilla/5.0 (Windows NT 10.0; Win64; x64) AppleWebKit/537.36 (KHTML, like Gecko) Chrome/131.0.0.0 Safari/537.36","WebKit","Chrome","131.0.0.0","Windows","10.0","https://app.prolific.com/","en-GB,en;q=0.9","677fb45dee7e90f416b55aea","6877631c9844ddd5501205fc","688b12f58fb5d44752020f73","3","1","677fb45dee7e90f416b55aea","3","1","2025-07-31T07:09:30.808Z","","","","","","","","","","","StressQ","","50","","","","","","","","","","","","","","","","","","","","","","","","","","","","",""
"5875","","<div style=""width:500px;"">
  <p>What best describes how you currently feel?</p>
  </div>","69","html-slider-response","58","917989","0.0-5.0-4.9","306","1","2025-07-31 06:54:04","1f75c3e559b7213887762d5229550c2b","194.152.129.18","Mozilla/5.0 (Windows NT 10.0; Win64; x64) AppleWebKit/537.36 (KHTML, like Gecko) Chrome/131.0.0.0 Safari/537.36","WebKit","Chrome","131.0.0.0","Windows","10.0","https://app.prolific.com/","en-GB,en;q=0.9","677fb45dee7e90f416b55aea","6877631c9844ddd5501205fc","688b12f58fb5d44752020f73","3","1","677fb45dee7e90f416b55aea","3","1","2025-07-31T07:09:36.685Z","","","","","","","","","","","MotivationQ","","50","","","","","","","","","","","","","","","","","","","","","","","","","","","","",""
"","","","","ctl-task-cpt","59","964729","0.0-5.0-0.10","306","1","2025-07-31 06:54:04","1f75c3e559b7213887762d5229550c2b","194.152.129.18","Mozilla/5.0 (Windows NT 10.0; Win64; x64) AppleWebKit/537.36 (KHTML, like Gecko) Chrome/131.0.0.0 Safari/537.36","WebKit","Chrome","131.0.0.0","Windows","10.0","https://app.prolific.com/","en-GB,en;q=0.9","677fb45dee7e90f416b55aea","6877631c9844ddd5501205fc","688b12f58fb5d44752020f73","3","1","677fb45dee7e90f416b55aea","3","1","2025-07-31T07:10:23.425Z","","","","","","","","","","","","","","win-only","1","g1:NE,g2:SW","0.5","11","0","934063.7","1643","6648.8","43718.8","1","4","4","6","2","-4","-4","0","1","0","5005.8","3000","-1040","[""down"",""left""]","{""num_key_presses"":11,""num_perfect"":5,""num_errors"":0,""num_randdir"":6,""num_randdir_good_moves"":2,""num_whilered"":0,""num_whileblue"":0,""num_blue"":0,""num_good_moves"":7}","[416.57142857142856,417.47767857142856,3,416.57142857142856,417.47767857142856,103.6,416.57142857142856,417.47767857142856,204.8,416.57142857142856,417.47767857142856,318.4,416.57142857142856,417.47767857142856,421.1,416.57142857142856,417.47767857142856,534.1,416.57142857142856,417.47767857142856,634.6,416.57142857142856,417.47767857142856,737.3,416.57142857142856,417.47767857142856,845.3,416.57142857142856,417.47767857142856,945.3,416.57142857142856,417.47767857142856,1048,416.57142857142856,417.47767857142856,1152.5,416.57142857142856,417.47767857142856,1258,416.57142857142856,417.47767857142856,1366.2,416.57142857142856,417.47767857142856,1487.4,416.57142857142856,417.47767857142856,1590.2,416.57142857142856,417.47767857142856,1698.8,416.57142857142856,417.47767857142856,1802.9,416.57142857142856,417.47767857142856,1903.2,416.57142857142856,417.47767857142856,2003.9,416.57142857142856,417.47767857142856,2108.8,416.57142857142856,417.47767857142856,2208.8,416.57142857142856,417.47767857142856,2323.7,416.57142857142856,417.47767857142856,2427.3,416.57142857142856,417.47767857142856,2533.8,416.57142857142856,417.47767857142856,2641,416.57142857142856,417.47767857142856,2743,416.57142857142856,417.47767857142856,2844.6,416.57142857142856,417.47767857142856,2957.7,416.57142857142856,417.47767857142856,3062.6,416.57142857142856,417.47767857142856,3167.9,416.57142857142856,417.47767857142856,3271.2,416.57142857142856,417.47767857142856,3375.8,416.57142857142856,417.47767857142856,3482.6,416.57142857142856,417.47767857142856,3587,416.57142857142856,417.47767857142856,3691.7,416.57142857142856,417.47767857142856,3804.9,416.57142857142856,417.47767857142856,3913.9,416.57142857142856,417.47767857142856,4018.9,416.57142857142856,417.47767857142856,4125.9,416.57142857142856,417.47767857142856,4227.8,416.57142857142856,417.47767857142856,4338.8,416.57142857142856,417.47767857142856,4443.6,416.57142857142856,417.47767857142856,4562.8,416.57142857142856,417.47767857142856,4666.4,416.57142857142856,417.47767857142856,4774.9,416.57142857142856,417.47767857142856,4877.1,416.57142857142856,417.47767857142856,4977.4]","[2794.6,2794.6,1000,0,1794.6,""smooth"",""down"",""down"",""good_move"",5454.3,2657.4,2153.7,2796.9,503.7,""oops"",""down"",""down"",""good_move"",8867,3411.4,2564.7,5455.6,846.7,""oops"",""down"",""up"",""bad_move"",12223.3,3355.3,2424.7,8868,930.7,""oops"",""left"",""down"",""good_move"",15475.4,3251.4,2838.6,12224,412.8,""smooth"",""left"",""left"",""good_move"",19335.2,3856.3,3294.4,15478.9,561.9,""smooth"",""left"",""left"",""good_move"",23053.4,3715.8,3279.6,19337.6,436.2,""oops"",""left"",""up"",""bad_move"",25929.4,2874.5,1999.6,23054.9,874.9,""smooth"",""left"",""left"",""good_move"",29484,3553.5,3146.9,25930.6,406.5,""oops"",""down"",""right"",""bad_move"",32117.2,2632.3,2171.4,29484.9,460.9,""smooth"",""down"",""down"",""good_move"",34981.6,2863.8,2427.3,32117.8,436.5,""oops"",""down"",""right"",""bad_move""]","",""
"6660","","<div style=""width:500px;"">
  <p>What determined the result of this run?</p>
  </div>","42","html-slider-response","60","971392","0.0-5.0-1.10","306","1","2025-07-31 06:54:04","1f75c3e559b7213887762d5229550c2b","194.152.129.18","Mozilla/5.0 (Windows NT 10.0; Win64; x64) AppleWebKit/537.36 (KHTML, like Gecko) Chrome/131.0.0.0 Safari/537.36","WebKit","Chrome","131.0.0.0","Windows","10.0","https://app.prolific.com/","en-GB,en;q=0.9","677fb45dee7e90f416b55aea","6877631c9844ddd5501205fc","688b12f58fb5d44752020f73","3","1","677fb45dee7e90f416b55aea","3","1","2025-07-31T07:10:30.088Z","","","","","","","","","","","AttribQ","","50","","","","","","","","","","","","","","","","","","","","","","","","","","","","",""
"4153","","<div style=""width:500px;"">
  <p>How much control did you have over the ball?</p>
  </div>","54","html-slider-response","61","975548","0.0-5.0-2.10","306","1","2025-07-31 06:54:04","1f75c3e559b7213887762d5229550c2b","194.152.129.18","Mozilla/5.0 (Windows NT 10.0; Win64; x64) AppleWebKit/537.36 (KHTML, like Gecko) Chrome/131.0.0.0 Safari/537.36","WebKit","Chrome","131.0.0.0","Windows","10.0","https://app.prolific.com/","en-GB,en;q=0.9","677fb45dee7e90f416b55aea","6877631c9844ddd5501205fc","688b12f58fb5d44752020f73","3","1","677fb45dee7e90f416b55aea","3","1","2025-07-31T07:10:34.244Z","","","","","","","","","","","ControlQ","","50","","","","","","","","","","","","","","","","","","","","","","","","","","","","",""
"3430","","<div style=""width:500px;"">
  <p>How would you describe your current emotional state?</p>
  </div>","58","html-slider-response","62","978979","0.0-5.0-3.10","306","1","2025-07-31 06:54:04","1f75c3e559b7213887762d5229550c2b","194.152.129.18","Mozilla/5.0 (Windows NT 10.0; Win64; x64) AppleWebKit/537.36 (KHTML, like Gecko) Chrome/131.0.0.0 Safari/537.36","WebKit","Chrome","131.0.0.0","Windows","10.0","https://app.prolific.com/","en-GB,en;q=0.9","677fb45dee7e90f416b55aea","6877631c9844ddd5501205fc","688b12f58fb5d44752020f73","3","1","677fb45dee7e90f416b55aea","3","1","2025-07-31T07:10:37.676Z","","","","","","","","","","","StressQ","","50","","","","","","","","","","","","","","","","","","","","","","","","","","","","",""
"4230","","<div style=""width:500px;"">
  <p>What best describes how you currently feel?</p>
  </div>","58","html-slider-response","63","983211","0.0-5.0-4.10","306","1","2025-07-31 06:54:04","1f75c3e559b7213887762d5229550c2b","194.152.129.18","Mozilla/5.0 (Windows NT 10.0; Win64; x64) AppleWebKit/537.36 (KHTML, like Gecko) Chrome/131.0.0.0 Safari/537.36","WebKit","Chrome","131.0.0.0","Windows","10.0","https://app.prolific.com/","en-GB,en;q=0.9","677fb45dee7e90f416b55aea","6877631c9844ddd5501205fc","688b12f58fb5d44752020f73","3","1","677fb45dee7e90f416b55aea","3","1","2025-07-31T07:10:41.908Z","","","","","","","","","","","MotivationQ","","50","","","","","","","","","","","","","","","","","","","","","","","","","","","","",""
"","","","","ctl-task-cpt","64","1013955","0.0-5.0-0.11","306","1","2025-07-31 06:54:04","1f75c3e559b7213887762d5229550c2b","194.152.129.18","Mozilla/5.0 (Windows NT 10.0; Win64; x64) AppleWebKit/537.36 (KHTML, like Gecko) Chrome/131.0.0.0 Safari/537.36","WebKit","Chrome","131.0.0.0","Windows","10.0","https://app.prolific.com/","en-GB,en;q=0.9","677fb45dee7e90f416b55aea","6877631c9844ddd5501205fc","688b12f58fb5d44752020f73","3","1","677fb45dee7e90f416b55aea","3","1","2025-07-31T07:11:12.652Z","","","","","","","","","","","","","","win-only","1","g1:NE,g2:SW","0.6","12","0","999286.4","2803.7","7809.4","27711.5","1","4","8","6","1","1","1","1","0","0.007575757575757576","5005.7","3000","1440","[""up"",""right""]","{""num_key_presses"":4,""num_perfect"":4,""num_errors"":0,""num_randdir"":0,""num_randdir_good_moves"":0,""num_whilered"":0,""num_whileblue"":0,""num_blue"":2,""num_good_moves"":4}","[411.57142857142856,426.47767857142856,1,411.57142857142856,426.47767857142856,104.3,411.57142857142856,426.47767857142856,205.1,411.57142857142856,426.47767857142856,310,411.57142857142856,426.47767857142856,415.7,411.57142857142856,426.47767857142856,525,411.57142857142856,426.47767857142856,629.6,411.57142857142856,426.47767857142856,737.1,411.57142857142856,426.47767857142856,839,441.57142857142856,394.47767857142856,941.5,484.57142857142856,357.47767857142856,1045.5,496.57142857142856,350.47767857142856,1154.1,508.57142857142856,348.47767857142856,1254.4,520.5714285714286,348.47767857142856,1358.5,531.5714285714286,351.47767857142856,1467.7,541.5714285714286,359.47767857142856,1575.7,541.5714285714286,359.47767857142856,1694.6,541.5714285714286,359.47767857142856,1798.9,541.5714285714286,359.47767857142856,1907.9,541.5714285714286,359.47767857142856,2009.9,541.5714285714286,359.47767857142856,2111.4,541.5714285714286,359.47767857142856,2224,541.5714285714286,359.47767857142856,2325.4,541.5714285714286,359.47767857142856,2434.3,541.5714285714286,359.47767857142856,2543.5,541.5714285714286,359.47767857142856,2644.6,541.5714285714286,359.47767857142856,2746.5,541.5714285714286,359.47767857142856,2852,541.5714285714286,359.47767857142856,2962.4,541.5714285714286,359.47767857142856,3062.4,541.5714285714286,359.47767857142856,3171.7,541.5714285714286,359.47767857142856,3280,541.5714285714286,359.47767857142856,3391.3,541.5714285714286,359.47767857142856,3496.1,541.5714285714286,359.47767857142856,3602.5,541.5714285714286,359.47767857142856,3706.6,541.5714285714286,359.47767857142856,3814.3,541.5714285714286,359.47767857142856,3916.3,541.5714285714286,359.47767857142856,4018.4,541.5714285714286,359.47767857142856,4121.6,541.5714285714286,359.47767857142856,4223.1,541.5714285714286,359.47767857142856,4332.7,541.5714285714286,359.47767857142856,4438,541.5714285714286,359.47767857142856,4539.8,541.5714285714286,359.47767857142856,4642.6,541.5714285714286,359.47767857142856,4744.6,541.5714285714286,359.47767857142856,4848.3,541.5714285714286,359.47767857142856,4952]","[4861.3,4861.3,2332.8,2010.8,517.7,""smooth"",""right"",""right"",""good_move"",11702.7,6840.2,2467.3,8589.5,645.9,""smooth"",""right"",""right"",""good_move"",15257.3,3553.9,2974,11703.4,579.9,""smooth"",""up"",""up"",""good_move"",19709.8,4451,2214.8,15258.8,2236.2,""smooth"",""up"",""up"",""good_move""]","",""
"8064","","<div style=""width:500px;"">
  <p>What determined the result of this run?</p>
  </div>","56","html-slider-response","65","1022023","0.0-5.0-1.11","306","1","2025-07-31 06:54:04","1f75c3e559b7213887762d5229550c2b","194.152.129.18","Mozilla/5.0 (Windows NT 10.0; Win64; x64) AppleWebKit/537.36 (KHTML, like Gecko) Chrome/131.0.0.0 Safari/537.36","WebKit","Chrome","131.0.0.0","Windows","10.0","https://app.prolific.com/","en-GB,en;q=0.9","677fb45dee7e90f416b55aea","6877631c9844ddd5501205fc","688b12f58fb5d44752020f73","3","1","677fb45dee7e90f416b55aea","3","1","2025-07-31T07:11:20.719Z","","","","","","","","","","","AttribQ","","50","","","","","","","","","","","","","","","","","","","","","","","","","","","","",""
"3285","","<div style=""width:500px;"">
  <p>How much control did you have over the ball?</p>
  </div>","66","html-slider-response","66","1025310","0.0-5.0-2.11","306","1","2025-07-31 06:54:04","1f75c3e559b7213887762d5229550c2b","194.152.129.18","Mozilla/5.0 (Windows NT 10.0; Win64; x64) AppleWebKit/537.36 (KHTML, like Gecko) Chrome/131.0.0.0 Safari/537.36","WebKit","Chrome","131.0.0.0","Windows","10.0","https://app.prolific.com/","en-GB,en;q=0.9","677fb45dee7e90f416b55aea","6877631c9844ddd5501205fc","688b12f58fb5d44752020f73","3","1","677fb45dee7e90f416b55aea","3","1","2025-07-31T07:11:24.007Z","","","","","","","","","","","ControlQ","","50","","","","","","","","","","","","","","","","","","","","","","","","","","","","",""
"4875","","<div style=""width:500px;"">
  <p>How would you describe your current emotional state?</p>
  </div>","62","html-slider-response","67","1030188","0.0-5.0-3.11","306","1","2025-07-31 06:54:04","1f75c3e559b7213887762d5229550c2b","194.152.129.18","Mozilla/5.0 (Windows NT 10.0; Win64; x64) AppleWebKit/537.36 (KHTML, like Gecko) Chrome/131.0.0.0 Safari/537.36","WebKit","Chrome","131.0.0.0","Windows","10.0","https://app.prolific.com/","en-GB,en;q=0.9","677fb45dee7e90f416b55aea","6877631c9844ddd5501205fc","688b12f58fb5d44752020f73","3","1","677fb45dee7e90f416b55aea","3","1","2025-07-31T07:11:28.884Z","","","","","","","","","","","StressQ","","50","","","","","","","","","","","","","","","","","","","","","","","","","","","","",""
"4622","","<div style=""width:500px;"">
  <p>What best describes how you currently feel?</p>
  </div>","64","html-slider-response","68","1034813","0.0-5.0-4.11","306","1","2025-07-31 06:54:04","1f75c3e559b7213887762d5229550c2b","194.152.129.18","Mozilla/5.0 (Windows NT 10.0; Win64; x64) AppleWebKit/537.36 (KHTML, like Gecko) Chrome/131.0.0.0 Safari/537.36","WebKit","Chrome","131.0.0.0","Windows","10.0","https://app.prolific.com/","en-GB,en;q=0.9","677fb45dee7e90f416b55aea","6877631c9844ddd5501205fc","688b12f58fb5d44752020f73","3","1","677fb45dee7e90f416b55aea","3","1","2025-07-31T07:11:33.510Z","","","","","","","","","","","MotivationQ","","50","","","","","","","","","","","","","","","","","","","","","","","","","","","","",""
"","","","","ctl-task-cpt","69","1055294","0.0-5.0-0.12","306","1","2025-07-31 06:54:04","1f75c3e559b7213887762d5229550c2b","194.152.129.18","Mozilla/5.0 (Windows NT 10.0; Win64; x64) AppleWebKit/537.36 (KHTML, like Gecko) Chrome/131.0.0.0 Safari/537.36","WebKit","Chrome","131.0.0.0","Windows","10.0","https://app.prolific.com/","en-GB,en;q=0.9","677fb45dee7e90f416b55aea","6877631c9844ddd5501205fc","688b12f58fb5d44752020f73","3","1","677fb45dee7e90f416b55aea","3","1","2025-07-31T07:11:53.990Z","","","","","","","","","","","","","","win-only","2","g1:SE,g2:NW","0.7","13","0","1050888.2","1794.8","6799.8","17458.7","1","4","8","6","1","1","1","2","1","0.015151515151515152","5005","3000","2310","[""down"",""right""]","{""num_key_presses"":4,""num_perfect"":2,""num_errors"":0,""num_randdir"":2,""num_randdir_good_moves"":2,""num_whilered"":0,""num_whileblue"":0,""num_blue"":0,""num_good_moves"":4}","[407.57142857142856,418.47767857142856,1,407.57142857142856,418.47767857142856,101.6,407.57142857142856,418.47767857142856,206.8,407.57142857142856,418.47767857142856,306.9,407.57142857142856,418.47767857142856,409.2,407.57142857142856,418.47767857142856,514.5,407.57142857142856,418.47767857142856,620.7,407.57142857142856,418.47767857142856,724.1,407.57142857142856,418.47767857142856,828.4,407.57142857142856,418.47767857142856,931,407.57142857142856,418.47767857142856,1034.6,407.57142857142856,418.47767857142856,1142.2,407.57142857142856,418.47767857142856,1249.9,407.57142857142856,418.47767857142856,1357.1,407.57142857142856,418.47767857142856,1471.8,407.57142857142856,418.47767857142856,1571.8,407.57142857142856,418.47767857142856,1678.4,407.57142857142856,418.47767857142856,1793.3,407.57142857142856,418.47767857142856,1904.8,407.57142857142856,418.47767857142856,2005.6,407.57142857142856,418.47767857142856,2119.1,407.57142857142856,418.47767857142856,2236.1,407.57142857142856,418.47767857142856,2343.9,407.57142857142856,418.47767857142856,2443.9,407.57142857142856,418.47767857142856,2556.8,407.57142857142856,418.47767857142856,2668.1,407.57142857142856,418.47767857142856,2776.2,407.57142857142856,418.47767857142856,2878.9,407.57142857142856,418.47767857142856,2980.5,407.57142857142856,418.47767857142856,3090,407.57142857142856,418.47767857142856,3193.2,407.57142857142856,418.47767857142856,3300.9,407.57142857142856,418.47767857142856,3404.4,407.57142857142856,418.47767857142856,3508.5,407.57142857142856,418.47767857142856,3612.6,407.57142857142856,418.47767857142856,3723,407.57142857142856,418.47767857142856,3831.4,407.57142857142856,418.47767857142856,3938.6,407.57142857142856,418.47767857142856,4043.5,407.57142857142856,418.47767857142856,4145.9,407.57142857142856,418.47767857142856,4260.3,407.57142857142856,418.47767857142856,4364.4,407.57142857142856,418.47767857142856,4471,407.57142857142856,418.47767857142856,4584,407.57142857142856,418.47767857142856,4691.3,407.57142857142856,418.47767857142856,4791.5,407.57142857142856,418.47767857142856,4891.8,407.57142857142856,418.47767857142856,4993.5]","[1652.4,1652.5,1000,0,652.5,""oops"",""right"",""right"",""good_move"",4702.1,3047.4,2452.7,1654.7,594.7,""smooth"",""right"",""right"",""good_move"",7787.8,3084.7,2640.6,4703.1,444.1,""smooth"",""down"",""down"",""good_move"",10295.3,2505.4,1932.5,7789.9,572.9,""oops"",""down"",""down"",""good_move""]","",""
"6366","","<div style=""width:500px;"">
  <p>What determined the result of this run?</p>
  </div>","80","html-slider-response","70","1061663","0.0-5.0-1.12","306","1","2025-07-31 06:54:04","1f75c3e559b7213887762d5229550c2b","194.152.129.18","Mozilla/5.0 (Windows NT 10.0; Win64; x64) AppleWebKit/537.36 (KHTML, like Gecko) Chrome/131.0.0.0 Safari/537.36","WebKit","Chrome","131.0.0.0","Windows","10.0","https://app.prolific.com/","en-GB,en;q=0.9","677fb45dee7e90f416b55aea","6877631c9844ddd5501205fc","688b12f58fb5d44752020f73","3","1","677fb45dee7e90f416b55aea","3","1","2025-07-31T07:12:00.359Z","","","","","","","","","","","AttribQ","","50","","","","","","","","","","","","","","","","","","","","","","","","","","","","",""
"4559","","<div style=""width:500px;"">
  <p>How much control did you have over the ball?</p>
  </div>","73","html-slider-response","71","1066224","0.0-5.0-2.12","306","1","2025-07-31 06:54:04","1f75c3e559b7213887762d5229550c2b","194.152.129.18","Mozilla/5.0 (Windows NT 10.0; Win64; x64) AppleWebKit/537.36 (KHTML, like Gecko) Chrome/131.0.0.0 Safari/537.36","WebKit","Chrome","131.0.0.0","Windows","10.0","https://app.prolific.com/","en-GB,en;q=0.9","677fb45dee7e90f416b55aea","6877631c9844ddd5501205fc","688b12f58fb5d44752020f73","3","1","677fb45dee7e90f416b55aea","3","1","2025-07-31T07:12:04.920Z","","","","","","","","","","","ControlQ","","50","","","","","","","","","","","","","","","","","","","","","","","","","","","","",""
"5262","","<div style=""width:500px;"">
  <p>How would you describe your current emotional state?</p>
  </div>","58","html-slider-response","72","1071488","0.0-5.0-3.12","306","1","2025-07-31 06:54:04","1f75c3e559b7213887762d5229550c2b","194.152.129.18","Mozilla/5.0 (Windows NT 10.0; Win64; x64) AppleWebKit/537.36 (KHTML, like Gecko) Chrome/131.0.0.0 Safari/537.36","WebKit","Chrome","131.0.0.0","Windows","10.0","https://app.prolific.com/","en-GB,en;q=0.9","677fb45dee7e90f416b55aea","6877631c9844ddd5501205fc","688b12f58fb5d44752020f73","3","1","677fb45dee7e90f416b55aea","3","1","2025-07-31T07:12:10.184Z","","","","","","","","","","","StressQ","","50","","","","","","","","","","","","","","","","","","","","","","","","","","","","",""
"6641","","<div style=""width:500px;"">
  <p>What best describes how you currently feel?</p>
  </div>","50","html-slider-response","73","1078132","0.0-5.0-4.12","306","1","2025-07-31 06:54:04","1f75c3e559b7213887762d5229550c2b","194.152.129.18","Mozilla/5.0 (Windows NT 10.0; Win64; x64) AppleWebKit/537.36 (KHTML, like Gecko) Chrome/131.0.0.0 Safari/537.36","WebKit","Chrome","131.0.0.0","Windows","10.0","https://app.prolific.com/","en-GB,en;q=0.9","677fb45dee7e90f416b55aea","6877631c9844ddd5501205fc","688b12f58fb5d44752020f73","3","1","677fb45dee7e90f416b55aea","3","1","2025-07-31T07:12:16.828Z","","","","","","","","","","","MotivationQ","","50","","","","","","","","","","","","","","","","","","","","","","","","","","","","",""
"","","","","ctl-task-cpt","74","1100097","0.0-5.0-0.13","306","1","2025-07-31 06:54:04","1f75c3e559b7213887762d5229550c2b","194.152.129.18","Mozilla/5.0 (Windows NT 10.0; Win64; x64) AppleWebKit/537.36 (KHTML, like Gecko) Chrome/131.0.0.0 Safari/537.36","WebKit","Chrome","131.0.0.0","Windows","10.0","https://app.prolific.com/","en-GB,en;q=0.9","677fb45dee7e90f416b55aea","6877631c9844ddd5501205fc","688b12f58fb5d44752020f73","3","1","677fb45dee7e90f416b55aea","3","1","2025-07-31T07:12:38.793Z","","","","","","","","","","","","","","win-only","0","g1:NW,g2:SE","0.8","14","0","1094204.6","2055","7056.4","18943.4","1","4","4","6","1","1","1","3","2","0.022727272727272728","5001.4","3000","1975","[""left"",""up""]","{""num_key_presses"":4,""num_perfect"":4,""num_errors"":0,""num_randdir"":0,""num_randdir_good_moves"":0,""num_whilered"":0,""num_whileblue"":0,""num_blue"":0,""num_good_moves"":4}","[415.57142857142856,413.47767857142856,1.4,415.57142857142856,413.47767857142856,109.7,415.57142857142856,413.47767857142856,212.5,415.57142857142856,413.47767857142856,316.4,415.57142857142856,413.47767857142856,425.2,415.57142857142856,413.47767857142856,538.1,415.57142857142856,413.47767857142856,646,415.57142857142856,413.47767857142856,750.1,415.57142857142856,413.47767857142856,861.6,415.57142857142856,413.47767857142856,969,415.57142857142856,413.47767857142856,1075.3,415.57142857142856,413.47767857142856,1177.3,415.57142857142856,413.47767857142856,1286.7,415.57142857142856,413.47767857142856,1388.9,415.57142857142856,413.47767857142856,1499,415.57142857142856,413.47767857142856,1602.7,415.57142857142856,413.47767857142856,1703.2,415.57142857142856,413.47767857142856,1805.6,415.57142857142856,413.47767857142856,1908.3,415.57142857142856,413.47767857142856,2010.2,415.57142857142856,413.47767857142856,2113.7,415.57142857142856,413.47767857142856,2216.7,415.57142857142856,413.47767857142856,2325.5,415.57142857142856,413.47767857142856,2426.5,415.57142857142856,413.47767857142856,2530.9,415.57142857142856,413.47767857142856,2632.9,415.57142857142856,413.47767857142856,2740.9,415.57142857142856,413.47767857142856,2847.8,415.57142857142856,413.47767857142856,2955.9,415.57142857142856,413.47767857142856,3067.6,415.57142857142856,413.47767857142856,3175.6,415.57142857142856,413.47767857142856,3280.7,415.57142857142856,413.47767857142856,3380.7,415.57142857142856,413.47767857142856,3484,415.57142857142856,413.47767857142856,3586.6,415.57142857142856,413.47767857142856,3695.1,415.57142857142856,413.47767857142856,3795.3,415.57142857142856,413.47767857142856,3895.9,415.57142857142856,413.47767857142856,4005.9,415.57142857142856,413.47767857142856,4109.4,415.57142857142856,413.47767857142856,4214.6,415.57142857142856,413.47767857142856,4326.7,415.57142857142856,413.47767857142856,4433.9,415.57142857142856,413.47767857142856,4542.4,415.57142857142856,413.47767857142856,4657.1,415.57142857142856,413.47767857142856,4763.9,415.57142857142856,413.47767857142856,4868.3,415.57142857142856,413.47767857142856,4974.6]","[2394,2394,1000,0,1394,""smooth"",""up"",""up"",""good_move"",5257.4,2861.6,2301.2,2395.9,560.4,""smooth"",""up"",""up"",""good_move"",8646.2,3387.4,2908.4,5258.9,479,""smooth"",""left"",""left"",""good_move"",11730.5,3083,2183.8,8647.5,899.2,""smooth"",""left"",""left"",""good_move""]","",""
"6099","","<div style=""width:500px;"">
  <p>What determined the result of this run?</p>
  </div>","60","html-slider-response","75","1106198","0.0-5.0-1.13","306","1","2025-07-31 06:54:04","1f75c3e559b7213887762d5229550c2b","194.152.129.18","Mozilla/5.0 (Windows NT 10.0; Win64; x64) AppleWebKit/537.36 (KHTML, like Gecko) Chrome/131.0.0.0 Safari/537.36","WebKit","Chrome","131.0.0.0","Windows","10.0","https://app.prolific.com/","en-GB,en;q=0.9","677fb45dee7e90f416b55aea","6877631c9844ddd5501205fc","688b12f58fb5d44752020f73","3","1","677fb45dee7e90f416b55aea","3","1","2025-07-31T07:12:44.895Z","","","","","","","","","","","AttribQ","","50","","","","","","","","","","","","","","","","","","","","","","","","","","","","",""
"2996","","<div style=""width:500px;"">
  <p>How much control did you have over the ball?</p>
  </div>","62","html-slider-response","76","1109197","0.0-5.0-2.13","306","1","2025-07-31 06:54:04","1f75c3e559b7213887762d5229550c2b","194.152.129.18","Mozilla/5.0 (Windows NT 10.0; Win64; x64) AppleWebKit/537.36 (KHTML, like Gecko) Chrome/131.0.0.0 Safari/537.36","WebKit","Chrome","131.0.0.0","Windows","10.0","https://app.prolific.com/","en-GB,en;q=0.9","677fb45dee7e90f416b55aea","6877631c9844ddd5501205fc","688b12f58fb5d44752020f73","3","1","677fb45dee7e90f416b55aea","3","1","2025-07-31T07:12:47.894Z","","","","","","","","","","","ControlQ","","50","","","","","","","","","","","","","","","","","","","","","","","","","","","","",""
"4054","","<div style=""width:500px;"">
  <p>How would you describe your current emotional state?</p>
  </div>","50","html-slider-response","77","1113254","0.0-5.0-3.13","306","1","2025-07-31 06:54:04","1f75c3e559b7213887762d5229550c2b","194.152.129.18","Mozilla/5.0 (Windows NT 10.0; Win64; x64) AppleWebKit/537.36 (KHTML, like Gecko) Chrome/131.0.0.0 Safari/537.36","WebKit","Chrome","131.0.0.0","Windows","10.0","https://app.prolific.com/","en-GB,en;q=0.9","677fb45dee7e90f416b55aea","6877631c9844ddd5501205fc","688b12f58fb5d44752020f73","3","1","677fb45dee7e90f416b55aea","3","1","2025-07-31T07:12:51.950Z","","","","","","","","","","","StressQ","","50","","","","","","","","","","","","","","","","","","","","","","","","","","","","",""
"5029","","<div style=""width:500px;"">
  <p>What best describes how you currently feel?</p>
  </div>","54","html-slider-response","78","1118285","0.0-5.0-4.13","306","1","2025-07-31 06:54:04","1f75c3e559b7213887762d5229550c2b","194.152.129.18","Mozilla/5.0 (Windows NT 10.0; Win64; x64) AppleWebKit/537.36 (KHTML, like Gecko) Chrome/131.0.0.0 Safari/537.36","WebKit","Chrome","131.0.0.0","Windows","10.0","https://app.prolific.com/","en-GB,en;q=0.9","677fb45dee7e90f416b55aea","6877631c9844ddd5501205fc","688b12f58fb5d44752020f73","3","1","677fb45dee7e90f416b55aea","3","1","2025-07-31T07:12:56.981Z","","","","","","","","","","","MotivationQ","","50","","","","","","","","","","","","","","","","","","","","","","","","","","","","",""
