"rt","response_timestamp","stimulus","response","trial_type","trial_index","time_elapsed","internal_node_id","run_id","condition","recorded_at","source_code_version","ip","user_agent","device","browser","browser_version","platform","platform_version","referer","accept_language","PROLIFIC_PID","STUDY_ID","SESSION_ID","WEEK","prolific_id","week","realtime","success","responses","item_order","radio_event_ids","radio_event_times","key_event_times","mouse_event_times","straightlining","zigzagging","honeypot","eventType","view_history","slider_start","which_type","canvas_config","goals_layout","control_level","trial_number","tutorial_trial_number","trial_start_time","phase1_start_time","phase2_start_time","phase3_start_time","goal_1_value","goal_1_distance","goal_2_value","goal_2_distance","goal_selected","outcome","outcome_total","participant_final_score","participant_initial_score","participant_final_score_prop","goal_choice_rt","allocated_time","allocated_time_remaining","goal_direction","counts","mouse_movements","key_presses","question_order","question_id"
"3706","1752053027441","<p style='font-size:40px;line-height:1.25'><strong>Welcome to the experiment!</strong></p><p style='font-size:1.1em;line-height:1.25'>Thank you for participanting in our experiment again! You will be asked to play the Dysfunctional Ball Game again. We will briefly recap the rules before we start.</p><p style='font-size:1.1em;line-height:1.25'>Press <strong>Next</strong> to continue.</p>","0","custom-html-button-response","0","3716","0.0-0.0","22","1","2025-07-09 09:23:37","01610cd0009c79a99da7d0a3353eb402","216.205.168.23","Mozilla/5.0 (X11; CrOS x86_64 14541.0.0) AppleWebKit/537.36 (KHTML, like Gecko) Chrome/137.0.0.0 Safari/537.36","WebKit","Chrome","137.0.0.0","ChromeOS","14541.0.0","https://app.prolific.com/","en-GB,en-US;q=0.9,en;q=0.8","5a1dda5480acd8000104a12b","683db7602f5db6a34d12d064","686e34801a90edafb25eb437","1","5a1dda5480acd8000104a12b","1","2025-07-09T09:23:47.445Z","","","","","","","","","","","","","","","","","","","","","","","","","","","","","","","","","","","","","","","","","",""
"2637","","","","fullscreen","1","7360","0.0-1.0","22","1","2025-07-09 09:23:37","01610cd0009c79a99da7d0a3353eb402","216.205.168.23","Mozilla/5.0 (X11; CrOS x86_64 14541.0.0) AppleWebKit/537.36 (KHTML, like Gecko) Chrome/137.0.0.0 Safari/537.36","WebKit","Chrome","137.0.0.0","ChromeOS","14541.0.0","https://app.prolific.com/","en-GB,en-US;q=0.9,en;q=0.8","5a1dda5480acd8000104a12b","683db7602f5db6a34d12d064","686e34801a90edafb25eb437","1","5a1dda5480acd8000104a12b","1","","true","","","","","","","","","","","","","","","","","","","","","","","","","","","","","","","","","","","","","","","","",""
"3706","1752053034799","<p style='font-size:1.1em;line-height:1.25'>In the following, we will ask you a few questions relating to your feelings in the last 24 hours.<br></p><p style='font-size:1.1em;line-height:1.25'>Press the <strong>Next</strong> button to continue.</p>","0","custom-html-button-response","2","11071","0.0-2.0-0.0","22","1","2025-07-09 09:23:37","01610cd0009c79a99da7d0a3353eb402","216.205.168.23","Mozilla/5.0 (X11; CrOS x86_64 14541.0.0) AppleWebKit/537.36 (KHTML, like Gecko) Chrome/137.0.0.0 Safari/537.36","WebKit","Chrome","137.0.0.0","ChromeOS","14541.0.0","https://app.prolific.com/","en-GB,en-US;q=0.9,en;q=0.8","5a1dda5480acd8000104a12b","683db7602f5db6a34d12d064","686e34801a90edafb25eb437","1","5a1dda5480acd8000104a12b","1","2025-07-09T09:23:54.801Z","","","","","","","","","","","","","","","","","","","","","","","","","","","","","","","","","","","","","","","","","",""
"136908.2000000002","","","","survey-template","3","148004","0.0-2.0-1.0","22","1","2025-07-09 09:23:37","01610cd0009c79a99da7d0a3353eb402","216.205.168.23","Mozilla/5.0 (X11; CrOS x86_64 14541.0.0) AppleWebKit/537.36 (KHTML, like Gecko) Chrome/137.0.0.0 Safari/537.36","WebKit","Chrome","137.0.0.0","ChromeOS","14541.0.0","https://app.prolific.com/","en-GB,en-US;q=0.9,en;q=0.8","5a1dda5480acd8000104a12b","683db7602f5db6a34d12d064","686e34801a90edafb25eb437","1","5a1dda5480acd8000104a12b","1","2025-07-09T09:26:11.734Z","","{""Q01"":""2"",""Q02"":""2"",""Q03"":""0"",""Q04"":""0"",""Q05"":""0"",""Q06"":""0"",""Q07"":""0"",""Q08"":""0"",""Q09"":""0"",""Q10"":""0"",""Q11"":""1"",""Q12"":""0"",""Q13"":""5"",""Q14"":""0"",""Q15"":""0"",""Q16"":""0"",""Q17"":""3"",""Q18"":""0"",""Q19"":""0"",""Q20"":""0"",""Q21"":""0"",""Q22"":""0""}","[0,1,2,3,4,5,6,7,8,9,10,11,12,13,14,15,16,17,18,19,20,21]","[""Q01"",""Q02"",""Q02"",""Q01"",""Q03"",""Q04"",""Q05"",""Q06"",""Q07"",""Q08"",""Q09"",""Q10"",""Q11"",""Q12"",""Q13"",""Q14"",""Q15"",""Q16"",""Q17"",""Q18"",""Q20"",""Q21"",""Q22"",""Q02"",""Q01"",""Q02"",""Q19""]","[23120.800000000745,25843.700000000186,27718.60000000056,33275,37888.800000000745,42162,43087.200000000186,44523.300000000745,46329.200000000186,48528.60000000056,49468.10000000056,50495.300000000745,56177.60000000056,57680,61350,70130.40000000037,73374.60000000056,76667.60000000056,81075.20000000019,85508.70000000019,91362.40000000037,92763,96727.5,113614.90000000037,123408.90000000037,124573.20000000019,135489.30000000075]","[]","[0.6000000005587935,15511.400000000373,23120.800000000745,25843.700000000186,27718.60000000056,33275,37888.800000000745,42162,43087.200000000186,44523.300000000745,46329.200000000186,48528.60000000056,49468.10000000056,50495.300000000745,56177.60000000056,57680,61350,70130.40000000037,71953.5,73374.60000000056,75615.80000000075,76667.60000000056,81075.20000000019,85508.70000000019,88015.70000000019,90048.70000000019,91362.40000000037,92763,96727.5,113614.90000000037,123408.90000000037,124573.20000000019,131593.60000000056,135489.30000000075,136880.80000000075]","0.7727272727272727","0.19047619047619047","0","drsp","","","","","","","","","","","","","","","","","","","","","","","","","","","","","","",""
"24302.099999999627","","","","survey-template","4","172317","0.0-2.0-2.0","22","1","2025-07-09 09:23:37","01610cd0009c79a99da7d0a3353eb402","216.205.168.23","Mozilla/5.0 (X11; CrOS x86_64 14541.0.0) AppleWebKit/537.36 (KHTML, like Gecko) Chrome/137.0.0.0 Safari/537.36","WebKit","Chrome","137.0.0.0","ChromeOS","14541.0.0","https://app.prolific.com/","en-GB,en-US;q=0.9,en;q=0.8","5a1dda5480acd8000104a12b","683db7602f5db6a34d12d064","686e34801a90edafb25eb437","1","5a1dda5480acd8000104a12b","1","2025-07-09T09:26:36.047Z","","{""Q01"":""0"",""Q02"":""3"",""Q03"":""0""}","[0,1,2]","[""Q01"",""Q01"",""Q02"",""Q03""]","[11970.900000000373,14864.900000000373,19597.900000000373,23291.5]","[]","[11970.900000000373,14864.900000000373,19597.900000000373,23291.5,24297.400000000373]","0.6666666666666666","0","0","stress","","","","","","","","","","","","","","","","","","","","","","","","","","","","","","",""
"30505","","","","instructions","5","202826","0.0-3.0-0.0","22","1","2025-07-09 09:23:37","01610cd0009c79a99da7d0a3353eb402","216.205.168.23","Mozilla/5.0 (X11; CrOS x86_64 14541.0.0) AppleWebKit/537.36 (KHTML, like Gecko) Chrome/137.0.0.0 Safari/537.36","WebKit","Chrome","137.0.0.0","ChromeOS","14541.0.0","https://app.prolific.com/","en-GB,en-US;q=0.9,en;q=0.8","5a1dda5480acd8000104a12b","683db7602f5db6a34d12d064","686e34801a90edafb25eb437","1","5a1dda5480acd8000104a12b","1","","","","","","","","","","","","","[{""page_index"":0,""viewing_time"":30503}]","","","","","","","","","","","","","","","","","","","","","","","","","","","","","",""
"11056","","<p>Before you start with this game please answer the following three questions yourself. </p>
  <p>Through this game, we measure several aspects of your cognitive performance, such as reaction times, multi-tasking capabilities </p>
  <p>and the ability to assess the situation you are in.</p>
  <p></p>
  <p><b>How good do you usually are in such tasks?</b></p>","44","html-slider-response","6","213890","0.0-4.0-0.0","22","1","2025-07-09 09:23:37","01610cd0009c79a99da7d0a3353eb402","216.205.168.23","Mozilla/5.0 (X11; CrOS x86_64 14541.0.0) AppleWebKit/537.36 (KHTML, like Gecko) Chrome/137.0.0.0 Safari/537.36","WebKit","Chrome","137.0.0.0","ChromeOS","14541.0.0","https://app.prolific.com/","en-GB,en-US;q=0.9,en;q=0.8","5a1dda5480acd8000104a12b","683db7602f5db6a34d12d064","686e34801a90edafb25eb437","1","5a1dda5480acd8000104a12b","1","2025-07-09T09:27:17.620Z","","","","","","","","","","","PreSkillQ","","50","","","","","","","","","","","","","","","","","","","","","","","","","","","","",""
"3242","","<div style=""width:500px;"">
  <p>How well do you think you will perform in this task compared to other participants?</p>
  </div>","50","html-slider-response","7","217137","0.0-4.0-1.0","22","1","2025-07-09 09:23:37","01610cd0009c79a99da7d0a3353eb402","216.205.168.23","Mozilla/5.0 (X11; CrOS x86_64 14541.0.0) AppleWebKit/537.36 (KHTML, like Gecko) Chrome/137.0.0.0 Safari/537.36","WebKit","Chrome","137.0.0.0","ChromeOS","14541.0.0","https://app.prolific.com/","en-GB,en-US;q=0.9,en;q=0.8","5a1dda5480acd8000104a12b","683db7602f5db6a34d12d064","686e34801a90edafb25eb437","1","5a1dda5480acd8000104a12b","1","2025-07-09T09:27:20.867Z","","","","","","","","","","","PrePerfQ","","50","","","","","","","","","","","","","","","","","","","","","","","","","","","","",""
"3699","","<div style=""width:500px;"">
  <p>What best describes how you currently feel?</p>
  </div>","50","html-slider-response","8","220842","0.0-4.0-2.0","22","1","2025-07-09 09:23:37","01610cd0009c79a99da7d0a3353eb402","216.205.168.23","Mozilla/5.0 (X11; CrOS x86_64 14541.0.0) AppleWebKit/537.36 (KHTML, like Gecko) Chrome/137.0.0.0 Safari/537.36","WebKit","Chrome","137.0.0.0","ChromeOS","14541.0.0","https://app.prolific.com/","en-GB,en-US;q=0.9,en;q=0.8","5a1dda5480acd8000104a12b","683db7602f5db6a34d12d064","686e34801a90edafb25eb437","1","5a1dda5480acd8000104a12b","1","2025-07-09T09:27:24.571Z","","","","","","","","","","","PreMotivationQ","","50","","","","","","","","","","","","","","","","","","","","","","","","","","","","",""
"","","","","ctl-task-cpt","9","241971","0.0-5.0-0.0","22","1","2025-07-09 09:23:37","01610cd0009c79a99da7d0a3353eb402","216.205.168.23","Mozilla/5.0 (X11; CrOS x86_64 14541.0.0) AppleWebKit/537.36 (KHTML, like Gecko) Chrome/137.0.0.0 Safari/537.36","WebKit","Chrome","137.0.0.0","ChromeOS","14541.0.0","https://app.prolific.com/","en-GB,en-US;q=0.9,en;q=0.8","5a1dda5480acd8000104a12b","683db7602f5db6a34d12d064","686e34801a90edafb25eb437","1","5a1dda5480acd8000104a12b","1","2025-07-09T09:27:45.701Z","","","","","","","","","","","","","","win-only","2","g1:SE,g2:NW","1","1","0","222196.3","1987.5","6994.7","18106.7","1","4","8","6","1","1","1","1","0","0.007575757575757576","2332.8","3000","810","[""down"",""right""]","{""num_key_presses"":4,""num_perfect"":4,""num_errors"":0,""num_randdir"":0,""num_randdir_good_moves"":0,""num_whilered"":0,""num_whileblue"":0,""num_blue"":0,""num_good_moves"":4}","[292.22232142857143,297.12857142857143,0.8,292.22232142857143,297.12857142857143,103.7,292.22232142857143,297.12857142857143,204.2,292.22232142857143,297.12857142857143,309.3,292.22232142857143,297.12857142857143,421.2,292.22232142857143,297.12857142857143,529.9,292.22232142857143,297.12857142857143,633.7,292.22232142857143,297.12857142857143,733.9,292.22232142857143,297.12857142857143,842.4,292.22232142857143,297.12857142857143,943.6,292.22232142857143,297.12857142857143,1043.8,297.22232142857143,307.12857142857143,1144.1,321.22232142857143,362.12857142857143,1248.9,386.22232142857143,424.12857142857143,1349.6,386.22232142857143,424.12857142857143,1458.7,386.22232142857143,424.12857142857143,1561.9,481.22232142857143,483.12857142857143,1664.2,484.22232142857143,485.12857142857143,1764.6,485.22232142857143,486.12857142857143,1866.6,520.2223214285714,524.1285714285714,1969.3,531.2223214285714,529.1285714285714,2072.4,531.2223214285714,529.1285714285714,2177,531.2223214285714,529.1285714285714,2281.1,531.2223214285714,529.1285714285714,2383.6,531.2223214285714,529.1285714285714,2485.2,531.2223214285714,529.1285714285714,2590.7,531.2223214285714,529.1285714285714,2694,531.2223214285714,529.1285714285714,2798,531.2223214285714,529.1285714285714,2898.1,531.2223214285714,529.1285714285714,3026.2,531.2223214285714,529.1285714285714,3129.6,531.2223214285714,529.1285714285714,3238.9,531.2223214285714,529.1285714285714,3340.2,531.2223214285714,529.1285714285714,3444.5,531.2223214285714,529.1285714285714,3574,531.2223214285714,529.1285714285714,3674.2,531.2223214285714,529.1285714285714,3784.9,531.2223214285714,529.1285714285714,3889.6,531.2223214285714,529.1285714285714,3991.6,531.2223214285714,529.1285714285714,4093.6,531.2223214285714,529.1285714285714,4193.8,531.2223214285714,529.1285714285714,4293.8,531.2223214285714,529.1285714285714,4393.9,531.2223214285714,529.1285714285714,4508.2,531.2223214285714,529.1285714285714,4608.8,531.2223214285714,529.1285714285714,4726.5,531.2223214285714,529.1285714285714,4827.3,531.2223214285714,529.1285714285714,4928.3]","[1728.3,1728.4,1000,0,728.4,""smooth"",""right"",""right"",""good_move"",4585.4,2855.7,2362.7,1729.8,492.9,""smooth"",""right"",""right"",""good_move"",7859.6,3270,2141.8,4589.6,1128.2,""smooth"",""down"",""down"",""good_move"",11010,3148.5,2679.2,7861.7,469.3,""smooth"",""down"",""down"",""good_move""]","",""
"4626","","<div style=""width:500px;"">
  <p>What determined the result of this run?</p>
  </div>","91","html-slider-response","10","246602","0.0-5.0-1.0","22","1","2025-07-09 09:23:37","01610cd0009c79a99da7d0a3353eb402","216.205.168.23","Mozilla/5.0 (X11; CrOS x86_64 14541.0.0) AppleWebKit/537.36 (KHTML, like Gecko) Chrome/137.0.0.0 Safari/537.36","WebKit","Chrome","137.0.0.0","ChromeOS","14541.0.0","https://app.prolific.com/","en-GB,en-US;q=0.9,en;q=0.8","5a1dda5480acd8000104a12b","683db7602f5db6a34d12d064","686e34801a90edafb25eb437","1","5a1dda5480acd8000104a12b","1","2025-07-09T09:27:50.331Z","","","","","","","","","","","AttribQ","","50","","","","","","","","","","","","","","","","","","","","","","","","","","","","",""
"3890","","<div style=""width:500px;"">
  <p>How much control did you have over the ball?</p>
  </div>","89","html-slider-response","11","250497","0.0-5.0-2.0","22","1","2025-07-09 09:23:37","01610cd0009c79a99da7d0a3353eb402","216.205.168.23","Mozilla/5.0 (X11; CrOS x86_64 14541.0.0) AppleWebKit/537.36 (KHTML, like Gecko) Chrome/137.0.0.0 Safari/537.36","WebKit","Chrome","137.0.0.0","ChromeOS","14541.0.0","https://app.prolific.com/","en-GB,en-US;q=0.9,en;q=0.8","5a1dda5480acd8000104a12b","683db7602f5db6a34d12d064","686e34801a90edafb25eb437","1","5a1dda5480acd8000104a12b","1","2025-07-09T09:27:54.227Z","","","","","","","","","","","ControlQ","","50","","","","","","","","","","","","","","","","","","","","","","","","","","","","",""
"5289","","<div style=""width:500px;"">
  <p>How would you describe your current emotional state?</p>
  </div>","34","html-slider-response","12","255791","0.0-5.0-3.0","22","1","2025-07-09 09:23:37","01610cd0009c79a99da7d0a3353eb402","216.205.168.23","Mozilla/5.0 (X11; CrOS x86_64 14541.0.0) AppleWebKit/537.36 (KHTML, like Gecko) Chrome/137.0.0.0 Safari/537.36","WebKit","Chrome","137.0.0.0","ChromeOS","14541.0.0","https://app.prolific.com/","en-GB,en-US;q=0.9,en;q=0.8","5a1dda5480acd8000104a12b","683db7602f5db6a34d12d064","686e34801a90edafb25eb437","1","5a1dda5480acd8000104a12b","1","2025-07-09T09:27:59.521Z","","","","","","","","","","","StressQ","","50","","","","","","","","","","","","","","","","","","","","","","","","","","","","",""
"3489","","<div style=""width:500px;"">
  <p>What best describes how you currently feel?</p>
  </div>","50","html-slider-response","13","259286","0.0-5.0-4.0","22","1","2025-07-09 09:23:37","01610cd0009c79a99da7d0a3353eb402","216.205.168.23","Mozilla/5.0 (X11; CrOS x86_64 14541.0.0) AppleWebKit/537.36 (KHTML, like Gecko) Chrome/137.0.0.0 Safari/537.36","WebKit","Chrome","137.0.0.0","ChromeOS","14541.0.0","https://app.prolific.com/","en-GB,en-US;q=0.9,en;q=0.8","5a1dda5480acd8000104a12b","683db7602f5db6a34d12d064","686e34801a90edafb25eb437","1","5a1dda5480acd8000104a12b","1","2025-07-09T09:28:03.016Z","","","","","","","","","","","MotivationQ","","50","","","","","","","","","","","","","","","","","","","","","","","","","","","","",""
"","","","","ctl-task-cpt","14","294425","0.0-5.0-0.1","22","1","2025-07-09 09:23:37","01610cd0009c79a99da7d0a3353eb402","216.205.168.23","Mozilla/5.0 (X11; CrOS x86_64 14541.0.0) AppleWebKit/537.36 (KHTML, like Gecko) Chrome/137.0.0.0 Safari/537.36","WebKit","Chrome","137.0.0.0","ChromeOS","14541.0.0","https://app.prolific.com/","en-GB,en-US;q=0.9,en;q=0.8","5a1dda5480acd8000104a12b","683db7602f5db6a34d12d064","686e34801a90edafb25eb437","1","5a1dda5480acd8000104a12b","1","2025-07-09T09:28:38.155Z","","","","","","","","","","","","","","win-only","0","g1:NW,g2:SE","0.9","2","0","260631.2","1800.2","6807.8","32122.2","1","4","4","6","2","4","4","5","1","0.03787878787878788","1441.5","3000","945","[""down"",""right""]","{""num_key_presses"":6,""num_perfect"":5,""num_errors"":0,""num_randdir"":1,""num_randdir_good_moves"":1,""num_whilered"":0,""num_whileblue"":0,""num_blue"":3,""num_good_moves"":6}","[296.22232142857143,300.12857142857143,0.9,296.22232142857143,300.12857142857143,103.6,296.22232142857143,300.12857142857143,205,296.22232142857143,300.12857142857143,314.2,296.22232142857143,300.12857142857143,421,296.22232142857143,300.12857142857143,521.1,275.22232142857143,293.12857142857143,621.2,234.22232142857143,276.12857142857143,721.8,237.22232142857143,275.12857142857143,822.2,478.22232142857143,433.12857142857143,922.5,539.2223214285714,493.12857142857143,1025.9,539.2223214285714,496.12857142857143,1131.5,542.2223214285714,531.1285714285714,1246.5,548.2223214285714,549.1285714285714,1348.5,548.2223214285714,549.1285714285714,1449.1,548.2223214285714,549.1285714285714,1550.9,548.2223214285714,549.1285714285714,1655.5,548.2223214285714,549.1285714285714,1764.8,548.2223214285714,549.1285714285714,1868.7,548.2223214285714,549.1285714285714,1973.1,548.2223214285714,549.1285714285714,2074.9,548.2223214285714,549.1285714285714,2179.2,548.2223214285714,549.1285714285714,2286.2,548.2223214285714,549.1285714285714,2387.9,548.2223214285714,549.1285714285714,2488.4,548.2223214285714,549.1285714285714,2600.3,548.2223214285714,549.1285714285714,2703.2,548.2223214285714,549.1285714285714,2804.1,548.2223214285714,549.1285714285714,2910.6,548.2223214285714,549.1285714285714,3014.2,548.2223214285714,549.1285714285714,3116.6,548.2223214285714,549.1285714285714,3218.6,548.2223214285714,549.1285714285714,3322.7,548.2223214285714,549.1285714285714,3433.6,548.2223214285714,549.1285714285714,3538.5,548.2223214285714,549.1285714285714,3644.9,548.2223214285714,549.1285714285714,3748.2,548.2223214285714,549.1285714285714,3849,548.2223214285714,549.1285714285714,3964.3,548.2223214285714,549.1285714285714,4068.6,548.2223214285714,549.1285714285714,4181.9,548.2223214285714,549.1285714285714,4283,548.2223214285714,549.1285714285714,4411.7,548.2223214285714,549.1285714285714,4518.7,548.2223214285714,549.1285714285714,4622.7,548.2223214285714,549.1285714285714,4727.3,548.2223214285714,549.1285714285714,4827.5,548.2223214285714,549.1285714285714,4933.2]","[1477.9,1477.9,1000,0,477.9,""oops"",""right"",""right"",""good_move"",4043.4,2564.2,2066.4,1479.3,497.8,""smooth"",""right"",""right"",""good_move"",13955.1,9908,1943.7,11391.4,620.1,""smooth"",""down"",""down"",""good_move"",19181.5,5224.9,2191.7,16488.5,501.3,""smooth"",""down"",""down"",""good_move"",22216.6,3034.4,2545,19182.2,489.4,""smooth"",""down"",""down"",""good_move"",25178.3,2960.6,2488.5,22217.8,472,""smooth"",""right"",""right"",""good_move""]","",""
"2596","","<div style=""width:500px;"">
  <p>What determined the result of this run?</p>
  </div>","93","html-slider-response","15","297026","0.0-5.0-1.1","22","1","2025-07-09 09:23:37","01610cd0009c79a99da7d0a3353eb402","216.205.168.23","Mozilla/5.0 (X11; CrOS x86_64 14541.0.0) AppleWebKit/537.36 (KHTML, like Gecko) Chrome/137.0.0.0 Safari/537.36","WebKit","Chrome","137.0.0.0","ChromeOS","14541.0.0","https://app.prolific.com/","en-GB,en-US;q=0.9,en;q=0.8","5a1dda5480acd8000104a12b","683db7602f5db6a34d12d064","686e34801a90edafb25eb437","1","5a1dda5480acd8000104a12b","1","2025-07-09T09:28:40.755Z","","","","","","","","","","","AttribQ","","50","","","","","","","","","","","","","","","","","","","","","","","","","","","","",""
"2594","","<div style=""width:500px;"">
  <p>How much control did you have over the ball?</p>
  </div>","96","html-slider-response","16","299624","0.0-5.0-2.1","22","1","2025-07-09 09:23:37","01610cd0009c79a99da7d0a3353eb402","216.205.168.23","Mozilla/5.0 (X11; CrOS x86_64 14541.0.0) AppleWebKit/537.36 (KHTML, like Gecko) Chrome/137.0.0.0 Safari/537.36","WebKit","Chrome","137.0.0.0","ChromeOS","14541.0.0","https://app.prolific.com/","en-GB,en-US;q=0.9,en;q=0.8","5a1dda5480acd8000104a12b","683db7602f5db6a34d12d064","686e34801a90edafb25eb437","1","5a1dda5480acd8000104a12b","1","2025-07-09T09:28:43.354Z","","","","","","","","","","","ControlQ","","50","","","","","","","","","","","","","","","","","","","","","","","","","","","","",""
"2768","","<div style=""width:500px;"">
  <p>How would you describe your current emotional state?</p>
  </div>","36","html-slider-response","17","302396","0.0-5.0-3.1","22","1","2025-07-09 09:23:37","01610cd0009c79a99da7d0a3353eb402","216.205.168.23","Mozilla/5.0 (X11; CrOS x86_64 14541.0.0) AppleWebKit/537.36 (KHTML, like Gecko) Chrome/137.0.0.0 Safari/537.36","WebKit","Chrome","137.0.0.0","ChromeOS","14541.0.0","https://app.prolific.com/","en-GB,en-US;q=0.9,en;q=0.8","5a1dda5480acd8000104a12b","683db7602f5db6a34d12d064","686e34801a90edafb25eb437","1","5a1dda5480acd8000104a12b","1","2025-07-09T09:28:46.126Z","","","","","","","","","","","StressQ","","50","","","","","","","","","","","","","","","","","","","","","","","","","","","","",""
"5099","","<div style=""width:500px;"">
  <p>What best describes how you currently feel?</p>
  </div>","59","html-slider-response","18","307500","0.0-5.0-4.1","22","1","2025-07-09 09:23:37","01610cd0009c79a99da7d0a3353eb402","216.205.168.23","Mozilla/5.0 (X11; CrOS x86_64 14541.0.0) AppleWebKit/537.36 (KHTML, like Gecko) Chrome/137.0.0.0 Safari/537.36","WebKit","Chrome","137.0.0.0","ChromeOS","14541.0.0","https://app.prolific.com/","en-GB,en-US;q=0.9,en;q=0.8","5a1dda5480acd8000104a12b","683db7602f5db6a34d12d064","686e34801a90edafb25eb437","1","5a1dda5480acd8000104a12b","1","2025-07-09T09:28:51.230Z","","","","","","","","","","","MotivationQ","","50","","","","","","","","","","","","","","","","","","","","","","","","","","","","",""
"","","","","ctl-task-cpt","19","356583","0.0-5.0-0.2","22","1","2025-07-09 09:23:37","01610cd0009c79a99da7d0a3353eb402","216.205.168.23","Mozilla/5.0 (X11; CrOS x86_64 14541.0.0) AppleWebKit/537.36 (KHTML, like Gecko) Chrome/137.0.0.0 Safari/537.36","WebKit","Chrome","137.0.0.0","ChromeOS","14541.0.0","https://app.prolific.com/","en-GB,en-US;q=0.9,en;q=0.8","5a1dda5480acd8000104a12b","683db7602f5db6a34d12d064","686e34801a90edafb25eb437","1","5a1dda5480acd8000104a12b","1","2025-07-09T09:29:40.312Z","","","","","","","","","","","","","","win-only","1","g1:NE,g2:SW","0.8","3","0","308848.1","1211.5","6222","46065.2","1","4","4","6","2","4","4","9","5","0.06818181818181818","1121.1","3000","850","[""down"",""left""]","{""num_key_presses"":8,""num_perfect"":6,""num_errors"":0,""num_randdir"":2,""num_randdir_good_moves"":1,""num_whilered"":0,""num_whileblue"":0,""num_blue"":5,""num_good_moves"":7}","[295.22232142857143,294.12857142857143,1,295.22232142857143,294.12857142857143,101.1,295.22232142857143,294.12857142857143,213.7,295.22232142857143,294.12857142857143,316.4,295.22232142857143,294.12857142857143,425.8,156.22232142857143,435.12857142857143,531.2,35.222321428571426,501.12857142857143,635.5,-2.7776785714285737,548.1285714285714,750.1,-1.7776785714285737,554.1285714285714,858.7,9.222321428571426,550.1285714285714,969.2,9.222321428571426,550.1285714285714,1076.2,9.222321428571426,550.1285714285714,1179.7,9.222321428571426,550.1285714285714,1284.1,9.222321428571426,550.1285714285714,1385.3,9.222321428571426,550.1285714285714,1491.7,9.222321428571426,550.1285714285714,1597.2,9.222321428571426,550.1285714285714,1700.7,9.222321428571426,550.1285714285714,1801.2,9.222321428571426,550.1285714285714,1930.2,9.222321428571426,550.1285714285714,2039.3,9.222321428571426,550.1285714285714,2140.5,9.222321428571426,550.1285714285714,2248.7,9.222321428571426,550.1285714285714,2351.2,9.222321428571426,550.1285714285714,2454,9.222321428571426,550.1285714285714,2554.5,9.222321428571426,550.1285714285714,2658.2,9.222321428571426,550.1285714285714,2794.6,9.222321428571426,550.1285714285714,2895.1,9.222321428571426,550.1285714285714,3006.6,9.222321428571426,550.1285714285714,3112.8,9.222321428571426,550.1285714285714,3213.8,9.222321428571426,550.1285714285714,3320.9,9.222321428571426,550.1285714285714,3424.9,9.222321428571426,550.1285714285714,3531,9.222321428571426,550.1285714285714,3632.7,9.222321428571426,550.1285714285714,3733.1,9.222321428571426,550.1285714285714,3835.3,9.222321428571426,550.1285714285714,3936.6,9.222321428571426,550.1285714285714,4037.7,9.222321428571426,550.1285714285714,4138.9,9.222321428571426,550.1285714285714,4239,9.222321428571426,550.1285714285714,4344.1,9.222321428571426,550.1285714285714,4450.3,9.222321428571426,550.1285714285714,4566.8,9.222321428571426,550.1285714285714,4669.2,9.222321428571426,550.1285714285714,4771.7,9.222321428571426,550.1285714285714,4873.6,9.222321428571426,550.1285714285714,4977.1]","[4953.6,4953.6,2623.4,2015.4,314.8,""smooth"",""left"",""left"",""good_move"",14141.5,9185.7,2324.9,11424,392.6,""smooth"",""left"",""left"",""good_move"",17353.3,3211.2,2724.6,14142.2,486.6,""smooth"",""left"",""left"",""good_move"",20746.2,3392.2,2930.4,17354,461.8,""oops"",""down"",""right"",""bad_move"",24069.1,3321.6,2831.2,20747.5,490.4,""oops"",""down"",""down"",""good_move"",34069,9997.6,2374.5,31236,458.5,""smooth"",""down"",""down"",""good_move"",36456.2,2386.5,1931.1,34069.8,455.4,""smooth"",""down"",""down"",""good_move"",39700.3,3243.4,2766.6,36457,476.7,""smooth"",""left"",""left"",""good_move""]","",""
"4101","","<div style=""width:500px;"">
  <p>What determined the result of this run?</p>
  </div>","54","html-slider-response","20","360689","0.0-5.0-1.2","22","1","2025-07-09 09:23:37","01610cd0009c79a99da7d0a3353eb402","216.205.168.23","Mozilla/5.0 (X11; CrOS x86_64 14541.0.0) AppleWebKit/537.36 (KHTML, like Gecko) Chrome/137.0.0.0 Safari/537.36","WebKit","Chrome","137.0.0.0","ChromeOS","14541.0.0","https://app.prolific.com/","en-GB,en-US;q=0.9,en;q=0.8","5a1dda5480acd8000104a12b","683db7602f5db6a34d12d064","686e34801a90edafb25eb437","1","5a1dda5480acd8000104a12b","1","2025-07-09T09:29:44.418Z","","","","","","","","","","","AttribQ","","50","","","","","","","","","","","","","","","","","","","","","","","","","","","","",""
"3298","","<div style=""width:500px;"">
  <p>How much control did you have over the ball?</p>
  </div>","71","html-slider-response","21","363991","0.0-5.0-2.2","22","1","2025-07-09 09:23:37","01610cd0009c79a99da7d0a3353eb402","216.205.168.23","Mozilla/5.0 (X11; CrOS x86_64 14541.0.0) AppleWebKit/537.36 (KHTML, like Gecko) Chrome/137.0.0.0 Safari/537.36","WebKit","Chrome","137.0.0.0","ChromeOS","14541.0.0","https://app.prolific.com/","en-GB,en-US;q=0.9,en;q=0.8","5a1dda5480acd8000104a12b","683db7602f5db6a34d12d064","686e34801a90edafb25eb437","1","5a1dda5480acd8000104a12b","1","2025-07-09T09:29:47.720Z","","","","","","","","","","","ControlQ","","50","","","","","","","","","","","","","","","","","","","","","","","","","","","","",""
"7691","","<div style=""width:500px;"">
  <p>How would you describe your current emotional state?</p>
  </div>","25","html-slider-response","22","371685","0.0-5.0-3.2","22","1","2025-07-09 09:23:37","01610cd0009c79a99da7d0a3353eb402","216.205.168.23","Mozilla/5.0 (X11; CrOS x86_64 14541.0.0) AppleWebKit/537.36 (KHTML, like Gecko) Chrome/137.0.0.0 Safari/537.36","WebKit","Chrome","137.0.0.0","ChromeOS","14541.0.0","https://app.prolific.com/","en-GB,en-US;q=0.9,en;q=0.8","5a1dda5480acd8000104a12b","683db7602f5db6a34d12d064","686e34801a90edafb25eb437","1","5a1dda5480acd8000104a12b","1","2025-07-09T09:29:55.415Z","","","","","","","","","","","StressQ","","50","","","","","","","","","","","","","","","","","","","","","","","","","","","","",""
"3683","","<div style=""width:500px;"">
  <p>What best describes how you currently feel?</p>
  </div>","50","html-slider-response","23","375373","0.0-5.0-4.2","22","1","2025-07-09 09:23:37","01610cd0009c79a99da7d0a3353eb402","216.205.168.23","Mozilla/5.0 (X11; CrOS x86_64 14541.0.0) AppleWebKit/537.36 (KHTML, like Gecko) Chrome/137.0.0.0 Safari/537.36","WebKit","Chrome","137.0.0.0","ChromeOS","14541.0.0","https://app.prolific.com/","en-GB,en-US;q=0.9,en;q=0.8","5a1dda5480acd8000104a12b","683db7602f5db6a34d12d064","686e34801a90edafb25eb437","1","5a1dda5480acd8000104a12b","1","2025-07-09T09:29:59.103Z","","","","","","","","","","","MotivationQ","","50","","","","","","","","","","","","","","","","","","","","","","","","","","","","",""
"","","","","ctl-task-cpt","24","414184","0.0-5.0-0.3","22","1","2025-07-09 09:23:37","01610cd0009c79a99da7d0a3353eb402","216.205.168.23","Mozilla/5.0 (X11; CrOS x86_64 14541.0.0) AppleWebKit/537.36 (KHTML, like Gecko) Chrome/137.0.0.0 Safari/537.36","WebKit","Chrome","137.0.0.0","ChromeOS","14541.0.0","https://app.prolific.com/","en-GB,en-US;q=0.9,en;q=0.8","5a1dda5480acd8000104a12b","683db7602f5db6a34d12d064","686e34801a90edafb25eb437","1","5a1dda5480acd8000104a12b","1","2025-07-09T09:30:37.913Z","","","","","","","","","","","","","","win-only","2","g1:SE,g2:NW","0.7","4","0","376718.8","2361.4","7369","35788.7","1","4","8","6","2","8","8","17","9","0.12878787878787878","1214.8","3000","1175","[""left"",""up""]","{""num_key_presses"":8,""num_perfect"":6,""num_errors"":0,""num_randdir"":2,""num_randdir_good_moves"":1,""num_whilered"":0,""num_whileblue"":0,""num_blue"":1,""num_good_moves"":7}","[294.22232142857143,293.12857142857143,1,294.22232142857143,293.12857142857143,111.9,294.22232142857143,293.12857142857143,217.8,294.22232142857143,293.12857142857143,337.5,294.22232142857143,293.12857142857143,438.4,315.22232142857143,329.12857142857143,538.6,325.22232142857143,339.12857142857143,640.1,73.22232142857143,162.12857142857143,741.1,5.222321428571426,80.12857142857143,844.6,4.222321428571426,74.12857142857143,947.5,26.222321428571426,70.12857142857143,1050.9,26.222321428571426,70.12857142857143,1157.6,26.222321428571426,70.12857142857143,1261.2,26.222321428571426,70.12857142857143,1362.5,26.222321428571426,70.12857142857143,1469.5,26.222321428571426,70.12857142857143,1573.6,26.222321428571426,70.12857142857143,1677.3,26.222321428571426,70.12857142857143,1781,26.222321428571426,70.12857142857143,1891.8,26.222321428571426,70.12857142857143,2027.1,26.222321428571426,70.12857142857143,2135.7,26.222321428571426,70.12857142857143,2239.7,26.222321428571426,70.12857142857143,2345.6,26.222321428571426,70.12857142857143,2452.2,26.222321428571426,70.12857142857143,2556.7,26.222321428571426,70.12857142857143,2664.6,26.222321428571426,70.12857142857143,2769.7,26.222321428571426,70.12857142857143,2877.2,26.222321428571426,70.12857142857143,2981.6,26.222321428571426,70.12857142857143,3084,26.222321428571426,70.12857142857143,3192.3,26.222321428571426,70.12857142857143,3298,26.222321428571426,70.12857142857143,3404.3,26.222321428571426,70.12857142857143,3511.2,26.222321428571426,70.12857142857143,3614.2,26.222321428571426,70.12857142857143,3715,26.222321428571426,70.12857142857143,3821.2,26.222321428571426,70.12857142857143,3943.4,26.222321428571426,70.12857142857143,4049.5,26.222321428571426,70.12857142857143,4154.3,26.222321428571426,70.12857142857143,4261.5,26.222321428571426,70.12857142857143,4363.3,26.222321428571426,70.12857142857143,4468.5,26.222321428571426,70.12857142857143,4576.4,26.222321428571426,70.12857142857143,4681.1,26.222321428571426,70.12857142857143,4784,26.222321428571426,70.12857142857143,4886.4,26.222321428571426,70.12857142857143,4990.8]","[1534.5,1534.5,1000,0,534.5,""oops"",""left"",""down"",""bad_move"",5654.2,4118.5,3750.2,1535.7,368.3,""smooth"",""left"",""left"",""good_move"",12408.4,6753.1,2853.1,9105.8,449.6,""smooth"",""left"",""left"",""good_move"",15730.6,3321.6,2899.3,12409,422.3,""oops"",""left"",""left"",""good_move"",19074.9,3343.4,2952.2,15731.5,391.2,""smooth"",""up"",""up"",""good_move"",22008,2931.8,2524.3,19076.2,407.5,""smooth"",""up"",""up"",""good_move"",24826.7,2818.1,2398.9,22008.7,419.2,""smooth"",""up"",""up"",""good_move"",28263.3,3435.5,3067.4,24827.9,368.1,""smooth"",""up"",""up"",""good_move""]","",""
"7888","","<div style=""width:500px;"">
  <p>What determined the result of this run?</p>
  </div>","61","html-slider-response","25","422076","0.0-5.0-1.3","22","1","2025-07-09 09:23:37","01610cd0009c79a99da7d0a3353eb402","216.205.168.23","Mozilla/5.0 (X11; CrOS x86_64 14541.0.0) AppleWebKit/537.36 (KHTML, like Gecko) Chrome/137.0.0.0 Safari/537.36","WebKit","Chrome","137.0.0.0","ChromeOS","14541.0.0","https://app.prolific.com/","en-GB,en-US;q=0.9,en;q=0.8","5a1dda5480acd8000104a12b","683db7602f5db6a34d12d064","686e34801a90edafb25eb437","1","5a1dda5480acd8000104a12b","1","2025-07-09T09:30:45.805Z","","","","","","","","","","","AttribQ","","50","","","","","","","","","","","","","","","","","","","","","","","","","","","","",""
"3179","","<div style=""width:500px;"">
  <p>How much control did you have over the ball?</p>
  </div>","64","html-slider-response","26","425259","0.0-5.0-2.3","22","1","2025-07-09 09:23:37","01610cd0009c79a99da7d0a3353eb402","216.205.168.23","Mozilla/5.0 (X11; CrOS x86_64 14541.0.0) AppleWebKit/537.36 (KHTML, like Gecko) Chrome/137.0.0.0 Safari/537.36","WebKit","Chrome","137.0.0.0","ChromeOS","14541.0.0","https://app.prolific.com/","en-GB,en-US;q=0.9,en;q=0.8","5a1dda5480acd8000104a12b","683db7602f5db6a34d12d064","686e34801a90edafb25eb437","1","5a1dda5480acd8000104a12b","1","2025-07-09T09:30:48.988Z","","","","","","","","","","","ControlQ","","50","","","","","","","","","","","","","","","","","","","","","","","","","","","","",""
"3537","","<div style=""width:500px;"">
  <p>How would you describe your current emotional state?</p>
  </div>","50","html-slider-response","27","428800","0.0-5.0-3.3","22","1","2025-07-09 09:23:37","01610cd0009c79a99da7d0a3353eb402","216.205.168.23","Mozilla/5.0 (X11; CrOS x86_64 14541.0.0) AppleWebKit/537.36 (KHTML, like Gecko) Chrome/137.0.0.0 Safari/537.36","WebKit","Chrome","137.0.0.0","ChromeOS","14541.0.0","https://app.prolific.com/","en-GB,en-US;q=0.9,en;q=0.8","5a1dda5480acd8000104a12b","683db7602f5db6a34d12d064","686e34801a90edafb25eb437","1","5a1dda5480acd8000104a12b","1","2025-07-09T09:30:52.529Z","","","","","","","","","","","StressQ","","50","","","","","","","","","","","","","","","","","","","","","","","","","","","","",""
"3812","","<div style=""width:500px;"">
  <p>What best describes how you currently feel?</p>
  </div>","61","html-slider-response","28","432615","0.0-5.0-4.3","22","1","2025-07-09 09:23:37","01610cd0009c79a99da7d0a3353eb402","216.205.168.23","Mozilla/5.0 (X11; CrOS x86_64 14541.0.0) AppleWebKit/537.36 (KHTML, like Gecko) Chrome/137.0.0.0 Safari/537.36","WebKit","Chrome","137.0.0.0","ChromeOS","14541.0.0","https://app.prolific.com/","en-GB,en-US;q=0.9,en;q=0.8","5a1dda5480acd8000104a12b","683db7602f5db6a34d12d064","686e34801a90edafb25eb437","1","5a1dda5480acd8000104a12b","1","2025-07-09T09:30:56.344Z","","","","","","","","","","","MotivationQ","","50","","","","","","","","","","","","","","","","","","","","","","","","","","","","",""
"","","","","ctl-task-cpt","29","476232","0.0-5.0-0.4","22","1","2025-07-09 09:23:37","01610cd0009c79a99da7d0a3353eb402","216.205.168.23","Mozilla/5.0 (X11; CrOS x86_64 14541.0.0) AppleWebKit/537.36 (KHTML, like Gecko) Chrome/137.0.0.0 Safari/537.36","WebKit","Chrome","137.0.0.0","ChromeOS","14541.0.0","https://app.prolific.com/","en-GB,en-US;q=0.9,en;q=0.8","5a1dda5480acd8000104a12b","683db7602f5db6a34d12d064","686e34801a90edafb25eb437","1","5a1dda5480acd8000104a12b","1","2025-07-09T09:31:39.961Z","","","","","","","","","","","","","","win-only","0","g1:NW,g2:SE","0.6","5","0","433961.3","1258.6","6262.7","40594.5","1","4","8","6","2","8","8","25","17","0.1893939393939394","1207.9","3000","455","[""down"",""right""]","{""num_key_presses"":10,""num_perfect"":6,""num_errors"":0,""num_randdir"":4,""num_randdir_good_moves"":2,""num_whilered"":0,""num_whileblue"":0,""num_blue"":2,""num_good_moves"":8}","[296.22232142857143,289.12857142857143,0.7,296.22232142857143,289.12857142857143,102.7,296.22232142857143,289.12857142857143,204.6,296.22232142857143,289.12857142857143,309.6,296.22232142857143,289.12857142857143,411.5,289.22232142857143,294.12857142857143,514.4,292.22232142857143,297.12857142857143,632.8,526.2223214285714,526.1285714285714,736.7,507.22232142857143,538.1285714285714,847.9,507.22232142857143,538.1285714285714,950.2,507.22232142857143,538.1285714285714,1060.4,507.22232142857143,538.1285714285714,1169,507.22232142857143,538.1285714285714,1275,507.22232142857143,538.1285714285714,1380.5,507.22232142857143,538.1285714285714,1487.4,507.22232142857143,538.1285714285714,1596.4,507.22232142857143,538.1285714285714,1705.6,507.22232142857143,538.1285714285714,1811,507.22232142857143,538.1285714285714,1920.6,507.22232142857143,538.1285714285714,2028.1,507.22232142857143,538.1285714285714,2133.2,507.22232142857143,538.1285714285714,2237.7,507.22232142857143,538.1285714285714,2340.6,507.22232142857143,538.1285714285714,2441.6,507.22232142857143,538.1285714285714,2548.5,507.22232142857143,538.1285714285714,2651.3,507.22232142857143,538.1285714285714,2753.7,507.22232142857143,538.1285714285714,2863.6,507.22232142857143,538.1285714285714,2964.1,507.22232142857143,538.1285714285714,3069.8,507.22232142857143,538.1285714285714,3190.6,507.22232142857143,538.1285714285714,3290.7,507.22232142857143,538.1285714285714,3392.1,507.22232142857143,538.1285714285714,3496.5,507.22232142857143,538.1285714285714,3598.3,507.22232142857143,538.1285714285714,3700.6,507.22232142857143,538.1285714285714,3810,507.22232142857143,538.1285714285714,3912.7,507.22232142857143,538.1285714285714,4021.6,507.22232142857143,538.1285714285714,4122.1,507.22232142857143,538.1285714285714,4227.9,507.22232142857143,538.1285714285714,4329.4,507.22232142857143,538.1285714285714,4433.8,507.22232142857143,538.1285714285714,4538.4,507.22232142857143,538.1285714285714,4650.3,507.22232142857143,538.1285714285714,4754.6,507.22232142857143,538.1285714285714,4862.8,507.22232142857143,538.1285714285714,4968]","[1708.8,1708.8,1000,0,708.8,""oops"",""right"",""left"",""bad_move"",7864.4,6154.5,2768.6,4648.6,447.2,""smooth"",""right"",""right"",""good_move"",10557.8,2692.4,2093.3,7865.6,599,""smooth"",""right"",""right"",""good_move"",14243.6,3685,2797.9,10558.6,887.1,""oops"",""right"",""down"",""good_move"",21240,6995.4,2937.4,17843.9,458.8,""smooth"",""right"",""right"",""good_move"",23679.5,2438.6,1911.8,21241,526.7,""oops"",""right"",""left"",""bad_move"",26139.6,2459.2,2012.8,23680.4,446.4,""smooth"",""right"",""right"",""good_move"",29054.2,2913.9,2453.3,26140.4,460.6,""smooth"",""right"",""right"",""good_move"",31689.2,2634.1,2234.5,29055.1,399.6,""oops"",""down"",""down"",""good_move"",34163.7,2473.7,2140.3,31690,333.4,""smooth"",""down"",""down"",""good_move""]","",""
"3093","","<div style=""width:500px;"">
  <p>What determined the result of this run?</p>
  </div>","42","html-slider-response","30","479329","0.0-5.0-1.4","22","1","2025-07-09 09:23:37","01610cd0009c79a99da7d0a3353eb402","216.205.168.23","Mozilla/5.0 (X11; CrOS x86_64 14541.0.0) AppleWebKit/537.36 (KHTML, like Gecko) Chrome/137.0.0.0 Safari/537.36","WebKit","Chrome","137.0.0.0","ChromeOS","14541.0.0","https://app.prolific.com/","en-GB,en-US;q=0.9,en;q=0.8","5a1dda5480acd8000104a12b","683db7602f5db6a34d12d064","686e34801a90edafb25eb437","1","5a1dda5480acd8000104a12b","1","2025-07-09T09:31:43.058Z","","","","","","","","","","","AttribQ","","50","","","","","","","","","","","","","","","","","","","","","","","","","","","","",""
"2655","","<div style=""width:500px;"">
  <p>How much control did you have over the ball?</p>
  </div>","46","html-slider-response","31","481988","0.0-5.0-2.4","22","1","2025-07-09 09:23:37","01610cd0009c79a99da7d0a3353eb402","216.205.168.23","Mozilla/5.0 (X11; CrOS x86_64 14541.0.0) AppleWebKit/537.36 (KHTML, like Gecko) Chrome/137.0.0.0 Safari/537.36","WebKit","Chrome","137.0.0.0","ChromeOS","14541.0.0","https://app.prolific.com/","en-GB,en-US;q=0.9,en;q=0.8","5a1dda5480acd8000104a12b","683db7602f5db6a34d12d064","686e34801a90edafb25eb437","1","5a1dda5480acd8000104a12b","1","2025-07-09T09:31:45.717Z","","","","","","","","","","","ControlQ","","50","","","","","","","","","","","","","","","","","","","","","","","","","","","","",""
"3354","","<div style=""width:500px;"">
  <p>How would you describe your current emotional state?</p>
  </div>","50","html-slider-response","32","485345","0.0-5.0-3.4","22","1","2025-07-09 09:23:37","01610cd0009c79a99da7d0a3353eb402","216.205.168.23","Mozilla/5.0 (X11; CrOS x86_64 14541.0.0) AppleWebKit/537.36 (KHTML, like Gecko) Chrome/137.0.0.0 Safari/537.36","WebKit","Chrome","137.0.0.0","ChromeOS","14541.0.0","https://app.prolific.com/","en-GB,en-US;q=0.9,en;q=0.8","5a1dda5480acd8000104a12b","683db7602f5db6a34d12d064","686e34801a90edafb25eb437","1","5a1dda5480acd8000104a12b","1","2025-07-09T09:31:49.074Z","","","","","","","","","","","StressQ","","50","","","","","","","","","","","","","","","","","","","","","","","","","","","","",""
"2221","","<div style=""width:500px;"">
  <p>What best describes how you currently feel?</p>
  </div>","43","html-slider-response","33","487569","0.0-5.0-4.4","22","1","2025-07-09 09:23:37","01610cd0009c79a99da7d0a3353eb402","216.205.168.23","Mozilla/5.0 (X11; CrOS x86_64 14541.0.0) AppleWebKit/537.36 (KHTML, like Gecko) Chrome/137.0.0.0 Safari/537.36","WebKit","Chrome","137.0.0.0","ChromeOS","14541.0.0","https://app.prolific.com/","en-GB,en-US;q=0.9,en;q=0.8","5a1dda5480acd8000104a12b","683db7602f5db6a34d12d064","686e34801a90edafb25eb437","1","5a1dda5480acd8000104a12b","1","2025-07-09T09:31:51.299Z","","","","","","","","","","","MotivationQ","","50","","","","","","","","","","","","","","","","","","","","","","","","","","","","",""
"","","","","ctl-task-cpt","34","513527","0.0-5.0-0.5","22","1","2025-07-09 09:23:37","01610cd0009c79a99da7d0a3353eb402","216.205.168.23","Mozilla/5.0 (X11; CrOS x86_64 14541.0.0) AppleWebKit/537.36 (KHTML, like Gecko) Chrome/137.0.0.0 Safari/537.36","WebKit","Chrome","137.0.0.0","ChromeOS","14541.0.0","https://app.prolific.com/","en-GB,en-US;q=0.9,en;q=0.8","5a1dda5480acd8000104a12b","683db7602f5db6a34d12d064","686e34801a90edafb25eb437","1","5a1dda5480acd8000104a12b","1","2025-07-09T09:32:17.256Z","","","","","","","","","","","","","","win-only","1","g1:NE,g2:SW","0.5","6","0","488915.8","1036.9","6041.6","22934.2","1","4","4","6","2","4","4","29","25","0.2196969696969697","2208.1","3000","2105","[""down"",""left""]","{""num_key_presses"":6,""num_perfect"":3,""num_errors"":0,""num_randdir"":3,""num_randdir_good_moves"":3,""num_whilered"":0,""num_whileblue"":0,""num_blue"":0,""num_good_moves"":6}","[291.22232142857143,299.12857142857143,0.6,291.22232142857143,299.12857142857143,107.3,291.22232142857143,299.12857142857143,217.6,291.22232142857143,299.12857142857143,323.5,291.22232142857143,299.12857142857143,423.9,291.22232142857143,299.12857142857143,523.9,293.22232142857143,300.12857142857143,634.6,229.22232142857143,323.12857142857143,742,193.22232142857143,359.12857142857143,849.7,130.22232142857143,431.12857142857143,963.5,104.22232142857143,480.12857142857143,1069.4,99.22232142857143,483.12857142857143,1169.6,94.22232142857143,487.12857142857143,1281.8,94.22232142857143,487.12857142857143,1385.4,94.22232142857143,487.12857142857143,1489.1,84.22232142857143,498.12857142857143,1597.9,82.22232142857143,500.12857142857143,1705.6,75.22232142857143,509.12857142857143,1815.7,74.22232142857143,510.12857142857143,1918.1,74.22232142857143,510.12857142857143,2022.5,74.22232142857143,510.12857142857143,2128.4,74.22232142857143,510.12857142857143,2235.6,74.22232142857143,510.12857142857143,2342.7,74.22232142857143,510.12857142857143,2449.5,74.22232142857143,510.12857142857143,2562,74.22232142857143,510.12857142857143,2665.8,74.22232142857143,510.12857142857143,2775.3,74.22232142857143,510.12857142857143,2885.9,74.22232142857143,510.12857142857143,2989,74.22232142857143,510.12857142857143,3100,74.22232142857143,510.12857142857143,3209,74.22232142857143,510.12857142857143,3309.7,74.22232142857143,510.12857142857143,3415.8,74.22232142857143,510.12857142857143,3528.4,74.22232142857143,510.12857142857143,3630.3,74.22232142857143,510.12857142857143,3737.7,74.22232142857143,510.12857142857143,3849.9,74.22232142857143,510.12857142857143,3961.3,74.22232142857143,510.12857142857143,4061.6,74.22232142857143,510.12857142857143,4162.9,74.22232142857143,510.12857142857143,4276.6,74.22232142857143,510.12857142857143,4382.1,74.22232142857143,510.12857142857143,4486.8,74.22232142857143,510.12857142857143,4600.4,74.22232142857143,510.12857142857143,4707.8,74.22232142857143,510.12857142857143,4812.5,74.22232142857143,510.12857142857143,4927.5]","[1427.3,1427.3,1000,0,427.3,""oops"",""left"",""down"",""good_move"",4328.2,2899.5,2546.2,1428.8,353.3,""smooth"",""left"",""left"",""good_move"",7204.1,2874.9,2205.3,4329.2,669.6,""smooth"",""left"",""left"",""good_move"",10012.9,2808.1,2470.5,7204.9,337.6,""oops"",""left"",""left"",""good_move"",13664.4,3650.8,3268.7,10013.8,382,""smooth"",""down"",""down"",""good_move"",16712.1,3047,2674.1,13665.2,372.8,""oops"",""down"",""down"",""good_move""]","",""
"3100","","<div style=""width:500px;"">
  <p>What determined the result of this run?</p>
  </div>","65","html-slider-response","35","516631","0.0-5.0-1.5","22","1","2025-07-09 09:23:37","01610cd0009c79a99da7d0a3353eb402","216.205.168.23","Mozilla/5.0 (X11; CrOS x86_64 14541.0.0) AppleWebKit/537.36 (KHTML, like Gecko) Chrome/137.0.0.0 Safari/537.36","WebKit","Chrome","137.0.0.0","ChromeOS","14541.0.0","https://app.prolific.com/","en-GB,en-US;q=0.9,en;q=0.8","5a1dda5480acd8000104a12b","683db7602f5db6a34d12d064","686e34801a90edafb25eb437","1","5a1dda5480acd8000104a12b","1","2025-07-09T09:32:20.360Z","","","","","","","","","","","AttribQ","","50","","","","","","","","","","","","","","","","","","","","","","","","","","","","",""
"3263","","<div style=""width:500px;"">
  <p>How much control did you have over the ball?</p>
  </div>","75","html-slider-response","36","519899","0.0-5.0-2.5","22","1","2025-07-09 09:23:37","01610cd0009c79a99da7d0a3353eb402","216.205.168.23","Mozilla/5.0 (X11; CrOS x86_64 14541.0.0) AppleWebKit/537.36 (KHTML, like Gecko) Chrome/137.0.0.0 Safari/537.36","WebKit","Chrome","137.0.0.0","ChromeOS","14541.0.0","https://app.prolific.com/","en-GB,en-US;q=0.9,en;q=0.8","5a1dda5480acd8000104a12b","683db7602f5db6a34d12d064","686e34801a90edafb25eb437","1","5a1dda5480acd8000104a12b","1","2025-07-09T09:32:23.628Z","","","","","","","","","","","ControlQ","","50","","","","","","","","","","","","","","","","","","","","","","","","","","","","",""
"2919","","<div style=""width:500px;"">
  <p>How would you describe your current emotional state?</p>
  </div>","42","html-slider-response","37","522821","0.0-5.0-3.5","22","1","2025-07-09 09:23:37","01610cd0009c79a99da7d0a3353eb402","216.205.168.23","Mozilla/5.0 (X11; CrOS x86_64 14541.0.0) AppleWebKit/537.36 (KHTML, like Gecko) Chrome/137.0.0.0 Safari/537.36","WebKit","Chrome","137.0.0.0","ChromeOS","14541.0.0","https://app.prolific.com/","en-GB,en-US;q=0.9,en;q=0.8","5a1dda5480acd8000104a12b","683db7602f5db6a34d12d064","686e34801a90edafb25eb437","1","5a1dda5480acd8000104a12b","1","2025-07-09T09:32:26.550Z","","","","","","","","","","","StressQ","","50","","","","","","","","","","","","","","","","","","","","","","","","","","","","",""
"2854","","<div style=""width:500px;"">
  <p>What best describes how you currently feel?</p>
  </div>","60","html-slider-response","38","525678","0.0-5.0-4.5","22","1","2025-07-09 09:23:37","01610cd0009c79a99da7d0a3353eb402","216.205.168.23","Mozilla/5.0 (X11; CrOS x86_64 14541.0.0) AppleWebKit/537.36 (KHTML, like Gecko) Chrome/137.0.0.0 Safari/537.36","WebKit","Chrome","137.0.0.0","ChromeOS","14541.0.0","https://app.prolific.com/","en-GB,en-US;q=0.9,en;q=0.8","5a1dda5480acd8000104a12b","683db7602f5db6a34d12d064","686e34801a90edafb25eb437","1","5a1dda5480acd8000104a12b","1","2025-07-09T09:32:29.407Z","","","","","","","","","","","MotivationQ","","50","","","","","","","","","","","","","","","","","","","","","","","","","","","","",""
"","","","","ctl-task-cpt","39","563408","0.0-5.0-0.6","22","1","2025-07-09 09:23:37","01610cd0009c79a99da7d0a3353eb402","216.205.168.23","Mozilla/5.0 (X11; CrOS x86_64 14541.0.0) AppleWebKit/537.36 (KHTML, like Gecko) Chrome/137.0.0.0 Safari/537.36","WebKit","Chrome","137.0.0.0","ChromeOS","14541.0.0","https://app.prolific.com/","en-GB,en-US;q=0.9,en;q=0.8","5a1dda5480acd8000104a12b","683db7602f5db6a34d12d064","686e34801a90edafb25eb437","1","5a1dda5480acd8000104a12b","1","2025-07-09T09:33:07.137Z","","","","","","","","","","","","","","win-only","1","g1:NE,g2:SW","0.4","7","0","527023.3","1524.5","6532","34699.7","1","4","8","6","2","8","8","37","29","0.2803030303030303","1650.6","3000","2120","[""down"",""left""]","{""num_key_presses"":8,""num_perfect"":4,""num_errors"":0,""num_randdir"":4,""num_randdir_good_moves"":3,""num_whilered"":0,""num_whileblue"":0,""num_blue"":1,""num_good_moves"":7}","[296.22232142857143,301.12857142857143,0.7,296.22232142857143,301.12857142857143,115,296.22232142857143,301.12857142857143,221.9,296.22232142857143,301.12857142857143,325.2,265.22232142857143,341.12857142857143,434.6,189.22232142857143,442.12857142857143,544.4,175.22232142857143,446.12857142857143,657.9,161.22232142857143,454.12857142857143,772.2,161.22232142857143,454.12857142857143,882.7,161.22232142857143,454.12857142857143,995.6,151.22232142857143,460.12857142857143,1098.8,120.22232142857143,474.12857142857143,1200.8,96.22232142857143,488.12857142857143,1313.5,64.22232142857143,516.1285714285714,1415.1,64.22232142857143,516.1285714285714,1517.4,64.22232142857143,516.1285714285714,1630.3,64.22232142857143,516.1285714285714,1736.2,64.22232142857143,516.1285714285714,1838.5,64.22232142857143,516.1285714285714,1939.9,64.22232142857143,516.1285714285714,2054.2,64.22232142857143,516.1285714285714,2157.8,64.22232142857143,516.1285714285714,2271.8,64.22232142857143,516.1285714285714,2376.9,64.22232142857143,516.1285714285714,2479,64.22232142857143,516.1285714285714,2592.4,64.22232142857143,516.1285714285714,2702.8,64.22232142857143,516.1285714285714,2813.5,64.22232142857143,516.1285714285714,2923.8,64.22232142857143,516.1285714285714,3027.3,64.22232142857143,516.1285714285714,3136.2,64.22232142857143,516.1285714285714,3249.2,64.22232142857143,516.1285714285714,3362.5,64.22232142857143,516.1285714285714,3479.4,64.22232142857143,516.1285714285714,3597.3,64.22232142857143,516.1285714285714,3707.4,64.22232142857143,516.1285714285714,3813.9,64.22232142857143,516.1285714285714,3919,64.22232142857143,516.1285714285714,4035,64.22232142857143,516.1285714285714,4145.9,64.22232142857143,516.1285714285714,4248.5,64.22232142857143,516.1285714285714,4364.9,64.22232142857143,516.1285714285714,4472.6,64.22232142857143,516.1285714285714,4575.8,64.22232142857143,516.1285714285714,4677.1,64.22232142857143,516.1285714285714,4787.1,64.22232142857143,516.1285714285714,4888.5,64.22232142857143,516.1285714285714,4989.5]","[1409.2,1409.2,1000,0,409.2,""smooth"",""left"",""left"",""good_move"",4793.6,3383.3,1774.9,1410.4,1608.4,""oops"",""left"",""right"",""bad_move"",7659.9,2865.4,2453.8,4794.6,411.5,""smooth"",""left"",""left"",""good_move"",11293.1,3632.7,2503.5,7660.4,1129.2,""smooth"",""left"",""left"",""good_move"",18980.1,7686.3,2332.7,16222.5,424.9,""oops"",""left"",""down"",""good_move"",21698.6,2717.7,2256.6,18980.9,461.1,""oops"",""left"",""down"",""good_move"",24920,3220.6,2756.3,21699.4,464.3,""oops"",""left"",""left"",""good_move"",27897.7,2976.7,2519.5,24921,457.2,""smooth"",""down"",""down"",""good_move""]","",""
"2764","","<div style=""width:500px;"">
  <p>What determined the result of this run?</p>
  </div>","38","html-slider-response","40","566176","0.0-5.0-1.6","22","1","2025-07-09 09:23:37","01610cd0009c79a99da7d0a3353eb402","216.205.168.23","Mozilla/5.0 (X11; CrOS x86_64 14541.0.0) AppleWebKit/537.36 (KHTML, like Gecko) Chrome/137.0.0.0 Safari/537.36","WebKit","Chrome","137.0.0.0","ChromeOS","14541.0.0","https://app.prolific.com/","en-GB,en-US;q=0.9,en;q=0.8","5a1dda5480acd8000104a12b","683db7602f5db6a34d12d064","686e34801a90edafb25eb437","1","5a1dda5480acd8000104a12b","1","2025-07-09T09:33:09.905Z","","","","","","","","","","","AttribQ","","50","","","","","","","","","","","","","","","","","","","","","","","","","","","","",""
"3251","","<div style=""width:500px;"">
  <p>How much control did you have over the ball?</p>
  </div>","47","html-slider-response","41","569431","0.0-5.0-2.6","22","1","2025-07-09 09:23:37","01610cd0009c79a99da7d0a3353eb402","216.205.168.23","Mozilla/5.0 (X11; CrOS x86_64 14541.0.0) AppleWebKit/537.36 (KHTML, like Gecko) Chrome/137.0.0.0 Safari/537.36","WebKit","Chrome","137.0.0.0","ChromeOS","14541.0.0","https://app.prolific.com/","en-GB,en-US;q=0.9,en;q=0.8","5a1dda5480acd8000104a12b","683db7602f5db6a34d12d064","686e34801a90edafb25eb437","1","5a1dda5480acd8000104a12b","1","2025-07-09T09:33:13.161Z","","","","","","","","","","","ControlQ","","50","","","","","","","","","","","","","","","","","","","","","","","","","","","","",""
"2193","","<div style=""width:500px;"">
  <p>How would you describe your current emotional state?</p>
  </div>","39","html-slider-response","42","571632","0.0-5.0-3.6","22","1","2025-07-09 09:23:37","01610cd0009c79a99da7d0a3353eb402","216.205.168.23","Mozilla/5.0 (X11; CrOS x86_64 14541.0.0) AppleWebKit/537.36 (KHTML, like Gecko) Chrome/137.0.0.0 Safari/537.36","WebKit","Chrome","137.0.0.0","ChromeOS","14541.0.0","https://app.prolific.com/","en-GB,en-US;q=0.9,en;q=0.8","5a1dda5480acd8000104a12b","683db7602f5db6a34d12d064","686e34801a90edafb25eb437","1","5a1dda5480acd8000104a12b","1","2025-07-09T09:33:15.361Z","","","","","","","","","","","StressQ","","50","","","","","","","","","","","","","","","","","","","","","","","","","","","","",""
"2883","","<div style=""width:500px;"">
  <p>What best describes how you currently feel?</p>
  </div>","45","html-slider-response","43","574519","0.0-5.0-4.6","22","1","2025-07-09 09:23:37","01610cd0009c79a99da7d0a3353eb402","216.205.168.23","Mozilla/5.0 (X11; CrOS x86_64 14541.0.0) AppleWebKit/537.36 (KHTML, like Gecko) Chrome/137.0.0.0 Safari/537.36","WebKit","Chrome","137.0.0.0","ChromeOS","14541.0.0","https://app.prolific.com/","en-GB,en-US;q=0.9,en;q=0.8","5a1dda5480acd8000104a12b","683db7602f5db6a34d12d064","686e34801a90edafb25eb437","1","5a1dda5480acd8000104a12b","1","2025-07-09T09:33:18.248Z","","","","","","","","","","","MotivationQ","","50","","","","","","","","","","","","","","","","","","","","","","","","","","","","",""
"","","","","ctl-task-cpt","44","643828","0.0-5.0-0.7","22","1","2025-07-09 09:23:37","01610cd0009c79a99da7d0a3353eb402","216.205.168.23","Mozilla/5.0 (X11; CrOS x86_64 14541.0.0) AppleWebKit/537.36 (KHTML, like Gecko) Chrome/137.0.0.0 Safari/537.36","WebKit","Chrome","137.0.0.0","ChromeOS","14541.0.0","https://app.prolific.com/","en-GB,en-US;q=0.9,en;q=0.8","5a1dda5480acd8000104a12b","683db7602f5db6a34d12d064","686e34801a90edafb25eb437","1","5a1dda5480acd8000104a12b","1","2025-07-09T09:34:27.557Z","","","","","","","","","","","","","","win-only","2","g1:SE,g2:NW","0.3","8","0","575865.4","2163.8","7179.1","66272.2","1","4","4","6","2","4","4","41","37","0.3106060606060606","1532.3","3000","1450","[""left"",""up""]","{""num_key_presses"":14,""num_perfect"":6,""num_errors"":0,""num_randdir"":8,""num_randdir_good_moves"":4,""num_whilered"":0,""num_whileblue"":0,""num_blue"":4,""num_good_moves"":10}","[295.22232142857143,301.12857142857143,0.9,295.22232142857143,301.12857142857143,111.2,295.22232142857143,301.12857142857143,217.1,295.22232142857143,301.12857142857143,322.7,295.22232142857143,301.12857142857143,435.5,295.22232142857143,301.12857142857143,543.1,359.22232142857143,346.12857142857143,646.3,96.22232142857143,104.12857142857143,763.6,22.222321428571426,-74.87142857142857,863.7,22.222321428571426,-75.87142857142857,966.8,22.222321428571426,-75.87142857142857,1067.2,29.222321428571426,-32.871428571428574,1185.1,35.222321428571426,0.12857142857142634,1291.8,41.222321428571426,12.128571428571426,1395.9,41.222321428571426,12.128571428571426,1499,41.222321428571426,12.128571428571426,1606.3,41.222321428571426,12.128571428571426,1709.2,41.222321428571426,12.128571428571426,1815.6,41.222321428571426,12.128571428571426,1926.5,41.222321428571426,12.128571428571426,2034.5,41.222321428571426,12.128571428571426,2145.4,41.222321428571426,12.128571428571426,2258.7,41.222321428571426,12.128571428571426,2370.1,41.222321428571426,12.128571428571426,2475.6,41.222321428571426,12.128571428571426,2580.5,41.222321428571426,12.128571428571426,2696.3,41.222321428571426,12.128571428571426,2806.8,41.222321428571426,12.128571428571426,2910.7,41.222321428571426,12.128571428571426,3021.6,41.222321428571426,12.128571428571426,3124.8,41.222321428571426,12.128571428571426,3228.9,41.222321428571426,12.128571428571426,3341.4,41.222321428571426,12.128571428571426,3452.9,41.222321428571426,12.128571428571426,3567.1,41.222321428571426,12.128571428571426,3676.7,41.222321428571426,12.128571428571426,3783.1,41.222321428571426,12.128571428571426,3883.6,41.222321428571426,12.128571428571426,3999.1,41.222321428571426,12.128571428571426,4108.1,41.222321428571426,12.128571428571426,4218.8,41.222321428571426,12.128571428571426,4321,41.222321428571426,12.128571428571426,4421.1,41.222321428571426,12.128571428571426,4531.1,41.222321428571426,12.128571428571426,4644.2,41.222321428571426,12.128571428571426,4752.2,41.222321428571426,12.128571428571426,4858.7,41.222321428571426,12.128571428571426,4971.7]","[1445.5,1445.5,1000,0,445.5,""smooth"",""left"",""left"",""good_move"",4697.8,3251,2473.8,1446.8,777.2,""smooth"",""left"",""left"",""good_move"",8180,3481.4,2660.7,4698.6,820.7,""oops"",""left"",""left"",""good_move"",12017.7,3837.1,2165.2,8180.6,1671.9,""smooth"",""up"",""up"",""good_move"",15470,3451.3,2355.2,12018.8,1096.1,""oops"",""up"",""down"",""bad_move"",18157,2685.8,2247.7,15471.2,438.1,""oops"",""up"",""down"",""bad_move"",31011.6,12853.5,2158.8,28466.9,385.9,""oops"",""up"",""down"",""bad_move"",33632.3,2620.1,2158.3,31012.3,461.8,""oops"",""up"",""right"",""bad_move"",36005.7,2372.3,1963.3,33633.4,409,""oops"",""up"",""up"",""good_move"",40025.2,4018.9,2356.6,36006.5,1662.2,""oops"",""up"",""up"",""good_move"",47739.4,7713.5,1989.5,45284.3,465.6,""smooth"",""up"",""up"",""good_move"",52925.5,5185.5,3295.9,47740,1889.6,""smooth"",""up"",""up"",""good_move"",55679.7,2753.5,2285.1,52926.3,468.3,""smooth"",""up"",""up"",""good_move"",58798.8,3118.3,2711.3,55680.6,406.9,""oops"",""left"",""left"",""good_move""]","",""
"3599","","<div style=""width:500px;"">
  <p>What determined the result of this run?</p>
  </div>","29","html-slider-response","45","647432","0.0-5.0-1.7","22","1","2025-07-09 09:23:37","01610cd0009c79a99da7d0a3353eb402","216.205.168.23","Mozilla/5.0 (X11; CrOS x86_64 14541.0.0) AppleWebKit/537.36 (KHTML, like Gecko) Chrome/137.0.0.0 Safari/537.36","WebKit","Chrome","137.0.0.0","ChromeOS","14541.0.0","https://app.prolific.com/","en-GB,en-US;q=0.9,en;q=0.8","5a1dda5480acd8000104a12b","683db7602f5db6a34d12d064","686e34801a90edafb25eb437","1","5a1dda5480acd8000104a12b","1","2025-07-09T09:34:31.161Z","","","","","","","","","","","AttribQ","","50","","","","","","","","","","","","","","","","","","","","","","","","","","","","",""
"5837","","<div style=""width:500px;"">
  <p>How much control did you have over the ball?</p>
  </div>","36","html-slider-response","46","653273","0.0-5.0-2.7","22","1","2025-07-09 09:23:37","01610cd0009c79a99da7d0a3353eb402","216.205.168.23","Mozilla/5.0 (X11; CrOS x86_64 14541.0.0) AppleWebKit/537.36 (KHTML, like Gecko) Chrome/137.0.0.0 Safari/537.36","WebKit","Chrome","137.0.0.0","ChromeOS","14541.0.0","https://app.prolific.com/","en-GB,en-US;q=0.9,en;q=0.8","5a1dda5480acd8000104a12b","683db7602f5db6a34d12d064","686e34801a90edafb25eb437","1","5a1dda5480acd8000104a12b","1","2025-07-09T09:34:37.002Z","","","","","","","","","","","ControlQ","","50","","","","","","","","","","","","","","","","","","","","","","","","","","","","",""
"2844","","<div style=""width:500px;"">
  <p>How would you describe your current emotional state?</p>
  </div>","33","html-slider-response","47","656121","0.0-5.0-3.7","22","1","2025-07-09 09:23:37","01610cd0009c79a99da7d0a3353eb402","216.205.168.23","Mozilla/5.0 (X11; CrOS x86_64 14541.0.0) AppleWebKit/537.36 (KHTML, like Gecko) Chrome/137.0.0.0 Safari/537.36","WebKit","Chrome","137.0.0.0","ChromeOS","14541.0.0","https://app.prolific.com/","en-GB,en-US;q=0.9,en;q=0.8","5a1dda5480acd8000104a12b","683db7602f5db6a34d12d064","686e34801a90edafb25eb437","1","5a1dda5480acd8000104a12b","1","2025-07-09T09:34:39.850Z","","","","","","","","","","","StressQ","","50","","","","","","","","","","","","","","","","","","","","","","","","","","","","",""
"1954","","<div style=""width:500px;"">
  <p>What best describes how you currently feel?</p>
  </div>","39","html-slider-response","48","658079","0.0-5.0-4.7","22","1","2025-07-09 09:23:37","01610cd0009c79a99da7d0a3353eb402","216.205.168.23","Mozilla/5.0 (X11; CrOS x86_64 14541.0.0) AppleWebKit/537.36 (KHTML, like Gecko) Chrome/137.0.0.0 Safari/537.36","WebKit","Chrome","137.0.0.0","ChromeOS","14541.0.0","https://app.prolific.com/","en-GB,en-US;q=0.9,en;q=0.8","5a1dda5480acd8000104a12b","683db7602f5db6a34d12d064","686e34801a90edafb25eb437","1","5a1dda5480acd8000104a12b","1","2025-07-09T09:34:41.808Z","","","","","","","","","","","MotivationQ","","50","","","","","","","","","","","","","","","","","","","","","","","","","","","","",""
"","","","","ctl-task-cpt","49","747884","0.0-5.0-0.8","22","1","2025-07-09 09:23:37","01610cd0009c79a99da7d0a3353eb402","216.205.168.23","Mozilla/5.0 (X11; CrOS x86_64 14541.0.0) AppleWebKit/537.36 (KHTML, like Gecko) Chrome/137.0.0.0 Safari/537.36","WebKit","Chrome","137.0.0.0","ChromeOS","14541.0.0","https://app.prolific.com/","en-GB,en-US;q=0.9,en;q=0.8","5a1dda5480acd8000104a12b","683db7602f5db6a34d12d064","686e34801a90edafb25eb437","1","5a1dda5480acd8000104a12b","1","2025-07-09T09:36:11.614Z","","","","","","","","","","","","","","win-only","0","g1:NW,g2:SE","0.2","9","0","659425","1028.3","6052","86778.3","1","4","4","6","2","4","4","45","41","0.3409090909090909","1068.3","3000","150","[""down"",""right""]","{""num_key_presses"":14,""num_perfect"":2,""num_errors"":0,""num_randdir"":12,""num_randdir_good_moves"":8,""num_whilered"":0,""num_whileblue"":0,""num_blue"":10,""num_good_moves"":10}","[301.22232142857143,298.12857142857143,0.5,301.22232142857143,298.12857142857143,119.4,301.22232142857143,298.12857142857143,222.7,301.22232142857143,298.12857142857143,325.9,301.22232142857143,298.12857142857143,428,399.22232142857143,380.12857142857143,534,473.22232142857143,459.12857142857143,645.8,494.22232142857143,532.1285714285714,746.9,507.22232142857143,535.1285714285714,860,507.22232142857143,535.1285714285714,972.2,507.22232142857143,535.1285714285714,1083,507.22232142857143,535.1285714285714,1194.9,507.22232142857143,535.1285714285714,1313.3,507.22232142857143,535.1285714285714,1415,507.22232142857143,535.1285714285714,1523.2,507.22232142857143,535.1285714285714,1624.7,507.22232142857143,535.1285714285714,1726.4,507.22232142857143,535.1285714285714,1831.5,507.22232142857143,535.1285714285714,1948.9,507.22232142857143,535.1285714285714,2051.3,507.22232142857143,535.1285714285714,2162.5,507.22232142857143,535.1285714285714,2262.6,507.22232142857143,535.1285714285714,2367.9,507.22232142857143,535.1285714285714,2477.5,507.22232142857143,535.1285714285714,2597.3,507.22232142857143,535.1285714285714,2714.5,507.22232142857143,535.1285714285714,2824.8,507.22232142857143,535.1285714285714,2930.5,507.22232142857143,535.1285714285714,3036.3,507.22232142857143,535.1285714285714,3151.9,507.22232142857143,535.1285714285714,3253.9,507.22232142857143,535.1285714285714,3367.8,507.22232142857143,535.1285714285714,3473.5,507.22232142857143,535.1285714285714,3583,507.22232142857143,535.1285714285714,3695,507.22232142857143,535.1285714285714,3809.1,507.22232142857143,535.1285714285714,3918.8,507.22232142857143,535.1285714285714,4024.6,507.22232142857143,535.1285714285714,4139.9,507.22232142857143,535.1285714285714,4254.5,507.22232142857143,535.1285714285714,4355.5,507.22232142857143,535.1285714285714,4470,507.22232142857143,535.1285714285714,4588.4,507.22232142857143,535.1285714285714,4692.4,507.22232142857143,535.1285714285714,4810.4,507.22232142857143,535.1285714285714,4928.4]","[10414,10414,2107.4,7796.9,509.7,""oops"",""right"",""right"",""good_move"",13539.7,3124.5,2559.5,10415.3,565,""oops"",""right"",""up"",""bad_move"",16709.8,3168.7,2085.4,13541.1,1083.4,""smooth"",""right"",""right"",""good_move"",20626.1,3915.5,3382.3,16710.7,533.1,""oops"",""right"",""right"",""good_move"",38303.2,17676.4,2702.8,34670.9,929.5,""oops"",""down"",""down"",""good_move"",45563.2,7258.9,2679.8,41943.2,940.2,""oops"",""down"",""up"",""bad_move"",51130.8,5566.7,2153,45564.1,3413.7,""smooth"",""down"",""down"",""good_move"",54123,2991.3,2476,51131.8,515.3,""oops"",""down"",""down"",""good_move"",56077,1953.3,1490.7,54123.8,462.5,""oops"",""down"",""up"",""bad_move"",64060.1,7982.5,3101.6,60006.6,952,""oops"",""down"",""down"",""good_move"",67728.1,3667.4,3096.5,64060.8,570.9,""oops"",""down"",""up"",""bad_move"",74939.8,7211,1700.1,71788.4,1451.4,""oops"",""down"",""down"",""good_move"",77711.8,2771.4,2158.7,74940.4,612.8,""oops"",""down"",""down"",""good_move"",80426.1,2713.3,2203.9,77712.8,509.4,""oops"",""down"",""down"",""good_move""]","",""
"5239","","<div style=""width:500px;"">
  <p>What determined the result of this run?</p>
  </div>","40","html-slider-response","50","753127","0.0-5.0-1.8","22","1","2025-07-09 09:23:37","01610cd0009c79a99da7d0a3353eb402","216.205.168.23","Mozilla/5.0 (X11; CrOS x86_64 14541.0.0) AppleWebKit/537.36 (KHTML, like Gecko) Chrome/137.0.0.0 Safari/537.36","WebKit","Chrome","137.0.0.0","ChromeOS","14541.0.0","https://app.prolific.com/","en-GB,en-US;q=0.9,en;q=0.8","5a1dda5480acd8000104a12b","683db7602f5db6a34d12d064","686e34801a90edafb25eb437","1","5a1dda5480acd8000104a12b","1","2025-07-09T09:36:16.856Z","","","","","","","","","","","AttribQ","","50","","","","","","","","","","","","","","","","","","","","","","","","","","","","",""
"5657","","<div style=""width:500px;"">
  <p>How much control did you have over the ball?</p>
  </div>","39","html-slider-response","51","758788","0.0-5.0-2.8","22","1","2025-07-09 09:23:37","01610cd0009c79a99da7d0a3353eb402","216.205.168.23","Mozilla/5.0 (X11; CrOS x86_64 14541.0.0) AppleWebKit/537.36 (KHTML, like Gecko) Chrome/137.0.0.0 Safari/537.36","WebKit","Chrome","137.0.0.0","ChromeOS","14541.0.0","https://app.prolific.com/","en-GB,en-US;q=0.9,en;q=0.8","5a1dda5480acd8000104a12b","683db7602f5db6a34d12d064","686e34801a90edafb25eb437","1","5a1dda5480acd8000104a12b","1","2025-07-09T09:36:22.518Z","","","","","","","","","","","ControlQ","","50","","","","","","","","","","","","","","","","","","","","","","","","","","","","",""
"2257","","<div style=""width:500px;"">
  <p>How would you describe your current emotional state?</p>
  </div>","42","html-slider-response","52","761050","0.0-5.0-3.8","22","1","2025-07-09 09:23:37","01610cd0009c79a99da7d0a3353eb402","216.205.168.23","Mozilla/5.0 (X11; CrOS x86_64 14541.0.0) AppleWebKit/537.36 (KHTML, like Gecko) Chrome/137.0.0.0 Safari/537.36","WebKit","Chrome","137.0.0.0","ChromeOS","14541.0.0","https://app.prolific.com/","en-GB,en-US;q=0.9,en;q=0.8","5a1dda5480acd8000104a12b","683db7602f5db6a34d12d064","686e34801a90edafb25eb437","1","5a1dda5480acd8000104a12b","1","2025-07-09T09:36:24.779Z","","","","","","","","","","","StressQ","","50","","","","","","","","","","","","","","","","","","","","","","","","","","","","",""
"2115","","<div style=""width:500px;"">
  <p>What best describes how you currently feel?</p>
  </div>","34","html-slider-response","53","763170","0.0-5.0-4.8","22","1","2025-07-09 09:23:37","01610cd0009c79a99da7d0a3353eb402","216.205.168.23","Mozilla/5.0 (X11; CrOS x86_64 14541.0.0) AppleWebKit/537.36 (KHTML, like Gecko) Chrome/137.0.0.0 Safari/537.36","WebKit","Chrome","137.0.0.0","ChromeOS","14541.0.0","https://app.prolific.com/","en-GB,en-US;q=0.9,en;q=0.8","5a1dda5480acd8000104a12b","683db7602f5db6a34d12d064","686e34801a90edafb25eb437","1","5a1dda5480acd8000104a12b","1","2025-07-09T09:36:26.899Z","","","","","","","","","","","MotivationQ","","50","","","","","","","","","","","","","","","","","","","","","","","","","","","","",""
"","","","","ctl-task-cpt","54","842733","0.0-5.0-0.9","22","1","2025-07-09 09:23:37","01610cd0009c79a99da7d0a3353eb402","216.205.168.23","Mozilla/5.0 (X11; CrOS x86_64 14541.0.0) AppleWebKit/537.36 (KHTML, like Gecko) Chrome/137.0.0.0 Safari/537.36","WebKit","Chrome","137.0.0.0","ChromeOS","14541.0.0","https://app.prolific.com/","en-GB,en-US;q=0.9,en;q=0.8","5a1dda5480acd8000104a12b","683db7602f5db6a34d12d064","686e34801a90edafb25eb437","1","5a1dda5480acd8000104a12b","1","2025-07-09T09:37:46.463Z","","","","","","","","","","","","","","win-only","1","g1:NE,g2:SW","0.4","10","0","764516.3","1778.9","6788.6","76519.6","1","4","8","6","1","1","1","46","45","0.3484848484848485","1892","3000","1155","[""up"",""right""]","{""num_key_presses"":16,""num_perfect"":7,""num_errors"":0,""num_randdir"":9,""num_randdir_good_moves"":3,""num_whilered"":0,""num_whileblue"":0,""num_blue"":4,""num_good_moves"":10}","[293.22232142857143,301.12857142857143,0.6,293.22232142857143,301.12857142857143,101.7,293.22232142857143,301.12857142857143,212.3,293.22232142857143,301.12857142857143,341,349.22232142857143,277.12857142857143,464.2,501.22232142857143,205.12857142857143,576.5,501.22232142857143,205.12857142857143,694.8,526.2223214285714,191.12857142857143,810.1,575.2223214285714,176.12857142857143,926.8,575.2223214285714,176.12857142857143,1043,556.2223214285714,117.12857142857143,1157.9,553.2223214285714,107.12857142857143,1258.1,553.2223214285714,107.12857142857143,1370,553.2223214285714,107.12857142857143,1472,553.2223214285714,107.12857142857143,1588.9,540.2223214285714,52.128571428571426,1695.9,540.2223214285714,52.128571428571426,1812.1,540.2223214285714,52.128571428571426,1912.2,540.2223214285714,52.128571428571426,2016.5,540.2223214285714,52.128571428571426,2132.4,540.2223214285714,52.128571428571426,2238.2,540.2223214285714,52.128571428571426,2353.9,540.2223214285714,52.128571428571426,2461.7,540.2223214285714,52.128571428571426,2572.9,540.2223214285714,52.128571428571426,2674.7,540.2223214285714,52.128571428571426,2780,540.2223214285714,52.128571428571426,2892.8,540.2223214285714,52.128571428571426,3001,540.2223214285714,52.128571428571426,3108.7,540.2223214285714,52.128571428571426,3226.3,540.2223214285714,52.128571428571426,3327.8,540.2223214285714,52.128571428571426,3440.9,540.2223214285714,52.128571428571426,3556.7,540.2223214285714,52.128571428571426,3659.3,540.2223214285714,52.128571428571426,3776.5,540.2223214285714,52.128571428571426,3897.4,540.2223214285714,52.128571428571426,4005.6,540.2223214285714,52.128571428571426,4120.2,540.2223214285714,52.128571428571426,4229.9,540.2223214285714,52.128571428571426,4344.9,540.2223214285714,52.128571428571426,4468.2,540.2223214285714,52.128571428571426,4580.9,540.2223214285714,52.128571428571426,4688.8,540.2223214285714,52.128571428571426,4810.8,540.2223214285714,52.128571428571426,4919.8]","[1581,1581,1000,0,581,""smooth"",""right"",""right"",""good_move"",4700.3,3118.1,2597.9,1582.2,520.2,""oops"",""right"",""left"",""bad_move"",11490.4,6788.9,2340.6,8682.3,467.6,""smooth"",""right"",""right"",""good_move"",14968.5,3477.4,3014.4,11491.2,462.9,""smooth"",""right"",""right"",""good_move"",18670.5,3701.4,3251.6,14969.1,449.8,""oops"",""up"",""down"",""bad_move"",26092.6,7421.1,3451.1,22175.3,466.2,""oops"",""up"",""down"",""bad_move"",28975.5,2882.3,2127.2,26093.3,755.1,""oops"",""up"",""down"",""bad_move"",31767.2,2790.8,2376.7,28976.4,414.1,""oops"",""up"",""up"",""good_move"",38949.8,7181.6,2798.8,35734.4,416.6,""smooth"",""up"",""up"",""good_move"",43306.3,4355.6,2080.2,38950.7,2275.4,""oops"",""up"",""down"",""bad_move"",46508.6,3201.5,2680.8,43307.1,520.7,""smooth"",""up"",""up"",""good_move"",50856.1,4346.9,1354.1,46509.3,2992.8,""oops"",""up"",""down"",""bad_move"",54215.5,3358.4,2830.7,50857.2,527.7,""oops"",""up"",""up"",""good_move"",57985.6,3769.2,2366.5,54216.4,1402.7,""smooth"",""up"",""up"",""good_move"",64788.8,6802.5,2282.5,62072.9,433.4,""smooth"",""up"",""up"",""good_move"",69292.3,4502.8,2399.7,64789.5,2103.1,""oops"",""up"",""up"",""good_move""]","",""
"4823","","<div style=""width:500px;"">
  <p>What determined the result of this run?</p>
  </div>","43","html-slider-response","55","847560","0.0-5.0-1.9","22","1","2025-07-09 09:23:37","01610cd0009c79a99da7d0a3353eb402","216.205.168.23","Mozilla/5.0 (X11; CrOS x86_64 14541.0.0) AppleWebKit/537.36 (KHTML, like Gecko) Chrome/137.0.0.0 Safari/537.36","WebKit","Chrome","137.0.0.0","ChromeOS","14541.0.0","https://app.prolific.com/","en-GB,en-US;q=0.9,en;q=0.8","5a1dda5480acd8000104a12b","683db7602f5db6a34d12d064","686e34801a90edafb25eb437","1","5a1dda5480acd8000104a12b","1","2025-07-09T09:37:51.290Z","","","","","","","","","","","AttribQ","","50","","","","","","","","","","","","","","","","","","","","","","","","","","","","",""
"2152","","<div style=""width:500px;"">
  <p>How much control did you have over the ball?</p>
  </div>","46","html-slider-response","56","849718","0.0-5.0-2.9","22","1","2025-07-09 09:23:37","01610cd0009c79a99da7d0a3353eb402","216.205.168.23","Mozilla/5.0 (X11; CrOS x86_64 14541.0.0) AppleWebKit/537.36 (KHTML, like Gecko) Chrome/137.0.0.0 Safari/537.36","WebKit","Chrome","137.0.0.0","ChromeOS","14541.0.0","https://app.prolific.com/","en-GB,en-US;q=0.9,en;q=0.8","5a1dda5480acd8000104a12b","683db7602f5db6a34d12d064","686e34801a90edafb25eb437","1","5a1dda5480acd8000104a12b","1","2025-07-09T09:37:53.447Z","","","","","","","","","","","ControlQ","","50","","","","","","","","","","","","","","","","","","","","","","","","","","","","",""
"2542","","<div style=""width:500px;"">
  <p>How would you describe your current emotional state?</p>
  </div>","38","html-slider-response","57","852265","0.0-5.0-3.9","22","1","2025-07-09 09:23:37","01610cd0009c79a99da7d0a3353eb402","216.205.168.23","Mozilla/5.0 (X11; CrOS x86_64 14541.0.0) AppleWebKit/537.36 (KHTML, like Gecko) Chrome/137.0.0.0 Safari/537.36","WebKit","Chrome","137.0.0.0","ChromeOS","14541.0.0","https://app.prolific.com/","en-GB,en-US;q=0.9,en;q=0.8","5a1dda5480acd8000104a12b","683db7602f5db6a34d12d064","686e34801a90edafb25eb437","1","5a1dda5480acd8000104a12b","1","2025-07-09T09:37:55.994Z","","","","","","","","","","","StressQ","","50","","","","","","","","","","","","","","","","","","","","","","","","","","","","",""
"2637","","<div style=""width:500px;"">
  <p>What best describes how you currently feel?</p>
  </div>","23","html-slider-response","58","854907","0.0-5.0-4.9","22","1","2025-07-09 09:23:37","01610cd0009c79a99da7d0a3353eb402","216.205.168.23","Mozilla/5.0 (X11; CrOS x86_64 14541.0.0) AppleWebKit/537.36 (KHTML, like Gecko) Chrome/137.0.0.0 Safari/537.36","WebKit","Chrome","137.0.0.0","ChromeOS","14541.0.0","https://app.prolific.com/","en-GB,en-US;q=0.9,en;q=0.8","5a1dda5480acd8000104a12b","683db7602f5db6a34d12d064","686e34801a90edafb25eb437","1","5a1dda5480acd8000104a12b","1","2025-07-09T09:37:58.637Z","","","","","","","","","","","MotivationQ","","50","","","","","","","","","","","","","","","","","","","","","","","","","","","","",""
"","","","","ctl-task-cpt","59","876796","0.0-5.0-0.10","22","1","2025-07-09 09:23:37","01610cd0009c79a99da7d0a3353eb402","216.205.168.23","Mozilla/5.0 (X11; CrOS x86_64 14541.0.0) AppleWebKit/537.36 (KHTML, like Gecko) Chrome/137.0.0.0 Safari/537.36","WebKit","Chrome","137.0.0.0","ChromeOS","14541.0.0","https://app.prolific.com/","en-GB,en-US;q=0.9,en;q=0.8","5a1dda5480acd8000104a12b","683db7602f5db6a34d12d064","686e34801a90edafb25eb437","1","5a1dda5480acd8000104a12b","1","2025-07-09T09:38:20.525Z","","","","","","","","","","","","","","win-only","2","g1:SE,g2:NW","0.5","11","0","856253.5","1205.2","6208.1","18853.1","1","4","8","6","1","1","1","47","46","0.3560606060606061","1973.8","3000","2615","[""down"",""right""]","{""num_key_presses"":4,""num_perfect"":4,""num_errors"":0,""num_randdir"":0,""num_randdir_good_moves"":0,""num_whilered"":0,""num_whileblue"":0,""num_blue"":1,""num_good_moves"":4}","[289.22232142857143,295.12857142857143,0.6,289.22232142857143,295.12857142857143,103.5,289.22232142857143,295.12857142857143,203.6,289.22232142857143,295.12857142857143,309.9,289.22232142857143,295.12857142857143,414.6,342.22232142857143,362.12857142857143,521.8,418.22232142857143,424.12857142857143,644.8,418.22232142857143,424.12857142857143,748.3,418.22232142857143,424.12857142857143,858.7,443.22232142857143,450.12857142857143,963.4,478.22232142857143,483.12857142857143,1073.4,488.22232142857143,487.12857142857143,1181.7,488.22232142857143,487.12857142857143,1287.6,488.22232142857143,487.12857142857143,1393.1,534.2223214285714,522.1285714285714,1494.5,559.2223214285714,542.1285714285714,1611.8,560.2223214285714,544.1285714285714,1721.7,560.2223214285714,544.1285714285714,1831.1,560.2223214285714,544.1285714285714,1942.5,560.2223214285714,544.1285714285714,2060,560.2223214285714,544.1285714285714,2168.7,560.2223214285714,544.1285714285714,2286.1,560.2223214285714,544.1285714285714,2389.3,560.2223214285714,544.1285714285714,2503.6,560.2223214285714,544.1285714285714,2620,560.2223214285714,544.1285714285714,2731.9,560.2223214285714,544.1285714285714,2838.1,560.2223214285714,544.1285714285714,2961,560.2223214285714,544.1285714285714,3065.3,560.2223214285714,544.1285714285714,3184.4,560.2223214285714,544.1285714285714,3292.5,560.2223214285714,544.1285714285714,3416.1,560.2223214285714,544.1285714285714,3537,560.2223214285714,544.1285714285714,3647.5,560.2223214285714,544.1285714285714,3753.1,560.2223214285714,544.1285714285714,3873.7,560.2223214285714,544.1285714285714,3975.6,560.2223214285714,544.1285714285714,4090,560.2223214285714,544.1285714285714,4211.6,560.2223214285714,544.1285714285714,4313.5,560.2223214285714,544.1285714285714,4427.1,560.2223214285714,544.1285714285714,4543.7,560.2223214285714,544.1285714285714,4663.1,560.2223214285714,544.1285714285714,4780.7,560.2223214285714,544.1285714285714,4893.4]","[4744.4,4744.4,2197.9,2022.1,524.4,""smooth"",""right"",""right"",""good_move"",7375.4,2629.9,2054.9,4745.5,575,""smooth"",""right"",""right"",""good_move"",9462.5,2086.6,1571.8,7376.1,514.7,""smooth"",""down"",""down"",""good_move"",12270.8,2807.3,2373.5,9463.6,433.8,""smooth"",""down"",""down"",""good_move""]","",""
"4333","","<div style=""width:500px;"">
  <p>What determined the result of this run?</p>
  </div>","85","html-slider-response","60","881133","0.0-5.0-1.10","22","1","2025-07-09 09:23:37","01610cd0009c79a99da7d0a3353eb402","216.205.168.23","Mozilla/5.0 (X11; CrOS x86_64 14541.0.0) AppleWebKit/537.36 (KHTML, like Gecko) Chrome/137.0.0.0 Safari/537.36","WebKit","Chrome","137.0.0.0","ChromeOS","14541.0.0","https://app.prolific.com/","en-GB,en-US;q=0.9,en;q=0.8","5a1dda5480acd8000104a12b","683db7602f5db6a34d12d064","686e34801a90edafb25eb437","1","5a1dda5480acd8000104a12b","1","2025-07-09T09:38:24.862Z","","","","","","","","","","","AttribQ","","50","","","","","","","","","","","","","","","","","","","","","","","","","","","","",""
"3300","","<div style=""width:500px;"">
  <p>How much control did you have over the ball?</p>
  </div>","88","html-slider-response","61","884437","0.0-5.0-2.10","22","1","2025-07-09 09:23:37","01610cd0009c79a99da7d0a3353eb402","216.205.168.23","Mozilla/5.0 (X11; CrOS x86_64 14541.0.0) AppleWebKit/537.36 (KHTML, like Gecko) Chrome/137.0.0.0 Safari/537.36","WebKit","Chrome","137.0.0.0","ChromeOS","14541.0.0","https://app.prolific.com/","en-GB,en-US;q=0.9,en;q=0.8","5a1dda5480acd8000104a12b","683db7602f5db6a34d12d064","686e34801a90edafb25eb437","1","5a1dda5480acd8000104a12b","1","2025-07-09T09:38:28.167Z","","","","","","","","","","","ControlQ","","50","","","","","","","","","","","","","","","","","","","","","","","","","","","","",""
"2198","","<div style=""width:500px;"">
  <p>How would you describe your current emotional state?</p>
  </div>","40","html-slider-response","62","886639","0.0-5.0-3.10","22","1","2025-07-09 09:23:37","01610cd0009c79a99da7d0a3353eb402","216.205.168.23","Mozilla/5.0 (X11; CrOS x86_64 14541.0.0) AppleWebKit/537.36 (KHTML, like Gecko) Chrome/137.0.0.0 Safari/537.36","WebKit","Chrome","137.0.0.0","ChromeOS","14541.0.0","https://app.prolific.com/","en-GB,en-US;q=0.9,en;q=0.8","5a1dda5480acd8000104a12b","683db7602f5db6a34d12d064","686e34801a90edafb25eb437","1","5a1dda5480acd8000104a12b","1","2025-07-09T09:38:30.368Z","","","","","","","","","","","StressQ","","50","","","","","","","","","","","","","","","","","","","","","","","","","","","","",""
"2632","","<div style=""width:500px;"">
  <p>What best describes how you currently feel?</p>
  </div>","43","html-slider-response","63","889274","0.0-5.0-4.10","22","1","2025-07-09 09:23:37","01610cd0009c79a99da7d0a3353eb402","216.205.168.23","Mozilla/5.0 (X11; CrOS x86_64 14541.0.0) AppleWebKit/537.36 (KHTML, like Gecko) Chrome/137.0.0.0 Safari/537.36","WebKit","Chrome","137.0.0.0","ChromeOS","14541.0.0","https://app.prolific.com/","en-GB,en-US;q=0.9,en;q=0.8","5a1dda5480acd8000104a12b","683db7602f5db6a34d12d064","686e34801a90edafb25eb437","1","5a1dda5480acd8000104a12b","1","2025-07-09T09:38:33.004Z","","","","","","","","","","","MotivationQ","","50","","","","","","","","","","","","","","","","","","","","","","","","","","","","",""
"","","","","ctl-task-cpt","64","942946","0.0-5.0-0.11","22","1","2025-07-09 09:23:37","01610cd0009c79a99da7d0a3353eb402","216.205.168.23","Mozilla/5.0 (X11; CrOS x86_64 14541.0.0) AppleWebKit/537.36 (KHTML, like Gecko) Chrome/137.0.0.0 Safari/537.36","WebKit","Chrome","137.0.0.0","ChromeOS","14541.0.0","https://app.prolific.com/","en-GB,en-US;q=0.9,en;q=0.8","5a1dda5480acd8000104a12b","683db7602f5db6a34d12d064","686e34801a90edafb25eb437","1","5a1dda5480acd8000104a12b","1","2025-07-09T09:39:26.675Z","","","","","","","","","","","","","","win-only","2","g1:SE,g2:NW","0.6","12","0","890620.3","1588.6","6602","50641.6","1","4","4","6","2","4","3","50","47","0.3787878787878788","1336.4","3000","2185","[""left"",""up""]","{""num_key_presses"":10,""num_perfect"":5,""num_errors"":1,""num_randdir"":4,""num_randdir_good_moves"":2,""num_whilered"":0,""num_whileblue"":1,""num_blue"":2,""num_good_moves"":8}","[298.22232142857143,298.12857142857143,0.6,298.22232142857143,298.12857142857143,116.3,298.22232142857143,298.12857142857143,240.3,298.22232142857143,298.12857142857143,350.8,298.22232142857143,298.12857142857143,473.9,328.22232142857143,395.12857142857143,594.1,336.22232142857143,414.12857142857143,706.3,14.222321428571426,93.12857142857143,833.1,-20.777678571428574,48.128571428571426,957,16.222321428571426,71.12857142857143,1083.4,36.222321428571426,76.12857142857143,1187.3,36.222321428571426,76.12857142857143,1301.7,36.222321428571426,76.12857142857143,1432.5,36.222321428571426,76.12857142857143,1555.8,36.222321428571426,76.12857142857143,1674.2,36.222321428571426,76.12857142857143,1802.9,36.222321428571426,76.12857142857143,1919.6,36.222321428571426,76.12857142857143,2031.5,36.222321428571426,76.12857142857143,2154.3,36.222321428571426,76.12857142857143,2264.3,36.222321428571426,76.12857142857143,2378.7,36.222321428571426,76.12857142857143,2496.3,36.222321428571426,76.12857142857143,2606.3,36.222321428571426,76.12857142857143,2725.9,36.222321428571426,76.12857142857143,2831.4,36.222321428571426,76.12857142857143,2949.7,36.222321428571426,76.12857142857143,3068.8,36.222321428571426,76.12857142857143,3187.8,36.222321428571426,76.12857142857143,3301,36.222321428571426,76.12857142857143,3417.4,36.222321428571426,76.12857142857143,3526.6,36.222321428571426,76.12857142857143,3641.4,36.222321428571426,76.12857142857143,3756,36.222321428571426,76.12857142857143,3865,36.222321428571426,76.12857142857143,3965.2,36.222321428571426,76.12857142857143,4072.5,36.222321428571426,76.12857142857143,4172.7,36.222321428571426,76.12857142857143,4276.4,36.222321428571426,76.12857142857143,4384.3,36.222321428571426,76.12857142857143,4501.2,36.222321428571426,76.12857142857143,4623.3,36.222321428571426,76.12857142857143,4724,36.222321428571426,76.12857142857143,4831,36.222321428571426,76.12857142857143,4952.2]","[1432.2,1432.2,1000,0,432.2,""oops"",""left"",""left"",""good_move"",5349,3915.9,2685.4,1433.1,1230.5,""oops"",""left"",""down"",""bad_move"",8931.1,3580.9,3172.8,5350.2,408.1,""oops"",""left"",""right"",""bad_move"",12383.4,3451.1,3082.1,8932.3,369.1,""while_blue"",""left"",""up"",""good_move"",16814.5,4429.5,2865.3,12385,1564.2,""oops"",""left"",""up"",""good_move"",22130.8,5315.6,2682,16815.3,2633.6,""smooth"",""left"",""left"",""good_move"",27290.8,5159.2,2605.1,22131.6,2554.1,""smooth"",""left"",""left"",""good_move"",34280.9,6989.4,1781.6,32038.4,460.9,""smooth"",""left"",""left"",""good_move"",39541.1,5259.5,2731.2,34281.6,2528.3,""smooth"",""up"",""up"",""good_move"",43602.4,4060.4,2744.1,39542,1316.3,""smooth"",""up"",""up"",""good_move""]","",""
"7254","","<div style=""width:500px;"">
  <p>What determined the result of this run?</p>
  </div>","38","html-slider-response","65","950204","0.0-5.0-1.11","22","1","2025-07-09 09:23:37","01610cd0009c79a99da7d0a3353eb402","216.205.168.23","Mozilla/5.0 (X11; CrOS x86_64 14541.0.0) AppleWebKit/537.36 (KHTML, like Gecko) Chrome/137.0.0.0 Safari/537.36","WebKit","Chrome","137.0.0.0","ChromeOS","14541.0.0","https://app.prolific.com/","en-GB,en-US;q=0.9,en;q=0.8","5a1dda5480acd8000104a12b","683db7602f5db6a34d12d064","686e34801a90edafb25eb437","1","5a1dda5480acd8000104a12b","1","2025-07-09T09:39:33.933Z","","","","","","","","","","","AttribQ","","50","","","","","","","","","","","","","","","","","","","","","","","","","","","","",""
"5900","","<div style=""width:500px;"">
  <p>How much control did you have over the ball?</p>
  </div>","58","html-slider-response","66","956107","0.0-5.0-2.11","22","1","2025-07-09 09:23:37","01610cd0009c79a99da7d0a3353eb402","216.205.168.23","Mozilla/5.0 (X11; CrOS x86_64 14541.0.0) AppleWebKit/537.36 (KHTML, like Gecko) Chrome/137.0.0.0 Safari/537.36","WebKit","Chrome","137.0.0.0","ChromeOS","14541.0.0","https://app.prolific.com/","en-GB,en-US;q=0.9,en;q=0.8","5a1dda5480acd8000104a12b","683db7602f5db6a34d12d064","686e34801a90edafb25eb437","1","5a1dda5480acd8000104a12b","1","2025-07-09T09:39:39.837Z","","","","","","","","","","","ControlQ","","50","","","","","","","","","","","","","","","","","","","","","","","","","","","","",""
"2447","","<div style=""width:500px;"">
  <p>How would you describe your current emotional state?</p>
  </div>","34","html-slider-response","67","958559","0.0-5.0-3.11","22","1","2025-07-09 09:23:37","01610cd0009c79a99da7d0a3353eb402","216.205.168.23","Mozilla/5.0 (X11; CrOS x86_64 14541.0.0) AppleWebKit/537.36 (KHTML, like Gecko) Chrome/137.0.0.0 Safari/537.36","WebKit","Chrome","137.0.0.0","ChromeOS","14541.0.0","https://app.prolific.com/","en-GB,en-US;q=0.9,en;q=0.8","5a1dda5480acd8000104a12b","683db7602f5db6a34d12d064","686e34801a90edafb25eb437","1","5a1dda5480acd8000104a12b","1","2025-07-09T09:39:42.288Z","","","","","","","","","","","StressQ","","50","","","","","","","","","","","","","","","","","","","","","","","","","","","","",""
"2072","","<div style=""width:500px;"">
  <p>What best describes how you currently feel?</p>
  </div>","27","html-slider-response","68","960636","0.0-5.0-4.11","22","1","2025-07-09 09:23:37","01610cd0009c79a99da7d0a3353eb402","216.205.168.23","Mozilla/5.0 (X11; CrOS x86_64 14541.0.0) AppleWebKit/537.36 (KHTML, like Gecko) Chrome/137.0.0.0 Safari/537.36","WebKit","Chrome","137.0.0.0","ChromeOS","14541.0.0","https://app.prolific.com/","en-GB,en-US;q=0.9,en;q=0.8","5a1dda5480acd8000104a12b","683db7602f5db6a34d12d064","686e34801a90edafb25eb437","1","5a1dda5480acd8000104a12b","1","2025-07-09T09:39:44.365Z","","","","","","","","","","","MotivationQ","","50","","","","","","","","","","","","","","","","","","","","","","","","","","","","",""
"","","","","ctl-task-cpt","69","1013653","0.0-5.0-0.12","22","1","2025-07-09 09:23:37","01610cd0009c79a99da7d0a3353eb402","216.205.168.23","Mozilla/5.0 (X11; CrOS x86_64 14541.0.0) AppleWebKit/537.36 (KHTML, like Gecko) Chrome/137.0.0.0 Safari/537.36","WebKit","Chrome","137.0.0.0","ChromeOS","14541.0.0","https://app.prolific.com/","en-GB,en-US;q=0.9,en;q=0.8","5a1dda5480acd8000104a12b","683db7602f5db6a34d12d064","686e34801a90edafb25eb437","1","5a1dda5480acd8000104a12b","1","2025-07-09T09:40:37.382Z","","","","","","","","","","","","","","win-only","3","g1:SW,g2:NE","0.7","13","0","961982.7","1152","6168.1","49973.2","1","4","4","6","2","4","4","54","50","0.4090909090909091","1559.7","3000","2135","[""up"",""right""]","{""num_key_presses"":10,""num_perfect"":7,""num_errors"":0,""num_randdir"":3,""num_randdir_good_moves"":1,""num_whilered"":0,""num_whileblue"":0,""num_blue"":2,""num_good_moves"":8}","[297.22232142857143,301.12857142857143,0.7,297.22232142857143,301.12857142857143,131.2,297.22232142857143,301.12857142857143,261,291.22232142857143,308.12857142857143,362,222.22232142857143,482.12857142857143,471.5,219.22232142857143,497.12857142857143,573.8,189.22232142857143,493.12857142857143,677.2,558.2223214285714,155.12857142857143,802,553.2223214285714,153.12857142857143,904.7,539.2223214285714,101.12857142857143,1019.3,539.2223214285714,101.12857142857143,1138.7,539.2223214285714,101.12857142857143,1239.6,545.2223214285714,73.12857142857143,1341,545.2223214285714,64.12857142857143,1459,545.2223214285714,64.12857142857143,1571.5,545.2223214285714,64.12857142857143,1674.8,545.2223214285714,64.12857142857143,1777.3,545.2223214285714,64.12857142857143,1898.7,545.2223214285714,64.12857142857143,2010,545.2223214285714,64.12857142857143,2110.8,545.2223214285714,64.12857142857143,2218.9,545.2223214285714,64.12857142857143,2320.9,545.2223214285714,64.12857142857143,2427.3,545.2223214285714,64.12857142857143,2546.8,545.2223214285714,64.12857142857143,2651.3,545.2223214285714,64.12857142857143,2754.3,545.2223214285714,64.12857142857143,2857.4,545.2223214285714,64.12857142857143,2963.3,545.2223214285714,64.12857142857143,3067,545.2223214285714,64.12857142857143,3171.5,545.2223214285714,64.12857142857143,3273.2,545.2223214285714,64.12857142857143,3377.2,545.2223214285714,64.12857142857143,3481.4,545.2223214285714,64.12857142857143,3585.3,545.2223214285714,64.12857142857143,3689.4,545.2223214285714,64.12857142857143,3793.7,545.2223214285714,64.12857142857143,3905.3,545.2223214285714,64.12857142857143,4017.2,545.2223214285714,64.12857142857143,4127.5,545.2223214285714,64.12857142857143,4238.6,545.2223214285714,64.12857142857143,4353.5,545.2223214285714,64.12857142857143,4463.3,545.2223214285714,64.12857142857143,4581.7,545.2223214285714,64.12857142857143,4694.7,545.2223214285714,64.12857142857143,4815.4,545.2223214285714,64.12857142857143,4929.1]","[4155.6,4155.6,1600.1,2017.8,537.7,""smooth"",""right"",""right"",""good_move"",7185.3,3028.6,2513.5,4156.7,515.2,""oops"",""right"",""up"",""good_move"",12003.3,4816.9,2515.8,7186.4,2301.1,""smooth"",""right"",""right"",""good_move"",15064.9,3060.9,2478.3,12004,582.6,""smooth"",""right"",""right"",""good_move"",18319.1,3253.4,2785.8,15065.7,467.6,""smooth"",""up"",""up"",""good_move"",23574.4,5254.7,1820.2,18319.7,3434.5,""oops"",""up"",""down"",""bad_move"",30364.1,6788.7,2513,27184.5,666.6,""smooth"",""up"",""up"",""good_move"",35853.4,5488.6,2655.9,30364.8,2832.7,""oops"",""up"",""down"",""bad_move"",38748.2,2894.1,2408,35854.2,486,""smooth"",""up"",""up"",""good_move"",43422.9,4673.7,2311.7,38749.2,2362,""smooth"",""up"",""up"",""good_move""]","",""
"4043","","<div style=""width:500px;"">
  <p>What determined the result of this run?</p>
  </div>","64","html-slider-response","70","1017700","0.0-5.0-1.12","22","1","2025-07-09 09:23:37","01610cd0009c79a99da7d0a3353eb402","216.205.168.23","Mozilla/5.0 (X11; CrOS x86_64 14541.0.0) AppleWebKit/537.36 (KHTML, like Gecko) Chrome/137.0.0.0 Safari/537.36","WebKit","Chrome","137.0.0.0","ChromeOS","14541.0.0","https://app.prolific.com/","en-GB,en-US;q=0.9,en;q=0.8","5a1dda5480acd8000104a12b","683db7602f5db6a34d12d064","686e34801a90edafb25eb437","1","5a1dda5480acd8000104a12b","1","2025-07-09T09:40:41.429Z","","","","","","","","","","","AttribQ","","50","","","","","","","","","","","","","","","","","","","","","","","","","","","","",""
"5263","","<div style=""width:500px;"">
  <p>How much control did you have over the ball?</p>
  </div>","66","html-slider-response","71","1022966","0.0-5.0-2.12","22","1","2025-07-09 09:23:37","01610cd0009c79a99da7d0a3353eb402","216.205.168.23","Mozilla/5.0 (X11; CrOS x86_64 14541.0.0) AppleWebKit/537.36 (KHTML, like Gecko) Chrome/137.0.0.0 Safari/537.36","WebKit","Chrome","137.0.0.0","ChromeOS","14541.0.0","https://app.prolific.com/","en-GB,en-US;q=0.9,en;q=0.8","5a1dda5480acd8000104a12b","683db7602f5db6a34d12d064","686e34801a90edafb25eb437","1","5a1dda5480acd8000104a12b","1","2025-07-09T09:40:46.696Z","","","","","","","","","","","ControlQ","","50","","","","","","","","","","","","","","","","","","","","","","","","","","","","",""
"7123","","<div style=""width:500px;"">
  <p>How would you describe your current emotional state?</p>
  </div>","67","html-slider-response","72","1030094","0.0-5.0-3.12","22","1","2025-07-09 09:23:37","01610cd0009c79a99da7d0a3353eb402","216.205.168.23","Mozilla/5.0 (X11; CrOS x86_64 14541.0.0) AppleWebKit/537.36 (KHTML, like Gecko) Chrome/137.0.0.0 Safari/537.36","WebKit","Chrome","137.0.0.0","ChromeOS","14541.0.0","https://app.prolific.com/","en-GB,en-US;q=0.9,en;q=0.8","5a1dda5480acd8000104a12b","683db7602f5db6a34d12d064","686e34801a90edafb25eb437","1","5a1dda5480acd8000104a12b","1","2025-07-09T09:40:53.823Z","","","","","","","","","","","StressQ","","50","","","","","","","","","","","","","","","","","","","","","","","","","","","","",""
"3064","","<div style=""width:500px;"">
  <p>What best describes how you currently feel?</p>
  </div>","38","html-slider-response","73","1033162","0.0-5.0-4.12","22","1","2025-07-09 09:23:37","01610cd0009c79a99da7d0a3353eb402","216.205.168.23","Mozilla/5.0 (X11; CrOS x86_64 14541.0.0) AppleWebKit/537.36 (KHTML, like Gecko) Chrome/137.0.0.0 Safari/537.36","WebKit","Chrome","137.0.0.0","ChromeOS","14541.0.0","https://app.prolific.com/","en-GB,en-US;q=0.9,en;q=0.8","5a1dda5480acd8000104a12b","683db7602f5db6a34d12d064","686e34801a90edafb25eb437","1","5a1dda5480acd8000104a12b","1","2025-07-09T09:40:56.892Z","","","","","","","","","","","MotivationQ","","50","","","","","","","","","","","","","","","","","","","","","","","","","","","","",""
"","","","","ctl-task-cpt","74","1063798","0.0-5.0-0.13","22","1","2025-07-09 09:23:37","01610cd0009c79a99da7d0a3353eb402","216.205.168.23","Mozilla/5.0 (X11; CrOS x86_64 14541.0.0) AppleWebKit/537.36 (KHTML, like Gecko) Chrome/137.0.0.0 Safari/537.36","WebKit","Chrome","137.0.0.0","ChromeOS","14541.0.0","https://app.prolific.com/","en-GB,en-US;q=0.9,en;q=0.8","5a1dda5480acd8000104a12b","683db7602f5db6a34d12d064","686e34801a90edafb25eb437","1","5a1dda5480acd8000104a12b","1","2025-07-09T09:41:27.527Z","","","","","","","","","","","","","","win-only","0","g1:NW,g2:SE","0.8","14","0","1034508.4","2582.7","7607.8","27599.1","1","4","8","6","2","8","8","62","54","0.4696969696969697","2737.3","3000","2515","[""down"",""right""]","{""num_key_presses"":6,""num_perfect"":5,""num_errors"":0,""num_randdir"":1,""num_randdir_good_moves"":1,""num_whilered"":0,""num_whileblue"":0,""num_blue"":1,""num_good_moves"":6}","[294.22232142857143,299.12857142857143,0.8,294.22232142857143,299.12857142857143,104,294.22232142857143,299.12857142857143,225.2,294.22232142857143,299.12857142857143,355,294.22232142857143,299.12857142857143,476.8,294.22232142857143,299.12857142857143,584.5,487.22232142857143,480.12857142857143,699.6,547.2223214285714,531.1285714285714,830.8,547.2223214285714,531.1285714285714,939.5,539.2223214285714,532.1285714285714,1042.2,534.2223214285714,532.1285714285714,1173,257.22232142857143,356.12857142857143,1277.4,64.22232142857143,155.12857142857143,1410.6,61.222321428571426,141.12857142857143,1529.4,61.222321428571426,141.12857142857143,1647.4,55.222321428571426,107.12857142857143,1775.6,59.222321428571426,91.12857142857143,1894.5,325.22232142857143,322.12857142857143,1994.5,452.22232142857143,458.12857142857143,2102.9,452.22232142857143,458.12857142857143,2223.5,452.22232142857143,458.12857142857143,2327.4,503.22232142857143,520.1285714285714,2430.5,528.2223214285714,528.1285714285714,2551.2,530.2223214285714,528.1285714285714,2652.5,530.2223214285714,528.1285714285714,2777.5,530.2223214285714,528.1285714285714,2897.6,530.2223214285714,528.1285714285714,3025,530.2223214285714,528.1285714285714,3139.7,530.2223214285714,528.1285714285714,3268.6,530.2223214285714,528.1285714285714,3377.8,530.2223214285714,528.1285714285714,3506.5,530.2223214285714,528.1285714285714,3612.6,530.2223214285714,528.1285714285714,3716.2,530.2223214285714,528.1285714285714,3816.7,530.2223214285714,528.1285714285714,3921.7,530.2223214285714,528.1285714285714,4023.8,530.2223214285714,528.1285714285714,4126.3,530.2223214285714,528.1285714285714,4231.4,530.2223214285714,528.1285714285714,4335.9,530.2223214285714,528.1285714285714,4470.6,530.2223214285714,528.1285714285714,4579.6,530.2223214285714,528.1285714285714,4713.7,530.2223214285714,528.1285714285714,4821,530.2223214285714,528.1285714285714,4928.3]","[4283.5,4283.5,1763.5,2034.2,485.8,""smooth"",""down"",""down"",""good_move"",7717.6,3432.7,2834.4,4284.9,598.3,""smooth"",""down"",""down"",""good_move"",10469.2,2750.9,2270.2,7718.3,480.7,""smooth"",""down"",""down"",""good_move"",14024.7,3554.7,3097.8,10470,456.9,""smooth"",""right"",""right"",""good_move"",16674.4,2648.7,2165.4,14025.7,483.3,""oops"",""right"",""right"",""good_move"",19116.3,2441.1,1805.8,16675.2,635.3,""smooth"",""right"",""right"",""good_move""]","",""
"2454","","<div style=""width:500px;"">
  <p>What determined the result of this run?</p>
