"rt","response_timestamp","stimulus","response","trial_type","trial_index","time_elapsed","internal_node_id","run_id","condition","recorded_at","source_code_version","ip","user_agent","device","browser","browser_version","platform","platform_version","referer","accept_language","PROLIFIC_PID","STUDY_ID","SESSION_ID","WEEK","prolific_id","week","realtime","success","responses","item_order","radio_event_ids","radio_event_times","key_event_times","mouse_event_times","straightlining","zigzagging","honeypot","eventType","view_history","slider_start","which_type","canvas_config","goals_layout","control_level","trial_number","tutorial_trial_number","trial_start_time","phase1_start_time","phase2_start_time","phase3_start_time","goal_1_value","goal_1_distance","goal_2_value","goal_2_distance","goal_selected","outcome","outcome_total","participant_final_score","participant_initial_score","participant_final_score_prop","goal_choice_rt","allocated_time","allocated_time_remaining","goal_direction","counts","mouse_movements","key_presses","question_order","question_id"
"238673","1752050601897","<p style='font-size:40px;line-height:1.25'><strong>Welcome to the experiment!</strong></p><p style='font-size:1.1em;line-height:1.25'>Thank you for participanting in our experiment again! You will be asked to play the Dysfunctional Ball Game again. We will briefly recap the rules before we start.</p><p style='font-size:1.1em;line-height:1.25'>Press <strong>Next</strong> to continue.</p>","0","custom-html-button-response","0","238678","0.0-0.0","9","1","2025-07-09 08:39:21","01610cd0009c79a99da7d0a3353eb402","165.165.217.98","Mozilla/5.0 (Windows NT 10.0; Win64; x64) AppleWebKit/537.36 (KHTML, like Gecko) Chrome/137.0.0.0 Safari/537.36","WebKit","Chrome","137.0.0.0","Windows","10.0","https://app.prolific.com/","en-US,en;q=0.9","665f10dc49cd980fdf304c19","683db7602f5db6a34d12d064","686e2aa54427125a23f140a2","1","665f10dc49cd980fdf304c19","1","2025-07-09T08:43:21.902Z","","","","","","","","","","","","","","","","","","","","","","","","","","","","","","","","","","","","","","","","","",""
"113301","","","","fullscreen","1","352990","0.0-1.0","9","1","2025-07-09 08:39:21","01610cd0009c79a99da7d0a3353eb402","165.165.217.98","Mozilla/5.0 (Windows NT 10.0; Win64; x64) AppleWebKit/537.36 (KHTML, like Gecko) Chrome/137.0.0.0 Safari/537.36","WebKit","Chrome","137.0.0.0","Windows","10.0","https://app.prolific.com/","en-US,en;q=0.9","665f10dc49cd980fdf304c19","683db7602f5db6a34d12d064","686e2aa54427125a23f140a2","1","665f10dc49cd980fdf304c19","1","","true","","","","","","","","","","","","","","","","","","","","","","","","","","","","","","","","","","","","","","","","",""
"1456","1752050717672","<p style='font-size:1.1em;line-height:1.25'>In the following, we will ask you a few questions relating to your feelings in the last 24 hours.<br></p><p style='font-size:1.1em;line-height:1.25'>Press the <strong>Next</strong> button to continue.</p>","0","custom-html-button-response","2","354449","0.0-2.0-0.0","9","1","2025-07-09 08:39:21","01610cd0009c79a99da7d0a3353eb402","165.165.217.98","Mozilla/5.0 (Windows NT 10.0; Win64; x64) AppleWebKit/537.36 (KHTML, like Gecko) Chrome/137.0.0.0 Safari/537.36","WebKit","Chrome","137.0.0.0","Windows","10.0","https://app.prolific.com/","en-US,en;q=0.9","665f10dc49cd980fdf304c19","683db7602f5db6a34d12d064","686e2aa54427125a23f140a2","1","665f10dc49cd980fdf304c19","1","2025-07-09T08:45:17.672Z","","","","","","","","","","","","","","","","","","","","","","","","","","","","","","","","","","","","","","","","","",""
"48318.39999997616","","","","survey-template","3","402775","0.0-2.0-1.0","9","1","2025-07-09 08:39:21","01610cd0009c79a99da7d0a3353eb402","165.165.217.98","Mozilla/5.0 (Windows NT 10.0; Win64; x64) AppleWebKit/537.36 (KHTML, like Gecko) Chrome/137.0.0.0 Safari/537.36","WebKit","Chrome","137.0.0.0","Windows","10.0","https://app.prolific.com/","en-US,en;q=0.9","665f10dc49cd980fdf304c19","683db7602f5db6a34d12d064","686e2aa54427125a23f140a2","1","665f10dc49cd980fdf304c19","1","2025-07-09T08:46:05.998Z","","{""Q01"":""2"",""Q02"":""3"",""Q03"":""3"",""Q04"":""4"",""Q05"":""2"",""Q06"":""4"",""Q07"":""2"",""Q08"":""4"",""Q09"":""4"",""Q10"":""2"",""Q11"":""4"",""Q12"":""1"",""Q13"":""5"",""Q14"":""1"",""Q15"":""0"",""Q16"":""3"",""Q17"":""4"",""Q18"":""1"",""Q19"":""0"",""Q20"":""0"",""Q21"":""0"",""Q22"":""0""}","[0,1,2,3,4,5,6,7,8,9,10,11,12,13,14,15,16,17,18,19,20,21]","[""Q01"",""Q02"",""Q03"",""Q04"",""Q05"",""Q06"",""Q07"",""Q08"",""Q09"",""Q10"",""Q11"",""Q12"",""Q13"",""Q14"",""Q15"",""Q16"",""Q17"",""Q18"",""Q19"",""Q20"",""Q21"",""Q22""]","[3141.399999976158,4803,7850.699999988079,9091,10818.699999988079,12490.899999976158,14218.699999988079,16922.899999976158,21018.899999976158,23442.399999976158,25266.299999952316,27906.5,30082.399999976158,31938.599999964237,33538.5,35522.69999998808,37450.39999997616,39170.39999997616,41354.69999998808,44514.299999952316,46227,47530]","[0.19999998807907104,3141.399999976158,4803,7059.099999964237,7850.699999988079,9091,10818.699999988079,12490.899999976158,14218.699999988079,16922.899999976158,21018.899999976158,23442.399999976158,25266.299999952316,27906.5,30082.399999976158,31938.599999964237,33538.5,35522.69999998808,37450.39999997616,39170.39999997616,41354.69999998808,44514.299999952316,46227,47530,48314.69999998808]","[]","0.2727272727272727","0.23809523809523808","0","drsp","","","","","","","","","","","","","","","","","","","","","","","","","","","","","","",""
"15137.900000035763","","","","survey-template","4","417915","0.0-2.0-2.0","9","1","2025-07-09 08:39:21","01610cd0009c79a99da7d0a3353eb402","165.165.217.98","Mozilla/5.0 (Windows NT 10.0; Win64; x64) AppleWebKit/537.36 (KHTML, like Gecko) Chrome/137.0.0.0 Safari/537.36","WebKit","Chrome","137.0.0.0","Windows","10.0","https://app.prolific.com/","en-US,en;q=0.9","665f10dc49cd980fdf304c19","683db7602f5db6a34d12d064","686e2aa54427125a23f140a2","1","665f10dc49cd980fdf304c19","1","2025-07-09T08:46:21.138Z","","{""Q01"":""3"",""Q02"":""4"",""Q03"":""3""}","[0,1,2]","[""Q01"",""Q02"",""Q03""]","[5313.300000011921,11488.699999988079,14520.800000011921]","[5313.300000011921,11488.699999988079,14520.800000011921,15136.900000035763]","[]","0.6666666666666666","0","0","stress","","","","","","","","","","","","","","","","","","","","","","","","","","","","","","",""
"10445","","","","instructions","5","428362","0.0-3.0-0.0","9","1","2025-07-09 08:39:21","01610cd0009c79a99da7d0a3353eb402","165.165.217.98","Mozilla/5.0 (Windows NT 10.0; Win64; x64) AppleWebKit/537.36 (KHTML, like Gecko) Chrome/137.0.0.0 Safari/537.36","WebKit","Chrome","137.0.0.0","Windows","10.0","https://app.prolific.com/","en-US,en;q=0.9","665f10dc49cd980fdf304c19","683db7602f5db6a34d12d064","686e2aa54427125a23f140a2","1","665f10dc49cd980fdf304c19","1","","","","","","","","","","","","","[{""page_index"":0,""viewing_time"":10445}]","","","","","","","","","","","","","","","","","","","","","","","","","","","","","",""
"4572","","<p>Before you start with this game please answer the following three questions yourself. </p>
  <p>Through this game, we measure several aspects of your cognitive performance, such as reaction times, multi-tasking capabilities </p>
  <p>and the ability to assess the situation you are in.</p>
  <p></p>
  <p><b>How good do you usually are in such tasks?</b></p>","53","html-slider-response","6","432937","0.0-4.0-0.0","9","1","2025-07-09 08:39:21","01610cd0009c79a99da7d0a3353eb402","165.165.217.98","Mozilla/5.0 (Windows NT 10.0; Win64; x64) AppleWebKit/537.36 (KHTML, like Gecko) Chrome/137.0.0.0 Safari/537.36","WebKit","Chrome","137.0.0.0","Windows","10.0","https://app.prolific.com/","en-US,en;q=0.9","665f10dc49cd980fdf304c19","683db7602f5db6a34d12d064","686e2aa54427125a23f140a2","1","665f10dc49cd980fdf304c19","1","2025-07-09T08:46:36.161Z","","","","","","","","","","","PreSkillQ","","50","","","","","","","","","","","","","","","","","","","","","","","","","","","","",""
"4670","","<div style=""width:500px;"">
  <p>How well do you think you will perform in this task compared to other participants?</p>
  </div>","48","html-slider-response","7","437609","0.0-4.0-1.0","9","1","2025-07-09 08:39:21","01610cd0009c79a99da7d0a3353eb402","165.165.217.98","Mozilla/5.0 (Windows NT 10.0; Win64; x64) AppleWebKit/537.36 (KHTML, like Gecko) Chrome/137.0.0.0 Safari/537.36","WebKit","Chrome","137.0.0.0","Windows","10.0","https://app.prolific.com/","en-US,en;q=0.9","665f10dc49cd980fdf304c19","683db7602f5db6a34d12d064","686e2aa54427125a23f140a2","1","665f10dc49cd980fdf304c19","1","2025-07-09T08:46:40.832Z","","","","","","","","","","","PrePerfQ","","50","","","","","","","","","","","","","","","","","","","","","","","","","","","","",""
"3694","","<div style=""width:500px;"">
  <p>What best describes how you currently feel?</p>
  </div>","51","html-slider-response","8","441305","0.0-4.0-2.0","9","1","2025-07-09 08:39:21","01610cd0009c79a99da7d0a3353eb402","165.165.217.98","Mozilla/5.0 (Windows NT 10.0; Win64; x64) AppleWebKit/537.36 (KHTML, like Gecko) Chrome/137.0.0.0 Safari/537.36","WebKit","Chrome","137.0.0.0","Windows","10.0","https://app.prolific.com/","en-US,en;q=0.9","665f10dc49cd980fdf304c19","683db7602f5db6a34d12d064","686e2aa54427125a23f140a2","1","665f10dc49cd980fdf304c19","1","2025-07-09T08:46:44.528Z","","","","","","","","","","","PreMotivationQ","","50","","","","","","","","","","","","","","","","","","","","","","","","","","","","",""
"","","","","ctl-task-cpt","9","465575","0.0-5.0-0.0","9","1","2025-07-09 08:39:21","01610cd0009c79a99da7d0a3353eb402","165.165.217.98","Mozilla/5.0 (Windows NT 10.0; Win64; x64) AppleWebKit/537.36 (KHTML, like Gecko) Chrome/137.0.0.0 Safari/537.36","WebKit","Chrome","137.0.0.0","Windows","10.0","https://app.prolific.com/","en-US,en;q=0.9","665f10dc49cd980fdf304c19","683db7602f5db6a34d12d064","686e2aa54427125a23f140a2","1","665f10dc49cd980fdf304c19","1","2025-07-09T08:47:08.798Z","","","","","","","","","","","","","","win-only","3","g1:SW,g2:NE","1","1","0","444109","2094.7","7096.6","21257.7","1","4","4","6","1","1","1","1","0","0.007575757575757576","2312.8","3000","690","[""down"",""left""]","{""num_key_presses"":4,""num_perfect"":4,""num_errors"":0,""num_randdir"":0,""num_randdir_good_moves"":0,""num_whilered"":0,""num_whileblue"":0,""num_blue"":1,""num_good_moves"":4}","[418.57142857142856,416.47767857142856,0.3,418.57142857142856,416.47767857142856,101.5,418.57142857142856,416.47767857142856,201.5,418.57142857142856,416.47767857142856,301.6,418.57142857142856,416.47767857142856,406,418.57142857142856,421.47767857142856,506.9,408.57142857142856,446.47767857142856,611.1,407.57142857142856,448.47767857142856,716.5,401.57142857142856,455.47767857142856,817.8,370.57142857142856,484.47767857142856,920.9,550.5714285714286,225.47767857142856,1021.5,726.5714285714286,97.47767857142857,1122.6,728.5714285714286,77.47767857142857,1226,728.5714285714286,77.47767857142857,1327,725.5714285714286,83.47767857142857,1427,725.5714285714286,83.47767857142857,1527.3,667.5714285714286,164.47767857142856,1632,95.57142857142857,654.4776785714286,1738.3,-72.42857142857143,775.4776785714286,1841.7,-65.42857142857143,787.4776785714286,1946.7,117.57142857142857,785.4776785714286,2053.6,95.57142857142857,770.4776785714286,2155.7,78.57142857142857,770.4776785714286,2256.4,78.57142857142857,770.4776785714286,2361.4,78.57142857142857,770.4776785714286,2462.2,102.57142857142857,763.4776785714286,2566.7,687.5714285714286,585.4776785714286,2671.3,1308.5714285714287,391.47767857142856,2772.3,1373.5714285714287,348.47767857142856,2875.8,1373.5714285714287,348.47767857142856,2976.1,1373.5714285714287,348.47767857142856,3080.8,1373.5714285714287,348.47767857142856,3185.9,1373.5714285714287,348.47767857142856,3291.1,1373.5714285714287,348.47767857142856,3396.8,1373.5714285714287,348.47767857142856,3501.4,1373.5714285714287,348.47767857142856,3601.4,1373.5714285714287,348.47767857142856,3705.7,1373.5714285714287,348.47767857142856,3810.8,1373.5714285714287,348.47767857142856,3916.4,1373.5714285714287,348.47767857142856,4016.4,1373.5714285714287,348.47767857142856,4116.9,1373.5714285714287,348.47767857142856,4222,1373.5714285714287,348.47767857142856,4322,1373.5714285714287,348.47767857142856,4425.8,1373.5714285714287,348.47767857142856,4525.8,1373.5714285714287,348.47767857142856,4627.2,1373.5714285714287,348.47767857142856,4731.3,1373.5714285714287,348.47767857142856,4835.5,1373.5714285714287,348.47767857142856,4936.7]","[1864.3,1864.3,1000,0,864.3,""smooth"",""left"",""left"",""good_move"",4677.5,2812.8,2259.5,1864.8,553.2,""smooth"",""down"",""down"",""good_move"",10878.8,6200.8,2504.4,7824.3,550.2,""smooth"",""down"",""down"",""good_move"",14061.7,3182.3,2700.5,10879.5,481.8,""smooth"",""left"",""left"",""good_move""]","",""
"4056","","<div style=""width:500px;"">
  <p>What determined the result of this run?</p>
  </div>","73","html-slider-response","10","469633","0.0-5.0-1.0","9","1","2025-07-09 08:39:21","01610cd0009c79a99da7d0a3353eb402","165.165.217.98","Mozilla/5.0 (Windows NT 10.0; Win64; x64) AppleWebKit/537.36 (KHTML, like Gecko) Chrome/137.0.0.0 Safari/537.36","WebKit","Chrome","137.0.0.0","Windows","10.0","https://app.prolific.com/","en-US,en;q=0.9","665f10dc49cd980fdf304c19","683db7602f5db6a34d12d064","686e2aa54427125a23f140a2","1","665f10dc49cd980fdf304c19","1","2025-07-09T08:47:12.856Z","","","","","","","","","","","AttribQ","","50","","","","","","","","","","","","","","","","","","","","","","","","","","","","",""
"2526","","<div style=""width:500px;"">
  <p>How much control did you have over the ball?</p>
  </div>","81","html-slider-response","11","472161","0.0-5.0-2.0","9","1","2025-07-09 08:39:21","01610cd0009c79a99da7d0a3353eb402","165.165.217.98","Mozilla/5.0 (Windows NT 10.0; Win64; x64) AppleWebKit/537.36 (KHTML, like Gecko) Chrome/137.0.0.0 Safari/537.36","WebKit","Chrome","137.0.0.0","Windows","10.0","https://app.prolific.com/","en-US,en;q=0.9","665f10dc49cd980fdf304c19","683db7602f5db6a34d12d064","686e2aa54427125a23f140a2","1","665f10dc49cd980fdf304c19","1","2025-07-09T08:47:15.384Z","","","","","","","","","","","ControlQ","","50","","","","","","","","","","","","","","","","","","","","","","","","","","","","",""
"18799","","<div style=""width:500px;"">
  <p>How would you describe your current emotional state?</p>
  </div>","52","html-slider-response","12","490961","0.0-5.0-3.0","9","1","2025-07-09 08:39:21","01610cd0009c79a99da7d0a3353eb402","165.165.217.98","Mozilla/5.0 (Windows NT 10.0; Win64; x64) AppleWebKit/537.36 (KHTML, like Gecko) Chrome/137.0.0.0 Safari/537.36","WebKit","Chrome","137.0.0.0","Windows","10.0","https://app.prolific.com/","en-US,en;q=0.9","665f10dc49cd980fdf304c19","683db7602f5db6a34d12d064","686e2aa54427125a23f140a2","1","665f10dc49cd980fdf304c19","1","2025-07-09T08:47:34.184Z","","","","","","","","","","","StressQ","","50","","","","","","","","","","","","","","","","","","","","","","","","","","","","",""
"3215","","<div style=""width:500px;"">
  <p>What best describes how you currently feel?</p>
  </div>","50","html-slider-response","13","494177","0.0-5.0-4.0","9","1","2025-07-09 08:39:21","01610cd0009c79a99da7d0a3353eb402","165.165.217.98","Mozilla/5.0 (Windows NT 10.0; Win64; x64) AppleWebKit/537.36 (KHTML, like Gecko) Chrome/137.0.0.0 Safari/537.36","WebKit","Chrome","137.0.0.0","Windows","10.0","https://app.prolific.com/","en-US,en;q=0.9","665f10dc49cd980fdf304c19","683db7602f5db6a34d12d064","686e2aa54427125a23f140a2","1","665f10dc49cd980fdf304c19","1","2025-07-09T08:47:37.400Z","","","","","","","","","","","MotivationQ","","50","","","","","","","","","","","","","","","","","","","","","","","","","","","","",""
"","","","","ctl-task-cpt","14","525401","0.0-5.0-0.1","9","1","2025-07-09 08:39:21","01610cd0009c79a99da7d0a3353eb402","165.165.217.98","Mozilla/5.0 (Windows NT 10.0; Win64; x64) AppleWebKit/537.36 (KHTML, like Gecko) Chrome/137.0.0.0 Safari/537.36","WebKit","Chrome","137.0.0.0","Windows","10.0","https://app.prolific.com/","en-US,en;q=0.9","665f10dc49cd980fdf304c19","683db7602f5db6a34d12d064","686e2aa54427125a23f140a2","1","665f10dc49cd980fdf304c19","1","2025-07-09T08:48:08.624Z","","","","","","","","","","","","","","win-only","0","g1:NW,g2:SE","0.9","2","0","496972.8","8745.4","13745.8","28217.7","1","4","8","6","1","1","1","2","1","0.015151515151515152","1929.5","3000","795","[""left"",""up""]","{""num_key_presses"":4,""num_perfect"":4,""num_errors"":0,""num_randdir"":0,""num_randdir_good_moves"":0,""num_whilered"":0,""num_whileblue"":0,""num_blue"":1,""num_good_moves"":4}","[412.57142857142856,412.47767857142856,0.2,412.57142857142856,412.47767857142856,102.1,412.57142857142856,412.47767857142856,206.4,412.57142857142856,407.47767857142856,310.4,412.57142857142856,407.47767857142856,411.4,412.57142857142856,407.47767857142856,516,412.57142857142856,407.47767857142856,616.1,412.57142857142856,407.47767857142856,721.2,412.57142857142856,407.47767857142856,825.2,412.57142857142856,407.47767857142856,930.6,412.57142857142856,407.47767857142856,1035.9,406.57142857142856,397.47767857142856,1142.5,161.57142857142856,190.47767857142856,1246.1,114.57142857142857,126.47767857142857,1346.8,90.57142857142857,94.47767857142857,1451.4,59.57142857142857,59.47767857142857,1551.5,59.57142857142857,59.47767857142857,1655.9,59.57142857142857,59.47767857142857,1756.6,59.57142857142857,59.47767857142857,1856.7,59.57142857142857,59.47767857142857,1961.8,59.57142857142857,59.47767857142857,2061.9,59.57142857142857,59.47767857142857,2165.2,107.57142857142857,105.47767857142857,2266.2,382.57142857142856,302.47767857142856,2366.3,660.5714285714286,403.47767857142856,2466.8,814.5714285714286,435.47767857142856,2567,845.5714285714286,448.47767857142856,2672.9,845.5714285714286,448.47767857142856,2776.1,845.5714285714286,448.47767857142856,2876.2,845.5714285714286,448.47767857142856,2981.3,845.5714285714286,448.47767857142856,3085.2,845.5714285714286,448.47767857142856,3185.4,845.5714285714286,448.47767857142856,3285.4,845.5714285714286,448.47767857142856,3391,845.5714285714286,448.47767857142856,3496.2,845.5714285714286,448.47767857142856,3600.5,845.5714285714286,448.47767857142856,3706.5,845.5714285714286,448.47767857142856,3811.1,845.5714285714286,448.47767857142856,3911.8,845.5714285714286,448.47767857142856,4015.6,845.5714285714286,448.47767857142856,4116,845.5714285714286,448.47767857142856,4220.4,845.5714285714286,448.47767857142856,4320.4,845.5714285714286,448.47767857142856,4420.9,845.5714285714286,448.47767857142856,4522.2,845.5714285714286,448.47767857142856,4625,845.5714285714286,448.47767857142856,4726.4,845.5714285714286,448.47767857142856,4826.6,845.5714285714286,448.47767857142856,4930.8]","[1868.8,1868.7,1000,0.1,868.7,""smooth"",""left"",""left"",""good_move"",5445.4,3576,3064.8,1869.5,511.1,""smooth"",""left"",""left"",""good_move"",11843.7,6397.9,2551,8820.4,472.3,""smooth"",""up"",""up"",""good_move"",14374.6,2530.4,2131.2,11844.3,399.1,""smooth"",""up"",""up"",""good_move""]","",""
"17391","","<div style=""width:500px;"">
  <p>What determined the result of this run?</p>
  </div>","64","html-slider-response","15","542793","0.0-5.0-1.1","9","1","2025-07-09 08:39:21","01610cd0009c79a99da7d0a3353eb402","165.165.217.98","Mozilla/5.0 (Windows NT 10.0; Win64; x64) AppleWebKit/537.36 (KHTML, like Gecko) Chrome/137.0.0.0 Safari/537.36","WebKit","Chrome","137.0.0.0","Windows","10.0","https://app.prolific.com/","en-US,en;q=0.9","665f10dc49cd980fdf304c19","683db7602f5db6a34d12d064","686e2aa54427125a23f140a2","1","665f10dc49cd980fdf304c19","1","2025-07-09T08:48:26.016Z","","","","","","","","","","","AttribQ","","50","","","","","","","","","","","","","","","","","","","","","","","","","","","","",""
"3143","","<div style=""width:500px;"">
  <p>How much control did you have over the ball?</p>
  </div>","91","html-slider-response","16","545936","0.0-5.0-2.1","9","1","2025-07-09 08:39:21","01610cd0009c79a99da7d0a3353eb402","165.165.217.98","Mozilla/5.0 (Windows NT 10.0; Win64; x64) AppleWebKit/537.36 (KHTML, like Gecko) Chrome/137.0.0.0 Safari/537.36","WebKit","Chrome","137.0.0.0","Windows","10.0","https://app.prolific.com/","en-US,en;q=0.9","665f10dc49cd980fdf304c19","683db7602f5db6a34d12d064","686e2aa54427125a23f140a2","1","665f10dc49cd980fdf304c19","1","2025-07-09T08:48:29.160Z","","","","","","","","","","","ControlQ","","50","","","","","","","","","","","","","","","","","","","","","","","","","","","","",""
"4647","","<div style=""width:500px;"">
  <p>How would you describe your current emotional state?</p>
  </div>","50","html-slider-response","17","550585","0.0-5.0-3.1","9","1","2025-07-09 08:39:21","01610cd0009c79a99da7d0a3353eb402","165.165.217.98","Mozilla/5.0 (Windows NT 10.0; Win64; x64) AppleWebKit/537.36 (KHTML, like Gecko) Chrome/137.0.0.0 Safari/537.36","WebKit","Chrome","137.0.0.0","Windows","10.0","https://app.prolific.com/","en-US,en;q=0.9","665f10dc49cd980fdf304c19","683db7602f5db6a34d12d064","686e2aa54427125a23f140a2","1","665f10dc49cd980fdf304c19","1","2025-07-09T08:48:33.808Z","","","","","","","","","","","StressQ","","50","","","","","","","","","","","","","","","","","","","","","","","","","","","","",""
"27790","","<div style=""width:500px;"">
  <p>What best describes how you currently feel?</p>
  </div>","50","html-slider-response","18","578376","0.0-5.0-4.1","9","1","2025-07-09 08:39:21","01610cd0009c79a99da7d0a3353eb402","165.165.217.98","Mozilla/5.0 (Windows NT 10.0; Win64; x64) AppleWebKit/537.36 (KHTML, like Gecko) Chrome/137.0.0.0 Safari/537.36","WebKit","Chrome","137.0.0.0","Windows","10.0","https://app.prolific.com/","en-US,en;q=0.9","665f10dc49cd980fdf304c19","683db7602f5db6a34d12d064","686e2aa54427125a23f140a2","1","665f10dc49cd980fdf304c19","1","2025-07-09T08:49:01.599Z","","","","","","","","","","","MotivationQ","","50","","","","","","","","","","","","","","","","","","","","","","","","","","","","",""
"","","","","ctl-task-cpt","19","613479","0.0-5.0-0.2","9","1","2025-07-09 08:39:21","01610cd0009c79a99da7d0a3353eb402","165.165.217.98","Mozilla/5.0 (Windows NT 10.0; Win64; x64) AppleWebKit/537.36 (KHTML, like Gecko) Chrome/137.0.0.0 Safari/537.36","WebKit","Chrome","137.0.0.0","Windows","10.0","https://app.prolific.com/","en-US,en;q=0.9","665f10dc49cd980fdf304c19","683db7602f5db6a34d12d064","686e2aa54427125a23f140a2","1","665f10dc49cd980fdf304c19","1","2025-07-09T08:49:36.702Z","","","","","","","","","","","","","","win-only","1","g1:NE,g2:SW","0.8","3","0","581173.1","1515.7","6516.1","32087","1","4","4","6","2","-4","-5","0","2","0","1468.9","3000","-2665","[""down"",""left""]","{""num_key_presses"":6,""num_perfect"":4,""num_errors"":1,""num_randdir"":1,""num_randdir_good_moves"":0,""num_whilered"":0,""num_whileblue"":1,""num_blue"":3,""num_good_moves"":5}","[417.57142857142856,416.47767857142856,0.9,417.57142857142856,416.47767857142856,102.1,417.57142857142856,416.47767857142856,202.9,417.57142857142856,416.47767857142856,304.1,417.57142857142856,416.47767857142856,405.8,417.57142857142856,419.47767857142856,512.6,417.57142857142856,421.47767857142856,618.3,394.57142857142856,459.47767857142856,721.2,156.57142857142856,668.4776785714286,826.5,64.57142857142857,767.4776785714286,934.7,64.57142857142857,768.4776785714286,1035.2,59.57142857142857,794.4776785714286,1136.8,59.57142857142857,793.4776785714286,1236.9,75.57142857142857,765.4776785714286,1340.5,77.57142857142857,761.4776785714286,1444.3,77.57142857142857,760.4776785714286,1548.3,77.57142857142857,760.4776785714286,1651,77.57142857142857,760.4776785714286,1755,137.57142857142856,763.4776785714286,1863.5,836.5714285714286,708.4776785714286,1963.5,971.5714285714286,687.4776785714286,2067.1,972.5714285714286,683.4776785714286,2167.6,972.5714285714286,683.4776785714286,2271.5,972.5714285714286,683.4776785714286,2372.8,972.5714285714286,683.4776785714286,2476.3,972.5714285714286,683.4776785714286,2585.9,972.5714285714286,683.4776785714286,2690.5,972.5714285714286,683.4776785714286,2793.9,972.5714285714286,683.4776785714286,2897.1,972.5714285714286,683.4776785714286,2997.8,972.5714285714286,683.4776785714286,3100,972.5714285714286,683.4776785714286,3207.1,972.5714285714286,683.4776785714286,3310.3,972.5714285714286,683.4776785714286,3411,972.5714285714286,683.4776785714286,3512.2,972.5714285714286,683.4776785714286,3615.2,972.5714285714286,683.4776785714286,3715.4,972.5714285714286,683.4776785714286,3821,972.5714285714286,683.4776785714286,3925,972.5714285714286,683.4776785714286,4030.2,972.5714285714286,683.4776785714286,4131.5,972.5714285714286,683.4776785714286,4232.4,972.5714285714286,683.4776785714286,4334.6,972.5714285714286,683.4776785714286,4435.2,972.5714285714286,683.4776785714286,4535.9,972.5714285714286,683.4776785714286,4637,972.5714285714286,683.4776785714286,4742.7,972.5714285714286,683.4776785714286,4846.8,972.5714285714286,683.4776785714286,4950.2]","[4307.5,4307.5,1796.5,2006.8,504.2,""smooth"",""left"",""left"",""good_move"",7406.2,3097.4,2387,4308.9,710.4,""smooth"",""left"",""left"",""good_move"",9533.4,2126.8,1555.6,7406.6,571.2,""smooth"",""left"",""left"",""good_move"",11676.7,2141.6,1784.3,9535.1,357.3,""while_blue"",""down"",""down"",""good_move"",18696.9,7019.5,2758.6,15291.1,647.2,""oops"",""down"",""right"",""bad_move"",22529.5,3832.2,3322.1,18697.3,510.1,""smooth"",""down"",""down"",""good_move""]","",""
"6877","","<div style=""width:500px;"">
  <p>What determined the result of this run?</p>
  </div>","63","html-slider-response","20","620357","0.0-5.0-1.2","9","1","2025-07-09 08:39:21","01610cd0009c79a99da7d0a3353eb402","165.165.217.98","Mozilla/5.0 (Windows NT 10.0; Win64; x64) AppleWebKit/537.36 (KHTML, like Gecko) Chrome/137.0.0.0 Safari/537.36","WebKit","Chrome","137.0.0.0","Windows","10.0","https://app.prolific.com/","en-US,en;q=0.9","665f10dc49cd980fdf304c19","683db7602f5db6a34d12d064","686e2aa54427125a23f140a2","1","665f10dc49cd980fdf304c19","1","2025-07-09T08:49:43.580Z","","","","","","","","","","","AttribQ","","50","","","","","","","","","","","","","","","","","","","","","","","","","","","","",""
"2162","","<div style=""width:500px;"">
  <p>How much control did you have over the ball?</p>
  </div>","60","html-slider-response","21","622521","0.0-5.0-2.2","9","1","2025-07-09 08:39:21","01610cd0009c79a99da7d0a3353eb402","165.165.217.98","Mozilla/5.0 (Windows NT 10.0; Win64; x64) AppleWebKit/537.36 (KHTML, like Gecko) Chrome/137.0.0.0 Safari/537.36","WebKit","Chrome","137.0.0.0","Windows","10.0","https://app.prolific.com/","en-US,en;q=0.9","665f10dc49cd980fdf304c19","683db7602f5db6a34d12d064","686e2aa54427125a23f140a2","1","665f10dc49cd980fdf304c19","1","2025-07-09T08:49:45.744Z","","","","","","","","","","","ControlQ","","50","","","","","","","","","","","","","","","","","","","","","","","","","","","","",""
"28132","","<div style=""width:500px;"">
  <p>How would you describe your current emotional state?</p>
  </div>","50","html-slider-response","22","650655","0.0-5.0-3.2","9","1","2025-07-09 08:39:21","01610cd0009c79a99da7d0a3353eb402","165.165.217.98","Mozilla/5.0 (Windows NT 10.0; Win64; x64) AppleWebKit/537.36 (KHTML, like Gecko) Chrome/137.0.0.0 Safari/537.36","WebKit","Chrome","137.0.0.0","Windows","10.0","https://app.prolific.com/","en-US,en;q=0.9","665f10dc49cd980fdf304c19","683db7602f5db6a34d12d064","686e2aa54427125a23f140a2","1","665f10dc49cd980fdf304c19","1","2025-07-09T08:50:13.879Z","","","","","","","","","","","StressQ","","50","","","","","","","","","","","","","","","","","","","","","","","","","","","","",""
"7110","","<div style=""width:500px;"">
  <p>What best describes how you currently feel?</p>
  </div>","50","html-slider-response","23","657768","0.0-5.0-4.2","9","1","2025-07-09 08:39:21","01610cd0009c79a99da7d0a3353eb402","165.165.217.98","Mozilla/5.0 (Windows NT 10.0; Win64; x64) AppleWebKit/537.36 (KHTML, like Gecko) Chrome/137.0.0.0 Safari/537.36","WebKit","Chrome","137.0.0.0","Windows","10.0","https://app.prolific.com/","en-US,en;q=0.9","665f10dc49cd980fdf304c19","683db7602f5db6a34d12d064","686e2aa54427125a23f140a2","1","665f10dc49cd980fdf304c19","1","2025-07-09T08:50:20.991Z","","","","","","","","","","","MotivationQ","","50","","","","","","","","","","","","","","","","","","","","","","","","","","","","",""
"","","","","ctl-task-cpt","24","695387","0.0-5.0-0.3","9","1","2025-07-09 08:39:21","01610cd0009c79a99da7d0a3353eb402","165.165.217.98","Mozilla/5.0 (Windows NT 10.0; Win64; x64) AppleWebKit/537.36 (KHTML, like Gecko) Chrome/137.0.0.0 Safari/537.36","WebKit","Chrome","137.0.0.0","Windows","10.0","https://app.prolific.com/","en-US,en;q=0.9","665f10dc49cd980fdf304c19","683db7602f5db6a34d12d064","686e2aa54427125a23f140a2","1","665f10dc49cd980fdf304c19","1","2025-07-09T08:50:58.610Z","","","","","","","","","","","","","","win-only","2","g1:SE,g2:NW","0.7","4","0","660564.5","1939.4","6944.3","34602.6","1","4","8","6","2","-8","-8","0","0","0","1511.7","3000","-2430","[""left"",""up""]","{""num_key_presses"":7,""num_perfect"":5,""num_errors"":0,""num_randdir"":2,""num_randdir_good_moves"":1,""num_whilered"":0,""num_whileblue"":0,""num_blue"":1,""num_good_moves"":6}","[413.57142857142856,410.47767857142856,1.5,413.57142857142856,410.47767857142856,102.2,413.57142857142856,410.47767857142856,211.7,415.57142857142856,410.47767857142856,318.6,428.57142857142856,426.47767857142856,429.9,535.5714285714286,518.4776785714286,535.6,460.57142857142856,472.47767857142856,644.1,224.57142857142856,260.47767857142856,744.1,202.57142857142856,217.47767857142856,845.7,185.57142857142856,179.47767857142856,946.6,204.57142857142856,192.47767857142856,1053.9,204.57142857142856,192.47767857142856,1161.3,136.57142857142856,127.47767857142857,1262,107.57142857142857,101.47767857142857,1372.3,105.57142857142857,97.47767857142857,1472.3,104.57142857142857,96.47767857142857,1574.4,104.57142857142857,96.47767857142857,1679.9,151.57142857142856,107.47767857142857,1788.2,151.57142857142856,107.47767857142857,1893.3,152.57142857142856,109.47767857142857,1996.8,152.57142857142856,110.47767857142857,2110.8,155.57142857142856,112.47767857142857,2213.1,158.57142857142856,115.47767857142857,2318,158.57142857142856,115.47767857142857,2422.7,158.57142857142856,115.47767857142857,2528.4,158.57142857142856,115.47767857142857,2638.3,166.57142857142856,118.47767857142857,2744.2,178.57142857142856,121.47767857142857,2851.9,185.57142857142856,125.47767857142857,2959.4,186.57142857142856,125.47767857142857,3060.3,187.57142857142856,125.47767857142857,3162,188.57142857142856,126.47767857142857,3262.1,188.57142857142856,126.47767857142857,3374,188.57142857142856,126.47767857142857,3476.6,188.57142857142856,126.47767857142857,3576.8,188.57142857142856,126.47767857142857,3678.5,188.57142857142856,126.47767857142857,3778.5,188.57142857142856,126.47767857142857,3886.6,188.57142857142856,126.47767857142857,3990,188.57142857142856,126.47767857142857,4090.5,188.57142857142856,126.47767857142857,4192.2,188.57142857142856,126.47767857142857,4292.5,188.57142857142856,126.47767857142857,4397.9,188.57142857142856,126.47767857142857,4503.2,188.57142857142856,126.47767857142857,4609.6,188.57142857142856,126.47767857142857,4714.9,188.57142857142856,126.47767857142857,4815.4,188.57142857142856,126.47767857142857,4916.2]","[1481.7,1481.7,1000,0,481.7,""smooth"",""up"",""up"",""good_move"",4745.9,3261.3,2781.9,1484.6,479.4,""smooth"",""up"",""up"",""good_move"",8192.9,3446.3,2981.8,4746.6,464.5,""smooth"",""up"",""up"",""good_move"",11095.1,2901.7,2459,8193.5,442.6,""oops"",""left"",""right"",""bad_move"",14650.3,3554.9,2734.1,11095.4,820.8,""smooth"",""left"",""left"",""good_move"",21352.7,6701.8,2984.3,17901.1,467.3,""oops"",""left"",""left"",""good_move"",24457.1,3104,2540,21353.1,564,""smooth"",""left"",""left"",""good_move""]","",""
"4596","","<div style=""width:500px;"">
  <p>What determined the result of this run?</p>
  </div>","50","html-slider-response","25","699984","0.0-5.0-1.3","9","1","2025-07-09 08:39:21","01610cd0009c79a99da7d0a3353eb402","165.165.217.98","Mozilla/5.0 (Windows NT 10.0; Win64; x64) AppleWebKit/537.36 (KHTML, like Gecko) Chrome/137.0.0.0 Safari/537.36","WebKit","Chrome","137.0.0.0","Windows","10.0","https://app.prolific.com/","en-US,en;q=0.9","665f10dc49cd980fdf304c19","683db7602f5db6a34d12d064","686e2aa54427125a23f140a2","1","665f10dc49cd980fdf304c19","1","2025-07-09T08:51:03.207Z","","","","","","","","","","","AttribQ","","50","","","","","","","","","","","","","","","","","","","","","","","","","","","","",""
"3856","","<div style=""width:500px;"">
  <p>How much control did you have over the ball?</p>
  </div>","68","html-slider-response","26","703843","0.0-5.0-2.3","9","1","2025-07-09 08:39:21","01610cd0009c79a99da7d0a3353eb402","165.165.217.98","Mozilla/5.0 (Windows NT 10.0; Win64; x64) AppleWebKit/537.36 (KHTML, like Gecko) Chrome/137.0.0.0 Safari/537.36","WebKit","Chrome","137.0.0.0","Windows","10.0","https://app.prolific.com/","en-US,en;q=0.9","665f10dc49cd980fdf304c19","683db7602f5db6a34d12d064","686e2aa54427125a23f140a2","1","665f10dc49cd980fdf304c19","1","2025-07-09T08:51:07.067Z","","","","","","","","","","","ControlQ","","50","","","","","","","","","","","","","","","","","","","","","","","","","","","","",""
"3370","","<div style=""width:500px;"">
  <p>How would you describe your current emotional state?</p>
  </div>","57","html-slider-response","27","707216","0.0-5.0-3.3","9","1","2025-07-09 08:39:21","01610cd0009c79a99da7d0a3353eb402","165.165.217.98","Mozilla/5.0 (Windows NT 10.0; Win64; x64) AppleWebKit/537.36 (KHTML, like Gecko) Chrome/137.0.0.0 Safari/537.36","WebKit","Chrome","137.0.0.0","Windows","10.0","https://app.prolific.com/","en-US,en;q=0.9","665f10dc49cd980fdf304c19","683db7602f5db6a34d12d064","686e2aa54427125a23f140a2","1","665f10dc49cd980fdf304c19","1","2025-07-09T08:51:10.439Z","","","","","","","","","","","StressQ","","50","","","","","","","","","","","","","","","","","","","","","","","","","","","","",""
"7166","","<div style=""width:500px;"">
  <p>What best describes how you currently feel?</p>
  </div>","50","html-slider-response","28","714383","0.0-5.0-4.3","9","1","2025-07-09 08:39:21","01610cd0009c79a99da7d0a3353eb402","165.165.217.98","Mozilla/5.0 (Windows NT 10.0; Win64; x64) AppleWebKit/537.36 (KHTML, like Gecko) Chrome/137.0.0.0 Safari/537.36","WebKit","Chrome","137.0.0.0","Windows","10.0","https://app.prolific.com/","en-US,en;q=0.9","665f10dc49cd980fdf304c19","683db7602f5db6a34d12d064","686e2aa54427125a23f140a2","1","665f10dc49cd980fdf304c19","1","2025-07-09T08:51:17.607Z","","","","","","","","","","","MotivationQ","","50","","","","","","","","","","","","","","","","","","","","","","","","","","","","",""
"","","","","ctl-task-cpt","29","755145","0.0-5.0-0.4","9","1","2025-07-09 08:39:21","01610cd0009c79a99da7d0a3353eb402","165.165.217.98","Mozilla/5.0 (Windows NT 10.0; Win64; x64) AppleWebKit/537.36 (KHTML, like Gecko) Chrome/137.0.0.0 Safari/537.36","WebKit","Chrome","137.0.0.0","Windows","10.0","https://app.prolific.com/","en-US,en;q=0.9","665f10dc49cd980fdf304c19","683db7602f5db6a34d12d064","686e2aa54427125a23f140a2","1","665f10dc49cd980fdf304c19","1","2025-07-09T08:51:58.368Z","","","","","","","","","","","","","","win-only","2","g1:SE,g2:NW","0.6","5","0","717179.8","2783.3","7786","37745.6","1","4","8","6","1","1","1","1","0","0.007575757575757576","2295.3","3000","305","[""down"",""right""]","{""num_key_presses"":8,""num_perfect"":5,""num_errors"":0,""num_randdir"":3,""num_randdir_good_moves"":1,""num_whilered"":0,""num_whileblue"":0,""num_blue"":2,""num_good_moves"":6}","[419.57142857142856,412.47767857142856,0.4,419.57142857142856,412.47767857142856,102.2,419.57142857142856,412.47767857142856,203.7,419.57142857142856,412.47767857142856,311.8,419.57142857142856,412.47767857142856,412.6,419.57142857142856,412.47767857142856,512.7,419.57142857142856,412.47767857142856,618.4,419.57142857142856,412.47767857142856,718.6,419.57142857142856,412.47767857142856,819.4,419.57142857142856,412.47767857142856,929.8,419.57142857142856,412.47767857142856,1032.8,419.57142857142856,412.47767857142856,1137.3,419.57142857142856,415.47767857142856,1244.3,419.57142857142856,421.47767857142856,1345.7,419.57142857142856,421.47767857142856,1447.1,529.5714285714286,529.4776785714286,1553.7,551.5714285714286,538.4776785714286,1657.6,584.5714285714286,568.4776785714286,1757.8,793.5714285714286,695.4776785714286,1861,744.5714285714286,670.4776785714286,1962.5,735.5714285714286,704.4776785714286,2065,732.5714285714286,729.4776785714286,2167.2,745.5714285714286,771.4776785714286,2269.3,745.5714285714286,771.4776785714286,2372.2,744.5714285714286,769.4776785714286,2477.2,747.5714285714286,760.4776785714286,2577.4,749.5714285714286,757.4776785714286,2677.4,749.5714285714286,757.4776785714286,2787.9,749.5714285714286,757.4776785714286,2893.7,749.5714285714286,757.4776785714286,3001.6,749.5714285714286,757.4776785714286,3104.6,749.5714285714286,757.4776785714286,3207.2,749.5714285714286,757.4776785714286,3320.5,749.5714285714286,757.4776785714286,3424.4,749.5714285714286,757.4776785714286,3527.1,749.5714285714286,757.4776785714286,3627.6,749.5714285714286,757.4776785714286,3728.7,749.5714285714286,757.4776785714286,3833.9,749.5714285714286,757.4776785714286,3940.5,749.5714285714286,757.4776785714286,4052.4,749.5714285714286,757.4776785714286,4158.5,749.5714285714286,757.4776785714286,4267.7,749.5714285714286,757.4776785714286,4368.8,749.5714285714286,757.4776785714286,4475.1,749.5714285714286,757.4776785714286,4577.6,749.5714285714286,757.4776785714286,4679.1,749.5714285714286,757.4776785714286,4792.2,749.5714285714286,757.4776785714286,4894]","[1527.6,1527.6,1000,0,527.6,""smooth"",""down"",""down"",""good_move"",4172.2,2643.6,2144.9,1528.8,498.6,""oops"",""down"",""down"",""good_move"",7245.8,3073.3,2447.5,4172.5,625.8,""oops"",""right"",""up"",""bad_move"",12959,5711.4,1904,10514.7,540.3,""smooth"",""right"",""right"",""good_move"",16438.3,3478.4,2894.7,12960,583.6,""oops"",""right"",""up"",""bad_move"",19103.6,2664.7,2160.9,16438.9,503.8,""smooth"",""right"",""right"",""good_move"",22468,3364,2981,19104,383,""smooth"",""down"",""down"",""good_move"",29791.8,7323,2918.6,26446.5,426.7,""smooth"",""down"",""down"",""good_move""]","",""
"3533","","<div style=""width:500px;"">
  <p>What determined the result of this run?</p>
  </div>","53","html-slider-response","30","758679","0.0-5.0-1.4","9","1","2025-07-09 08:39:21","01610cd0009c79a99da7d0a3353eb402","165.165.217.98","Mozilla/5.0 (Windows NT 10.0; Win64; x64) AppleWebKit/537.36 (KHTML, like Gecko) Chrome/137.0.0.0 Safari/537.36","WebKit","Chrome","137.0.0.0","Windows","10.0","https://app.prolific.com/","en-US,en;q=0.9","665f10dc49cd980fdf304c19","683db7602f5db6a34d12d064","686e2aa54427125a23f140a2","1","665f10dc49cd980fdf304c19","1","2025-07-09T08:52:01.902Z","","","","","","","","","","","AttribQ","","50","","","","","","","","","","","","","","","","","","","","","","","","","","","","",""
"3951","","<div style=""width:500px;"">
  <p>How much control did you have over the ball?</p>
  </div>","57","html-slider-response","31","762632","0.0-5.0-2.4","9","1","2025-07-09 08:39:21","01610cd0009c79a99da7d0a3353eb402","165.165.217.98","Mozilla/5.0 (Windows NT 10.0; Win64; x64) AppleWebKit/537.36 (KHTML, like Gecko) Chrome/137.0.0.0 Safari/537.36","WebKit","Chrome","137.0.0.0","Windows","10.0","https://app.prolific.com/","en-US,en;q=0.9","665f10dc49cd980fdf304c19","683db7602f5db6a34d12d064","686e2aa54427125a23f140a2","1","665f10dc49cd980fdf304c19","1","2025-07-09T08:52:05.855Z","","","","","","","","","","","ControlQ","","50","","","","","","","","","","","","","","","","","","","","","","","","","","","","",""
"6103","","<div style=""width:500px;"">
  <p>How would you describe your current emotional state?</p>
  </div>","50","html-slider-response","32","768735","0.0-5.0-3.4","9","1","2025-07-09 08:39:21","01610cd0009c79a99da7d0a3353eb402","165.165.217.98","Mozilla/5.0 (Windows NT 10.0; Win64; x64) AppleWebKit/537.36 (KHTML, like Gecko) Chrome/137.0.0.0 Safari/537.36","WebKit","Chrome","137.0.0.0","Windows","10.0","https://app.prolific.com/","en-US,en;q=0.9","665f10dc49cd980fdf304c19","683db7602f5db6a34d12d064","686e2aa54427125a23f140a2","1","665f10dc49cd980fdf304c19","1","2025-07-09T08:52:11.959Z","","","","","","","","","","","StressQ","","50","","","","","","","","","","","","","","","","","","","","","","","","","","","","",""
"51087","","<div style=""width:500px;"">
  <p>What best describes how you currently feel?</p>
  </div>","50","html-slider-response","33","819824","0.0-5.0-4.4","9","1","2025-07-09 08:39:21","01610cd0009c79a99da7d0a3353eb402","165.165.217.98","Mozilla/5.0 (Windows NT 10.0; Win64; x64) AppleWebKit/537.36 (KHTML, like Gecko) Chrome/137.0.0.0 Safari/537.36","WebKit","Chrome","137.0.0.0","Windows","10.0","https://app.prolific.com/","en-US,en;q=0.9","665f10dc49cd980fdf304c19","683db7602f5db6a34d12d064","686e2aa54427125a23f140a2","1","665f10dc49cd980fdf304c19","1","2025-07-09T08:53:03.047Z","","","","","","","","","","","MotivationQ","","50","","","","","","","","","","","","","","","","","","","","","","","","","","","","",""
"","","","","ctl-task-cpt","34","863207","0.0-5.0-0.5","9","1","2025-07-09 08:39:21","01610cd0009c79a99da7d0a3353eb402","165.165.217.98","Mozilla/5.0 (Windows NT 10.0; Win64; x64) AppleWebKit/537.36 (KHTML, like Gecko) Chrome/137.0.0.0 Safari/537.36","WebKit","Chrome","137.0.0.0","Windows","10.0","https://app.prolific.com/","en-US,en;q=0.9","665f10dc49cd980fdf304c19","683db7602f5db6a34d12d064","686e2aa54427125a23f140a2","1","665f10dc49cd980fdf304c19","1","2025-07-09T08:53:46.430Z","","","","","","","","","","","","","","win-only","3","g1:SW,g2:NE","0.5","6","0","822628.9","1812.9","6820.1","40363.8","1","4","4","6","2","4","4","5","1","0.03787878787878788","1796.5","3000","775","[""up"",""right""]","{""num_key_presses"":6,""num_perfect"":3,""num_errors"":0,""num_randdir"":3,""num_randdir_good_moves"":3,""num_whilered"":0,""num_whileblue"":0,""num_blue"":5,""num_good_moves"":6}","[418.57142857142856,409.47767857142856,0.2,418.57142857142856,409.47767857142856,113.8,418.57142857142856,409.47767857142856,218.8,418.57142857142856,409.47767857142856,319.9,393.57142857142856,453.47767857142856,426.9,339.57142857142856,543.4776785714286,529.6,339.57142857142856,544.4776785714286,633.8,327.57142857142856,553.4776785714286,742.8,397.57142857142856,499.47767857142856,844.2,802.5714285714286,177.47767857142856,947.2,813.5714285714286,123.47767857142857,1049.2,808.5714285714286,106.47767857142857,1160,764.5714285714286,111.47767857142857,1266.1,752.5714285714286,117.47767857142857,1371.3,774.5714285714286,106.47767857142857,1474.9,777.5714285714286,105.47767857142857,1576.1,777.5714285714286,105.47767857142857,1677.9,777.5714285714286,105.47767857142857,1777.9,777.5714285714286,105.47767857142857,1881.8,777.5714285714286,105.47767857142857,1984.9,777.5714285714286,105.47767857142857,2095.4,778.5714285714286,116.47767857142857,2200.2,800.5714285714286,157.47767857142856,2300.7,853.5714285714286,181.47767857142856,2414.8,853.5714285714286,181.47767857142856,2519.3,853.5714285714286,181.47767857142856,2626.4,853.5714285714286,181.47767857142856,2729.9,853.5714285714286,181.47767857142856,2830,853.5714285714286,181.47767857142856,2930,853.5714285714286,181.47767857142856,3032.9,853.5714285714286,181.47767857142856,3134.9,853.5714285714286,181.47767857142856,3235.7,853.5714285714286,181.47767857142856,3337.7,853.5714285714286,181.47767857142856,3442.6,853.5714285714286,181.47767857142856,3543.3,853.5714285714286,181.47767857142856,3644.7,853.5714285714286,181.47767857142856,3753.3,853.5714285714286,181.47767857142856,3854.3,853.5714285714286,181.47767857142856,3963.9,853.5714285714286,181.47767857142856,4069.2,853.5714285714286,181.47767857142856,4169.6,853.5714285714286,181.47767857142856,4273.7,853.5714285714286,181.47767857142856,4377.1,853.5714285714286,181.47767857142856,4479.5,853.5714285714286,181.47767857142856,4579.4,853.5714285714286,181.47767857142856,4683.9,853.5714285714286,181.47767857142856,4784.4,853.5714285714286,181.47767857142856,4885,853.5714285714286,181.47767857142856,4985.2]","[8579.6,8579.7,2915.7,5151.3,512.7,""smooth"",""up"",""up"",""good_move"",11585.5,3005.1,2546.1,8580.4,459,""smooth"",""up"",""up"",""good_move"",20809.5,9223.9,2539.6,17804.8,465.2,""oops"",""up"",""right"",""good_move"",23659.3,2848.9,2326.1,20810.5,522.8,""oops"",""up"",""up"",""good_move"",29554.1,5894.3,2405.9,26726.9,421.3,""smooth"",""right"",""right"",""good_move"",33425.3,3870.9,3128.6,29554.4,742.3,""oops"",""right"",""right"",""good_move""]","",""
"5648","","<div style=""width:500px;"">
  <p>What determined the result of this run?</p>
  </div>","50","html-slider-response","35","868855","0.0-5.0-1.5","9","1","2025-07-09 08:39:21","01610cd0009c79a99da7d0a3353eb402","165.165.217.98","Mozilla/5.0 (Windows NT 10.0; Win64; x64) AppleWebKit/537.36 (KHTML, like Gecko) Chrome/137.0.0.0 Safari/537.36","WebKit","Chrome","137.0.0.0","Windows","10.0","https://app.prolific.com/","en-US,en;q=0.9","665f10dc49cd980fdf304c19","683db7602f5db6a34d12d064","686e2aa54427125a23f140a2","1","665f10dc49cd980fdf304c19","1","2025-07-09T08:53:52.078Z","","","","","","","","","","","AttribQ","","50","","","","","","","","","","","","","","","","","","","","","","","","","","","","",""
"10496","","<div style=""width:500px;"">
  <p>How much control did you have over the ball?</p>
  </div>","55","html-slider-response","36","879352","0.0-5.0-2.5","9","1","2025-07-09 08:39:21","01610cd0009c79a99da7d0a3353eb402","165.165.217.98","Mozilla/5.0 (Windows NT 10.0; Win64; x64) AppleWebKit/537.36 (KHTML, like Gecko) Chrome/137.0.0.0 Safari/537.36","WebKit","Chrome","137.0.0.0","Windows","10.0","https://app.prolific.com/","en-US,en;q=0.9","665f10dc49cd980fdf304c19","683db7602f5db6a34d12d064","686e2aa54427125a23f140a2","1","665f10dc49cd980fdf304c19","1","2025-07-09T08:54:02.575Z","","","","","","","","","","","ControlQ","","50","","","","","","","","","","","","","","","","","","","","","","","","","","","","",""
"5581","","<div style=""width:500px;"">
  <p>How would you describe your current emotional state?</p>
  </div>","60","html-slider-response","37","884938","0.0-5.0-3.5","9","1","2025-07-09 08:39:21","01610cd0009c79a99da7d0a3353eb402","165.165.217.98","Mozilla/5.0 (Windows NT 10.0; Win64; x64) AppleWebKit/537.36 (KHTML, like Gecko) Chrome/137.0.0.0 Safari/537.36","WebKit","Chrome","137.0.0.0","Windows","10.0","https://app.prolific.com/","en-US,en;q=0.9","665f10dc49cd980fdf304c19","683db7602f5db6a34d12d064","686e2aa54427125a23f140a2","1","665f10dc49cd980fdf304c19","1","2025-07-09T08:54:08.161Z","","","","","","","","","","","StressQ","","50","","","","","","","","","","","","","","","","","","","","","","","","","","","","",""
"6211","","<div style=""width:500px;"">
  <p>What best describes how you currently feel?</p>
  </div>","50","html-slider-response","38","891151","0.0-5.0-4.5","9","1","2025-07-09 08:39:21","01610cd0009c79a99da7d0a3353eb402","165.165.217.98","Mozilla/5.0 (Windows NT 10.0; Win64; x64) AppleWebKit/537.36 (KHTML, like Gecko) Chrome/137.0.0.0 Safari/537.36","WebKit","Chrome","137.0.0.0","Windows","10.0","https://app.prolific.com/","en-US,en;q=0.9","665f10dc49cd980fdf304c19","683db7602f5db6a34d12d064","686e2aa54427125a23f140a2","1","665f10dc49cd980fdf304c19","1","2025-07-09T08:54:14.375Z","","","","","","","","","","","MotivationQ","","50","","","","","","","","","","","","","","","","","","","","","","","","","","","","",""
"","","","","ctl-task-cpt","39","918718","0.0-5.0-0.6","9","1","2025-07-09 08:39:21","01610cd0009c79a99da7d0a3353eb402","165.165.217.98","Mozilla/5.0 (Windows NT 10.0; Win64; x64) AppleWebKit/537.36 (KHTML, like Gecko) Chrome/137.0.0.0 Safari/537.36","WebKit","Chrome","137.0.0.0","Windows","10.0","https://app.prolific.com/","en-US,en;q=0.9","665f10dc49cd980fdf304c19","683db7602f5db6a34d12d064","686e2aa54427125a23f140a2","1","665f10dc49cd980fdf304c19","1","2025-07-09T08:54:41.941Z","","","","","","","","","","","","","","win-only","1","g1:NE,g2:SW","0.4","7","0","893950.8","1450.1","6451.3","24549.9","1","4","4","6","1","-1","-1","4","5","0.030303030303030304","1527.6","3000","-1995","[""up"",""right""]","{""num_key_presses"":6,""num_perfect"":2,""num_errors"":0,""num_randdir"":4,""num_randdir_good_moves"":2,""num_whilered"":0,""num_whileblue"":0,""num_blue"":0,""num_good_moves"":4}","[411.57142857142856,419.47767857142856,0.7,411.57142857142856,419.47767857142856,107.9,411.57142857142856,419.47767857142856,216.5,411.57142857142856,419.47767857142856,319.2,411.57142857142856,419.47767857142856,419.6,411.57142857142856,419.47767857142856,521.6,402.57142857142856,449.47767857142856,632.5,359.57142857142856,509.47767857142856,737,351.57142857142856,518.4776785714286,842,463.57142857142856,432.47767857142856,948.7,675.5714285714286,233.47767857142856,1056.2,752.5714285714286,161.47767857142856,1162.2,819.5714285714286,116.47767857142857,1266.5,810.5714285714286,102.47767857142857,1369,791.5714285714286,88.47767857142857,1475.6,791.5714285714286,88.47767857142857,1582,791.5714285714286,88.47767857142857,1684.2,791.5714285714286,88.47767857142857,1787.1,791.5714285714286,88.47767857142857,1898.9,791.5714285714286,88.47767857142857,2005.2,791.5714285714286,88.47767857142857,2110.7,791.5714285714286,88.47767857142857,2218,791.5714285714286,88.47767857142857,2322.1,791.5714285714286,88.47767857142857,2422.3,791.5714285714286,88.47767857142857,2536,791.5714285714286,88.47767857142857,2636.7,791.5714285714286,88.47767857142857,2750.9,791.5714285714286,88.47767857142857,2853.6,791.5714285714286,88.47767857142857,2961.8,791.5714285714286,88.47767857142857,3062.5,791.5714285714286,88.47767857142857,3168.7,791.5714285714286,88.47767857142857,3270.9,791.5714285714286,88.47767857142857,3372.4,791.5714285714286,88.47767857142857,3483,791.5714285714286,88.47767857142857,3585.5,791.5714285714286,88.47767857142857,3688.4,791.5714285714286,88.47767857142857,3800.6,791.5714285714286,88.47767857142857,3902,791.5714285714286,88.47767857142857,4019.2,791.5714285714286,88.47767857142857,4121,791.5714285714286,88.47767857142857,4227.1,791.5714285714286,88.47767857142857,4332.8,791.5714285714286,88.47767857142857,4435.7,791.5714285714286,88.47767857142857,4545.7,791.5714285714286,88.47767857142857,4652.8,791.5714285714286,88.47767857142857,4765.7,791.5714285714286,88.47767857142857,4866.1,791.5714285714286,88.47767857142857,4980.3]","[1922.5,1922.5,1000,0,922.5,""oops"",""up"",""left"",""bad_move"",4033.7,2109.8,1299.1,1923.9,810.7,""smooth"",""up"",""up"",""good_move"",6512.4,2477.7,1884,4034.7,593.7,""oops"",""up"",""right"",""good_move"",9193.5,2680.8,2050.5,6512.7,630.3,""smooth"",""up"",""up"",""good_move"",12586,3392.2,2603,9193.8,789.2,""oops"",""right"",""right"",""good_move"",15524.4,2938.1,2323.6,12586.3,614.5,""oops"",""right"",""down"",""bad_move""]","",""
"5722","","<div style=""width:500px;"">
  <p>What determined the result of this run?</p>
  </div>","37","html-slider-response","40","924442","0.0-5.0-1.6","9","1","2025-07-09 08:39:21","01610cd0009c79a99da7d0a3353eb402","165.165.217.98","Mozilla/5.0 (Windows NT 10.0; Win64; x64) AppleWebKit/537.36 (KHTML, like Gecko) Chrome/137.0.0.0 Safari/537.36","WebKit","Chrome","137.0.0.0","Windows","10.0","https://app.prolific.com/","en-US,en;q=0.9","665f10dc49cd980fdf304c19","683db7602f5db6a34d12d064","686e2aa54427125a23f140a2","1","665f10dc49cd980fdf304c19","1","2025-07-09T08:54:47.666Z","","","","","","","","","","","AttribQ","","50","","","","","","","","","","","","","","","","","","","","","","","","","","","","",""
"3505","","<div style=""width:500px;"">
  <p>How much control did you have over the ball?</p>
  </div>","38","html-slider-response","41","927951","0.0-5.0-2.6","9","1","2025-07-09 08:39:21","01610cd0009c79a99da7d0a3353eb402","165.165.217.98","Mozilla/5.0 (Windows NT 10.0; Win64; x64) AppleWebKit/537.36 (KHTML, like Gecko) Chrome/137.0.0.0 Safari/537.36","WebKit","Chrome","137.0.0.0","Windows","10.0","https://app.prolific.com/","en-US,en;q=0.9","665f10dc49cd980fdf304c19","683db7602f5db6a34d12d064","686e2aa54427125a23f140a2","1","665f10dc49cd980fdf304c19","1","2025-07-09T08:54:51.175Z","","","","","","","","","","","ControlQ","","50","","","","","","","","","","","","","","","","","","","","","","","","","","","","",""
"148185","","<div style=""width:500px;"">
  <p>How would you describe your current emotional state?</p>
  </div>","60","html-slider-response","42","1076138","0.0-5.0-3.6","9","1","2025-07-09 08:39:21","01610cd0009c79a99da7d0a3353eb402","165.165.217.98","Mozilla/5.0 (Windows NT 10.0; Win64; x64) AppleWebKit/537.36 (KHTML, like Gecko) Chrome/137.0.0.0 Safari/537.36","WebKit","Chrome","137.0.0.0","Windows","10.0","https://app.prolific.com/","en-US,en;q=0.9","665f10dc49cd980fdf304c19","683db7602f5db6a34d12d064","686e2aa54427125a23f140a2","1","665f10dc49cd980fdf304c19","1","2025-07-09T08:57:19.362Z","","","","","","","","","","","StressQ","","50","","","","","","","","","","","","","","","","","","","","","","","","","","","","",""
"5448","","<div style=""width:500px;"">
  <p>What best describes how you currently feel?</p>
  </div>","50","html-slider-response","43","1081591","0.0-5.0-4.6","9","1","2025-07-09 08:39:21","01610cd0009c79a99da7d0a3353eb402","165.165.217.98","Mozilla/5.0 (Windows NT 10.0; Win64; x64) AppleWebKit/537.36 (KHTML, like Gecko) Chrome/137.0.0.0 Safari/537.36","WebKit","Chrome","137.0.0.0","Windows","10.0","https://app.prolific.com/","en-US,en;q=0.9","665f10dc49cd980fdf304c19","683db7602f5db6a34d12d064","686e2aa54427125a23f140a2","1","665f10dc49cd980fdf304c19","1","2025-07-09T08:57:24.815Z","","","","","","","","","","","MotivationQ","","50","","","","","","","","","","","","","","","","","","","","","","","","","","","","",""
"","","","","ctl-task-cpt","44","1143457","0.0-5.0-0.7","9","1","2025-07-09 08:39:21","01610cd0009c79a99da7d0a3353eb402","165.165.217.98","Mozilla/5.0 (Windows NT 10.0; Win64; x64) AppleWebKit/537.36 (KHTML, like Gecko) Chrome/137.0.0.0 Safari/537.36","WebKit","Chrome","137.0.0.0","Windows","10.0","https://app.prolific.com/","en-US,en;q=0.9","665f10dc49cd980fdf304c19","683db7602f5db6a34d12d064","686e2aa54427125a23f140a2","1","665f10dc49cd980fdf304c19","1","2025-07-09T08:58:26.680Z","","","","","","","","","","","","","","win-only","3","g1:SW,g2:NE","0.3","8","0","1084392.3","1710.5","6717","58843.8","1","4","8","6","1","-1","-1","3","4","0.022727272727272728","1413","3000","-1680","[""down"",""left""]","{""num_key_presses"":12,""num_perfect"":3,""num_errors"":0,""num_randdir"":9,""num_randdir_good_moves"":4,""num_whilered"":0,""num_whileblue"":0,""num_blue"":4,""num_good_moves"":7}","[412.57142857142856,411.47767857142856,1.9,412.57142857142856,411.47767857142856,102.4,412.57142857142856,411.47767857142856,202.8,412.57142857142856,411.47767857142856,304.8,413.57142857142856,411.47767857142856,407.8,413.57142857142856,411.47767857142856,511.8,413.57142857142856,418.47767857142856,619,413.57142857142856,421.47767857142856,734.5,413.57142857142856,421.47767857142856,839.3,390.57142857142856,449.47767857142856,950.4,222.57142857142856,637.4776785714286,1051,77.57142857142857,718.4776785714286,1151.6,58.57142857142857,822.4776785714286,1252.9,58.57142857142857,822.4776785714286,1362.7,59.57142857142857,819.4776785714286,1463.9,59.57142857142857,819.4776785714286,1566.6,59.57142857142857,817.4776785714286,1686.6,59.57142857142857,817.4776785714286,1796,120.57142857142857,788.4776785714286,1896.3,249.57142857142856,733.4776785714286,2000.1,366.57142857142856,692.4776785714286,2110.6,376.57142857142856,683.4776785714286,2213.7,376.57142857142856,682.4776785714286,2318.4,376.57142857142856,682.4776785714286,2423.3,395.57142857142856,671.4776785714286,2529.4,399.57142857142856,666.4776785714286,2650.8,399.57142857142856,666.4776785714286,2758.2,399.57142857142856,666.4776785714286,2859,399.57142857142856,666.4776785714286,2961.9,399.57142857142856,666.4776785714286,3068.1,399.57142857142856,666.4776785714286,3177.8,399.57142857142856,666.4776785714286,3277.9,399.57142857142856,666.4776785714286,3380,399.57142857142856,666.4776785714286,3484.5,399.57142857142856,666.4776785714286,3591,399.57142857142856,666.4776785714286,3692.1,399.57142857142856,666.4776785714286,3795.9,399.57142857142856,666.4776785714286,3900.6,399.57142857142856,666.4776785714286,4002.2,399.57142857142856,666.4776785714286,4118.5,399.57142857142856,666.4776785714286,4229.4,399.57142857142856,666.4776785714286,4335.1,399.57142857142856,666.4776785714286,4439.4,399.57142857142856,666.4776785714286,4549.1,399.57142857142856,666.4776785714286,4652.6,399.57142857142856,666.4776785714286,4753.4,399.57142857142856,666.4776785714286,4860.9,399.57142857142856,666.4776785714286,4967.1]","[1473.3,1473.3,1000,0,473.3,""oops"",""left"",""up"",""bad_move"",4613.4,3138.2,2628.9,1475.2,509.4,""smooth"",""down"",""down"",""good_move"",8350.6,3735.6,2542.1,4615,1193.5,""oops"",""down"",""right"",""bad_move"",14489.6,6138.1,2196.5,11675,618.1,""smooth"",""down"",""down"",""good_move"",17060.5,2567.5,1868.7,14493,698.8,""smooth"",""down"",""down"",""good_move"",19797,2736.2,2316.6,17060.8,419.6,""oops"",""left"",""left"",""good_move"",22977.6,3179.9,2711.1,19797.8,468.7,""oops"",""left"",""right"",""bad_move"",30023.6,7045.4,2392.1,27056,575.5,""oops"",""left"",""up"",""bad_move"",33463.1,3438.6,2552.9,30024.5,885.7,""oops"",""left"",""left"",""good_move"",42875.7,9412.3,2236.4,40140,499.3,""oops"",""left"",""down"",""good_move"",45709.3,2832.2,2315,42877.3,517,""oops"",""left"",""left"",""good_move"",49440.8,3728.2,3133.6,45712.6,594.6,""oops"",""left"",""up"",""bad_move""]","",""
"3196","","<div style=""width:500px;"">
  <p>What determined the result of this run?</p>
  </div>","17","html-slider-response","45","1146655","0.0-5.0-1.7","9","1","2025-07-09 08:39:21","01610cd0009c79a99da7d0a3353eb402","165.165.217.98","Mozilla/5.0 (Windows NT 10.0; Win64; x64) AppleWebKit/537.36 (KHTML, like Gecko) Chrome/137.0.0.0 Safari/537.36","WebKit","Chrome","137.0.0.0","Windows","10.0","https://app.prolific.com/","en-US,en;q=0.9","665f10dc49cd980fdf304c19","683db7602f5db6a34d12d064","686e2aa54427125a23f140a2","1","665f10dc49cd980fdf304c19","1","2025-07-09T08:58:29.878Z","","","","","","","","","","","AttribQ","","50","","","","","","","","","","","","","","","","","","","","","","","","","","","","",""
"2736","","<div style=""width:500px;"">
  <p>How much control did you have over the ball?</p>
  </div>","29","html-slider-response","46","1149393","0.0-5.0-2.7","9","1","2025-07-09 08:39:21","01610cd0009c79a99da7d0a3353eb402","165.165.217.98","Mozilla/5.0 (Windows NT 10.0; Win64; x64) AppleWebKit/537.36 (KHTML, like Gecko) Chrome/137.0.0.0 Safari/537.36","WebKit","Chrome","137.0.0.0","Windows","10.0","https://app.prolific.com/","en-US,en;q=0.9","665f10dc49cd980fdf304c19","683db7602f5db6a34d12d064","686e2aa54427125a23f140a2","1","665f10dc49cd980fdf304c19","1","2025-07-09T08:58:32.616Z","","","","","","","","","","","ControlQ","","50","","","","","","","","","","","","","","","","","","","","","","","","","","","","",""
"3417","","<div style=""width:500px;"">
  <p>How would you describe your current emotional state?</p>
  </div>","61","html-slider-response","47","1152811","0.0-5.0-3.7","9","1","2025-07-09 08:39:21","01610cd0009c79a99da7d0a3353eb402","165.165.217.98","Mozilla/5.0 (Windows NT 10.0; Win64; x64) AppleWebKit/537.36 (KHTML, like Gecko) Chrome/137.0.0.0 Safari/537.36","WebKit","Chrome","137.0.0.0","Windows","10.0","https://app.prolific.com/","en-US,en;q=0.9","665f10dc49cd980fdf304c19","683db7602f5db6a34d12d064","686e2aa54427125a23f140a2","1","665f10dc49cd980fdf304c19","1","2025-07-09T08:58:36.034Z","","","","","","","","","","","StressQ","","50","","","","","","","","","","","","","","","","","","","","","","","","","","","","",""
"5804","","<div style=""width:500px;"">
  <p>What best describes how you currently feel?</p>
  </div>","51","html-slider-response","48","1158616","0.0-5.0-4.7","9","1","2025-07-09 08:39:21","01610cd0009c79a99da7d0a3353eb402","165.165.217.98","Mozilla/5.0 (Windows NT 10.0; Win64; x64) AppleWebKit/537.36 (KHTML, like Gecko) Chrome/137.0.0.0 Safari/537.36","WebKit","Chrome","137.0.0.0","Windows","10.0","https://app.prolific.com/","en-US,en;q=0.9","665f10dc49cd980fdf304c19","683db7602f5db6a34d12d064","686e2aa54427125a23f140a2","1","665f10dc49cd980fdf304c19","1","2025-07-09T08:58:41.839Z","","","","","","","","","","","MotivationQ","","50","","","","","","","","","","","","","","","","","","","","","","","","","","","","",""
"","","","","ctl-task-cpt","49","1192266","0.0-5.0-0.8","9","1","2025-07-09 08:39:21","01610cd0009c79a99da7d0a3353eb402","165.165.217.98","Mozilla/5.0 (Windows NT 10.0; Win64; x64) AppleWebKit/537.36 (KHTML, like Gecko) Chrome/137.0.0.0 Safari/537.36","WebKit","Chrome","137.0.0.0","Windows","10.0","https://app.prolific.com/","en-US,en;q=0.9","665f10dc49cd980fdf304c19","683db7602f5db6a34d12d064","686e2aa54427125a23f140a2","1","665f10dc49cd980fdf304c19","1","2025-07-09T08:59:15.489Z","","","","","","","","","","","","","","win-only","2","g1:SE,g2:NW","0.2","9","0","1161415.8","4821.3","9828.2","30621","1","4","4","6","1","-1","-1","2","3","0.015151515151515152","2437.6","3000","-1145","[""down"",""right""]","{""num_key_presses"":6,""num_perfect"":0,""num_errors"":0,""num_randdir"":6,""num_randdir_good_moves"":3,""num_whilered"":0,""num_whileblue"":0,""num_blue"":0,""num_good_moves"":3}","[418.57142857142856,416.47767857142856,0.8,418.57142857142856,415.47767857142856,110.4,780.5714285714286,447.47767857142856,213.8,1350.5714285714287,466.47767857142856,315.5,1350.5714285714287,466.47767857142856,417.6,1350.5714285714287,466.47767857142856,517.7,1350.5714285714287,466.47767857142856,634.7,1350.5714285714287,466.47767857142856,752.3,1350.5714285714287,466.47767857142856,855.5,470.57142857142856,475.47767857142856,1037.9,224.57142857142856,506.47767857142856,1150.1,220.57142857142856,503.47767857142856,1255.8,261.57142857142856,523.4776785714286,1364.4,195.57142857142856,402.47767857142856,1465.1,97.57142857142857,173.47767857142856,1567.9,42.57142857142857,117.47767857142857,1675.8,75.57142857142857,96.47767857142857,1780.6,75.57142857142857,85.47767857142857,1891.2,245.57142857142856,346.47767857142856,1995,741.5714285714286,744.4776785714286,2097.6,741.5714285714286,748.4776785714286,2205.2,741.5714285714286,746.4776785714286,2316.4,741.5714285714286,746.4776785714286,2429.3,746.5714285714286,742.4776785714286,2542.3,775.5714285714286,729.4776785714286,2650.4,801.5714285714286,713.4776785714286,2827.4,802.5714285714286,713.4776785714286,2933.8,802.5714285714286,712.4776785714286,3035.3,802.5714285714286,712.4776785714286,3138.4,822.5714285714286,701.4776785714286,3251.2,794.5714285714286,656.4776785714286,3355.5,710.5714285714286,505.47767857142856,3463.7,682.5714285714286,408.47767857142856,3566.5,681.5714285714286,407.47767857142856,3672.3,681.5714285714286,407.47767857142856,3775.6,681.5714285714286,407.47767857142856,3884.4,681.5714285714286,407.47767857142856,3995.2,681.5714285714286,407.47767857142856,4102.7,679.5714285714286,413.47767857142856,4212.9,679.5714285714286,413.47767857142856,4315.7,679.5714285714286,413.47767857142856,4416.7,679.5714285714286,413.47767857142856,4521,650.5714285714286,424.47767857142856,4629.9,576.5714285714286,482.47767857142856,4734.3,568.5714285714286,490.47767857142856,4840.5,568.5714285714286,490.47767857142856,4947.8]","[1563.5,1563.5,1000,0,563.5,""oops"",""right"",""right"",""good_move"",5584.5,4019.9,3113.2,1564.7,906.7,""oops"",""down"",""down"",""good_move"",9818.4,4229.8,3280.1,5588.6,949.7,""oops"",""right"",""left"",""bad_move"",12394.3,2575.5,1976.2,9818.8,599.4,""oops"",""right"",""up"",""bad_move"",16207,3811.4,2044.8,12395.6,1766.6,""oops"",""right"",""up"",""bad_move"",18710.4,2503.1,1836.4,16207.3,666.7,""oops"",""right"",""down"",""good_move""]","",""
"5767","","<div style=""width:500px;"">
  <p>What determined the result of this run?</p>
  </div>","17","html-slider-response","50","1198039","0.0-5.0-1.8","9","1","2025-07-09 08:39:21","01610cd0009c79a99da7d0a3353eb402","165.165.217.98","Mozilla/5.0 (Windows NT 10.0; Win64; x64) AppleWebKit/537.36 (KHTML, like Gecko) Chrome/137.0.0.0 Safari/537.36","WebKit","Chrome","137.0.0.0","Windows","10.0","https://app.prolific.com/","en-US,en;q=0.9","665f10dc49cd980fdf304c19","683db7602f5db6a34d12d064","686e2aa54427125a23f140a2","1","665f10dc49cd980fdf304c19","1","2025-07-09T08:59:21.262Z","","","","","","","","","","","AttribQ","","50","","","","","","","","","","","","","","","","","","","","","","","","","","","","",""
"2408","","<div style=""width:500px;"">
  <p>How much control did you have over the ball?</p>
  </div>","16","html-slider-response","51","1200449","0.0-5.0-2.8","9","1","2025-07-09 08:39:21","01610cd0009c79a99da7d0a3353eb402","165.165.217.98","Mozilla/5.0 (Windows NT 10.0; Win64; x64) AppleWebKit/537.36 (KHTML, like Gecko) Chrome/137.0.0.0 Safari/537.36","WebKit","Chrome","137.0.0.0","Windows","10.0","https://app.prolific.com/","en-US,en;q=0.9","665f10dc49cd980fdf304c19","683db7602f5db6a34d12d064","686e2aa54427125a23f140a2","1","665f10dc49cd980fdf304c19","1","2025-07-09T08:59:23.672Z","","","","","","","","","","","ControlQ","","50","","","","","","","","","","","","","","","","","","","","","","","","","","","","",""
"82565","","<div style=""width:500px;"">
  <p>How would you describe your current emotional state?</p>
  </div>","62","html-slider-response","52","1283019","0.0-5.0-3.8","9","1","2025-07-09 08:39:21","01610cd0009c79a99da7d0a3353eb402","165.165.217.98","Mozilla/5.0 (Windows NT 10.0; Win64; x64) AppleWebKit/537.36 (KHTML, like Gecko) Chrome/137.0.0.0 Safari/537.36","WebKit","Chrome","137.0.0.0","Windows","10.0","https://app.prolific.com/","en-US,en;q=0.9","665f10dc49cd980fdf304c19","683db7602f5db6a34d12d064","686e2aa54427125a23f140a2","1","665f10dc49cd980fdf304c19","1","2025-07-09T09:00:46.242Z","","","","","","","","","","","StressQ","","50","","","","","","","","","","","","","","","","","","","","","","","","","","","","",""
"9397","","<div style=""width:500px;"">
  <p>What best describes how you currently feel?</p>
  </div>","52","html-slider-response","53","1292419","0.0-5.0-4.8","9","1","2025-07-09 08:39:21","01610cd0009c79a99da7d0a3353eb402","165.165.217.98","Mozilla/5.0 (Windows NT 10.0; Win64; x64) AppleWebKit/537.36 (KHTML, like Gecko) Chrome/137.0.0.0 Safari/537.36","WebKit","Chrome","137.0.0.0","Windows","10.0","https://app.prolific.com/","en-US,en;q=0.9","665f10dc49cd980fdf304c19","683db7602f5db6a34d12d064","686e2aa54427125a23f140a2","1","665f10dc49cd980fdf304c19","1","2025-07-09T09:00:55.642Z","","","","","","","","","","","MotivationQ","","50","","","","","","","","","","","","","","","","","","","","","","","","","","","","",""
"","","","","ctl-task-cpt","54","1348301","0.0-5.0-0.9","9","1","2025-07-09 08:39:21","01610cd0009c79a99da7d0a3353eb402","165.165.217.98","Mozilla/5.0 (Windows NT 10.0; Win64; x64) AppleWebKit/537.36 (KHTML, like Gecko) Chrome/137.0.0.0 Safari/537.36","WebKit","Chrome","137.0.0.0","Windows","10.0","https://app.prolific.com/","en-US,en;q=0.9","665f10dc49cd980fdf304c19","683db7602f5db6a34d12d064","686e2aa54427125a23f140a2","1","665f10dc49cd980fdf304c19","1","2025-07-09T09:01:51.525Z","","","","","","","","","","","","","","win-only","3","g1:SW,g2:NE","0.4","10","0","1295215.9","1612.8","6621.8","52869.9","1","4","8","6","1","-1","-2","0","2","0","1855.7","3000","-1255","[""down"",""left""]","{""num_key_presses"":14,""num_perfect"":4,""num_errors"":1,""num_randdir"":9,""num_randdir_good_moves"":3,""num_whilered"":0,""num_whileblue"":1,""num_blue"":1,""num_good_moves"":6}","[418.57142857142856,427.47767857142856,0.2,418.57142857142856,427.47767857142856,106.7,418.57142857142856,427.47767857142856,216.8,418.57142857142856,427.47767857142856,320.6,418.57142857142856,427.47767857142856,427.6,418.57142857142856,427.47767857142856,534.1,419.57142857142856,430.47767857142856,639.9,419.57142857142856,430.47767857142856,750.4,419.57142857142856,434.47767857142856,854.2,425.57142857142856,432.47767857142856,959.7,496.57142857142856,359.47767857142856,1065.9,318.57142857142856,478.47767857142856,1180.7,251.57142857142856,580.4776785714286,1297.5,225.57142857142856,617.4776785714286,1400.8,161.57142857142856,733.4776785714286,1508.9,124.57142857142857,764.4776785714286,1616.5,114.57142857142857,760.4776785714286,1726.8,110.57142857142857,756.4776785714286,1827.6,110.57142857142857,756.4776785714286,1933.3,123.57142857142857,748.4776785714286,2043.6,311.57142857142856,720.4776785714286,2153.8,505.57142857142856,703.4776785714286,2257.9,567.5714285714286,693.4776785714286,2362.1,600.5714285714286,684.4776785714286,2480.2,614.5714285714286,677.4776785714286,2600.1,630.5714285714286,669.4776785714286,2701.6,630.5714285714286,662.4776785714286,2822.2,630.5714285714286,662.4776785714286,2932.8,630.5714285714286,662.4776785714286,3047.4,630.5714285714286,662.4776785714286,3163,630.5714285714286,662.4776785714286,3274.1,630.5714285714286,662.4776785714286,3387.9,630.5714285714286,662.4776785714286,3489.6,630.5714285714286,662.4776785714286,3599.1,630.5714285714286,662.4776785714286,3705.3,630.5714285714286,662.4776785714286,3809,630.5714285714286,662.4776785714286,3918.9,630.5714285714286,662.4776785714286,4029.4,630.5714285714286,662.4776785714286,4143.4,630.5714285714286,662.4776785714286,4243.9,630.5714285714286,662.4776785714286,4351.7,630.5714285714286,662.4776785714286,4454.3,630.5714285714286,662.4776785714286,4554.6,630.5714285714286,662.4776785714286,4662.3,630.5714285714286,662.4776785714286,4775.9,630.5714285714286,662.4776785714286,4887.7,630.5714285714286,662.4776785714286,4999.4]","[1555.4,1555.4,1000,0,555.4,""oops"",""left"",""up"",""bad_move"",4929,3370.1,2606.1,1559,763.9,""oops"",""left"",""down"",""good_move"",8292.8,3362.8,2913.4,4930.1,449.4,""oops"",""left"",""right"",""bad_move"",11579.3,3285.8,2785.2,8293.5,500.6,""oops"",""down"",""up"",""bad_move"",14754.5,3175.1,2012.1,11579.4,1163,""oops"",""up"",""right"",""bad_move"",17622.2,2867.5,2326.1,14754.7,541.4,""smooth"",""up"",""up"",""bad_move"",21019.2,3396.6,2541.6,17622.6,855,""smooth"",""down"",""down"",""good_move"",23931.8,2912.2,2410,21019.7,502.1,""smooth"",""down"",""down"",""good_move"",26805.4,2873.2,2366.8,23932.2,506.4,""oops"",""down"",""up"",""bad_move"",30132.1,3326.3,2616.4,26805.8,709.9,""while_blue"",""down"",""up"",""bad_move"",33565.8,3432.8,2536.9,30133,895.9,""smooth"",""down"",""down"",""good_move"",36909.9,3343.5,2560.2,33566.5,783.3,""oops"",""down"",""right"",""bad_move"",39710.6,2795.6,2360.4,36915.1,435.1,""oops"",""down"",""left"",""good_move"",43412.3,3700.6,2831.6,39711.7,869,""oops"",""down"",""left"",""good_move""]","",""
"3882","","<div style=""width:500px;"">
  <p>What determined the result of this run?</p>
  </div>","13","html-slider-response","55","1352186","0.0-5.0-1.9","9","1","2025-07-09 08:39:21","01610cd0009c79a99da7d0a3353eb402","165.165.217.98","Mozilla/5.0 (Windows NT 10.0; Win64; x64) AppleWebKit/537.36 (KHTML, like Gecko) Chrome/137.0.0.0 Safari/537.36","WebKit","Chrome","137.0.0.0","Windows","10.0","https://app.prolific.com/","en-US,en;q=0.9","665f10dc49cd980fdf304c19","683db7602f5db6a34d12d064","686e2aa54427125a23f140a2","1","665f10dc49cd980fdf304c19","1","2025-07-09T09:01:55.409Z","","","","","","","","","","","AttribQ","","50","","","","","","","","","","","","","","","","","","","","","","","","","","","","",""
"1528","","<div style=""width:500px;"">
  <p>How much control did you have over the ball?</p>
  </div>","15","html-slider-response","56","1353716","0.0-5.0-2.9","9","1","2025-07-09 08:39:21","01610cd0009c79a99da7d0a3353eb402","165.165.217.98","Mozilla/5.0 (Windows NT 10.0; Win64; x64) AppleWebKit/537.36 (KHTML, like Gecko) Chrome/137.0.0.0 Safari/537.36","WebKit","Chrome","137.0.0.0","Windows","10.0","https://app.prolific.com/","en-US,en;q=0.9","665f10dc49cd980fdf304c19","683db7602f5db6a34d12d064","686e2aa54427125a23f140a2","1","665f10dc49cd980fdf304c19","1","2025-07-09T09:01:56.939Z","","","","","","","","","","","ControlQ","","50","","","","","","","","","","","","","","","","","","","","","","","","","","","","",""
"3415","","<div style=""width:500px;"">
  <p>How would you describe your current emotional state?</p>
  </div>","81","html-slider-response","57","1357137","0.0-5.0-3.9","9","1","2025-07-09 08:39:21","01610cd0009c79a99da7d0a3353eb402","165.165.217.98","Mozilla/5.0 (Windows NT 10.0; Win64; x64) AppleWebKit/537.36 (KHTML, like Gecko) Chrome/137.0.0.0 Safari/537.36","WebKit","Chrome","137.0.0.0","Windows","10.0","https://app.prolific.com/","en-US,en;q=0.9","665f10dc49cd980fdf304c19","683db7602f5db6a34d12d064","686e2aa54427125a23f140a2","1","665f10dc49cd980fdf304c19","1","2025-07-09T09:02:00.360Z","","","","","","","","","","","StressQ","","50","","","","","","","","","","","","","","","","","","","","","","","","","","","","",""
"4913","","<div style=""width:500px;"">
  <p>What best describes how you currently feel?</p>
  </div>","50","html-slider-response","58","1362054","0.0-5.0-4.9","9","1","2025-07-09 08:39:21","01610cd0009c79a99da7d0a3353eb402","165.165.217.98","Mozilla/5.0 (Windows NT 10.0; Win64; x64) AppleWebKit/537.36 (KHTML, like Gecko) Chrome/137.0.0.0 Safari/537.36","WebKit","Chrome","137.0.0.0","Windows","10.0","https://app.prolific.com/","en-US,en;q=0.9","665f10dc49cd980fdf304c19","683db7602f5db6a34d12d064","686e2aa54427125a23f140a2","1","665f10dc49cd980fdf304c19","1","2025-07-09T09:02:05.278Z","","","","","","","","","","","MotivationQ","","50","","","","","","","","","","","","","","","","","","","","","","","","","","","","",""
"","","","","ctl-task-cpt","59","1409905","0.0-5.0-0.10","9","1","2025-07-09 08:39:21","01610cd0009c79a99da7d0a3353eb402","165.165.217.98","Mozilla/5.0 (Windows NT 10.0; Win64; x64) AppleWebKit/537.36 (KHTML, like Gecko) Chrome/137.0.0.0 Safari/537.36","WebKit","Chrome","137.0.0.0","Windows","10.0","https://app.prolific.com/","en-US,en;q=0.9","665f10dc49cd980fdf304c19","683db7602f5db6a34d12d064","686e2aa54427125a23f140a2","1","665f10dc49cd980fdf304c19","1","2025-07-09T09:02:53.128Z","","","","","","","","","","","","","","win-only","2","g1:SE,g2:NW","0.5","11","0","1364852.4","27474.8","32478.6","44826.5","1","4","8","6","1","1","1","1","0","0.007575757575757576","2671.6","3000","2250","[""down"",""right""]","{""num_key_presses"":4,""num_perfect"":2,""num_errors"":0,""num_randdir"":2,""num_randdir_good_moves"":2,""num_whilered"":0,""num_whileblue"":0,""num_blue"":1,""num_good_moves"":4}","[417.57142857142856,409.47767857142856,1.1,417.57142857142856,409.47767857142856,105.6,417.57142857142856,409.47767857142856,220.1,417.57142857142856,409.47767857142856,332,417.57142857142856,409.47767857142856,442.4,418.57142857142856,410.47767857142856,544.6,418.57142857142856,410.47767857142856,646,418.57142857142856,410.47767857142856,754.8,418.57142857142856,410.47767857142856,859.9,418.57142857142856,410.47767857142856,964.8,418.57142857142856,410.47767857142856,1067.1,418.57142857142856,410.47767857142856,1167.8,418.57142857142856,410.47767857142856,1275.6,418.57142857142856,410.47767857142856,1389.9,420.57142857142856,411.47767857142856,1490.2,430.57142857142856,420.47767857142856,1596.1,430.57142857142856,422.47767857142856,1698.4,441.57142857142856,433.47767857142856,1809.6,484.57142857142856,466.47767857142856,1914.5,490.57142857142856,471.47767857142856,2021.9,527.5714285714286,523.4776785714286,2124.7,586.5714285714286,608.4776785714286,2226.3,638.5714285714286,652.4776785714286,2327.9,731.5714285714286,702.4776785714286,2430.3,749.5714285714286,733.4776785714286,2534.1,753.5714285714286,735.4776785714286,2641.5,753.5714285714286,735.4776785714286,2747.9,753.5714285714286,735.4776785714286,2851,751.5714285714286,700.4776785714286,2952.4,741.5714285714286,624.4776785714286,3061.6,731.5714285714286,543.4776785714286,3162.9,734.5714285714286,529.4776785714286,3263.2,735.5714285714286,522.4776785714286,3366.3,735.5714285714286,522.4776785714286,3480,735.5714285714286,522.4776785714286,3580.6,735.5714285714286,522.4776785714286,3691.3,735.5714285714286,522.4776785714286,3798.7,735.5714285714286,522.4776785714286,3902.4,735.5714285714286,522.4776785714286,4004,735.5714285714286,522.4776785714286,4110.6,735.5714285714286,522.4776785714286,4216.3,735.5714285714286,522.4776785714286,4320.6,735.5714285714286,522.4776785714286,4436.4,735.5714285714286,522.4776785714286,4545.6,735.5714285714286,522.4776785714286,4658.6,735.5714285714286,522.4776785714286,4770.1,735.5714285714286,522.4776785714286,4875.1,735.5714285714286,522.4776785714286,4986.9]","[1608.7,1608.8,1000,0,608.8,""oops"",""right"",""down"",""good_move"",7645.3,6035,1900.1,5319.4,425.8,""oops"",""right"",""right"",""good_move"",9553,1906.5,1383.7,7646.5,522.9,""smooth"",""right"",""right"",""good_move"",12095.6,2542.2,2062.5,9553.5,479.7,""smooth"",""down"",""down"",""good_move""]","",""
"3815","","<div style=""width:500px;"">
  <p>What determined the result of this run?</p>
  </div>","52","html-slider-response","60","1413721","0.0-5.0-1.10","9","1","2025-07-09 08:39:21","01610cd0009c79a99da7d0a3353eb402","165.165.217.98","Mozilla/5.0 (Windows NT 10.0; Win64; x64) AppleWebKit/537.36 (KHTML, like Gecko) Chrome/137.0.0.0 Safari/537.36","WebKit","Chrome","137.0.0.0","Windows","10.0","https://app.prolific.com/","en-US,en;q=0.9","665f10dc49cd980fdf304c19","683db7602f5db6a34d12d064","686e2aa54427125a23f140a2","1","665f10dc49cd980fdf304c19","1","2025-07-09T09:02:56.945Z","","","","","","","","","","","AttribQ","","50","","","","","","","","","","","","","","","","","","","","","","","","","","","","",""
"2454","","<div style=""width:500px;"">
  <p>How much control did you have over the ball?</p>
  </div>","59","html-slider-response","61","1416177","0.0-5.0-2.10","9","1","2025-07-09 08:39:21","01610cd0009c79a99da7d0a3353eb402","165.165.217.98","Mozilla/5.0 (Windows NT 10.0; Win64; x64) AppleWebKit/537.36 (KHTML, like Gecko) Chrome/137.0.0.0 Safari/537.36","WebKit","Chrome","137.0.0.0","Windows","10.0","https://app.prolific.com/","en-US,en;q=0.9","665f10dc49cd980fdf304c19","683db7602f5db6a34d12d064","686e2aa54427125a23f140a2","1","665f10dc49cd980fdf304c19","1","2025-07-09T09:02:59.400Z","","","","","","","","","","","ControlQ","","50","","","","","","","","","","","","","","","","","","","","","","","","","","","","",""
"2590","","<div style=""width:500px;"">
  <p>How would you describe your current emotional state?</p>
  </div>","54","html-slider-response","62","1418769","0.0-5.0-3.10","9","1","2025-07-09 08:39:21","01610cd0009c79a99da7d0a3353eb402","165.165.217.98","Mozilla/5.0 (Windows NT 10.0; Win64; x64) AppleWebKit/537.36 (KHTML, like Gecko) Chrome/137.0.0.0 Safari/537.36","WebKit","Chrome","137.0.0.0","Windows","10.0","https://app.prolific.com/","en-US,en;q=0.9","665f10dc49cd980fdf304c19","683db7602f5db6a34d12d064","686e2aa54427125a23f140a2","1","665f10dc49cd980fdf304c19","1","2025-07-09T09:03:01.993Z","","","","","","","","","","","StressQ","","50","","","","","","","","","","","","","","","","","","","","","","","","","","","","",""
"3060","","<div style=""width:500px;"">
  <p>What best describes how you currently feel?</p>
  </div>","50","html-slider-response","63","1421832","0.0-5.0-4.10","9","1","2025-07-09 08:39:21","01610cd0009c79a99da7d0a3353eb402","165.165.217.98","Mozilla/5.0 (Windows NT 10.0; Win64; x64) AppleWebKit/537.36 (KHTML, like Gecko) Chrome/137.0.0.0 Safari/537.36","WebKit","Chrome","137.0.0.0","Windows","10.0","https://app.prolific.com/","en-US,en;q=0.9","665f10dc49cd980fdf304c19","683db7602f5db6a34d12d064","686e2aa54427125a23f140a2","1","665f10dc49cd980fdf304c19","1","2025-07-09T09:03:05.056Z","","","","","","","","","","","MotivationQ","","50","","","","","","","","","","","","","","","","","","","","","","","","","","","","",""
"","","","","ctl-task-cpt","64","1458604","0.0-5.0-0.11","9","1","2025-07-09 08:39:21","01610cd0009c79a99da7d0a3353eb402","165.165.217.98","Mozilla/5.0 (Windows NT 10.0; Win64; x64) AppleWebKit/537.36 (KHTML, like Gecko) Chrome/137.0.0.0 Safari/537.36","WebKit","Chrome","137.0.0.0","Windows","10.0","https://app.prolific.com/","en-US,en;q=0.9","665f10dc49cd980fdf304c19","683db7602f5db6a34d12d064","686e2aa54427125a23f140a2","1","665f10dc49cd980fdf304c19","1","2025-07-09T09:03:41.827Z","","","","","","","","","","","","","","win-only","2","g1:SE,g2:NW","0.6","12","0","1424631.5","4271","9281.9","33748.8","1","4","4","6","1","1","0","1","1","0.007575757575757576","1263","3000","2095","[""down"",""right""]","{""num_key_presses"":8,""num_perfect"":5,""num_errors"":1,""num_randdir"":2,""num_randdir_good_moves"":0,""num_whilered"":0,""num_whileblue"":1,""num_blue"":1,""num_good_moves"":6}","[420.57142857142856,414.47767857142856,0.4,421.57142857142856,414.47767857142856,104.2,421.57142857142856,414.47767857142856,210.2,421.57142857142856,414.47767857142856,317.6,421.57142857142856,414.47767857142856,425.5,426.57142857142856,424.47767857142856,535.7,428.57142857142856,430.47767857142856,637.4,515.5714285714286,557.4776785714286,737.5,626.5714285714286,675.4776785714286,855.4,713.5714285714286,739.4776785714286,956.4,757.5714285714286,765.4776785714286,1061,763.5714285714286,768.4776785714286,1172.9,764.5714285714286,768.4776785714286,1292.9,764.5714285714286,768.4776785714286,1393.2,764.5714285714286,768.4776785714286,1501.9,764.5714285714286,768.4776785714286,1606.5,764.5714285714286,767.4776785714286,1720.4,764.5714285714286,766.4776785714286,1823.2,764.5714285714286,765.4776785714286,1934.6,764.5714285714286,765.4776785714286,2048.1,764.5714285714286,765.4776785714286,2161,764.5714285714286,765.4776785714286,2268.9,764.5714285714286,765.4776785714286,2376.9,764.5714285714286,765.4776785714286,2482.3,764.5714285714286,765.4776785714286,2582.4,765.5714285714286,753.4776785714286,2695.6,765.5714285714286,753.4776785714286,2798.6,765.5714285714286,753.4776785714286,2908.1,765.5714285714286,753.4776785714286,3010.5,765.5714285714286,753.4776785714286,3118.7,765.5714285714286,753.4776785714286,3233.2,765.5714285714286,753.4776785714286,3339.5,765.5714285714286,753.4776785714286,3447.5,765.5714285714286,753.4776785714286,3548.2,765.5714285714286,753.4776785714286,3649,765.5714285714286,753.4776785714286,3756.2,765.5714285714286,753.4776785714286,3860,765.5714285714286,753.4776785714286,3963.5,765.5714285714286,753.4776785714286,4065.8,765.5714285714286,753.4776785714286,4166.1,765.5714285714286,753.4776785714286,4276.2,765.5714285714286,753.4776785714286,4378.7,765.5714285714286,753.4776785714286,4478.8,765.5714285714286,753.4776785714286,4587,765.5714285714286,753.4776785714286,4703.1,765.5714285714286,753.4776785714286,4818.7,765.5714285714286,753.4776785714286,4924.2]","[1483.2,1483.2,1000,0,483.2,""oops"",""right"",""up"",""bad_move"",5266.4,3782.7,1845,1483.9,1937.6,""oops"",""right"",""up"",""bad_move"",9257.7,3990.6,3100.5,5267.1,890.1,""smooth"",""right"",""right"",""good_move"",12367.6,3109.3,2700.6,9258.3,408.7,""smooth"",""right"",""right"",""good_move"",15576.1,3208.1,2837.2,12368.1,370.9,""smooth"",""down"",""down"",""good_move"",18074.3,2497.5,2032.3,15576.8,465.2,""while_blue"",""down"",""down"",""good_move"",20552.9,2478.3,1982.7,18074.6,495.6,""smooth"",""down"",""down"",""good_move"",24177.4,3623.8,3117.2,20553.6,506.6,""smooth"",""down"",""down"",""good_move""]","",""
"3851","","<div style=""width:500px;"">
  <p>What determined the result of this run?</p>
  </div>","56","html-slider-response","65","1462458","0.0-5.0-1.11","9","1","2025-07-09 08:39:21","01610cd0009c79a99da7d0a3353eb402","165.165.217.98","Mozilla/5.0 (Windows NT 10.0; Win64; x64) AppleWebKit/537.36 (KHTML, like Gecko) Chrome/137.0.0.0 Safari/537.36","WebKit","Chrome","137.0.0.0","Windows","10.0","https://app.prolific.com/","en-US,en;q=0.9","665f10dc49cd980fdf304c19","683db7602f5db6a34d12d064","686e2aa54427125a23f140a2","1","665f10dc49cd980fdf304c19","1","2025-07-09T09:03:45.682Z","","","","","","","","","","","AttribQ","","50","","","","","","","","","","","","","","","","","","","","","","","","","","","","",""
"2740","","<div style=""width:500px;"">
  <p>How much control did you have over the ball?</p>
  </div>","53","html-slider-response","66","1465201","0.0-5.0-2.11","9","1","2025-07-09 08:39:21","01610cd0009c79a99da7d0a3353eb402","165.165.217.98","Mozilla/5.0 (Windows NT 10.0; Win64; x64) AppleWebKit/537.36 (KHTML, like Gecko) Chrome/137.0.0.0 Safari/537.36","WebKit","Chrome","137.0.0.0","Windows","10.0","https://app.prolific.com/","en-US,en;q=0.9","665f10dc49cd980fdf304c19","683db7602f5db6a34d12d064","686e2aa54427125a23f140a2","1","665f10dc49cd980fdf304c19","1","2025-07-09T09:03:48.424Z","","","","","","","","","","","ControlQ","","50","","","","","","","","","","","","","","","","","","","","","","","","","","","","",""
"7320","","<div style=""width:500px;"">
  <p>How would you describe your current emotional state?</p>
  </div>","50","html-slider-response","67","1472522","0.0-5.0-3.11","9","1","2025-07-09 08:39:21","01610cd0009c79a99da7d0a3353eb402","165.165.217.98","Mozilla/5.0 (Windows NT 10.0; Win64; x64) AppleWebKit/537.36 (KHTML, like Gecko) Chrome/137.0.0.0 Safari/537.36","WebKit","Chrome","137.0.0.0","Windows","10.0","https://app.prolific.com/","en-US,en;q=0.9","665f10dc49cd980fdf304c19","683db7602f5db6a34d12d064","686e2aa54427125a23f140a2","1","665f10dc49cd980fdf304c19","1","2025-07-09T09:03:55.745Z","","","","","","","","","","","StressQ","","50","","","","","","","","","","","","","","","","","","","","","","","","","","","","",""
"6163","","<div style=""width:500px;"">
  <p>What best describes how you currently feel?</p>
  </div>","50","html-slider-response","68","1478687","0.0-5.0-4.11","9","1","2025-07-09 08:39:21","01610cd0009c79a99da7d0a3353eb402","165.165.217.98","Mozilla/5.0 (Windows NT 10.0; Win64; x64) AppleWebKit/537.36 (KHTML, like Gecko) Chrome/137.0.0.0 Safari/537.36","WebKit","Chrome","137.0.0.0","Windows","10.0","https://app.prolific.com/","en-US,en;q=0.9","665f10dc49cd980fdf304c19","683db7602f5db6a34d12d064","686e2aa54427125a23f140a2","1","665f10dc49cd980fdf304c19","1","2025-07-09T09:04:01.910Z","","","","","","","","","","","MotivationQ","","50","","","","","","","","","","","","","","","","","","","","","","","","","","","","",""
"","","","","ctl-task-cpt","69","1507769","0.0-5.0-0.12","9","1","2025-07-09 08:39:21","01610cd0009c79a99da7d0a3353eb402","165.165.217.98","Mozilla/5.0 (Windows NT 10.0; Win64; x64) AppleWebKit/537.36 (KHTML, like Gecko) Chrome/137.0.0.0 Safari/537.36","WebKit","Chrome","137.0.0.0","Windows","10.0","https://app.prolific.com/","en-US,en;q=0.9","665f10dc49cd980fdf304c19","683db7602f5db6a34d12d064","686e2aa54427125a23f140a2","1","665f10dc49cd980fdf304c19","1","2025-07-09T09:04:30.992Z","","","","","","","","","","","","","","win-only","2","g1:SE,g2:NW","0.7","13","0","1481483.3","1798.9","6814.7","26052","1","4","4","6","2","4","4","5","1","0.03787878787878788","1985.9","3000","1950","[""left"",""up""]","{""num_key_presses"":6,""num_perfect"":4,""num_errors"":0,""num_randdir"":2,""num_randdir_good_moves"":2,""num_whilered"":0,""num_whileblue"":0,""num_blue"":0,""num_good_moves"":6}","[417.57142857142856,420.47767857142856,0.7,417.57142857142856,420.47767857142856,115.5,417.57142857142856,420.47767857142856,229.8,417.57142857142856,420.47767857142856,342.6,417.57142857142856,420.47767857142856,456.2,417.57142857142856,420.47767857142856,562.3,417.57142857142856,420.47767857142856,680.7,417.57142857142856,420.47767857142856,785.7,417.57142857142856,420.47767857142856,895.1,417.57142857142856,420.47767857142856,1001.1,417.57142857142856,420.47767857142856,1105.7,417.57142857142856,420.47767857142856,1214.5,417.57142857142856,420.47767857142856,1329.8,417.57142857142856,420.47767857142856,1436.8,376.57142857142856,393.47767857142856,1541.9,150.57142857142856,85.47767857142857,1655.1,123.57142857142857,50.47767857142857,1761.8,95.57142857142857,58.47767857142857,1866.3,36.57142857142857,68.47767857142857,1972.2,36.57142857142857,68.47767857142857,2086.3,64.57142857142857,74.47767857142857,2200.5,266.57142857142856,102.47767857142857,2306.4,1365.5714285714287,197.47767857142856,2419.3,1365.5714285714287,197.47767857142856,2531.5,1365.5714285714287,197.47767857142856,2633.9,1365.5714285714287,197.47767857142856,2743.8,1365.5714285714287,197.47767857142856,2851.8,1365.5714285714287,197.47767857142856,2962.6,1365.5714285714287,197.47767857142856,3081.7,1365.5714285714287,197.47767857142856,3188.6,1365.5714285714287,197.47767857142856,3299.1,1365.5714285714287,197.47767857142856,3412.5,1365.5714285714287,197.47767857142856,3514.9,1365.5714285714287,197.47767857142856,3625.9,1365.5714285714287,197.47767857142856,3737.8,1365.5714285714287,197.47767857142856,3843.2,1365.5714285714287,197.47767857142856,3956.8,1365.5714285714287,197.47767857142856,4070,1365.5714285714287,197.47767857142856,4171.4,1365.5714285714287,197.47767857142856,4281.6,1365.5714285714287,197.47767857142856,4390.4,1365.5714285714287,197.47767857142856,4491.4,1365.5714285714287,197.47767857142856,4595.8,1365.5714285714287,197.47767857142856,4697.5,1365.5714285714287,197.47767857142856,4811.2,1365.5714285714287,197.47767857142856,4911.2]","[2313.5,2313.5,1000,0,1313.5,""oops"",""up"",""up"",""good_move"",5631.7,3317.3,2844.3,2314.4,473,""smooth"",""up"",""up"",""good_move"",9447.4,3815.2,2679.9,5632.2,1135.3,""oops"",""up"",""up"",""good_move"",12777.1,3329.3,2888.4,9448,440.8,""smooth"",""left"",""left"",""good_move"",15887.5,3109.4,2401.3,12778.1,708.1,""smooth"",""left"",""left"",""good_move"",18894.4,3006.6,2338.9,15887.8,667.7,""smooth"",""left"",""left"",""good_move""]","",""
"7956","","<div style=""width:500px;"">
  <p>What determined the result of this run?</p>
  </div>","69","html-slider-response","70","1515727","0.0-5.0-1.12","9","1","2025-07-09 08:39:21","01610cd0009c79a99da7d0a3353eb402","165.165.217.98","Mozilla/5.0 (Windows NT 10.0; Win64; x64) AppleWebKit/537.36 (KHTML, like Gecko) Chrome/137.0.0.0 Safari/537.36","WebKit","Chrome","137.0.0.0","Windows","10.0","https://app.prolific.com/","en-US,en;q=0.9","665f10dc49cd980fdf304c19","683db7602f5db6a34d12d064","686e2aa54427125a23f140a2","1","665f10dc49cd980fdf304c19","1","2025-07-09T09:04:38.950Z","","","","","","","","","","","AttribQ","","50","","","","","","","","","","","","","","","","","","","","","","","","","","","","",""
"2218","","<div style=""width:500px;"">
  <p>How much control did you have over the ball?</p>
  </div>","68","html-slider-response","71","1517947","0.0-5.0-2.12","9","1","2025-07-09 08:39:21","01610cd0009c79a99da7d0a3353eb402","165.165.217.98","Mozilla/5.0 (Windows NT 10.0; Win64; x64) AppleWebKit/537.36 (KHTML, like Gecko) Chrome/137.0.0.0 Safari/537.36","WebKit","Chrome","137.0.0.0","Windows","10.0","https://app.prolific.com/","en-US,en;q=0.9","665f10dc49cd980fdf304c19","683db7602f5db6a34d12d064","686e2aa54427125a23f140a2","1","665f10dc49cd980fdf304c19","1","2025-07-09T09:04:41.170Z","","","","","","","","","","","ControlQ","","50","","","","","","","","","","","","","","","","","","","","","","","","","","","","",""
"1993","","<div style=""width:500px;"">
  <p>How would you describe your current emotional state?</p>
  </div>","50","html-slider-response","72","1519946","0.0-5.0-3.12","9","1","2025-07-09 08:39:21","01610cd0009c79a99da7d0a3353eb402","165.165.217.98","Mozilla/5.0 (Windows NT 10.0; Win64; x64) AppleWebKit/537.36 (KHTML, like Gecko) Chrome/137.0.0.0 Safari/537.36","WebKit","Chrome","137.0.0.0","Windows","10.0","https://app.prolific.com/","en-US,en;q=0.9","665f10dc49cd980fdf304c19","683db7602f5db6a34d12d064","686e2aa54427125a23f140a2","1","665f10dc49cd980fdf304c19","1","2025-07-09T09:04:43.170Z","","","","","","","","","","","StressQ","","50","","","","","","","","","","","","","","","","","","","","","","","","","","","","",""
"4944","","<div style=""width:500px;"">
  <p>What best describes how you currently feel?</p>
  </div>","51","html-slider-response","73","1524896","0.0-5.0-4.12","9","1","2025-07-09 08:39:21","01610cd0009c79a99da7d0a3353eb402","165.165.217.98","Mozilla/5.0 (Windows NT 10.0; Win64; x64) AppleWebKit/537.36 (KHTML, like Gecko) Chrome/137.0.0.0 Safari/537.36","WebKit","Chrome","137.0.0.0","Windows","10.0","https://app.prolific.com/","en-US,en;q=0.9","665f10dc49cd980fdf304c19","683db7602f5db6a34d12d064","686e2aa54427125a23f140a2","1","665f10dc49cd980fdf304c19","1","2025-07-09T09:04:48.119Z","","","","","","","","","","","MotivationQ","","50","","","","","","","","","","","","","","","","","","","","","","","","","","","","",""
"","","","","ctl-task-cpt","74","1579099","0.0-5.0-0.13","9","1","2025-07-09 08:39:21","01610cd0009c79a99da7d0a3353eb402","165.165.217.98","Mozilla/5.0 (Windows NT 10.0; Win64; x64) AppleWebKit/537.36 (KHTML, like Gecko) Chrome/137.0.0.0 Safari/537.36","WebKit","Chrome","137.0.0.0","Windows","10.0","https://app.prolific.com/","en-US,en;q=0.9","665f10dc49cd980fdf304c19","683db7602f5db6a34d12d064","686e2aa54427125a23f140a2","1","665f10dc49cd980fdf304c19","1","2025-07-09T09:05:42.322Z","","","","","","","","","","","","","","win-only","3","g1:SW,g2:NE","0.8","14","0","1527694","1417.7","6424.5","51180.1","1","4","8","6","2","8","8","13","5","0.09848484848484848","1575.9","3000","1735","[""up"",""right""]","{""num_key_presses"":10,""num_perfect"":8,""num_errors"":0,""num_randdir"":2,""num_randdir_good_moves"":0,""num_whilered"":0,""num_whileblue"":0,""num_blue"":4,""num_good_moves"":8}","[418.57142857142856,423.47767857142856,0.5,418.57142857142856,423.47767857142856,106,418.57142857142856,423.47767857142856,208.9,418.57142857142856,423.47767857142856,330,413.57142857142856,435.47767857142856,431.4,378.57142857142856,503.47767857142856,555.3,376.57142857142856,515.4776785714286,667.9,389.57142857142856,493.47767857142856,775,391.57142857142856,490.47767857142856,879,380.57142857142856,502.47767857142856,991.8,413.57142857142856,482.47767857142856,1100.6,745.5714285714286,253.47767857142856,1212.2,786.5714285714286,160.47767857142856,1314.8,784.5714285714286,121.47767857142857,1428.7,774.5714285714286,90.47767857142857,1551.4,774.5714285714286,90.47767857142857,1661.4,774.5714285714286,90.47767857142857,1770,774.5714285714286,90.47767857142857,1877.5,774.5714285714286,90.47767857142857,1987.7,774.5714285714286,90.47767857142857,2103.9,774.5714285714286,90.47767857142857,2208.3,774.5714285714286,90.47767857142857,2310.4,774.5714285714286,90.47767857142857,2419.7,774.5714285714286,90.47767857142857,2542.3,774.5714285714286,90.47767857142857,2652.7,774.5714285714286,90.47767857142857,2766.7,774.5714285714286,90.47767857142857,2879.3,774.5714285714286,90.47767857142857,2983.2,774.5714285714286,90.47767857142857,3086.4,774.5714285714286,90.47767857142857,3196.6,774.5714285714286,90.47767857142857,3299.9,774.5714285714286,90.47767857142857,3400.7,774.5714285714286,90.47767857142857,3506.4,774.5714285714286,90.47767857142857,3618.5,774.5714285714286,90.47767857142857,3724.6,774.5714285714286,90.47767857142857,3836.1,774.5714285714286,90.47767857142857,3952.1,774.5714285714286,90.47767857142857,4058.1,774.5714285714286,90.47767857142857,4169.2,774.5714285714286,90.47767857142857,4279.8,774.5714285714286,90.47767857142857,4385.7,774.5714285714286,90.47767857142857,4498,774.5714285714286,90.47767857142857,4601.3,774.5714285714286,90.47767857142857,4706.2,774.5714285714286,90.47767857142857,4817.5,774.5714285714286,90.47767857142857,4922]","[1501,1501,1000,0,501,""oops"",""right"",""down"",""bad_move"",7883.1,6380.9,2270,5045,568.1,""smooth"",""right"",""right"",""good_move"",11220,3336.5,2785.5,7883.5,551,""smooth"",""right"",""right"",""good_move"",14026.7,2806.2,2277.6,11220.5,528.6,""oops"",""right"",""down"",""bad_move"",16995.1,2968.2,2510.7,14026.9,457.5,""smooth"",""right"",""right"",""good_move"",30618,13622,2706.6,27485.2,426.2,""smooth"",""up"",""up"",""good_move"",33716.7,3098.3,2490.3,30618.4,608,""smooth"",""up"",""up"",""good_move"",37914.9,4196.2,3713.9,33718.7,482.3,""smooth"",""up"",""up"",""good_move"",40987.7,3072.4,2309.8,37915.3,762.6,""smooth"",""up"",""up"",""good_move"",44421.3,3433.4,2249.6,40987.9,1183.8,""smooth"",""up"",""up"",""good_move""]","",""
"3465","","<div style=""width:500px;"">
  <p>What determined the result of this run?</p>
  </div>","55","html-slider-response","75","1582572","0.0-5.0-1.13","9","1","2025-07-09 08:39:21","01610cd0009c79a99da7d0a3353eb402","165.165.217.98","Mozilla/5.0 (Windows NT 10.0; Win64; x64) AppleWebKit/537.36 (KHTML, like Gecko) Chrome/137.0.0.0 Safari/537.36","WebKit","Chrome","137.0.0.0","Windows","10.0","https://app.prolific.com/","en-US,en;q=0.9","665f10dc49cd980fdf304c19","683db7602f5db6a34d12d064","686e2aa54427125a23f140a2","1","665f10dc49cd980fdf304c19","1","2025-07-09T09:05:45.796Z","","","","","","","","","","","AttribQ","","50","","","","","","","","","","","","","","","","","","","","","","","","","","","","",""
"5662","","<div style=""width:500px;"">
  <p>How much control did you have over the ball?</p>
  </div>","53","html-slider-response","76","1588237","0.0-5.0-2.13","9","1","2025-07-09 08:39:21","01610cd0009c79a99da7d0a3353eb402","165.165.217.98","Mozilla/5.0 (Windows NT 10.0; Win64; x64) AppleWebKit/537.36 (KHTML, like Gecko) Chrome/137.0.0.0 Safari/537.36","WebKit","Chrome","137.0.0.0","Windows","10.0","https://app.prolific.com/","en-US,en;q=0.9","665f10dc49cd980fdf304c19","683db7602f5db6a34d12d064","686e2aa54427125a23f140a2","1","665f10dc49cd980fdf304c19","1","2025-07-09T09:05:51.460Z","","","","","","","","","","","ControlQ","","50","","","","","","","","","","","","","","","","","","","","","","","","","","","","",""
"7881","","<div style=""width:500px;"">
  <p>How would you describe your current emotional state?</p>
  </div>","53","html-slider-response","77","1596119","0.0-5.0-3.13","9","1","2025-07-09 08:39:21","01610cd0009c79a99da7d0a3353eb402","165.165.217.98","Mozilla/5.0 (Windows NT 10.0; Win64; x64) AppleWebKit/537.36 (KHTML, like Gecko) Chrome/137.0.0.0 Safari/537.36","WebKit","Chrome","137.0.0.0","Windows","10.0","https://app.prolific.com/","en-US,en;q=0.9","665f10dc49cd980fdf304c19","683db7602f5db6a34d12d064","686e2aa54427125a23f140a2","1","665f10dc49cd980fdf304c19","1","2025-07-09T09:05:59.343Z","","","","","","","","","","","StressQ","","50","","","","","","","","","","","","","","","","","","","","","","","","","","","","",""
"5904","","<div style=""width:500px;"">
  <p>What best describes how you currently feel?</p>
  </div>","50","html-slider-response","78","1602027","0.0-5.0-4.13","9","1","2025-07-09 08:39:21","01610cd0009c79a99da7d0a3353eb402","165.165.217.98","Mozilla/5.0 (Windows NT 10.0; Win64; x64) AppleWebKit/537.36 (KHTML, like Gecko) Chrome/137.0.0.0 Safari/537.36","WebKit","Chrome","137.0.0.0","Windows","10.0","https://app.prolific.com/","en-US,en;q=0.9","665f10dc49cd980fdf304c19","683db7602f5db6a34d12d064","686e2aa54427125a23f140a2","1","665f10dc49cd980fdf304c19","1","2025-07-09T09:06:05.250Z","","","","","","","","","","","MotivationQ","","50","","","","","","","","","","","","","","","","","","","","","","","","","","","","",""
