"rt","response_timestamp","stimulus","response","trial_type","trial_index","time_elapsed","internal_node_id","run_id","condition","recorded_at","source_code_version","ip","user_agent","device","browser","browser_version","platform","platform_version","referer","accept_language","PROLIFIC_PID","STUDY_ID","SESSION_ID","WEEK","BATCH","prolific_id","week","batch","realtime","success","responses","item_order","radio_event_ids","radio_event_times","key_event_times","mouse_event_times","straightlining","zigzagging","honeypot","eventType","view_history","slider_start","which_type","canvas_config","goals_layout","control_level","trial_number","tutorial_trial_number","trial_start_time","phase1_start_time","phase2_start_time","phase3_start_time","goal_1_value","goal_1_distance","goal_2_value","goal_2_distance","goal_selected","outcome","outcome_total","participant_final_score","participant_initial_score","participant_final_score_prop","goal_choice_rt","allocated_time","allocated_time_remaining","goal_direction","counts","mouse_movements","key_presses","question_order","question_id"
"20787","1752654393246","<p style='font-size:40px;line-height:1.25'><strong>Welcome to the experiment!</strong></p><p style='font-size:1.1em;line-height:1.25'>Thank you for participanting in our experiment again! You will be asked to play the Dysfunctional Ball Game again. We will briefly recap the rules before we start.</p><p style='font-size:1.1em;line-height:1.25'>Press <strong>Next</strong> to continue.</p>","0","custom-html-button-response","0","20790","0.0-0.0","59","1","2025-07-16 08:26:10","1f75c3e559b7213887762d5229550c2b","41.123.82.0","Mozilla/5.0 (Windows NT 10.0; Win64; x64) AppleWebKit/537.36 (KHTML, like Gecko) Chrome/138.0.0.0 Safari/537.36","WebKit","Chrome","138.0.0.0","Windows","10.0","https://app.prolific.com/","en-US,en;q=0.9","6612e7f231d13a67b8e758cc","686e379bc37a29ffa5cdc956","687761fd1c5e248da555d938","1","1","6612e7f231d13a67b8e758cc","1","1","2025-07-16T08:26:33.247Z","","","","","","","","","","","","","","","","","","","","","","","","","","","","","","","","","","","","","","","","","",""
"21219","","","","fullscreen","1","43028","0.0-1.0","59","1","2025-07-16 08:26:10","1f75c3e559b7213887762d5229550c2b","41.123.82.0","Mozilla/5.0 (Windows NT 10.0; Win64; x64) AppleWebKit/537.36 (KHTML, like Gecko) Chrome/138.0.0.0 Safari/537.36","WebKit","Chrome","138.0.0.0","Windows","10.0","https://app.prolific.com/","en-US,en;q=0.9","6612e7f231d13a67b8e758cc","686e379bc37a29ffa5cdc956","687761fd1c5e248da555d938","1","1","6612e7f231d13a67b8e758cc","1","1","","true","","","","","","","","","","","","","","","","","","","","","","","","","","","","","","","","","","","","","","","","",""
"11908","1752654427395","<p style='font-size:1.1em;line-height:1.25'>In the following, we will ask you a few questions relating to your feelings in the last 24 hours.<br></p><p style='font-size:1.1em;line-height:1.25'>Press the <strong>Next</strong> button to continue.</p>","0","custom-html-button-response","2","54938","0.0-2.0-0.0","59","1","2025-07-16 08:26:10","1f75c3e559b7213887762d5229550c2b","41.123.82.0","Mozilla/5.0 (Windows NT 10.0; Win64; x64) AppleWebKit/537.36 (KHTML, like Gecko) Chrome/138.0.0.0 Safari/537.36","WebKit","Chrome","138.0.0.0","Windows","10.0","https://app.prolific.com/","en-US,en;q=0.9","6612e7f231d13a67b8e758cc","686e379bc37a29ffa5cdc956","687761fd1c5e248da555d938","1","1","6612e7f231d13a67b8e758cc","1","1","2025-07-16T08:27:07.395Z","","","","","","","","","","","","","","","","","","","","","","","","","","","","","","","","","","","","","","","","","",""
"314265","","","","survey-template","3","369209","0.0-2.0-1.0","59","1","2025-07-16 08:26:10","1f75c3e559b7213887762d5229550c2b","41.123.82.0","Mozilla/5.0 (Windows NT 10.0; Win64; x64) AppleWebKit/537.36 (KHTML, like Gecko) Chrome/138.0.0.0 Safari/537.36","WebKit","Chrome","138.0.0.0","Windows","10.0","https://app.prolific.com/","en-US,en;q=0.9","6612e7f231d13a67b8e758cc","686e379bc37a29ffa5cdc956","687761fd1c5e248da555d938","1","1","6612e7f231d13a67b8e758cc","1","1","2025-07-16T08:32:21.666Z","","{""Q01"":""1"",""Q02"":""0"",""Q03"":""0"",""Q04"":""1"",""Q05"":""1"",""Q06"":""0"",""Q07"":""0"",""Q08"":""0"",""Q09"":""1"",""Q10"":""3"",""Q11"":""2"",""Q12"":""4"",""Q13"":""5"",""Q14"":""4"",""Q15"":""2"",""Q16"":""0"",""Q17"":""2"",""Q18"":""0"",""Q19"":""2"",""Q20"":""1"",""Q21"":""0"",""Q22"":""0""}","[0,1,2,3,4,5,6,7,8,9,10,11,12,13,14,15,16,17,18,19,20,21]","[""Q01"",""Q02"",""Q03"",""Q04"",""Q05"",""Q06"",""Q07"",""Q08"",""Q09"",""Q10"",""Q11"",""Q12"",""Q13"",""Q14"",""Q15"",""Q15"",""Q16"",""Q17"",""Q18"",""Q19"",""Q20"",""Q21"",""Q22""]","[15868,19704.30000001192,24132.5,28104.900000035763,32602.19999998808,206850.10000002384,212785.5,215029.5,220486.40000003576,227452,235261,241393.60000002384,246444,250567.30000001192,260927.90000003576,269462.40000003576,273430.10000002384,280894.10000002384,283146,289326.1999999881,300195.1999999881,306540.5,312861.90000003576]","[]","[0,15868,19704.30000001192,24132.5,28104.900000035763,32602.19999998808,206850.10000002384,212785.5,215029.5,220486.40000003576,227452,235261,241393.60000002384,246444,250567.30000001192,260927.90000003576,269462.40000003576,273430.10000002384,280894.10000002384,283146,289326.1999999881,299061.10000002384,300195.1999999881,306540.5,312861.90000003576,314260.8000000119]","0.4090909090909091","0.42857142857142855","0","drsp","","","","","","","","","","","","","","","","","","","","","","","","","","","","","","",""
"21409.5","","","","survey-template","4","390621","0.0-2.0-2.0","59","1","2025-07-16 08:26:10","1f75c3e559b7213887762d5229550c2b","41.123.82.0","Mozilla/5.0 (Windows NT 10.0; Win64; x64) AppleWebKit/537.36 (KHTML, like Gecko) Chrome/138.0.0.0 Safari/537.36","WebKit","Chrome","138.0.0.0","Windows","10.0","https://app.prolific.com/","en-US,en;q=0.9","6612e7f231d13a67b8e758cc","686e379bc37a29ffa5cdc956","687761fd1c5e248da555d938","1","1","6612e7f231d13a67b8e758cc","1","1","2025-07-16T08:32:43.078Z","","{""Q01"":""1"",""Q02"":""3"",""Q03"":""1""}","[0,1,2]","[""Q01"",""Q02"",""Q03""]","[5825.099999964237,12158.899999976158,19676.399999976158]","[]","[5825.099999964237,12158.899999976158,19676.399999976158,21408.69999998808]","0.6666666666666666","1","0","stress","","","","","","","","","","","","","","","","","","","","","","","","","","","","","","",""
"64985","","","","instructions","5","455607","0.0-3.0-0.0","59","1","2025-07-16 08:26:10","1f75c3e559b7213887762d5229550c2b","41.123.82.0","Mozilla/5.0 (Windows NT 10.0; Win64; x64) AppleWebKit/537.36 (KHTML, like Gecko) Chrome/138.0.0.0 Safari/537.36","WebKit","Chrome","138.0.0.0","Windows","10.0","https://app.prolific.com/","en-US,en;q=0.9","6612e7f231d13a67b8e758cc","686e379bc37a29ffa5cdc956","687761fd1c5e248da555d938","1","1","6612e7f231d13a67b8e758cc","1","1","","","","","","","","","","","","","[{""page_index"":0,""viewing_time"":64985}]","","","","","","","","","","","","","","","","","","","","","","","","","","","","","",""
"29161","","<p>Before you start with this game please answer the following three questions yourself. </p>
  <p>Through this game, we measure several aspects of your cognitive performance, such as reaction times, multi-tasking capabilities </p>
  <p>and the ability to assess the situation you are in.</p>
  <p></p>
  <p><b>How good do you usually are in such tasks?</b></p>","100","html-slider-response","6","484769","0.0-4.0-0.0","59","1","2025-07-16 08:26:10","1f75c3e559b7213887762d5229550c2b","41.123.82.0","Mozilla/5.0 (Windows NT 10.0; Win64; x64) AppleWebKit/537.36 (KHTML, like Gecko) Chrome/138.0.0.0 Safari/537.36","WebKit","Chrome","138.0.0.0","Windows","10.0","https://app.prolific.com/","en-US,en;q=0.9","6612e7f231d13a67b8e758cc","686e379bc37a29ffa5cdc956","687761fd1c5e248da555d938","1","1","6612e7f231d13a67b8e758cc","1","1","2025-07-16T08:34:17.227Z","","","","","","","","","","","PreSkillQ","","50","","","","","","","","","","","","","","","","","","","","","","","","","","","","",""
"7530","","<div style=""width:500px;"">
  <p>How well do you think you will perform in this task compared to other participants?</p>
  </div>","100","html-slider-response","7","492301","0.0-4.0-1.0","59","1","2025-07-16 08:26:10","1f75c3e559b7213887762d5229550c2b","41.123.82.0","Mozilla/5.0 (Windows NT 10.0; Win64; x64) AppleWebKit/537.36 (KHTML, like Gecko) Chrome/138.0.0.0 Safari/537.36","WebKit","Chrome","138.0.0.0","Windows","10.0","https://app.prolific.com/","en-US,en;q=0.9","6612e7f231d13a67b8e758cc","686e379bc37a29ffa5cdc956","687761fd1c5e248da555d938","1","1","6612e7f231d13a67b8e758cc","1","1","2025-07-16T08:34:24.758Z","","","","","","","","","","","PrePerfQ","","50","","","","","","","","","","","","","","","","","","","","","","","","","","","","",""
"8953","","<div style=""width:500px;"">
  <p>What best describes how you currently feel?</p>
  </div>","100","html-slider-response","8","501255","0.0-4.0-2.0","59","1","2025-07-16 08:26:10","1f75c3e559b7213887762d5229550c2b","41.123.82.0","Mozilla/5.0 (Windows NT 10.0; Win64; x64) AppleWebKit/537.36 (KHTML, like Gecko) Chrome/138.0.0.0 Safari/537.36","WebKit","Chrome","138.0.0.0","Windows","10.0","https://app.prolific.com/","en-US,en;q=0.9","6612e7f231d13a67b8e758cc","686e379bc37a29ffa5cdc956","687761fd1c5e248da555d938","1","1","6612e7f231d13a67b8e758cc","1","1","2025-07-16T08:34:33.712Z","","","","","","","","","","","PreMotivationQ","","50","","","","","","","","","","","","","","","","","","","","","","","","","","","","",""
"","","","","ctl-task-cpt","9","551738","0.0-5.0-0.0","59","1","2025-07-16 08:26:10","1f75c3e559b7213887762d5229550c2b","41.123.82.0","Mozilla/5.0 (Windows NT 10.0; Win64; x64) AppleWebKit/537.36 (KHTML, like Gecko) Chrome/138.0.0.0 Safari/537.36","WebKit","Chrome","138.0.0.0","Windows","10.0","https://app.prolific.com/","en-US,en;q=0.9","6612e7f231d13a67b8e758cc","686e379bc37a29ffa5cdc956","687761fd1c5e248da555d938","1","1","6612e7f231d13a67b8e758cc","1","1","2025-07-16T08:35:24.195Z","","","","","","","","","","","","","","win-only","2","g1:SE,g2:NW","1","1","0","503631.5","17889.9","22903.6","47471.8","1","4","8","6","2","8","8","8","0","0.06060606060606061","1582.7","3000","1250","[""left"",""up""]","{""num_key_presses"":6,""num_perfect"":6,""num_errors"":0,""num_randdir"":0,""num_randdir_good_moves"":0,""num_whilered"":0,""num_whileblue"":0,""num_blue"":2,""num_good_moves"":6}","[289.22232142857143,293.12857142857143,2.5,289.22232142857143,293.12857142857143,104.7,289.22232142857143,293.12857142857143,209,289.22232142857143,293.12857142857143,318.7,289.22232142857143,293.12857142857143,425.7,289.22232142857143,293.12857142857143,525.9,276.22232142857143,288.12857142857143,626.8,45.222321428571426,102.12857142857143,728.3,-66.77767857142857,-21.871428571428574,838.5,-81.77767857142857,-48.871428571428574,938.6,-49.777678571428574,-31.871428571428574,1044.4,36.222321428571426,20.128571428571426,1146.4,54.222321428571426,37.128571428571426,1250.5,55.222321428571426,38.128571428571426,1363.8,55.222321428571426,38.128571428571426,1476.9,55.222321428571426,38.128571428571426,1577.9,55.222321428571426,38.128571428571426,1688.8,55.222321428571426,38.128571428571426,1794.6,55.222321428571426,38.128571428571426,1900.4,55.222321428571426,38.128571428571426,2002.9,55.222321428571426,38.128571428571426,2108.6,55.222321428571426,38.128571428571426,2209.8,55.222321428571426,38.128571428571426,2310.1,55.222321428571426,38.128571428571426,2411.4,55.222321428571426,38.128571428571426,2513.6,55.222321428571426,38.128571428571426,2618.8,55.222321428571426,38.128571428571426,2726.7,55.222321428571426,38.128571428571426,2826.9,55.222321428571426,38.128571428571426,2929.2,55.222321428571426,38.128571428571426,3029.9,55.222321428571426,38.128571428571426,3130.7,55.222321428571426,38.128571428571426,3238.9,55.222321428571426,38.128571428571426,3339,55.222321428571426,38.128571428571426,3439.1,55.222321428571426,38.128571428571426,3543,55.222321428571426,38.128571428571426,3643.9,55.222321428571426,38.128571428571426,3750,55.222321428571426,38.128571428571426,3859.1,55.222321428571426,38.128571428571426,3959.5,55.222321428571426,38.128571428571426,4060,55.222321428571426,38.128571428571426,4161,55.222321428571426,38.128571428571426,4261.4,55.222321428571426,38.128571428571426,4362.1,55.222321428571426,38.128571428571426,4462.5,55.222321428571426,38.128571428571426,4576.7,55.222321428571426,38.128571428571426,4680.3,55.222321428571426,38.128571428571426,4789.3,55.222321428571426,38.128571428571426,4893.5,55.222321428571426,38.128571428571426,4997.2]","[1657.8,1657.6,1000,0.2,657.6,""smooth"",""up"",""up"",""good_move"",8951.4,7292.7,3091.8,5512.8,346.8,""smooth"",""up"",""up"",""good_move"",11958.2,3006,2504.5,8952.2,501.5,""smooth"",""left"",""left"",""good_move"",14784.7,2825.5,2361.9,11959.2,463.6,""smooth"",""left"",""left"",""good_move"",17854.3,3068.8,2673.6,14785.6,395.2,""smooth"",""left"",""left"",""good_move"",24436.1,6580.9,2103,21878.3,454.8,""smooth"",""up"",""up"",""good_move""]","",""
"9923","","<div style=""width:500px;"">
  <p>What determined the result of this run?</p>
  </div>","100","html-slider-response","10","561665","0.0-5.0-1.0","59","1","2025-07-16 08:26:10","1f75c3e559b7213887762d5229550c2b","41.123.82.0","Mozilla/5.0 (Windows NT 10.0; Win64; x64) AppleWebKit/537.36 (KHTML, like Gecko) Chrome/138.0.0.0 Safari/537.36","WebKit","Chrome","138.0.0.0","Windows","10.0","https://app.prolific.com/","en-US,en;q=0.9","6612e7f231d13a67b8e758cc","686e379bc37a29ffa5cdc956","687761fd1c5e248da555d938","1","1","6612e7f231d13a67b8e758cc","1","1","2025-07-16T08:35:34.123Z","","","","","","","","","","","AttribQ","","50","","","","","","","","","","","","","","","","","","","","","","","","","","","","",""
"9775","","<div style=""width:500px;"">
  <p>How much control did you have over the ball?</p>
  </div>","100","html-slider-response","11","571443","0.0-5.0-2.0","59","1","2025-07-16 08:26:10","1f75c3e559b7213887762d5229550c2b","41.123.82.0","Mozilla/5.0 (Windows NT 10.0; Win64; x64) AppleWebKit/537.36 (KHTML, like Gecko) Chrome/138.0.0.0 Safari/537.36","WebKit","Chrome","138.0.0.0","Windows","10.0","https://app.prolific.com/","en-US,en;q=0.9","6612e7f231d13a67b8e758cc","686e379bc37a29ffa5cdc956","687761fd1c5e248da555d938","1","1","6612e7f231d13a67b8e758cc","1","1","2025-07-16T08:35:43.900Z","","","","","","","","","","","ControlQ","","50","","","","","","","","","","","","","","","","","","","","","","","","","","","","",""
"11450","","<div style=""width:500px;"">
  <p>How would you describe your current emotional state?</p>
  </div>","0","html-slider-response","12","582894","0.0-5.0-3.0","59","1","2025-07-16 08:26:10","1f75c3e559b7213887762d5229550c2b","41.123.82.0","Mozilla/5.0 (Windows NT 10.0; Win64; x64) AppleWebKit/537.36 (KHTML, like Gecko) Chrome/138.0.0.0 Safari/537.36","WebKit","Chrome","138.0.0.0","Windows","10.0","https://app.prolific.com/","en-US,en;q=0.9","6612e7f231d13a67b8e758cc","686e379bc37a29ffa5cdc956","687761fd1c5e248da555d938","1","1","6612e7f231d13a67b8e758cc","1","1","2025-07-16T08:35:55.351Z","","","","","","","","","","","StressQ","","50","","","","","","","","","","","","","","","","","","","","","","","","","","","","",""
"10632","","<div style=""width:500px;"">
  <p>What best describes how you currently feel?</p>
  </div>","100","html-slider-response","13","593528","0.0-5.0-4.0","59","1","2025-07-16 08:26:10","1f75c3e559b7213887762d5229550c2b","41.123.82.0","Mozilla/5.0 (Windows NT 10.0; Win64; x64) AppleWebKit/537.36 (KHTML, like Gecko) Chrome/138.0.0.0 Safari/537.36","WebKit","Chrome","138.0.0.0","Windows","10.0","https://app.prolific.com/","en-US,en;q=0.9","6612e7f231d13a67b8e758cc","686e379bc37a29ffa5cdc956","687761fd1c5e248da555d938","1","1","6612e7f231d13a67b8e758cc","1","1","2025-07-16T08:36:05.985Z","","","","","","","","","","","MotivationQ","","50","","","","","","","","","","","","","","","","","","","","","","","","","","","","",""
"","","","","ctl-task-cpt","14","626283","0.0-5.0-0.1","59","1","2025-07-16 08:26:10","1f75c3e559b7213887762d5229550c2b","41.123.82.0","Mozilla/5.0 (Windows NT 10.0; Win64; x64) AppleWebKit/537.36 (KHTML, like Gecko) Chrome/138.0.0.0 Safari/537.36","WebKit","Chrome","138.0.0.0","Windows","10.0","https://app.prolific.com/","en-US,en;q=0.9","6612e7f231d13a67b8e758cc","686e379bc37a29ffa5cdc956","687761fd1c5e248da555d938","1","1","6612e7f231d13a67b8e758cc","1","1","2025-07-16T08:36:38.740Z","","","","","","","","","","","","","","win-only","0","g1:NW,g2:SE","0.9","2","0","595904","9062.8","14070.8","29738.9","1","4","4","6","2","4","4","12","8","0.09090909090909091","1990.8","3000","1255","[""down"",""right""]","{""num_key_presses"":6,""num_perfect"":5,""num_errors"":0,""num_randdir"":1,""num_randdir_good_moves"":1,""num_whilered"":0,""num_whileblue"":0,""num_blue"":0,""num_good_moves"":6}","[291.22232142857143,304.12857142857143,3.1,291.22232142857143,304.12857142857143,106.3,291.22232142857143,304.12857142857143,206.6,291.22232142857143,304.12857142857143,308.1,291.22232142857143,304.12857142857143,418.3,292.22232142857143,304.12857142857143,519.5,292.22232142857143,301.12857142857143,621.2,292.22232142857143,301.12857142857143,727.2,292.22232142857143,301.12857142857143,827.2,292.22232142857143,301.12857142857143,932.8,294.22232142857143,301.12857142857143,1038.7,458.22232142857143,417.12857142857143,1143.1,608.2223214285714,581.1285714285714,1243.6,615.2223214285714,593.1285714285714,1347.4,615.2223214285714,593.1285714285714,1449.1,604.2223214285714,586.1285714285714,1550.3,573.2223214285714,558.1285714285714,1651.4,565.2223214285714,554.1285714285714,1752.5,565.2223214285714,554.1285714285714,1856.5,565.2223214285714,554.1285714285714,1957.3,565.2223214285714,554.1285714285714,2059,565.2223214285714,554.1285714285714,2164,565.2223214285714,554.1285714285714,2276,565.2223214285714,554.1285714285714,2379.8,565.2223214285714,554.1285714285714,2479.8,565.2223214285714,554.1285714285714,2581,565.2223214285714,554.1285714285714,2681.3,565.2223214285714,554.1285714285714,2785.5,565.2223214285714,554.1285714285714,2898.5,565.2223214285714,554.1285714285714,2998.8,565.2223214285714,554.1285714285714,3107.4,565.2223214285714,554.1285714285714,3215.8,565.2223214285714,554.1285714285714,3315.9,565.2223214285714,554.1285714285714,3426.3,565.2223214285714,554.1285714285714,3526.3,565.2223214285714,554.1285714285714,3626.6,565.2223214285714,554.1285714285714,3726.9,565.2223214285714,554.1285714285714,3834.1,565.2223214285714,554.1285714285714,3935.1,565.2223214285714,554.1285714285714,4035.7,565.2223214285714,554.1285714285714,4137.2,565.2223214285714,554.1285714285714,4237.9,565.2223214285714,554.1285714285714,4339.7,565.2223214285714,554.1285714285714,4448.4,565.2223214285714,554.1285714285714,4550.5,565.2223214285714,554.1285714285714,4656.5,565.2223214285714,554.1285714285714,4765.8,565.2223214285714,554.1285714285714,4866.3,565.2223214285714,554.1285714285714,4969]","[1418.6,1418.6,1000,0.1,418.5,""smooth"",""right"",""right"",""good_move"",3497.5,2076.7,1655.6,1420.8,421.2,""smooth"",""down"",""down"",""good_move"",6716.9,3218.2,2818.4,3498.7,399.8,""oops"",""down"",""right"",""good_move"",9643.2,2925.5,2504.5,6717.7,421.1,""smooth"",""down"",""down"",""good_move"",12745.3,3100.2,2734.4,9645.3,365.7,""smooth"",""down"",""down"",""good_move"",15539.7,2792.6,2292.5,12747.1,500.1,""smooth"",""right"",""right"",""good_move""]","",""
"4772","","<div style=""width:500px;"">
  <p>What determined the result of this run?</p>
  </div>","100","html-slider-response","15","631058","0.0-5.0-1.1","59","1","2025-07-16 08:26:10","1f75c3e559b7213887762d5229550c2b","41.123.82.0","Mozilla/5.0 (Windows NT 10.0; Win64; x64) AppleWebKit/537.36 (KHTML, like Gecko) Chrome/138.0.0.0 Safari/537.36","WebKit","Chrome","138.0.0.0","Windows","10.0","https://app.prolific.com/","en-US,en;q=0.9","6612e7f231d13a67b8e758cc","686e379bc37a29ffa5cdc956","687761fd1c5e248da555d938","1","1","6612e7f231d13a67b8e758cc","1","1","2025-07-16T08:36:43.515Z","","","","","","","","","","","AttribQ","","50","","","","","","","","","","","","","","","","","","","","","","","","","","","","",""
"8256","","<div style=""width:500px;"">
  <p>How much control did you have over the ball?</p>
  </div>","94","html-slider-response","16","639316","0.0-5.0-2.1","59","1","2025-07-16 08:26:10","1f75c3e559b7213887762d5229550c2b","41.123.82.0","Mozilla/5.0 (Windows NT 10.0; Win64; x64) AppleWebKit/537.36 (KHTML, like Gecko) Chrome/138.0.0.0 Safari/537.36","WebKit","Chrome","138.0.0.0","Windows","10.0","https://app.prolific.com/","en-US,en;q=0.9","6612e7f231d13a67b8e758cc","686e379bc37a29ffa5cdc956","687761fd1c5e248da555d938","1","1","6612e7f231d13a67b8e758cc","1","1","2025-07-16T08:36:51.773Z","","","","","","","","","","","ControlQ","","50","","","","","","","","","","","","","","","","","","","","","","","","","","","","",""
"6868","","<div style=""width:500px;"">
  <p>How would you describe your current emotional state?</p>
  </div>","0","html-slider-response","17","646185","0.0-5.0-3.1","59","1","2025-07-16 08:26:10","1f75c3e559b7213887762d5229550c2b","41.123.82.0","Mozilla/5.0 (Windows NT 10.0; Win64; x64) AppleWebKit/537.36 (KHTML, like Gecko) Chrome/138.0.0.0 Safari/537.36","WebKit","Chrome","138.0.0.0","Windows","10.0","https://app.prolific.com/","en-US,en;q=0.9","6612e7f231d13a67b8e758cc","686e379bc37a29ffa5cdc956","687761fd1c5e248da555d938","1","1","6612e7f231d13a67b8e758cc","1","1","2025-07-16T08:36:58.642Z","","","","","","","","","","","StressQ","","50","","","","","","","","","","","","","","","","","","","","","","","","","","","","",""
"7796","","<div style=""width:500px;"">
  <p>What best describes how you currently feel?</p>
  </div>","100","html-slider-response","18","653983","0.0-5.0-4.1","59","1","2025-07-16 08:26:10","1f75c3e559b7213887762d5229550c2b","41.123.82.0","Mozilla/5.0 (Windows NT 10.0; Win64; x64) AppleWebKit/537.36 (KHTML, like Gecko) Chrome/138.0.0.0 Safari/537.36","WebKit","Chrome","138.0.0.0","Windows","10.0","https://app.prolific.com/","en-US,en;q=0.9","6612e7f231d13a67b8e758cc","686e379bc37a29ffa5cdc956","687761fd1c5e248da555d938","1","1","6612e7f231d13a67b8e758cc","1","1","2025-07-16T08:37:06.440Z","","","","","","","","","","","MotivationQ","","50","","","","","","","","","","","","","","","","","","","","","","","","","","","","",""
"","","","","ctl-task-cpt","19","700143","0.0-5.0-0.2","59","1","2025-07-16 08:26:10","1f75c3e559b7213887762d5229550c2b","41.123.82.0","Mozilla/5.0 (Windows NT 10.0; Win64; x64) AppleWebKit/537.36 (KHTML, like Gecko) Chrome/138.0.0.0 Safari/537.36","WebKit","Chrome","138.0.0.0","Windows","10.0","https://app.prolific.com/","en-US,en;q=0.9","6612e7f231d13a67b8e758cc","686e379bc37a29ffa5cdc956","687761fd1c5e248da555d938","1","1","6612e7f231d13a67b8e758cc","1","1","2025-07-16T08:37:52.600Z","","","","","","","","","","","","","","win-only","2","g1:SE,g2:NW","0.8","3","0","656358.3","4790.4","9796.8","43140.5","1","4","8","6","2","8","8","20","12","0.15151515151515152","1508.3","3000","210","[""left"",""up""]","{""num_key_presses"":10,""num_perfect"":8,""num_errors"":0,""num_randdir"":2,""num_randdir_good_moves"":0,""num_whilered"":0,""num_whileblue"":0,""num_blue"":1,""num_good_moves"":8}","[294.22232142857143,294.12857142857143,1.8,294.22232142857143,294.12857142857143,105.8,294.22232142857143,294.12857142857143,205.9,294.22232142857143,294.12857142857143,314.8,294.22232142857143,294.12857142857143,415.8,294.22232142857143,294.12857142857143,521,294.22232142857143,294.12857142857143,626.2,175.22232142857143,205.12857142857143,731.2,115.22232142857143,103.12857142857143,837,110.22232142857143,84.12857142857143,946.9,90.22232142857143,75.12857142857143,1053.5,77.22232142857143,71.12857142857143,1154.3,73.22232142857143,70.12857142857143,1257.6,73.22232142857143,70.12857142857143,1364.6,73.22232142857143,70.12857142857143,1466.6,73.22232142857143,70.12857142857143,1575.9,73.22232142857143,70.12857142857143,1676.3,73.22232142857143,70.12857142857143,1784.1,73.22232142857143,70.12857142857143,1889.8,73.22232142857143,70.12857142857143,1998.6,73.22232142857143,70.12857142857143,2101.9,73.22232142857143,70.12857142857143,2215.5,75.22232142857143,67.12857142857143,2325,121.22232142857143,77.12857142857143,2428.2,150.22232142857143,99.12857142857143,2545.8,150.22232142857143,102.12857142857143,2655.4,150.22232142857143,102.12857142857143,2756.5,150.22232142857143,102.12857142857143,2869.8,150.22232142857143,102.12857142857143,2970.4,150.22232142857143,102.12857142857143,3077,150.22232142857143,102.12857142857143,3181.7,150.22232142857143,102.12857142857143,3286.6,150.22232142857143,102.12857142857143,3396.5,150.22232142857143,102.12857142857143,3497,150.22232142857143,102.12857142857143,3597.8,150.22232142857143,102.12857142857143,3700.3,150.22232142857143,102.12857142857143,3803.1,150.22232142857143,102.12857142857143,3909.8,150.22232142857143,102.12857142857143,4021.8,150.22232142857143,102.12857142857143,4128.3,150.22232142857143,102.12857142857143,4229.6,150.22232142857143,102.12857142857143,4334.3,150.22232142857143,102.12857142857143,4435.4,150.22232142857143,102.12857142857143,4546.3,150.22232142857143,102.12857142857143,4647.2,150.22232142857143,102.12857142857143,4748.4,150.22232142857143,102.12857142857143,4857.1,150.22232142857143,102.12857142857143,4964.9]","[1438.2,1438.2,1000,0,438.2,""smooth"",""left"",""left"",""good_move"",4547.7,3109,2575.7,1438.7,533.3,""smooth"",""left"",""left"",""good_move"",11002.5,6454.5,2649,7999,354.5,""oops"",""up"",""down"",""bad_move"",14237.3,3234.3,2774.5,11003,459.8,""smooth"",""left"",""left"",""good_move"",17548.6,3311,2867.6,14237.6,443.4,""oops"",""up"",""down"",""bad_move"",21266.7,3717.9,3283,17548.9,434.9,""smooth"",""up"",""up"",""good_move"",24222,2954.5,2532.9,21267.5,421.6,""smooth"",""up"",""up"",""good_move"",26825.8,2603.3,2112.6,24222.5,490.7,""smooth"",""up"",""up"",""good_move"",30153.4,3326.9,2958.6,26826.5,368.3,""smooth"",""up"",""up"",""good_move"",33210.6,3056.9,2666.2,30153.7,390.7,""smooth"",""up"",""up"",""good_move""]","",""
"8113","","<div style=""width:500px;"">
  <p>What determined the result of this run?</p>
  </div>","99","html-slider-response","20","708258","0.0-5.0-1.2","59","1","2025-07-16 08:26:10","1f75c3e559b7213887762d5229550c2b","41.123.82.0","Mozilla/5.0 (Windows NT 10.0; Win64; x64) AppleWebKit/537.36 (KHTML, like Gecko) Chrome/138.0.0.0 Safari/537.36","WebKit","Chrome","138.0.0.0","Windows","10.0","https://app.prolific.com/","en-US,en;q=0.9","6612e7f231d13a67b8e758cc","686e379bc37a29ffa5cdc956","687761fd1c5e248da555d938","1","1","6612e7f231d13a67b8e758cc","1","1","2025-07-16T08:38:00.715Z","","","","","","","","","","","AttribQ","","50","","","","","","","","","","","","","","","","","","","","","","","","","","","","",""
"7914","","<div style=""width:500px;"">
  <p>How much control did you have over the ball?</p>
  </div>","79","html-slider-response","21","716174","0.0-5.0-2.2","59","1","2025-07-16 08:26:10","1f75c3e559b7213887762d5229550c2b","41.123.82.0","Mozilla/5.0 (Windows NT 10.0; Win64; x64) AppleWebKit/537.36 (KHTML, like Gecko) Chrome/138.0.0.0 Safari/537.36","WebKit","Chrome","138.0.0.0","Windows","10.0","https://app.prolific.com/","en-US,en;q=0.9","6612e7f231d13a67b8e758cc","686e379bc37a29ffa5cdc956","687761fd1c5e248da555d938","1","1","6612e7f231d13a67b8e758cc","1","1","2025-07-16T08:38:08.631Z","","","","","","","","","","","ControlQ","","50","","","","","","","","","","","","","","","","","","","","","","","","","","","","",""
"8130","","<div style=""width:500px;"">
  <p>How would you describe your current emotional state?</p>
  </div>","0","html-slider-response","22","724307","0.0-5.0-3.2","59","1","2025-07-16 08:26:10","1f75c3e559b7213887762d5229550c2b","41.123.82.0","Mozilla/5.0 (Windows NT 10.0; Win64; x64) AppleWebKit/537.36 (KHTML, like Gecko) Chrome/138.0.0.0 Safari/537.36","WebKit","Chrome","138.0.0.0","Windows","10.0","https://app.prolific.com/","en-US,en;q=0.9","6612e7f231d13a67b8e758cc","686e379bc37a29ffa5cdc956","687761fd1c5e248da555d938","1","1","6612e7f231d13a67b8e758cc","1","1","2025-07-16T08:38:16.764Z","","","","","","","","","","","StressQ","","50","","","","","","","","","","","","","","","","","","","","","","","","","","","","",""
"37269","","<div style=""width:500px;"">
  <p>What best describes how you currently feel?</p>
  </div>","100","html-slider-response","23","761578","0.0-5.0-4.2","59","1","2025-07-16 08:26:10","1f75c3e559b7213887762d5229550c2b","41.123.82.0","Mozilla/5.0 (Windows NT 10.0; Win64; x64) AppleWebKit/537.36 (KHTML, like Gecko) Chrome/138.0.0.0 Safari/537.36","WebKit","Chrome","138.0.0.0","Windows","10.0","https://app.prolific.com/","en-US,en;q=0.9","6612e7f231d13a67b8e758cc","686e379bc37a29ffa5cdc956","687761fd1c5e248da555d938","1","1","6612e7f231d13a67b8e758cc","1","1","2025-07-16T08:38:54.035Z","","","","","","","","","","","MotivationQ","","50","","","","","","","","","","","","","","","","","","","","","","","","","","","","",""
"","","","","ctl-task-cpt","24","792397","0.0-5.0-0.3","59","1","2025-07-16 08:26:10","1f75c3e559b7213887762d5229550c2b","41.123.82.0","Mozilla/5.0 (Windows NT 10.0; Win64; x64) AppleWebKit/537.36 (KHTML, like Gecko) Chrome/138.0.0.0 Safari/537.36","WebKit","Chrome","138.0.0.0","Windows","10.0","https://app.prolific.com/","en-US,en;q=0.9","6612e7f231d13a67b8e758cc","686e379bc37a29ffa5cdc956","687761fd1c5e248da555d938","1","1","6612e7f231d13a67b8e758cc","1","1","2025-07-16T08:39:24.854Z","","","","","","","","","","","","","","win-only","0","g1:NW,g2:SE","0.7","4","0","763954.9","2428.5","7435.6","27804.4","1","4","4","6","2","4","4","24","20","0.18181818181818182","1743.7","3000","1345","[""down"",""right""]","{""num_key_presses"":6,""num_perfect"":5,""num_errors"":0,""num_randdir"":1,""num_randdir_good_moves"":1,""num_whilered"":0,""num_whileblue"":0,""num_blue"":1,""num_good_moves"":6}","[297.22232142857143,303.12857142857143,0.9,297.22232142857143,303.12857142857143,105.6,297.22232142857143,303.12857142857143,206,297.22232142857143,303.12857142857143,306.3,297.22232142857143,303.12857142857143,414.9,297.22232142857143,303.12857142857143,517.2,297.22232142857143,303.12857142857143,617.2,297.22232142857143,303.12857142857143,725.6,297.22232142857143,303.12857142857143,825.7,297.22232142857143,303.12857142857143,925.7,432.22232142857143,360.12857142857143,1029.2,582.2223214285714,523.1285714285714,1136.7,590.2223214285714,539.1285714285714,1241.4,587.2223214285714,543.1285714285714,1353.7,586.2223214285714,543.1285714285714,1455.6,585.2223214285714,543.1285714285714,1564.9,585.2223214285714,547.1285714285714,1665.1,585.2223214285714,543.1285714285714,1775.9,585.2223214285714,543.1285714285714,1876.2,585.2223214285714,543.1285714285714,1978.6,585.2223214285714,543.1285714285714,2087.5,585.2223214285714,543.1285714285714,2195.1,585.2223214285714,543.1285714285714,2298,585.2223214285714,543.1285714285714,2398.6,585.2223214285714,543.1285714285714,2498.6,585.2223214285714,543.1285714285714,2606.9,585.2223214285714,543.1285714285714,2711.9,585.2223214285714,543.1285714285714,2812.1,585.2223214285714,543.1285714285714,2913.7,585.2223214285714,543.1285714285714,3015.8,585.2223214285714,543.1285714285714,3117.5,585.2223214285714,543.1285714285714,3220.3,585.2223214285714,543.1285714285714,3326.3,585.2223214285714,543.1285714285714,3429,585.2223214285714,543.1285714285714,3529.9,585.2223214285714,543.1285714285714,3632.9,585.2223214285714,543.1285714285714,3735.5,585.2223214285714,543.1285714285714,3835.7,585.2223214285714,543.1285714285714,3943.2,585.2223214285714,543.1285714285714,4043.2,585.2223214285714,543.1285714285714,4144.2,585.2223214285714,543.1285714285714,4254.1,585.2223214285714,543.1285714285714,4356.3,585.2223214285714,543.1285714285714,4462,585.2223214285714,543.1285714285714,4562,585.2223214285714,543.1285714285714,4662.5,585.2223214285714,543.1285714285714,4764,585.2223214285714,543.1285714285714,4875.5,585.2223214285714,543.1285714285714,4976.1]","[1410.5,1410.5,1000,0,410.5,""smooth"",""down"",""down"",""good_move"",4068.4,2657.3,2231.1,1411.1,426.2,""smooth"",""right"",""right"",""good_move"",11401.3,7330.8,2934.4,8041.8,425.1,""smooth"",""down"",""down"",""good_move"",14825.4,3423.5,2927.7,11402,495.7,""smooth"",""right"",""right"",""good_move"",17440.8,2614.6,2208.4,14826.2,406.2,""smooth"",""down"",""down"",""good_move"",20224.4,2783,2410.3,17441.5,372.6,""oops"",""right"",""right"",""good_move""]","",""
"8527","","<div style=""width:500px;"">
  <p>What determined the result of this run?</p>
  </div>","100","html-slider-response","25","800927","0.0-5.0-1.3","59","1","2025-07-16 08:26:10","1f75c3e559b7213887762d5229550c2b","41.123.82.0","Mozilla/5.0 (Windows NT 10.0; Win64; x64) AppleWebKit/537.36 (KHTML, like Gecko) Chrome/138.0.0.0 Safari/537.36","WebKit","Chrome","138.0.0.0","Windows","10.0","https://app.prolific.com/","en-US,en;q=0.9","6612e7f231d13a67b8e758cc","686e379bc37a29ffa5cdc956","687761fd1c5e248da555d938","1","1","6612e7f231d13a67b8e758cc","1","1","2025-07-16T08:39:33.384Z","","","","","","","","","","","AttribQ","","50","","","","","","","","","","","","","","","","","","","","","","","","","","","","",""
"6700","","<div style=""width:500px;"">
  <p>How much control did you have over the ball?</p>
  </div>","100","html-slider-response","26","807629","0.0-5.0-2.3","59","1","2025-07-16 08:26:10","1f75c3e559b7213887762d5229550c2b","41.123.82.0","Mozilla/5.0 (Windows NT 10.0; Win64; x64) AppleWebKit/537.36 (KHTML, like Gecko) Chrome/138.0.0.0 Safari/537.36","WebKit","Chrome","138.0.0.0","Windows","10.0","https://app.prolific.com/","en-US,en;q=0.9","6612e7f231d13a67b8e758cc","686e379bc37a29ffa5cdc956","687761fd1c5e248da555d938","1","1","6612e7f231d13a67b8e758cc","1","1","2025-07-16T08:39:40.086Z","","","","","","","","","","","ControlQ","","50","","","","","","","","","","","","","","","","","","","","","","","","","","","","",""
"7096","","<div style=""width:500px;"">
  <p>How would you describe your current emotional state?</p>
  </div>","0","html-slider-response","27","814727","0.0-5.0-3.3","59","1","2025-07-16 08:26:10","1f75c3e559b7213887762d5229550c2b","41.123.82.0","Mozilla/5.0 (Windows NT 10.0; Win64; x64) AppleWebKit/537.36 (KHTML, like Gecko) Chrome/138.0.0.0 Safari/537.36","WebKit","Chrome","138.0.0.0","Windows","10.0","https://app.prolific.com/","en-US,en;q=0.9","6612e7f231d13a67b8e758cc","686e379bc37a29ffa5cdc956","687761fd1c5e248da555d938","1","1","6612e7f231d13a67b8e758cc","1","1","2025-07-16T08:39:47.184Z","","","","","","","","","","","StressQ","","50","","","","","","","","","","","","","","","","","","","","","","","","","","","","",""
"5702","","<div style=""width:500px;"">
  <p>What best describes how you currently feel?</p>
  </div>","100","html-slider-response","28","820430","0.0-5.0-4.3","59","1","2025-07-16 08:26:10","1f75c3e559b7213887762d5229550c2b","41.123.82.0","Mozilla/5.0 (Windows NT 10.0; Win64; x64) AppleWebKit/537.36 (KHTML, like Gecko) Chrome/138.0.0.0 Safari/537.36","WebKit","Chrome","138.0.0.0","Windows","10.0","https://app.prolific.com/","en-US,en;q=0.9","6612e7f231d13a67b8e758cc","686e379bc37a29ffa5cdc956","687761fd1c5e248da555d938","1","1","6612e7f231d13a67b8e758cc","1","1","2025-07-16T08:39:52.888Z","","","","","","","","","","","MotivationQ","","50","","","","","","","","","","","","","","","","","","","","","","","","","","","","",""
"","","","","ctl-task-cpt","29","855940","0.0-5.0-0.4","59","1","2025-07-16 08:26:10","1f75c3e559b7213887762d5229550c2b","41.123.82.0","Mozilla/5.0 (Windows NT 10.0; Win64; x64) AppleWebKit/537.36 (KHTML, like Gecko) Chrome/138.0.0.0 Safari/537.36","WebKit","Chrome","138.0.0.0","Windows","10.0","https://app.prolific.com/","en-US,en;q=0.9","6612e7f231d13a67b8e758cc","686e379bc37a29ffa5cdc956","687761fd1c5e248da555d938","1","1","6612e7f231d13a67b8e758cc","1","1","2025-07-16T08:40:28.397Z","","","","","","","","","","","","","","win-only","2","g1:SE,g2:NW","0.6","5","0","822808","2957.7","7958.8","32489.5","1","4","4","6","2","4","4","28","24","0.21212121212121213","1836.4","3000","1170","[""left"",""up""]","{""num_key_presses"":6,""num_perfect"":6,""num_errors"":0,""num_randdir"":0,""num_randdir_good_moves"":0,""num_whilered"":0,""num_whileblue"":0,""num_blue"":2,""num_good_moves"":6}","[302.22232142857143,292.12857142857143,0.8,302.22232142857143,292.12857142857143,106.1,302.22232142857143,292.12857142857143,208.1,302.22232142857143,292.12857142857143,317.9,302.22232142857143,292.12857142857143,423.3,302.22232142857143,292.12857142857143,526.3,302.22232142857143,292.12857142857143,634.3,272.22232142857143,272.12857142857143,735.2,115.22232142857143,135.12857142857143,837.9,46.222321428571426,62.128571428571426,937.9,-4.777678571428574,-2.8714285714285737,1047.2,-6.777678571428574,-4.871428571428574,1147.4,-6.777678571428574,-4.871428571428574,1247.8,3.2223214285714263,4.128571428571426,1350.7,12.222321428571426,11.128571428571426,1455.8,17.222321428571426,17.128571428571426,1556.7,17.222321428571426,17.128571428571426,1663.3,17.222321428571426,17.128571428571426,1770.2,17.222321428571426,17.128571428571426,1875.7,17.222321428571426,17.128571428571426,1982.5,17.222321428571426,17.128571428571426,2083.6,17.222321428571426,17.128571428571426,2198.4,17.222321428571426,17.128571428571426,2298.5,17.222321428571426,17.128571428571426,2400.4,17.222321428571426,17.128571428571426,2506.1,17.222321428571426,17.128571428571426,2618.2,17.222321428571426,17.128571428571426,2726.8,17.222321428571426,17.128571428571426,2829,17.222321428571426,17.128571428571426,2937.8,17.222321428571426,17.128571428571426,3048.6,17.222321428571426,17.128571428571426,3149,17.222321428571426,17.128571428571426,3249.1,17.222321428571426,17.128571428571426,3356.2,17.222321428571426,17.128571428571426,3456.2,17.222321428571426,17.128571428571426,3563.1,17.222321428571426,17.128571428571426,3665.8,17.222321428571426,17.128571428571426,3765.9,17.222321428571426,17.128571428571426,3866.2,17.222321428571426,17.128571428571426,3976,17.222321428571426,17.128571428571426,4080.5,17.222321428571426,17.128571428571426,4187,17.222321428571426,17.128571428571426,4298.7,17.222321428571426,17.128571428571426,4406.1,17.222321428571426,17.128571428571426,4509.5,17.222321428571426,17.128571428571426,4614,17.222321428571426,17.128571428571426,4720.1,17.222321428571426,17.128571428571426,4829.8,17.222321428571426,17.128571428571426,4931.1]","[1487.7,1487.7,1000,0,487.7,""smooth"",""left"",""left"",""good_move"",12577.8,11089.2,2662.6,9457.3,457.9,""smooth"",""left"",""left"",""good_move"",15875.4,3296.1,2749.7,12579.3,546.4,""smooth"",""left"",""left"",""good_move"",18659.2,2782.3,2268.7,15876.9,513.7,""smooth"",""up"",""up"",""good_move"",21113.7,2451.8,1969,18661.9,482.8,""smooth"",""up"",""up"",""good_move"",24413.9,3299.6,2880.2,21114.3,419.4,""smooth"",""up"",""up"",""good_move""]","",""
"8494","","<div style=""width:500px;"">
  <p>What determined the result of this run?</p>
  </div>","100","html-slider-response","30","864437","0.0-5.0-1.4","59","1","2025-07-16 08:26:10","1f75c3e559b7213887762d5229550c2b","41.123.82.0","Mozilla/5.0 (Windows NT 10.0; Win64; x64) AppleWebKit/537.36 (KHTML, like Gecko) Chrome/138.0.0.0 Safari/537.36","WebKit","Chrome","138.0.0.0","Windows","10.0","https://app.prolific.com/","en-US,en;q=0.9","6612e7f231d13a67b8e758cc","686e379bc37a29ffa5cdc956","687761fd1c5e248da555d938","1","1","6612e7f231d13a67b8e758cc","1","1","2025-07-16T08:40:36.895Z","","","","","","","","","","","AttribQ","","50","","","","","","","","","","","","","","","","","","","","","","","","","","","","",""
"5140","","<div style=""width:500px;"">
  <p>How much control did you have over the ball?</p>
  </div>","100","html-slider-response","31","869581","0.0-5.0-2.4","59","1","2025-07-16 08:26:10","1f75c3e559b7213887762d5229550c2b","41.123.82.0","Mozilla/5.0 (Windows NT 10.0; Win64; x64) AppleWebKit/537.36 (KHTML, like Gecko) Chrome/138.0.0.0 Safari/537.36","WebKit","Chrome","138.0.0.0","Windows","10.0","https://app.prolific.com/","en-US,en;q=0.9","6612e7f231d13a67b8e758cc","686e379bc37a29ffa5cdc956","687761fd1c5e248da555d938","1","1","6612e7f231d13a67b8e758cc","1","1","2025-07-16T08:40:42.039Z","","","","","","","","","","","ControlQ","","50","","","","","","","","","","","","","","","","","","","","","","","","","","","","",""
"7281","","<div style=""width:500px;"">
  <p>How would you describe your current emotional state?</p>
  </div>","0","html-slider-response","32","876864","0.0-5.0-3.4","59","1","2025-07-16 08:26:10","1f75c3e559b7213887762d5229550c2b","41.123.82.0","Mozilla/5.0 (Windows NT 10.0; Win64; x64) AppleWebKit/537.36 (KHTML, like Gecko) Chrome/138.0.0.0 Safari/537.36","WebKit","Chrome","138.0.0.0","Windows","10.0","https://app.prolific.com/","en-US,en;q=0.9","6612e7f231d13a67b8e758cc","686e379bc37a29ffa5cdc956","687761fd1c5e248da555d938","1","1","6612e7f231d13a67b8e758cc","1","1","2025-07-16T08:40:49.321Z","","","","","","","","","","","StressQ","","50","","","","","","","","","","","","","","","","","","","","","","","","","","","","",""
"6386","","<div style=""width:500px;"">
  <p>What best describes how you currently feel?</p>
  </div>","100","html-slider-response","33","883251","0.0-5.0-4.4","59","1","2025-07-16 08:26:10","1f75c3e559b7213887762d5229550c2b","41.123.82.0","Mozilla/5.0 (Windows NT 10.0; Win64; x64) AppleWebKit/537.36 (KHTML, like Gecko) Chrome/138.0.0.0 Safari/537.36","WebKit","Chrome","138.0.0.0","Windows","10.0","https://app.prolific.com/","en-US,en;q=0.9","6612e7f231d13a67b8e758cc","686e379bc37a29ffa5cdc956","687761fd1c5e248da555d938","1","1","6612e7f231d13a67b8e758cc","1","1","2025-07-16T08:40:55.708Z","","","","","","","","","","","MotivationQ","","50","","","","","","","","","","","","","","","","","","","","","","","","","","","","",""
"","","","","ctl-task-cpt","34","929520","0.0-5.0-0.5","59","1","2025-07-16 08:26:10","1f75c3e559b7213887762d5229550c2b","41.123.82.0","Mozilla/5.0 (Windows NT 10.0; Win64; x64) AppleWebKit/537.36 (KHTML, like Gecko) Chrome/138.0.0.0 Safari/537.36","WebKit","Chrome","138.0.0.0","Windows","10.0","https://app.prolific.com/","en-US,en;q=0.9","6612e7f231d13a67b8e758cc","686e379bc37a29ffa5cdc956","687761fd1c5e248da555d938","1","1","6612e7f231d13a67b8e758cc","1","1","2025-07-16T08:41:41.977Z","","","","","","","","","","","","","","win-only","3","g1:SW,g2:NE","0.5","6","0","885629.3","1812","6817.2","43232.2","1","4","8","6","2","-8","-8","20","28","0.15151515151515152","1840.7","3000","-1820","[""up"",""right""]","{""num_key_presses"":10,""num_perfect"":5,""num_errors"":0,""num_randdir"":5,""num_randdir_good_moves"":2,""num_whilered"":0,""num_whileblue"":0,""num_blue"":2,""num_good_moves"":7}","[298.22232142857143,303.12857142857143,1,298.22232142857143,303.12857142857143,105.7,298.22232142857143,303.12857142857143,213.8,298.22232142857143,303.12857142857143,315.9,298.22232142857143,303.12857142857143,422.8,298.22232142857143,303.12857142857143,524.8,298.22232142857143,303.12857142857143,628.8,440.22232142857143,55.128571428571426,732.8,516.2223214285714,-71.87142857142857,841.3,516.2223214285714,-71.87142857142857,958,537.2223214285714,-31.871428571428574,1062.5,537.2223214285714,-16.871428571428574,1172.6,538.2223214285714,2.1285714285714263,1288.2,540.2223214285714,20.128571428571426,1391.4,540.2223214285714,28.128571428571426,1504.7,540.2223214285714,28.128571428571426,1606.1,540.2223214285714,28.128571428571426,1709.9,540.2223214285714,28.128571428571426,1821.4,540.2223214285714,28.128571428571426,1924.7,540.2223214285714,28.128571428571426,2037.1,540.2223214285714,28.128571428571426,2142.2,540.2223214285714,28.128571428571426,2244.8,540.2223214285714,28.128571428571426,2345,540.2223214285714,28.128571428571426,2445.9,540.2223214285714,28.128571428571426,2548.1,540.2223214285714,28.128571428571426,2655,540.2223214285714,28.128571428571426,2762.4,540.2223214285714,28.128571428571426,2868.8,540.2223214285714,28.128571428571426,2976.7,540.2223214285714,28.128571428571426,3077.1,540.2223214285714,28.128571428571426,3177.3,540.2223214285714,28.128571428571426,3278.1,540.2223214285714,28.128571428571426,3380,540.2223214285714,28.128571428571426,3484.5,540.2223214285714,28.128571428571426,3585.1,540.2223214285714,28.128571428571426,3690.8,540.2223214285714,28.128571428571426,3798.7,540.2223214285714,28.128571428571426,3905.2,540.2223214285714,28.128571428571426,4016.4,540.2223214285714,28.128571428571426,4122.1,540.2223214285714,28.128571428571426,4234.7,540.2223214285714,28.128571428571426,4340.4,540.2223214285714,28.128571428571426,4448.4,540.2223214285714,28.128571428571426,4555.9,540.2223214285714,28.128571428571426,4660.4,540.2223214285714,28.128571428571426,4768.4,540.2223214285714,28.128571428571426,4871.1,540.2223214285714,28.128571428571426,4972.3]","[4626.5,4626.5,2165.6,2002.1,458.8,""smooth"",""right"",""right"",""good_move"",7875.1,3247.5,2642.1,4627.6,605.4,""oops"",""up"",""right"",""good_move"",10395.4,2519.6,2101.4,7875.8,418.2,""smooth"",""up"",""up"",""good_move"",13497.4,3101.3,2666,10396.1,435.3,""oops"",""up"",""right"",""good_move"",15872.8,2374.6,1947.7,13498.3,426.8,""oops"",""up"",""down"",""bad_move"",18976.1,3102.1,2578.8,15874,523.3,""smooth"",""up"",""up"",""good_move"",22055.7,3078.9,2580.9,18976.8,498,""smooth"",""up"",""up"",""good_move"",24831.3,2775,2194.6,22056.4,580.3,""oops"",""up"",""down"",""bad_move"",30866.4,6033.1,2424.9,28017.2,424.3,""smooth"",""up"",""up"",""good_move"",34151.1,3284.4,2896.1,30866.7,388.3,""oops"",""up"",""left"",""bad_move""]","",""
"16681","","<div style=""width:500px;"">
  <p>What determined the result of this run?</p>
  </div>","40","html-slider-response","35","946204","0.0-5.0-1.5","59","1","2025-07-16 08:26:10","1f75c3e559b7213887762d5229550c2b","41.123.82.0","Mozilla/5.0 (Windows NT 10.0; Win64; x64) AppleWebKit/537.36 (KHTML, like Gecko) Chrome/138.0.0.0 Safari/537.36","WebKit","Chrome","138.0.0.0","Windows","10.0","https://app.prolific.com/","en-US,en;q=0.9","6612e7f231d13a67b8e758cc","686e379bc37a29ffa5cdc956","687761fd1c5e248da555d938","1","1","6612e7f231d13a67b8e758cc","1","1","2025-07-16T08:41:58.661Z","","","","","","","","","","","AttribQ","","50","","","","","","","","","","","","","","","","","","","","","","","","","","","","",""
"6458","","<div style=""width:500px;"">
  <p>How much control did you have over the ball?</p>
  </div>","0","html-slider-response","36","952664","0.0-5.0-2.5","59","1","2025-07-16 08:26:10","1f75c3e559b7213887762d5229550c2b","41.123.82.0","Mozilla/5.0 (Windows NT 10.0; Win64; x64) AppleWebKit/537.36 (KHTML, like Gecko) Chrome/138.0.0.0 Safari/537.36","WebKit","Chrome","138.0.0.0","Windows","10.0","https://app.prolific.com/","en-US,en;q=0.9","6612e7f231d13a67b8e758cc","686e379bc37a29ffa5cdc956","687761fd1c5e248da555d938","1","1","6612e7f231d13a67b8e758cc","1","1","2025-07-16T08:42:05.121Z","","","","","","","","","","","ControlQ","","50","","","","","","","","","","","","","","","","","","","","","","","","","","","","",""
"6999","","<div style=""width:500px;"">
  <p>How would you describe your current emotional state?</p>
  </div>","99","html-slider-response","37","959664","0.0-5.0-3.5","59","1","2025-07-16 08:26:10","1f75c3e559b7213887762d5229550c2b","41.123.82.0","Mozilla/5.0 (Windows NT 10.0; Win64; x64) AppleWebKit/537.36 (KHTML, like Gecko) Chrome/138.0.0.0 Safari/537.36","WebKit","Chrome","138.0.0.0","Windows","10.0","https://app.prolific.com/","en-US,en;q=0.9","6612e7f231d13a67b8e758cc","686e379bc37a29ffa5cdc956","687761fd1c5e248da555d938","1","1","6612e7f231d13a67b8e758cc","1","1","2025-07-16T08:42:12.121Z","","","","","","","","","","","StressQ","","50","","","","","","","","","","","","","","","","","","","","","","","","","","","","",""
"7552","","<div style=""width:500px;"">
  <p>What best describes how you currently feel?</p>
  </div>","100","html-slider-response","38","967217","0.0-5.0-4.5","59","1","2025-07-16 08:26:10","1f75c3e559b7213887762d5229550c2b","41.123.82.0","Mozilla/5.0 (Windows NT 10.0; Win64; x64) AppleWebKit/537.36 (KHTML, like Gecko) Chrome/138.0.0.0 Safari/537.36","WebKit","Chrome","138.0.0.0","Windows","10.0","https://app.prolific.com/","en-US,en;q=0.9","6612e7f231d13a67b8e758cc","686e379bc37a29ffa5cdc956","687761fd1c5e248da555d938","1","1","6612e7f231d13a67b8e758cc","1","1","2025-07-16T08:42:19.674Z","","","","","","","","","","","MotivationQ","","50","","","","","","","","","","","","","","","","","","","","","","","","","","","","",""
"","","","","ctl-task-cpt","39","1021288","0.0-5.0-0.6","59","1","2025-07-16 08:26:10","1f75c3e559b7213887762d5229550c2b","41.123.82.0","Mozilla/5.0 (Windows NT 10.0; Win64; x64) AppleWebKit/537.36 (KHTML, like Gecko) Chrome/138.0.0.0 Safari/537.36","WebKit","Chrome","138.0.0.0","Windows","10.0","https://app.prolific.com/","en-US,en;q=0.9","6612e7f231d13a67b8e758cc","686e379bc37a29ffa5cdc956","687761fd1c5e248da555d938","1","1","6612e7f231d13a67b8e758cc","1","1","2025-07-16T08:43:13.745Z","","","","","","","","","","","","","","win-only","1","g1:NE,g2:SW","0.4","7","0","969592.8","4271.8","9274","51035.5","1","4","8","6","2","8","8","28","20","0.21212121212121213","2032","3000","285","[""down"",""left""]","{""num_key_presses"":10,""num_perfect"":4,""num_errors"":0,""num_randdir"":6,""num_randdir_good_moves"":4,""num_whilered"":0,""num_whileblue"":0,""num_blue"":4,""num_good_moves"":8}","[291.22232142857143,302.12857142857143,0.6,291.22232142857143,302.12857142857143,104.5,291.22232142857143,302.12857142857143,204.7,291.22232142857143,302.12857142857143,307.5,291.22232142857143,302.12857142857143,409.8,291.22232142857143,302.12857142857143,514.6,291.22232142857143,302.12857142857143,616.6,291.22232142857143,302.12857142857143,728.5,291.22232142857143,302.12857142857143,838.7,291.22232142857143,302.12857142857143,939.6,291.22232142857143,302.12857142857143,1041.8,297.22232142857143,298.12857142857143,1148.3,310.22232142857143,285.12857142857143,1253.2,191.22232142857143,359.12857142857143,1359.6,45.222321428571426,544.1285714285714,1468.8,38.222321428571426,569.1285714285714,1582.1,38.222321428571426,572.1285714285714,1688.3,38.222321428571426,572.1285714285714,1791,38.222321428571426,572.1285714285714,1899.1,38.222321428571426,572.1285714285714,2013.1,38.222321428571426,572.1285714285714,2123.6,38.222321428571426,572.1285714285714,2224.6,38.222321428571426,572.1285714285714,2326,38.222321428571426,572.1285714285714,2430.9,38.222321428571426,572.1285714285714,2534.1,38.222321428571426,572.1285714285714,2636.5,38.222321428571426,572.1285714285714,2740.3,38.222321428571426,572.1285714285714,2847.9,38.222321428571426,572.1285714285714,2951.3,38.222321428571426,572.1285714285714,3067.1,38.222321428571426,572.1285714285714,3170.7,38.222321428571426,572.1285714285714,3271.1,38.222321428571426,572.1285714285714,3376,38.222321428571426,572.1285714285714,3492,38.222321428571426,572.1285714285714,3596.6,38.222321428571426,572.1285714285714,3710.6,38.222321428571426,572.1285714285714,3815.1,38.222321428571426,572.1285714285714,3918.5,38.222321428571426,572.1285714285714,4022.7,38.222321428571426,572.1285714285714,4126.2,38.222321428571426,572.1285714285714,4228.2,38.222321428571426,572.1285714285714,4332.6,38.222321428571426,572.1285714285714,4433.9,38.222321428571426,572.1285714285714,4533.9,38.222321428571426,572.1285714285714,4635.2,38.222321428571426,572.1285714285714,4748.1,38.222321428571426,572.1285714285714,4852.5,38.222321428571426,572.1285714285714,4957.8]","[1431.5,1431.5,1000,0,431.5,""oops"",""left"",""down"",""good_move"",10745,9312.3,2001.6,8277.6,465.9,""smooth"",""left"",""left"",""good_move"",13184.3,2438.5,1993.6,10745.8,444.9,""smooth"",""left"",""left"",""good_move"",16378.8,3193.6,2773.9,13185.2,419.7,""oops"",""left"",""up"",""bad_move"",19165.9,2786.6,2368,16379.4,418.6,""oops"",""left"",""left"",""good_move"",25434.5,6267.6,1976.4,23095.9,362.2,""oops"",""down"",""up"",""bad_move"",28564.5,3129.7,2493.2,25434.9,636.5,""smooth"",""down"",""down"",""good_move"",32332.5,3766.9,3365.4,28565.7,401.5,""oops"",""down"",""down"",""good_move"",38758.9,6426,2536.5,35868.5,353.9,""smooth"",""down"",""down"",""good_move"",41631.2,2871.8,2457.3,38759.4,414.5,""oops"",""down"",""down"",""good_move""]","",""
"6101","","<div style=""width:500px;"">
  <p>What determined the result of this run?</p>
  </div>","92","html-slider-response","40","1027391","0.0-5.0-1.6","59","1","2025-07-16 08:26:10","1f75c3e559b7213887762d5229550c2b","41.123.82.0","Mozilla/5.0 (Windows NT 10.0; Win64; x64) AppleWebKit/537.36 (KHTML, like Gecko) Chrome/138.0.0.0 Safari/537.36","WebKit","Chrome","138.0.0.0","Windows","10.0","https://app.prolific.com/","en-US,en;q=0.9","6612e7f231d13a67b8e758cc","686e379bc37a29ffa5cdc956","687761fd1c5e248da555d938","1","1","6612e7f231d13a67b8e758cc","1","1","2025-07-16T08:43:19.848Z","","","","","","","","","","","AttribQ","","50","","","","","","","","","","","","","","","","","","","","","","","","","","","","",""
"5147","","<div style=""width:500px;"">
  <p>How much control did you have over the ball?</p>
  </div>","95","html-slider-response","41","1032540","0.0-5.0-2.6","59","1","2025-07-16 08:26:10","1f75c3e559b7213887762d5229550c2b","41.123.82.0","Mozilla/5.0 (Windows NT 10.0; Win64; x64) AppleWebKit/537.36 (KHTML, like Gecko) Chrome/138.0.0.0 Safari/537.36","WebKit","Chrome","138.0.0.0","Windows","10.0","https://app.prolific.com/","en-US,en;q=0.9","6612e7f231d13a67b8e758cc","686e379bc37a29ffa5cdc956","687761fd1c5e248da555d938","1","1","6612e7f231d13a67b8e758cc","1","1","2025-07-16T08:43:24.998Z","","","","","","","","","","","ControlQ","","50","","","","","","","","","","","","","","","","","","","","","","","","","","","","",""
"7364","","<div style=""width:500px;"">
  <p>How would you describe your current emotional state?</p>
  </div>","0","html-slider-response","42","1039907","0.0-5.0-3.6","59","1","2025-07-16 08:26:10","1f75c3e559b7213887762d5229550c2b","41.123.82.0","Mozilla/5.0 (Windows NT 10.0; Win64; x64) AppleWebKit/537.36 (KHTML, like Gecko) Chrome/138.0.0.0 Safari/537.36","WebKit","Chrome","138.0.0.0","Windows","10.0","https://app.prolific.com/","en-US,en;q=0.9","6612e7f231d13a67b8e758cc","686e379bc37a29ffa5cdc956","687761fd1c5e248da555d938","1","1","6612e7f231d13a67b8e758cc","1","1","2025-07-16T08:43:32.364Z","","","","","","","","","","","StressQ","","50","","","","","","","","","","","","","","","","","","","","","","","","","","","","",""
"5775","","<div style=""width:500px;"">
  <p>What best describes how you currently feel?</p>
  </div>","100","html-slider-response","43","1045685","0.0-5.0-4.6","59","1","2025-07-16 08:26:10","1f75c3e559b7213887762d5229550c2b","41.123.82.0","Mozilla/5.0 (Windows NT 10.0; Win64; x64) AppleWebKit/537.36 (KHTML, like Gecko) Chrome/138.0.0.0 Safari/537.36","WebKit","Chrome","138.0.0.0","Windows","10.0","https://app.prolific.com/","en-US,en;q=0.9","6612e7f231d13a67b8e758cc","686e379bc37a29ffa5cdc956","687761fd1c5e248da555d938","1","1","6612e7f231d13a67b8e758cc","1","1","2025-07-16T08:43:38.142Z","","","","","","","","","","","MotivationQ","","50","","","","","","","","","","","","","","","","","","","","","","","","","","","","",""
"","","","","ctl-task-cpt","44","1117475","0.0-5.0-0.7","59","1","2025-07-16 08:26:10","1f75c3e559b7213887762d5229550c2b","41.123.82.0","Mozilla/5.0 (Windows NT 10.0; Win64; x64) AppleWebKit/537.36 (KHTML, like Gecko) Chrome/138.0.0.0 Safari/537.36","WebKit","Chrome","138.0.0.0","Windows","10.0","https://app.prolific.com/","en-US,en;q=0.9","6612e7f231d13a67b8e758cc","686e379bc37a29ffa5cdc956","687761fd1c5e248da555d938","1","1","6612e7f231d13a67b8e758cc","1","1","2025-07-16T08:44:49.932Z","","","","","","","","","","","","","","win-only","1","g1:NE,g2:SW","0.3","8","0","1048062.6","5184.5","10186.1","68780.2","1","4","4","6","2","-4","-4","24","28","0.18181818181818182","2179.9","3000","-1830","[""down"",""left""]","{""num_key_presses"":11,""num_perfect"":3,""num_errors"":0,""num_randdir"":8,""num_randdir_good_moves"":3,""num_whilered"":0,""num_whileblue"":0,""num_blue"":7,""num_good_moves"":6}","[294.22232142857143,303.12857142857143,1,294.22232142857143,303.12857142857143,117.1,294.22232142857143,303.12857142857143,225.4,294.22232142857143,303.12857142857143,331.1,294.22232142857143,303.12857142857143,433.2,294.22232142857143,303.12857142857143,536,294.22232142857143,303.12857142857143,643.3,294.22232142857143,303.12857142857143,748.2,294.22232142857143,303.12857142857143,853.3,294.22232142857143,303.12857142857143,959.6,294.22232142857143,303.12857142857143,1061.1,294.22232142857143,303.12857142857143,1165,294.22232142857143,303.12857142857143,1268.3,203.22232142857143,415.12857142857143,1369.8,163.22232142857143,459.12857142857143,1472.4,148.22232142857143,470.12857142857143,1575.3,102.22232142857143,505.12857142857143,1677.3,74.22232142857143,525.1285714285714,1782.4,54.222321428571426,543.1285714285714,1888.8,54.222321428571426,544.1285714285714,1999.2,54.222321428571426,544.1285714285714,2103.1,54.222321428571426,544.1285714285714,2205.2,54.222321428571426,544.1285714285714,2310.9,54.222321428571426,544.1285714285714,2417.5,54.222321428571426,544.1285714285714,2525.7,54.222321428571426,544.1285714285714,2627.1,54.222321428571426,544.1285714285714,2733.2,54.222321428571426,544.1285714285714,2835.9,54.222321428571426,544.1285714285714,2941.2,54.222321428571426,544.1285714285714,3043.9,54.222321428571426,544.1285714285714,3151.8,54.222321428571426,544.1285714285714,3258.2,54.222321428571426,544.1285714285714,3364.6,54.222321428571426,544.1285714285714,3483.2,54.222321428571426,544.1285714285714,3584.4,54.222321428571426,544.1285714285714,3685.1,54.222321428571426,544.1285714285714,3793.2,54.222321428571426,544.1285714285714,3898.1,54.222321428571426,544.1285714285714,3998.1,54.222321428571426,544.1285714285714,4101.7,54.222321428571426,544.1285714285714,4205.9,54.222321428571426,544.1285714285714,4315.5,54.222321428571426,544.1285714285714,4419.7,54.222321428571426,544.1285714285714,4522.6,54.222321428571426,544.1285714285714,4623.2,54.222321428571426,544.1285714285714,4725.9,54.222321428571426,544.1285714285714,4831.8,54.222321428571426,544.1285714285714,4938.6]","[8431.3,8431.3,2758.4,5210.7,462.3,""oops"",""left"",""down"",""good_move"",11736.7,3304.3,2898.1,8432.6,406,""smooth"",""left"",""left"",""good_move"",18942.5,7204.8,2923.9,15608.6,410,""smooth"",""left"",""left"",""good_move"",25770.3,6827.2,2642.7,22698,429.6,""oops"",""left"",""down"",""good_move"",28614.1,2843,2170.8,25771.1,672.2,""smooth"",""down"",""down"",""good_move"",31433.2,2818.6,2375.9,28614.7,442.6,""oops"",""left"",""right"",""bad_move"",33596.4,2162,1708.7,31434.4,453.3,""oops"",""left"",""left"",""good_move"",36241.4,2644.4,2183.2,33597,461.2,""oops"",""left"",""up"",""bad_move"",39630.2,3388.3,2964,36242,424.2,""oops"",""left"",""right"",""bad_move"",46819.5,7188.9,3006.2,43298.9,514.4,""oops"",""left"",""up"",""bad_move"",52647.8,5827.6,2154.2,50041.2,452.4,""oops"",""left"",""right"",""bad_move""]","",""
"4797","","<div style=""width:500px;"">
  <p>What determined the result of this run?</p>
  </div>","53","html-slider-response","45","1122274","0.0-5.0-1.7","59","1","2025-07-16 08:26:10","1f75c3e559b7213887762d5229550c2b","41.123.82.0","Mozilla/5.0 (Windows NT 10.0; Win64; x64) AppleWebKit/537.36 (KHTML, like Gecko) Chrome/138.0.0.0 Safari/537.36","WebKit","Chrome","138.0.0.0","Windows","10.0","https://app.prolific.com/","en-US,en;q=0.9","6612e7f231d13a67b8e758cc","686e379bc37a29ffa5cdc956","687761fd1c5e248da555d938","1","1","6612e7f231d13a67b8e758cc","1","1","2025-07-16T08:44:54.731Z","","","","","","","","","","","AttribQ","","50","","","","","","","","","","","","","","","","","","","","","","","","","","","","",""
"4610","","<div style=""width:500px;"">
  <p>How much control did you have over the ball?</p>
  </div>","0","html-slider-response","46","1126886","0.0-5.0-2.7","59","1","2025-07-16 08:26:10","1f75c3e559b7213887762d5229550c2b","41.123.82.0","Mozilla/5.0 (Windows NT 10.0; Win64; x64) AppleWebKit/537.36 (KHTML, like Gecko) Chrome/138.0.0.0 Safari/537.36","WebKit","Chrome","138.0.0.0","Windows","10.0","https://app.prolific.com/","en-US,en;q=0.9","6612e7f231d13a67b8e758cc","686e379bc37a29ffa5cdc956","687761fd1c5e248da555d938","1","1","6612e7f231d13a67b8e758cc","1","1","2025-07-16T08:44:59.343Z","","","","","","","","","","","ControlQ","","50","","","","","","","","","","","","","","","","","","","","","","","","","","","","",""
"6242","","<div style=""width:500px;"">
  <p>How would you describe your current emotional state?</p>
  </div>","66","html-slider-response","47","1133131","0.0-5.0-3.7","59","1","2025-07-16 08:26:10","1f75c3e559b7213887762d5229550c2b","41.123.82.0","Mozilla/5.0 (Windows NT 10.0; Win64; x64) AppleWebKit/537.36 (KHTML, like Gecko) Chrome/138.0.0.0 Safari/537.36","WebKit","Chrome","138.0.0.0","Windows","10.0","https://app.prolific.com/","en-US,en;q=0.9","6612e7f231d13a67b8e758cc","686e379bc37a29ffa5cdc956","687761fd1c5e248da555d938","1","1","6612e7f231d13a67b8e758cc","1","1","2025-07-16T08:45:05.588Z","","","","","","","","","","","StressQ","","50","","","","","","","","","","","","","","","","","","","","","","","","","","","","",""
"4995","","<div style=""width:500px;"">
  <p>What best describes how you currently feel?</p>
  </div>","100","html-slider-response","48","1138129","0.0-5.0-4.7","59","1","2025-07-16 08:26:10","1f75c3e559b7213887762d5229550c2b","41.123.82.0","Mozilla/5.0 (Windows NT 10.0; Win64; x64) AppleWebKit/537.36 (KHTML, like Gecko) Chrome/138.0.0.0 Safari/537.36","WebKit","Chrome","138.0.0.0","Windows","10.0","https://app.prolific.com/","en-US,en;q=0.9","6612e7f231d13a67b8e758cc","686e379bc37a29ffa5cdc956","687761fd1c5e248da555d938","1","1","6612e7f231d13a67b8e758cc","1","1","2025-07-16T08:45:10.586Z","","","","","","","","","","","MotivationQ","","50","","","","","","","","","","","","","","","","","","","","","","","","","","","","",""
"","","","","ctl-task-cpt","49","1243971","0.0-5.0-0.8","59","1","2025-07-16 08:26:10","1f75c3e559b7213887762d5229550c2b","41.123.82.0","Mozilla/5.0 (Windows NT 10.0; Win64; x64) AppleWebKit/537.36 (KHTML, like Gecko) Chrome/138.0.0.0 Safari/537.36","WebKit","Chrome","138.0.0.0","Windows","10.0","https://app.prolific.com/","en-US,en;q=0.9","6612e7f231d13a67b8e758cc","686e379bc37a29ffa5cdc956","687761fd1c5e248da555d938","1","1","6612e7f231d13a67b8e758cc","1","1","2025-07-16T08:46:56.428Z","","","","","","","","","","","","","","win-only","1","g1:NE,g2:SW","0.2","9","0","1140505.1","2262.3","7272.6","102822","1","4","4","6","2","4","4","28","24","0.21212121212121213","1498.4","3000","880","[""down"",""left""]","{""num_key_presses"":18,""num_perfect"":3,""num_errors"":0,""num_randdir"":15,""num_randdir_good_moves"":10,""num_whilered"":0,""num_whileblue"":0,""num_blue"":5,""num_good_moves"":12}","[297.22232142857143,297.12857142857143,0.5,297.22232142857143,297.12857142857143,103.5,297.22232142857143,297.12857142857143,203.7,297.22232142857143,297.12857142857143,307.7,297.22232142857143,297.12857142857143,422.1,297.22232142857143,297.12857142857143,531.4,297.22232142857143,297.12857142857143,646.4,297.22232142857143,297.12857142857143,759.7,274.22232142857143,317.12857142857143,861,98.22232142857143,470.12857142857143,961.3,41.222321428571426,503.12857142857143,1066.6,22.222321428571426,522.1285714285714,1170.3,21.222321428571426,529.1285714285714,1272.1,21.222321428571426,529.1285714285714,1392.8,21.222321428571426,529.1285714285714,1511.8,21.222321428571426,529.1285714285714,1616,21.222321428571426,529.1285714285714,1719.2,21.222321428571426,529.1285714285714,1834.2,21.222321428571426,529.1285714285714,1937.6,21.222321428571426,529.1285714285714,2055.4,21.222321428571426,529.1285714285714,2159.6,21.222321428571426,529.1285714285714,2260.9,21.222321428571426,529.1285714285714,2369.8,21.222321428571426,529.1285714285714,2482.8,21.222321428571426,529.1285714285714,2593.2,21.222321428571426,529.1285714285714,2704.3,21.222321428571426,529.1285714285714,2805.5,21.222321428571426,529.1285714285714,2918.7,21.222321428571426,529.1285714285714,3036.1,21.222321428571426,529.1285714285714,3146.6,21.222321428571426,529.1285714285714,3262.4,21.222321428571426,529.1285714285714,3373,21.222321428571426,529.1285714285714,3477.9,21.222321428571426,529.1285714285714,3578.6,21.222321428571426,529.1285714285714,3686.7,21.222321428571426,529.1285714285714,3788.6,21.222321428571426,529.1285714285714,3890.6,21.222321428571426,529.1285714285714,4000.4,21.222321428571426,529.1285714285714,4106.7,21.222321428571426,529.1285714285714,4221.3,21.222321428571426,529.1285714285714,4331.2,21.222321428571426,529.1285714285714,4445.5,21.222321428571426,529.1285714285714,4556,21.222321428571426,529.1285714285714,4666.6,21.222321428571426,529.1285714285714,4766.8,21.222321428571426,529.1285714285714,4878.9,21.222321428571426,529.1285714285714,4988.5]","[1533.9,1533.9,1000,0,533.9,""oops"",""left"",""down"",""good_move"",8495.4,6960.5,2764.1,5217.7,513.6,""oops"",""left"",""down"",""good_move"",11317.1,2821.2,2167.6,8495.9,653.6,""oops"",""left"",""down"",""good_move"",14309.7,2992.2,2475.9,11317.6,516.2,""oops"",""up"",""up"",""bad_move"",25175.2,10863.8,2276.8,22441.2,457.2,""oops"",""left"",""right"",""bad_move"",28867.5,3691.8,3186.4,25175.8,505.3,""oops"",""down"",""up"",""bad_move"",33431.8,4563.9,2729.5,28867.9,1834.4,""smooth"",""up"",""up"",""bad_move"",38022,4589.8,2387.6,33432.3,2202.1,""oops"",""down"",""left"",""good_move"",42627.7,4604.9,2510.5,38022.9,2094.4,""smooth"",""down"",""down"",""good_move"",50272.6,7643.8,3225.2,46605,442.4,""oops"",""down"",""up"",""bad_move"",55252.1,4978.9,2493.1,50273.2,2485.9,""oops"",""left"",""left"",""good_move"",62066.2,6813,2849.1,55253.2,3963.9,""oops"",""left"",""up"",""bad_move"",68911,6844.4,1810.8,62066.6,5033.6,""smooth"",""left"",""left"",""good_move"",76195.3,7283.2,2338.4,68912.1,4944.8,""oops"",""left"",""left"",""good_move"",83145.8,6950.1,2380.4,76195.7,4569.7,""oops"",""down"",""down"",""good_move"",89453.8,6306.6,1921.6,87045.6,486.6,""oops"",""down"",""down"",""good_move"",92693.5,3239,2728.3,89454.5,510.7,""oops"",""down"",""down"",""good_move"",95317.8,2623.2,2220.5,92694.6,402.7,""oops"",""down"",""down"",""good_move""]","",""
"6295","","<div style=""width:500px;"">
  <p>What determined the result of this run?</p>
  </div>","62","html-slider-response","50","1250269","0.0-5.0-1.8","59","1","2025-07-16 08:26:10","1f75c3e559b7213887762d5229550c2b","41.123.82.0","Mozilla/5.0 (Windows NT 10.0; Win64; x64) AppleWebKit/537.36 (KHTML, like Gecko) Chrome/138.0.0.0 Safari/537.36","WebKit","Chrome","138.0.0.0","Windows","10.0","https://app.prolific.com/","en-US,en;q=0.9","6612e7f231d13a67b8e758cc","686e379bc37a29ffa5cdc956","687761fd1c5e248da555d938","1","1","6612e7f231d13a67b8e758cc","1","1","2025-07-16T08:47:02.726Z","","","","","","","","","","","AttribQ","","50","","","","","","","","","","","","","","","","","","","","","","","","","","","","",""
"7186","","<div style=""width:500px;"">
  <p>How much control did you have over the ball?</p>
  </div>","36","html-slider-response","51","1257456","0.0-5.0-2.8","59","1","2025-07-16 08:26:10","1f75c3e559b7213887762d5229550c2b","41.123.82.0","Mozilla/5.0 (Windows NT 10.0; Win64; x64) AppleWebKit/537.36 (KHTML, like Gecko) Chrome/138.0.0.0 Safari/537.36","WebKit","Chrome","138.0.0.0","Windows","10.0","https://app.prolific.com/","en-US,en;q=0.9","6612e7f231d13a67b8e758cc","686e379bc37a29ffa5cdc956","687761fd1c5e248da555d938","1","1","6612e7f231d13a67b8e758cc","1","1","2025-07-16T08:47:09.914Z","","","","","","","","","","","ControlQ","","50","","","","","","","","","","","","","","","","","","","","","","","","","","","","",""
"7113","","<div style=""width:500px;"">
  <p>How would you describe your current emotional state?</p>
  </div>","0","html-slider-response","52","1264572","0.0-5.0-3.8","59","1","2025-07-16 08:26:10","1f75c3e559b7213887762d5229550c2b","41.123.82.0","Mozilla/5.0 (Windows NT 10.0; Win64; x64) AppleWebKit/537.36 (KHTML, like Gecko) Chrome/138.0.0.0 Safari/537.36","WebKit","Chrome","138.0.0.0","Windows","10.0","https://app.prolific.com/","en-US,en;q=0.9","6612e7f231d13a67b8e758cc","686e379bc37a29ffa5cdc956","687761fd1c5e248da555d938","1","1","6612e7f231d13a67b8e758cc","1","1","2025-07-16T08:47:17.029Z","","","","","","","","","","","StressQ","","50","","","","","","","","","","","","","","","","","","","","","","","","","","","","",""
"5074","","<div style=""width:500px;"">
  <p>What best describes how you currently feel?</p>
  </div>","100","html-slider-response","53","1269648","0.0-5.0-4.8","59","1","2025-07-16 08:26:10","1f75c3e559b7213887762d5229550c2b","41.123.82.0","Mozilla/5.0 (Windows NT 10.0; Win64; x64) AppleWebKit/537.36 (KHTML, like Gecko) Chrome/138.0.0.0 Safari/537.36","WebKit","Chrome","138.0.0.0","Windows","10.0","https://app.prolific.com/","en-US,en;q=0.9","6612e7f231d13a67b8e758cc","686e379bc37a29ffa5cdc956","687761fd1c5e248da555d938","1","1","6612e7f231d13a67b8e758cc","1","1","2025-07-16T08:47:22.106Z","","","","","","","","","","","MotivationQ","","50","","","","","","","","","","","","","","","","","","","","","","","","","","","","",""
"","","","","ctl-task-cpt","54","1356716","0.0-5.0-0.9","59","1","2025-07-16 08:26:10","1f75c3e559b7213887762d5229550c2b","41.123.82.0","Mozilla/5.0 (Windows NT 10.0; Win64; x64) AppleWebKit/537.36 (KHTML, like Gecko) Chrome/138.0.0.0 Safari/537.36","WebKit","Chrome","138.0.0.0","Windows","10.0","https://app.prolific.com/","en-US,en;q=0.9","6612e7f231d13a67b8e758cc","686e379bc37a29ffa5cdc956","687761fd1c5e248da555d938","1","1","6612e7f231d13a67b8e758cc","1","1","2025-07-16T08:48:49.173Z","","","","","","","","","","","","","","win-only","0","g1:NW,g2:SE","0.4","10","0","1272027.3","4705.7","9712.6","84038.5","1","4","8","6","2","8","8","36","28","0.2727272727272727","1778.4","3000","335","[""down"",""right""]","{""num_key_presses"":18,""num_perfect"":8,""num_errors"":0,""num_randdir"":10,""num_randdir_good_moves"":4,""num_whilered"":0,""num_whileblue"":0,""num_blue"":5,""num_good_moves"":12}","[300.22232142857143,296.12857142857143,1.2,300.22232142857143,296.12857142857143,101.9,300.22232142857143,296.12857142857143,207.9,300.22232142857143,296.12857142857143,315.1,300.22232142857143,296.12857142857143,419.9,300.22232142857143,296.12857142857143,543.6,300.22232142857143,296.12857142857143,644.2,306.22232142857143,294.12857142857143,749.9,456.22232142857143,427.12857142857143,861.7,481.22232142857143,496.12857142857143,998.5,482.22232142857143,503.12857142857143,1099.8,491.22232142857143,512.1285714285714,1203.4,498.22232142857143,514.1285714285714,1303.4,503.22232142857143,515.1285714285714,1404.4,506.22232142857143,517.1285714285714,1504.6,506.22232142857143,517.1285714285714,1614.7,506.22232142857143,517.1285714285714,1723.7,506.22232142857143,517.1285714285714,1829.7,506.22232142857143,517.1285714285714,1937.2,506.22232142857143,517.1285714285714,2039.6,506.22232142857143,517.1285714285714,2148,506.22232142857143,517.1285714285714,2251.7,506.22232142857143,517.1285714285714,2361.5,506.22232142857143,517.1285714285714,2462.9,506.22232142857143,517.1285714285714,2566.2,506.22232142857143,517.1285714285714,2668.9,506.22232142857143,517.1285714285714,2769.9,506.22232142857143,517.1285714285714,2879.9,506.22232142857143,517.1285714285714,2983.2,506.22232142857143,517.1285714285714,3090.5,506.22232142857143,517.1285714285714,3196.9,506.22232142857143,517.1285714285714,3299,506.22232142857143,517.1285714285714,3405.9,506.22232142857143,517.1285714285714,3510.9,506.22232142857143,517.1285714285714,3618,506.22232142857143,517.1285714285714,3723.2,506.22232142857143,517.1285714285714,3827.3,506.22232142857143,517.1285714285714,3931.5,506.22232142857143,517.1285714285714,4039.5,506.22232142857143,517.1285714285714,4145.6,506.22232142857143,517.1285714285714,4250.1,506.22232142857143,517.1285714285714,4353.8,506.22232142857143,517.1285714285714,4462.1,506.22232142857143,517.1285714285714,4570.2,506.22232142857143,517.1285714285714,4673.2,506.22232142857143,517.1285714285714,4783.1,506.22232142857143,517.1285714285714,4906.3]","[1479.8,1479.8,1000,0,479.8,""oops"",""right"",""left"",""bad_move"",4809.7,3328.5,2537.9,1481.2,790.6,""oops"",""down"",""right"",""good_move"",7878.1,3067.7,2596.2,4810.5,471.5,""smooth"",""down"",""down"",""good_move"",11043,3162.2,2697,7880.9,465.1,""smooth"",""down"",""down"",""good_move"",14737,3693.8,3182.1,11043.3,511.7,""oops"",""down"",""up"",""bad_move"",17796.2,3058.8,2340,14737.4,718.8,""oops"",""down"",""up"",""bad_move"",23803.1,6005.9,2232.9,21157.8,412.4,""smooth"",""right"",""right"",""good_move"",27087.6,3283.7,2456.9,23803.9,826.8,""oops"",""right"",""left"",""bad_move"",30805.9,3717.2,3237.4,27088.7,479.8,""smooth"",""right"",""right"",""good_move"",40482.9,9676.7,2654.3,37318.7,509.9,""oops"",""right"",""right"",""good_move"",43822,3338.9,2771.3,40483.2,567.5,""smooth"",""right"",""right"",""good_move"",46781.3,2958.9,2480.1,43822.4,478.8,""oops"",""down"",""down"",""good_move"",53270.6,6488.5,2478.6,50350.2,441.8,""oops"",""down"",""left"",""bad_move"",56104.4,2833.1,2065.5,53271.3,767.6,""smooth"",""right"",""right"",""good_move"",59709.8,3604.8,3231.4,56105,373.4,""smooth"",""down"",""down"",""good_move"",62931,3220.8,2769,59710.3,451.7,""oops"",""down"",""left"",""bad_move"",66337.2,3405.6,2318.4,62931.6,1087.2,""smooth"",""right"",""right"",""good_move"",74071.8,7733.7,3320.9,70382,368.9,""oops"",""down"",""down"",""good_move""]","",""
"7440","","<div style=""width:500px;"">
  <p>What determined the result of this run?</p>
  </div>","46","html-slider-response","55","1364161","0.0-5.0-1.9","59","1","2025-07-16 08:26:10","1f75c3e559b7213887762d5229550c2b","41.123.82.0","Mozilla/5.0 (Windows NT 10.0; Win64; x64) AppleWebKit/537.36 (KHTML, like Gecko) Chrome/138.0.0.0 Safari/537.36","WebKit","Chrome","138.0.0.0","Windows","10.0","https://app.prolific.com/","en-US,en;q=0.9","6612e7f231d13a67b8e758cc","686e379bc37a29ffa5cdc956","687761fd1c5e248da555d938","1","1","6612e7f231d13a67b8e758cc","1","1","2025-07-16T08:48:56.618Z","","","","","","","","","","","AttribQ","","50","","","","","","","","","","","","","","","","","","","","","","","","","","","","",""
"5634","","<div style=""width:500px;"">
  <p>How much control did you have over the ball?</p>
  </div>","23","html-slider-response","56","1369797","0.0-5.0-2.9","59","1","2025-07-16 08:26:10","1f75c3e559b7213887762d5229550c2b","41.123.82.0","Mozilla/5.0 (Windows NT 10.0; Win64; x64) AppleWebKit/537.36 (KHTML, like Gecko) Chrome/138.0.0.0 Safari/537.36","WebKit","Chrome","138.0.0.0","Windows","10.0","https://app.prolific.com/","en-US,en;q=0.9","6612e7f231d13a67b8e758cc","686e379bc37a29ffa5cdc956","687761fd1c5e248da555d938","1","1","6612e7f231d13a67b8e758cc","1","1","2025-07-16T08:49:02.254Z","","","","","","","","","","","ControlQ","","50","","","","","","","","","","","","","","","","","","","","","","","","","","","","",""
"5539","","<div style=""width:500px;"">
  <p>How would you describe your current emotional state?</p>
  </div>","57","html-slider-response","57","1375338","0.0-5.0-3.9","59","1","2025-07-16 08:26:10","1f75c3e559b7213887762d5229550c2b","41.123.82.0","Mozilla/5.0 (Windows NT 10.0; Win64; x64) AppleWebKit/537.36 (KHTML, like Gecko) Chrome/138.0.0.0 Safari/537.36","WebKit","Chrome","138.0.0.0","Windows","10.0","https://app.prolific.com/","en-US,en;q=0.9","6612e7f231d13a67b8e758cc","686e379bc37a29ffa5cdc956","687761fd1c5e248da555d938","1","1","6612e7f231d13a67b8e758cc","1","1","2025-07-16T08:49:07.795Z","","","","","","","","","","","StressQ","","50","","","","","","","","","","","","","","","","","","","","","","","","","","","","",""
"5767","","<div style=""width:500px;"">
  <p>What best describes how you currently feel?</p>
  </div>","100","html-slider-response","58","1381107","0.0-5.0-4.9","59","1","2025-07-16 08:26:10","1f75c3e559b7213887762d5229550c2b","41.123.82.0","Mozilla/5.0 (Windows NT 10.0; Win64; x64) AppleWebKit/537.36 (KHTML, like Gecko) Chrome/138.0.0.0 Safari/537.36","WebKit","Chrome","138.0.0.0","Windows","10.0","https://app.prolific.com/","en-US,en;q=0.9","6612e7f231d13a67b8e758cc","686e379bc37a29ffa5cdc956","687761fd1c5e248da555d938","1","1","6612e7f231d13a67b8e758cc","1","1","2025-07-16T08:49:13.565Z","","","","","","","","","","","MotivationQ","","50","","","","","","","","","","","","","","","","","","","","","","","","","","","","",""
"","","","","ctl-task-cpt","59","1443497","0.0-5.0-0.10","59","1","2025-07-16 08:26:10","1f75c3e559b7213887762d5229550c2b","41.123.82.0","Mozilla/5.0 (Windows NT 10.0; Win64; x64) AppleWebKit/537.36 (KHTML, like Gecko) Chrome/138.0.0.0 Safari/537.36","WebKit","Chrome","138.0.0.0","Windows","10.0","https://app.prolific.com/","en-US,en;q=0.9","6612e7f231d13a67b8e758cc","686e379bc37a29ffa5cdc956","687761fd1c5e248da555d938","1","1","6612e7f231d13a67b8e758cc","1","1","2025-07-16T08:50:15.954Z","","","","","","","","","","","","","","win-only","1","g1:NE,g2:SW","0.5","11","0","1383485","32028.6","37042.6","59352.9","1","4","4","6","2","4","4","40","36","0.30303030303030304","1732.2","3000","2275","[""down"",""left""]","{""num_key_presses"":6,""num_perfect"":2,""num_errors"":0,""num_randdir"":4,""num_randdir_good_moves"":4,""num_whilered"":0,""num_whileblue"":0,""num_blue"":1,""num_good_moves"":6}","[297.22232142857143,304.12857142857143,1.1,297.22232142857143,304.12857142857143,119.9,297.22232142857143,304.12857142857143,223.7,297.22232142857143,304.12857142857143,337.2,297.22232142857143,304.12857142857143,437.7,297.22232142857143,304.12857142857143,541.6,297.22232142857143,304.12857142857143,664.6,297.22232142857143,304.12857142857143,782.9,208.22232142857143,370.12857142857143,899.2,91.22232142857143,518.1285714285714,1008.2,75.22232142857143,537.1285714285714,1122.6,66.22232142857143,546.1285714285714,1229.3,65.22232142857143,547.1285714285714,1332.4,65.22232142857143,547.1285714285714,1433.7,65.22232142857143,547.1285714285714,1534.3,65.22232142857143,547.1285714285714,1638.1,65.22232142857143,548.1285714285714,1750.8,65.22232142857143,548.1285714285714,1869.9,65.22232142857143,548.1285714285714,1971.9,65.22232142857143,548.1285714285714,2081.9,65.22232142857143,548.1285714285714,2185.5,65.22232142857143,548.1285714285714,2329.1,65.22232142857143,548.1285714285714,2438.6,65.22232142857143,548.1285714285714,2540.7,65.22232142857143,548.1285714285714,2641.2,65.22232142857143,548.1285714285714,2751.8,65.22232142857143,548.1285714285714,2859.1,65.22232142857143,548.1285714285714,2962.4,65.22232142857143,548.1285714285714,3066.2,65.22232142857143,548.1285714285714,3167,65.22232142857143,548.1285714285714,3281.7,65.22232142857143,548.1285714285714,3385.3,65.22232142857143,548.1285714285714,3489.8,65.22232142857143,548.1285714285714,3590.3,65.22232142857143,548.1285714285714,3694.9,65.22232142857143,548.1285714285714,3799.8,65.22232142857143,548.1285714285714,3907.6,65.22232142857143,548.1285714285714,4012,65.22232142857143,548.1285714285714,4112.9,65.22232142857143,548.1285714285714,4217,65.22232142857143,548.1285714285714,4321.5,65.22232142857143,548.1285714285714,4429.9,65.22232142857143,548.1285714285714,4538,65.22232142857143,548.1285714285714,4645.2,65.22232142857143,548.1285714285714,4752.4,65.22232142857143,548.1285714285714,4857.3,65.22232142857143,548.1285714285714,4963.2]","[5016.8,5016.9,2582.2,2026.3,408.4,""oops"",""left"",""left"",""good_move"",8233.5,3215.6,2145.5,5017.9,1070.1,""oops"",""left"",""down"",""good_move"",11267.7,3033.2,2511.2,8234.5,522,""oops"",""left"",""left"",""good_move"",14953.8,3685.3,2719.3,11268.5,966,""smooth"",""left"",""left"",""good_move"",18691.2,3736.2,2969.9,14955,766.3,""smooth"",""down"",""down"",""good_move"",21920.7,3228.8,2785.5,18691.9,443.3,""oops"",""down"",""down"",""good_move""]","",""
"6556","","<div style=""width:500px;"">
  <p>What determined the result of this run?</p>
  </div>","94","html-slider-response","60","1450055","0.0-5.0-1.10","59","1","2025-07-16 08:26:10","1f75c3e559b7213887762d5229550c2b","41.123.82.0","Mozilla/5.0 (Windows NT 10.0; Win64; x64) AppleWebKit/537.36 (KHTML, like Gecko) Chrome/138.0.0.0 Safari/537.36","WebKit","Chrome","138.0.0.0","Windows","10.0","https://app.prolific.com/","en-US,en;q=0.9","6612e7f231d13a67b8e758cc","686e379bc37a29ffa5cdc956","687761fd1c5e248da555d938","1","1","6612e7f231d13a67b8e758cc","1","1","2025-07-16T08:50:22.512Z","","","","","","","","","","","AttribQ","","50","","","","","","","","","","","","","","","","","","","","","","","","","","","","",""
"5665","","<div style=""width:500px;"">
  <p>How much control did you have over the ball?</p>
  </div>","84","html-slider-response","61","1455723","0.0-5.0-2.10","59","1","2025-07-16 08:26:10","1f75c3e559b7213887762d5229550c2b","41.123.82.0","Mozilla/5.0 (Windows NT 10.0; Win64; x64) AppleWebKit/537.36 (KHTML, like Gecko) Chrome/138.0.0.0 Safari/537.36","WebKit","Chrome","138.0.0.0","Windows","10.0","https://app.prolific.com/","en-US,en;q=0.9","6612e7f231d13a67b8e758cc","686e379bc37a29ffa5cdc956","687761fd1c5e248da555d938","1","1","6612e7f231d13a67b8e758cc","1","1","2025-07-16T08:50:28.181Z","","","","","","","","","","","ControlQ","","50","","","","","","","","","","","","","","","","","","","","","","","","","","","","",""
"3078","","<div style=""width:500px;"">
  <p>How would you describe your current emotional state?</p>
  </div>","8","html-slider-response","62","1458806","0.0-5.0-3.10","59","1","2025-07-16 08:26:10","1f75c3e559b7213887762d5229550c2b","41.123.82.0","Mozilla/5.0 (Windows NT 10.0; Win64; x64) AppleWebKit/537.36 (KHTML, like Gecko) Chrome/138.0.0.0 Safari/537.36","WebKit","Chrome","138.0.0.0","Windows","10.0","https://app.prolific.com/","en-US,en;q=0.9","6612e7f231d13a67b8e758cc","686e379bc37a29ffa5cdc956","687761fd1c5e248da555d938","1","1","6612e7f231d13a67b8e758cc","1","1","2025-07-16T08:50:31.263Z","","","","","","","","","","","StressQ","","50","","","","","","","","","","","","","","","","","","","","","","","","","","","","",""
"3277","","<div style=""width:500px;"">
  <p>What best describes how you currently feel?</p>
  </div>","100","html-slider-response","63","1462087","0.0-5.0-4.10","59","1","2025-07-16 08:26:10","1f75c3e559b7213887762d5229550c2b","41.123.82.0","Mozilla/5.0 (Windows NT 10.0; Win64; x64) AppleWebKit/537.36 (KHTML, like Gecko) Chrome/138.0.0.0 Safari/537.36","WebKit","Chrome","138.0.0.0","Windows","10.0","https://app.prolific.com/","en-US,en;q=0.9","6612e7f231d13a67b8e758cc","686e379bc37a29ffa5cdc956","687761fd1c5e248da555d938","1","1","6612e7f231d13a67b8e758cc","1","1","2025-07-16T08:50:34.544Z","","","","","","","","","","","MotivationQ","","50","","","","","","","","","","","","","","","","","","","","","","","","","","","","",""
"","","","","ctl-task-cpt","64","1557062","0.0-5.0-0.11","59","1","2025-07-16 08:26:10","1f75c3e559b7213887762d5229550c2b","41.123.82.0","Mozilla/5.0 (Windows NT 10.0; Win64; x64) AppleWebKit/537.36 (KHTML, like Gecko) Chrome/138.0.0.0 Safari/537.36","WebKit","Chrome","138.0.0.0","Windows","10.0","https://app.prolific.com/","en-US,en;q=0.9","6612e7f231d13a67b8e758cc","686e379bc37a29ffa5cdc956","687761fd1c5e248da555d938","1","1","6612e7f231d13a67b8e758cc","1","1","2025-07-16T08:52:09.519Z","","","","","","","","","","","","","","win-only","1","g1:NE,g2:SW","0.6","12","0","1464464.8","1847.9","6871.2","91914","1","4","8","6","2","8","8","48","40","0.36363636363636365","1759.5","3000","2210","[""down"",""left""]","{""num_key_presses"":12,""num_perfect"":7,""num_errors"":0,""num_randdir"":5,""num_randdir_good_moves"":2,""num_whilered"":0,""num_whileblue"":0,""num_blue"":5,""num_good_moves"":9}","[294.22232142857143,301.12857142857143,0.3,294.22232142857143,301.12857142857143,120.6,294.22232142857143,301.12857142857143,251.3,294.22232142857143,301.12857142857143,383.1,294.22232142857143,301.12857142857143,511.4,294.22232142857143,301.12857142857143,642.6,283.22232142857143,311.12857142857143,745,272.22232142857143,318.12857142857143,878.5,271.22232142857143,319.12857142857143,1006,225.22232142857143,355.12857142857143,1114,106.22232142857143,491.12857142857143,1247.7,67.22232142857143,536.1285714285714,1351.2,65.22232142857143,538.1285714285714,1479.7,65.22232142857143,538.1285714285714,1580.3,65.22232142857143,538.1285714285714,1705.5,65.22232142857143,538.1285714285714,1809.7,65.22232142857143,538.1285714285714,1910,65.22232142857143,538.1285714285714,2012,65.22232142857143,538.1285714285714,2137.7,65.22232142857143,538.1285714285714,2271.2,65.22232142857143,538.1285714285714,2396.1,65.22232142857143,538.1285714285714,2497.8,65.22232142857143,538.1285714285714,2623.9,65.22232142857143,538.1285714285714,2752.4,65.22232142857143,538.1285714285714,2876.9,65.22232142857143,538.1285714285714,3007,65.22232142857143,538.1285714285714,3109.9,65.22232142857143,538.1285714285714,3237.4,65.22232142857143,538.1285714285714,3360,65.22232142857143,538.1285714285714,3461.8,65.22232142857143,538.1285714285714,3561.9,65.22232142857143,538.1285714285714,3690.5,65.22232142857143,538.1285714285714,3819,65.22232142857143,538.1285714285714,3954.3,65.22232142857143,538.1285714285714,4085.7,65.22232142857143,538.1285714285714,4216.7,65.22232142857143,538.1285714285714,4346.2,65.22232142857143,538.1285714285714,4475.3,65.22232142857143,538.1285714285714,4599.2,65.22232142857143,538.1285714285714,4732.6,65.22232142857143,538.1285714285714,4863.7,65.22232142857143,538.1285714285714,4984.8]","[1548.7,1548.7,1000,0,548.8,""smooth"",""left"",""left"",""good_move"",7639.1,6089.9,2265,1549.2,3824.9,""oops"",""left"",""up"",""bad_move"",13686.1,6046,3596.9,7640.1,2449.1,""oops"",""left"",""right"",""bad_move"",16491.6,2804.9,2101.4,13686.7,703.5,""smooth"",""left"",""left"",""good_move"",25046.8,8555,2096.4,16491.8,6458.6,""oops"",""left"",""left"",""good_move"",33928.2,8881.2,2363.2,25047,6518,""smooth"",""left"",""left"",""good_move"",50122.1,16193.7,2652.6,46994.2,475.3,""oops"",""down"",""right"",""bad_move"",56794.2,6671.8,2239.8,53753.5,800.9,""smooth"",""left"",""left"",""good_move"",66817.4,10022.4,2654.9,56795,7367.5,""smooth"",""down"",""down"",""good_move"",70105.2,3287.2,2705.9,66818,581.3,""smooth"",""down"",""down"",""good_move"",80782.3,10676.8,3046.3,77229.2,506.8,""smooth"",""down"",""down"",""good_move"",83517.5,2734.9,2044.4,80782.6,690.5,""oops"",""down"",""down"",""good_move""]","",""
"4546","","<div style=""width:500px;"">
  <p>What determined the result of this run?</p>
  </div>","74","html-slider-response","65","1561614","0.0-5.0-1.11","59","1","2025-07-16 08:26:10","1f75c3e559b7213887762d5229550c2b","41.123.82.0","Mozilla/5.0 (Windows NT 10.0; Win64; x64) AppleWebKit/537.36 (KHTML, like Gecko) Chrome/138.0.0.0 Safari/537.36","WebKit","Chrome","138.0.0.0","Windows","10.0","https://app.prolific.com/","en-US,en;q=0.9","6612e7f231d13a67b8e758cc","686e379bc37a29ffa5cdc956","687761fd1c5e248da555d938","1","1","6612e7f231d13a67b8e758cc","1","1","2025-07-16T08:52:14.071Z","","","","","","","","","","","AttribQ","","50","","","","","","","","","","","","","","","","","","","","","","","","","","","","",""
"8394","","<div style=""width:500px;"">
  <p>How much control did you have over the ball?</p>
  </div>","55","html-slider-response","66","1570014","0.0-5.0-2.11","59","1","2025-07-16 08:26:10","1f75c3e559b7213887762d5229550c2b","41.123.82.0","Mozilla/5.0 (Windows NT 10.0; Win64; x64) AppleWebKit/537.36 (KHTML, like Gecko) Chrome/138.0.0.0 Safari/537.36","WebKit","Chrome","138.0.0.0","Windows","10.0","https://app.prolific.com/","en-US,en;q=0.9","6612e7f231d13a67b8e758cc","686e379bc37a29ffa5cdc956","687761fd1c5e248da555d938","1","1","6612e7f231d13a67b8e758cc","1","1","2025-07-16T08:52:22.471Z","","","","","","","","","","","ControlQ","","50","","","","","","","","","","","","","","","","","","","","","","","","","","","","",""
"3803","","<div style=""width:500px;"">
  <p>How would you describe your current emotional state?</p>
  </div>","1","html-slider-response","67","1573821","0.0-5.0-3.11","59","1","2025-07-16 08:26:10","1f75c3e559b7213887762d5229550c2b","41.123.82.0","Mozilla/5.0 (Windows NT 10.0; Win64; x64) AppleWebKit/537.36 (KHTML, like Gecko) Chrome/138.0.0.0 Safari/537.36","WebKit","Chrome","138.0.0.0","Windows","10.0","https://app.prolific.com/","en-US,en;q=0.9","6612e7f231d13a67b8e758cc","686e379bc37a29ffa5cdc956","687761fd1c5e248da555d938","1","1","6612e7f231d13a67b8e758cc","1","1","2025-07-16T08:52:26.278Z","","","","","","","","","","","StressQ","","50","","","","","","","","","","","","","","","","","","","","","","","","","","","","",""
"4417","","<div style=""width:500px;"">
  <p>What best describes how you currently feel?</p>
  </div>","100","html-slider-response","68","1578243","0.0-5.0-4.11","59","1","2025-07-16 08:26:10","1f75c3e559b7213887762d5229550c2b","41.123.82.0","Mozilla/5.0 (Windows NT 10.0; Win64; x64) AppleWebKit/537.36 (KHTML, like Gecko) Chrome/138.0.0.0 Safari/537.36","WebKit","Chrome","138.0.0.0","Windows","10.0","https://app.prolific.com/","en-US,en;q=0.9","6612e7f231d13a67b8e758cc","686e379bc37a29ffa5cdc956","687761fd1c5e248da555d938","1","1","6612e7f231d13a67b8e758cc","1","1","2025-07-16T08:52:30.700Z","","","","","","","","","","","MotivationQ","","50","","","","","","","","","","","","","","","","","","","","","","","","","","","","",""
"","","","","ctl-task-cpt","69","1614885","0.0-5.0-0.12","59","1","2025-07-16 08:26:10","1f75c3e559b7213887762d5229550c2b","41.123.82.0","Mozilla/5.0 (Windows NT 10.0; Win64; x64) AppleWebKit/537.36 (KHTML, like Gecko) Chrome/138.0.0.0 Safari/537.36","WebKit","Chrome","138.0.0.0","Windows","10.0","https://app.prolific.com/","en-US,en;q=0.9","6612e7f231d13a67b8e758cc","686e379bc37a29ffa5cdc956","687761fd1c5e248da555d938","1","1","6612e7f231d13a67b8e758cc","1","1","2025-07-16T08:53:07.342Z","","","","","","","","","","","","","","win-only","1","g1:NE,g2:SW","0.7","13","0","1580621.9","1782.3","6832.7","33605.1","1","4","8","6","2","8","8","56","48","0.42424242424242425","1811.3","3000","2335","[""down"",""left""]","{""num_key_presses"":6,""num_perfect"":6,""num_errors"":0,""num_randdir"":0,""num_randdir_good_moves"":0,""num_whilered"":0,""num_whileblue"":0,""num_blue"":1,""num_good_moves"":6}","[297.22232142857143,293.12857142857143,0.3,297.22232142857143,293.12857142857143,105.1,297.22232142857143,293.12857142857143,228.6,297.22232142857143,293.12857142857143,345.9,297.22232142857143,293.12857142857143,458.7,297.22232142857143,293.12857142857143,580,297.22232142857143,293.12857142857143,691.1,297.22232142857143,293.12857142857143,810.3,297.22232142857143,293.12857142857143,927.2,291.22232142857143,299.12857142857143,1047.4,259.22232142857143,336.12857142857143,1164,118.22232142857143,500.12857142857143,1283.8,64.22232142857143,564.1285714285714,1405.1,64.22232142857143,565.1285714285714,1520.7,64.22232142857143,565.1285714285714,1637.9,64.22232142857143,565.1285714285714,1751,64.22232142857143,565.1285714285714,1880.4,64.22232142857143,565.1285714285714,1997.9,64.22232142857143,565.1285714285714,2118.4,64.22232142857143,565.1285714285714,2231.4,64.22232142857143,565.1285714285714,2353.3,64.22232142857143,565.1285714285714,2470.2,64.22232142857143,565.1285714285714,2583,64.22232142857143,565.1285714285714,2700,64.22232142857143,565.1285714285714,2812.1,64.22232142857143,565.1285714285714,2929,64.22232142857143,565.1285714285714,3041.8,64.22232142857143,565.1285714285714,3163.3,64.22232142857143,565.1285714285714,3279.7,64.22232142857143,565.1285714285714,3391.2,64.22232142857143,565.1285714285714,3507.5,64.22232142857143,565.1285714285714,3619.8,64.22232142857143,565.1285714285714,3753.5,64.22232142857143,565.1285714285714,3919,64.22232142857143,565.1285714285714,4075.6,64.22232142857143,565.1285714285714,4193.2,64.22232142857143,565.1285714285714,4305.3,64.22232142857143,565.1285714285714,4422.7,64.22232142857143,565.1285714285714,4536.9,64.22232142857143,565.1285714285714,4652.7,64.22232142857143,565.1285714285714,4762.3,64.22232142857143,565.1285714285714,4879.3,64.22232142857143,565.1285714285714,4992.9]","[1611.6,1611.6,1000,0,611.6,""smooth"",""down"",""down"",""good_move"",4348.6,2736.6,2022.8,1612,713.8,""smooth"",""down"",""down"",""good_move"",7592.6,3243.7,2696.3,4348.9,547.4,""smooth"",""down"",""down"",""good_move"",14562.1,6969,3020.5,11008.1,533.5,""smooth"",""left"",""left"",""good_move"",23338.8,8775.3,2820.7,14563.5,5954.9,""smooth"",""left"",""left"",""good_move"",26475.5,3135.8,2200.9,23339.7,934.9,""smooth"",""left"",""left"",""good_move""]","",""
"4750","","<div style=""width:500px;"">
  <p>What determined the result of this run?</p>
  </div>","87","html-slider-response","70","1619637","0.0-5.0-1.12","59","1","2025-07-16 08:26:10","1f75c3e559b7213887762d5229550c2b","41.123.82.0","Mozilla/5.0 (Windows NT 10.0; Win64; x64) AppleWebKit/537.36 (KHTML, like Gecko) Chrome/138.0.0.0 Safari/537.36","WebKit","Chrome","138.0.0.0","Windows","10.0","https://app.prolific.com/","en-US,en;q=0.9","6612e7f231d13a67b8e758cc","686e379bc37a29ffa5cdc956","687761fd1c5e248da555d938","1","1","6612e7f231d13a67b8e758cc","1","1","2025-07-16T08:53:12.094Z","","","","","","","","","","","AttribQ","","50","","","","","","","","","","","","","","","","","","","","","","","","","","","","",""
"4222","","<div style=""width:500px;"">
  <p>How much control did you have over the ball?</p>
  </div>","89","html-slider-response","71","1623863","0.0-5.0-2.12","59","1","2025-07-16 08:26:10","1f75c3e559b7213887762d5229550c2b","41.123.82.0","Mozilla/5.0 (Windows NT 10.0; Win64; x64) AppleWebKit/537.36 (KHTML, like Gecko) Chrome/138.0.0.0 Safari/537.36","WebKit","Chrome","138.0.0.0","Windows","10.0","https://app.prolific.com/","en-US,en;q=0.9","6612e7f231d13a67b8e758cc","686e379bc37a29ffa5cdc956","687761fd1c5e248da555d938","1","1","6612e7f231d13a67b8e758cc","1","1","2025-07-16T08:53:16.320Z","","","","","","","","","","","ControlQ","","50","","","","","","","","","","","","","","","","","","","","","","","","","","","","",""
"7294","","<div style=""width:500px;"">
  <p>How would you describe your current emotional state?</p>
  </div>","1","html-slider-response","72","1631161","0.0-5.0-3.12","59","1","2025-07-16 08:26:10","1f75c3e559b7213887762d5229550c2b","41.123.82.0","Mozilla/5.0 (Windows NT 10.0; Win64; x64) AppleWebKit/537.36 (KHTML, like Gecko) Chrome/138.0.0.0 Safari/537.36","WebKit","Chrome","138.0.0.0","Windows","10.0","https://app.prolific.com/","en-US,en;q=0.9","6612e7f231d13a67b8e758cc","686e379bc37a29ffa5cdc956","687761fd1c5e248da555d938","1","1","6612e7f231d13a67b8e758cc","1","1","2025-07-16T08:53:23.619Z","","","","","","","","","","","StressQ","","50","","","","","","","","","","","","","","","","","","","","","","","","","","","","",""
"3135","","<div style=""width:500px;"">
  <p>What best describes how you currently feel?</p>
  </div>","100","html-slider-response","73","1634298","0.0-5.0-4.12","59","1","2025-07-16 08:26:10","1f75c3e559b7213887762d5229550c2b","41.123.82.0","Mozilla/5.0 (Windows NT 10.0; Win64; x64) AppleWebKit/537.36 (KHTML, like Gecko) Chrome/138.0.0.0 Safari/537.36","WebKit","Chrome","138.0.0.0","Windows","10.0","https://app.prolific.com/","en-US,en;q=0.9","6612e7f231d13a67b8e758cc","686e379bc37a29ffa5cdc956","687761fd1c5e248da555d938","1","1","6612e7f231d13a67b8e758cc","1","1","2025-07-16T08:53:26.756Z","","","","","","","","","","","MotivationQ","","50","","","","","","","","","","","","","","","","","","","","","","","","","","","","",""
"","","","","ctl-task-cpt","74","1683526","0.0-5.0-0.13","59","1","2025-07-16 08:26:10","1f75c3e559b7213887762d5229550c2b","41.123.82.0","Mozilla/5.0 (Windows NT 10.0; Win64; x64) AppleWebKit/537.36 (KHTML, like Gecko) Chrome/138.0.0.0 Safari/537.36","WebKit","Chrome","138.0.0.0","Windows","10.0","https://app.prolific.com/","en-US,en;q=0.9","6612e7f231d13a67b8e758cc","686e379bc37a29ffa5cdc956","687761fd1c5e248da555d938","1","1","6612e7f231d13a67b8e758cc","1","1","2025-07-16T08:54:15.983Z","","","","","","","","","","","","","","win-only","1","g1:NE,g2:SW","0.8","14","0","1636676.5","3151.8","8159","46202.7","1","4","4","6","2","4","4","60","56","0.45454545454545453","1648.7","3000","1850","[""down"",""left""]","{""num_key_presses"":10,""num_perfect"":8,""num_errors"":0,""num_randdir"":2,""num_randdir_good_moves"":0,""num_whilered"":0,""num_whileblue"":0,""num_blue"":1,""num_good_moves"":8}","[293.22232142857143,302.12857142857143,1.2,293.22232142857143,302.12857142857143,103.7,293.22232142857143,302.12857142857143,216.3,293.22232142857143,302.12857142857143,333.8,293.22232142857143,302.12857142857143,438.1,293.22232142857143,302.12857142857143,556.6,293.22232142857143,302.12857142857143,672.6,249.22232142857143,350.12857142857143,787.2,163.22232142857143,448.12857142857143,888.1,72.22232142857143,551.1285714285714,992.3,43.222321428571426,580.1285714285714,1111.7,42.222321428571426,581.1285714285714,1223.3,42.222321428571426,581.1285714285714,1324.8,42.222321428571426,582.1285714285714,1431.8,42.222321428571426,582.1285714285714,1535.6,42.222321428571426,582.1285714285714,1636.4,42.222321428571426,582.1285714285714,1742.7,42.222321428571426,582.1285714285714,1847.3,42.222321428571426,582.1285714285714,1962.8,42.222321428571426,582.1285714285714,2063.2,42.222321428571426,582.1285714285714,2182.4,42.222321428571426,582.1285714285714,2298.8,42.222321428571426,582.1285714285714,2420.2,353.22232142857143,430.12857142857143,2531.2,353.22232142857143,430.12857142857143,2650.5,353.22232142857143,430.12857142857143,2751.6,353.22232142857143,430.12857142857143,2861.2,353.22232142857143,430.12857142857143,2965,353.22232142857143,430.12857142857143,3083.1,353.22232142857143,430.12857142857143,3184.3,353.22232142857143,430.12857142857143,3286.7,353.22232142857143,430.12857142857143,3391.8,353.22232142857143,430.12857142857143,3508.6,353.22232142857143,430.12857142857143,3614.2,353.22232142857143,430.12857142857143,3727.3,353.22232142857143,430.12857142857143,3840.8,353.22232142857143,430.12857142857143,3950.4,353.22232142857143,430.12857142857143,4065.9,353.22232142857143,430.12857142857143,4180.9,353.22232142857143,430.12857142857143,4293.7,353.22232142857143,430.12857142857143,4411.2,353.22232142857143,430.12857142857143,4526.4,353.22232142857143,430.12857142857143,4645.8,353.22232142857143,430.12857142857143,4760.9,353.22232142857143,430.12857142857143,4869.6,353.22232142857143,430.12857142857143,4982.4]","[1628.8,1628.8,1000,0,628.8,""smooth"",""left"",""left"",""good_move"",6133.5,4504,2490.5,1629.5,2013.5,""smooth"",""left"",""left"",""good_move"",14058.2,7923.8,2203.4,11317.5,537.3,""oops"",""left"",""right"",""bad_move"",17640,3581.3,3031.5,14058.7,549.8,""smooth"",""down"",""down"",""good_move"",20658.5,3017.8,2517.7,17640.7,500.1,""oops"",""down"",""right"",""bad_move"",23340.3,2681.3,1726.4,20659,954.9,""smooth"",""left"",""left"",""good_move"",28982.5,5641.3,3246.7,23341.2,2394.6,""smooth"",""left"",""left"",""good_move"",31948.8,2965.5,1351.1,28983.3,1614.4,""smooth"",""left"",""left"",""good_move"",34823.2,2873.3,1739.3,31950,1134,""smooth"",""down"",""down"",""good_move"",37684.9,2860.9,2409.3,34824,451.7,""smooth"",""down"",""down"",""good_move""]","",""
"10826","","<div style=""width:500px;"">
  <p>What determined the result of this run?</p>
