"rt","response_timestamp","stimulus","response","trial_type","trial_index","time_elapsed","internal_node_id","run_id","condition","recorded_at","source_code_version","ip","user_agent","device","browser","browser_version","platform","platform_version","referer","accept_language","PROLIFIC_PID","STUDY_ID","SESSION_ID","WEEK","BATCH","prolific_id","week","batch","realtime","success","responses","item_order","radio_event_ids","radio_event_times","key_event_times","mouse_event_times","straightlining","zigzagging","honeypot","eventType","view_history","slider_start","which_type","canvas_config","goals_layout","control_level","trial_number","tutorial_trial_number","trial_start_time","phase1_start_time","phase2_start_time","phase3_start_time","goal_1_value","goal_1_distance","goal_2_value","goal_2_distance","goal_selected","outcome","outcome_total","participant_final_score","participant_initial_score","participant_final_score_prop","goal_choice_rt","allocated_time","allocated_time_remaining","goal_direction","counts","mouse_movements","key_presses","question_order","question_id"
"2091","1752654883982","<p style='font-size:40px;line-height:1.25'><strong>Welcome to the experiment!</strong></p><p style='font-size:1.1em;line-height:1.25'>Thank you for participanting in our experiment again! You will be asked to play the Dysfunctional Ball Game again. We will briefly recap the rules before we start.</p><p style='font-size:1.1em;line-height:1.25'>Press <strong>Next</strong> to continue.</p>","0","custom-html-button-response","0","2095","0.0-0.0","76","1","2025-07-16 08:34:41","1f75c3e559b7213887762d5229550c2b","212.69.57.202","Mozilla/5.0 (X11; CrOS x86_64 14541.0.0) AppleWebKit/537.36 (KHTML, like Gecko) Chrome/137.0.0.0 Safari/537.36","WebKit","Chrome","137.0.0.0","ChromeOS","14541.0.0","https://app.prolific.com/","en-GB,en;q=0.9","5d9a55cb01556d0013fa8369","68764874ac79eee8c1d4cb03","68776416a50fdf4f1e8beb11","2","0","5d9a55cb01556d0013fa8369","2","0","2025-07-16T08:34:43.984Z","","","","","","","","","","","","","","","","","","","","","","","","","","","","","","","","","","","","","","","","","",""
"1592","","","","fullscreen","1","4690","0.0-1.0","76","1","2025-07-16 08:34:41","1f75c3e559b7213887762d5229550c2b","212.69.57.202","Mozilla/5.0 (X11; CrOS x86_64 14541.0.0) AppleWebKit/537.36 (KHTML, like Gecko) Chrome/137.0.0.0 Safari/537.36","WebKit","Chrome","137.0.0.0","ChromeOS","14541.0.0","https://app.prolific.com/","en-GB,en;q=0.9","5d9a55cb01556d0013fa8369","68764874ac79eee8c1d4cb03","68776416a50fdf4f1e8beb11","2","0","5d9a55cb01556d0013fa8369","2","0","","true","","","","","","","","","","","","","","","","","","","","","","","","","","","","","","","","","","","","","","","","",""
"1161","1752654887741","<p style='font-size:1.1em;line-height:1.25'>In the following, we will ask you a few questions relating to your feelings in the last 24 hours.<br></p><p style='font-size:1.1em;line-height:1.25'>Press the <strong>Next</strong> button to continue.</p>","0","custom-html-button-response","2","5852","0.0-2.0-0.0","76","1","2025-07-16 08:34:41","1f75c3e559b7213887762d5229550c2b","212.69.57.202","Mozilla/5.0 (X11; CrOS x86_64 14541.0.0) AppleWebKit/537.36 (KHTML, like Gecko) Chrome/137.0.0.0 Safari/537.36","WebKit","Chrome","137.0.0.0","ChromeOS","14541.0.0","https://app.prolific.com/","en-GB,en;q=0.9","5d9a55cb01556d0013fa8369","68764874ac79eee8c1d4cb03","68776416a50fdf4f1e8beb11","2","0","5d9a55cb01556d0013fa8369","2","0","2025-07-16T08:34:47.742Z","","","","","","","","","","","","","","","","","","","","","","","","","","","","","","","","","","","","","","","","","",""
"60840.20000000298","","","","survey-template","3","66702","0.0-2.0-1.0","76","1","2025-07-16 08:34:41","1f75c3e559b7213887762d5229550c2b","212.69.57.202","Mozilla/5.0 (X11; CrOS x86_64 14541.0.0) AppleWebKit/537.36 (KHTML, like Gecko) Chrome/137.0.0.0 Safari/537.36","WebKit","Chrome","137.0.0.0","ChromeOS","14541.0.0","https://app.prolific.com/","en-GB,en;q=0.9","5d9a55cb01556d0013fa8369","68764874ac79eee8c1d4cb03","68776416a50fdf4f1e8beb11","2","0","5d9a55cb01556d0013fa8369","2","0","2025-07-16T08:35:48.591Z","","{""Q01"":""2"",""Q02"":""0"",""Q03"":""0"",""Q04"":""0"",""Q05"":""0"",""Q06"":""3"",""Q07"":""0"",""Q08"":""0"",""Q09"":""3"",""Q10"":""2"",""Q11"":""5"",""Q12"":""3"",""Q13"":""5"",""Q14"":""2"",""Q15"":""3"",""Q16"":""0"",""Q17"":""2"",""Q18"":""0"",""Q19"":""5"",""Q20"":""5"",""Q21"":""5"",""Q22"":""3""}","[0,1,2,3,4,5,6,7,8,9,10,11,12,13,14,15,16,17,18,19,20,21]","[""Q01"",""Q02"",""Q03"",""Q04"",""Q05"",""Q06"",""Q07"",""Q08"",""Q09"",""Q10"",""Q11"",""Q12"",""Q13"",""Q14"",""Q15"",""Q16"",""Q17"",""Q18"",""Q19"",""Q20"",""Q21"",""Q22""]","[6175.5999999940395,7611.20000000298,8757.90000000596,10252.90000000596,11628.79999999702,14020.29999999702,15466.09999999404,18417.09999999404,20700,23470,26451,28812.70000000298,30328,35510.90000000596,37663.5,40603.70000000298,42776,44519.70000000298,50968.20000000298,54426,56787.79999999702,59179.79999999702]","[]","[0.09999999403953552,6175.5999999940395,7611.20000000298,8757.90000000596,10252.90000000596,11628.79999999702,14020.29999999702,15466.09999999404,18417.09999999404,20700,23470,26451,28812.70000000298,30328,35510.90000000596,37663.5,40603.70000000298,42776,44519.70000000298,50968.20000000298,54426,56787.79999999702,59179.79999999702,60824.5]","0.36363636363636365","0.14285714285714285","0","drsp","","","","","","","","","","","","","","","","","","","","","","","","","","","","","","",""
"12800.59999999404","","","","survey-template","4","79506","0.0-2.0-2.0","76","1","2025-07-16 08:34:41","1f75c3e559b7213887762d5229550c2b","212.69.57.202","Mozilla/5.0 (X11; CrOS x86_64 14541.0.0) AppleWebKit/537.36 (KHTML, like Gecko) Chrome/137.0.0.0 Safari/537.36","WebKit","Chrome","137.0.0.0","ChromeOS","14541.0.0","https://app.prolific.com/","en-GB,en;q=0.9","5d9a55cb01556d0013fa8369","68764874ac79eee8c1d4cb03","68776416a50fdf4f1e8beb11","2","0","5d9a55cb01556d0013fa8369","2","0","2025-07-16T08:36:01.395Z","","{""Q01"":""2"",""Q02"":""5"",""Q03"":""3""}","[0,1,2]","[""Q01"",""Q02"",""Q03""]","[8279.79999999702,10683.59999999404,11839.59999999404]","[]","[8279.79999999702,10683.59999999404,11839.59999999404,12797]","0.3333333333333333","0","0","stress","","","","","","","","","","","","","","","","","","","","","","","","","","","","","","",""
"3522","","","","instructions","5","83031","0.0-3.0-0.0","76","1","2025-07-16 08:34:41","1f75c3e559b7213887762d5229550c2b","212.69.57.202","Mozilla/5.0 (X11; CrOS x86_64 14541.0.0) AppleWebKit/537.36 (KHTML, like Gecko) Chrome/137.0.0.0 Safari/537.36","WebKit","Chrome","137.0.0.0","ChromeOS","14541.0.0","https://app.prolific.com/","en-GB,en;q=0.9","5d9a55cb01556d0013fa8369","68764874ac79eee8c1d4cb03","68776416a50fdf4f1e8beb11","2","0","5d9a55cb01556d0013fa8369","2","0","","","","","","","","","","","","","[{""page_index"":0,""viewing_time"":3521}]","","","","","","","","","","","","","","","","","","","","","","","","","","","","","",""
"3863","","<p>Before you start with this game please answer the following three questions yourself. </p>
  <p>Through this game, we measure several aspects of your cognitive performance, such as reaction times, multi-tasking capabilities </p>
  <p>and the ability to assess the situation you are in.</p>
  <p></p>
  <p><b>How good do you usually are in such tasks?</b></p>","50","html-slider-response","6","86898","0.0-4.0-0.0","76","1","2025-07-16 08:34:41","1f75c3e559b7213887762d5229550c2b","212.69.57.202","Mozilla/5.0 (X11; CrOS x86_64 14541.0.0) AppleWebKit/537.36 (KHTML, like Gecko) Chrome/137.0.0.0 Safari/537.36","WebKit","Chrome","137.0.0.0","ChromeOS","14541.0.0","https://app.prolific.com/","en-GB,en;q=0.9","5d9a55cb01556d0013fa8369","68764874ac79eee8c1d4cb03","68776416a50fdf4f1e8beb11","2","0","5d9a55cb01556d0013fa8369","2","0","2025-07-16T08:36:08.787Z","","","","","","","","","","","PreSkillQ","","50","","","","","","","","","","","","","","","","","","","","","","","","","","","","",""
"3955","","<div style=""width:500px;"">
  <p>How well do you think you will perform in this task compared to other participants?</p>
  </div>","50","html-slider-response","7","90854","0.0-4.0-1.0","76","1","2025-07-16 08:34:41","1f75c3e559b7213887762d5229550c2b","212.69.57.202","Mozilla/5.0 (X11; CrOS x86_64 14541.0.0) AppleWebKit/537.36 (KHTML, like Gecko) Chrome/137.0.0.0 Safari/537.36","WebKit","Chrome","137.0.0.0","ChromeOS","14541.0.0","https://app.prolific.com/","en-GB,en;q=0.9","5d9a55cb01556d0013fa8369","68764874ac79eee8c1d4cb03","68776416a50fdf4f1e8beb11","2","0","5d9a55cb01556d0013fa8369","2","0","2025-07-16T08:36:12.744Z","","","","","","","","","","","PrePerfQ","","50","","","","","","","","","","","","","","","","","","","","","","","","","","","","",""
"3437","","<div style=""width:500px;"">
  <p>What best describes how you currently feel?</p>
  </div>","1","html-slider-response","8","94295","0.0-4.0-2.0","76","1","2025-07-16 08:34:41","1f75c3e559b7213887762d5229550c2b","212.69.57.202","Mozilla/5.0 (X11; CrOS x86_64 14541.0.0) AppleWebKit/537.36 (KHTML, like Gecko) Chrome/137.0.0.0 Safari/537.36","WebKit","Chrome","137.0.0.0","ChromeOS","14541.0.0","https://app.prolific.com/","en-GB,en;q=0.9","5d9a55cb01556d0013fa8369","68764874ac79eee8c1d4cb03","68776416a50fdf4f1e8beb11","2","0","5d9a55cb01556d0013fa8369","2","0","2025-07-16T08:36:16.184Z","","","","","","","","","","","PreMotivationQ","","50","","","","","","","","","","","","","","","","","","","","","","","","","","","","",""
"","","","","ctl-task-cpt","9","117033","0.0-5.0-0.0","76","1","2025-07-16 08:34:41","1f75c3e559b7213887762d5229550c2b","212.69.57.202","Mozilla/5.0 (X11; CrOS x86_64 14541.0.0) AppleWebKit/537.36 (KHTML, like Gecko) Chrome/137.0.0.0 Safari/537.36","WebKit","Chrome","137.0.0.0","ChromeOS","14541.0.0","https://app.prolific.com/","en-GB,en;q=0.9","5d9a55cb01556d0013fa8369","68764874ac79eee8c1d4cb03","68776416a50fdf4f1e8beb11","2","0","5d9a55cb01556d0013fa8369","2","0","2025-07-16T08:36:38.922Z","","","","","","","","","","","","","","win-only","2","g1:SE,g2:NW","1","1","0","95545.2","2096.9","7101.6","19718","1","4","8","6","1","1","1","1","0","0.007575757575757576","2073.9","3000","1735","[""down"",""right""]","{""num_key_presses"":4,""num_perfect"":4,""num_errors"":0,""num_randdir"":0,""num_randdir_good_moves"":0,""num_whilered"":0,""num_whileblue"":0,""num_blue"":1,""num_good_moves"":4}","[414.0714133126395,425.32142761775424,0.9,414.0714133126395,425.32142761775424,110,414.0714133126395,425.32142761775424,213.7,414.0714133126395,425.32142761775424,319.3,414.0714133126395,425.32142761775424,424,414.0714133126395,425.32142761775424,525.5,414.0714133126395,425.32142761775424,628.9,414.0714133126395,425.32142761775424,758.4,216.5714133126395,164.07142761775424,867.5,232.8214133126395,165.32142761775424,968.7,582.8214133126395,562.8214276177542,1068.9,679.0714133126395,681.5714276177542,1174,694.0714133126395,701.5714276177542,1275,694.0714133126395,701.5714276177542,1391.2,694.0714133126395,701.5714276177542,1493.1,724.0714133126395,725.3214276177542,1598.8,767.8214133126395,772.8214276177542,1702.4,766.5714133126395,772.8214276177542,1804.2,764.0714133126395,771.5714276177542,1916.7,761.5714133126395,769.0714276177542,2035.7,761.5714133126395,769.0714276177542,2139.6,761.5714133126395,769.0714276177542,2258.8,761.5714133126395,769.0714276177542,2381.9,761.5714133126395,769.0714276177542,2519.8,761.5714133126395,769.0714276177542,2625.1,761.5714133126395,769.0714276177542,2729.1,761.5714133126395,769.0714276177542,2843.8,761.5714133126395,769.0714276177542,2949.4,761.5714133126395,769.0714276177542,3068.4,761.5714133126395,769.0714276177542,3168.8,761.5714133126395,769.0714276177542,3268.8,761.5714133126395,769.0714276177542,3369,761.5714133126395,769.0714276177542,3469.1,761.5714133126395,769.0714276177542,3569.2,761.5714133126395,769.0714276177542,3669.4,761.5714133126395,769.0714276177542,3773.9,761.5714133126395,769.0714276177542,3878.2,761.5714133126395,769.0714276177542,3981.4,761.5714133126395,769.0714276177542,4091.1,761.5714133126395,769.0714276177542,4194.3,761.5714133126395,769.0714276177542,4294.6,761.5714133126395,769.0714276177542,4398.9,761.5714133126395,769.0714276177542,4517.6,761.5714133126395,769.0714276177542,4618.8,761.5714133126395,769.0714276177542,4724.1,761.5714133126395,769.0714276177542,4828.9,761.5714133126395,769.0714276177542,4929.3]","[1540.2,1540,1000,0.2,540,""smooth"",""down"",""down"",""good_move"",7460.3,5918.7,2009.5,5008.9,441.9,""smooth"",""down"",""down"",""good_move"",9483.2,2020.8,1459.3,7462.4,561.6,""smooth"",""right"",""right"",""good_move"",12464,2980,2498.3,9484,481.7,""smooth"",""right"",""right"",""good_move""]","",""
"5925","","<div style=""width:500px;"">
  <p>What determined the result of this run?</p>
  </div>","100","html-slider-response","10","122960","0.0-5.0-1.0","76","1","2025-07-16 08:34:41","1f75c3e559b7213887762d5229550c2b","212.69.57.202","Mozilla/5.0 (X11; CrOS x86_64 14541.0.0) AppleWebKit/537.36 (KHTML, like Gecko) Chrome/137.0.0.0 Safari/537.36","WebKit","Chrome","137.0.0.0","ChromeOS","14541.0.0","https://app.prolific.com/","en-GB,en;q=0.9","5d9a55cb01556d0013fa8369","68764874ac79eee8c1d4cb03","68776416a50fdf4f1e8beb11","2","0","5d9a55cb01556d0013fa8369","2","0","2025-07-16T08:36:44.849Z","","","","","","","","","","","AttribQ","","50","","","","","","","","","","","","","","","","","","","","","","","","","","","","",""
"3696","","<div style=""width:500px;"">
  <p>How much control did you have over the ball?</p>
  </div>","100","html-slider-response","11","126658","0.0-5.0-2.0","76","1","2025-07-16 08:34:41","1f75c3e559b7213887762d5229550c2b","212.69.57.202","Mozilla/5.0 (X11; CrOS x86_64 14541.0.0) AppleWebKit/537.36 (KHTML, like Gecko) Chrome/137.0.0.0 Safari/537.36","WebKit","Chrome","137.0.0.0","ChromeOS","14541.0.0","https://app.prolific.com/","en-GB,en;q=0.9","5d9a55cb01556d0013fa8369","68764874ac79eee8c1d4cb03","68776416a50fdf4f1e8beb11","2","0","5d9a55cb01556d0013fa8369","2","0","2025-07-16T08:36:48.548Z","","","","","","","","","","","ControlQ","","50","","","","","","","","","","","","","","","","","","","","","","","","","","","","",""
"3396","","<div style=""width:500px;"">
  <p>How would you describe your current emotional state?</p>
  </div>","50","html-slider-response","12","130057","0.0-5.0-3.0","76","1","2025-07-16 08:34:41","1f75c3e559b7213887762d5229550c2b","212.69.57.202","Mozilla/5.0 (X11; CrOS x86_64 14541.0.0) AppleWebKit/537.36 (KHTML, like Gecko) Chrome/137.0.0.0 Safari/537.36","WebKit","Chrome","137.0.0.0","ChromeOS","14541.0.0","https://app.prolific.com/","en-GB,en;q=0.9","5d9a55cb01556d0013fa8369","68764874ac79eee8c1d4cb03","68776416a50fdf4f1e8beb11","2","0","5d9a55cb01556d0013fa8369","2","0","2025-07-16T08:36:51.946Z","","","","","","","","","","","StressQ","","50","","","","","","","","","","","","","","","","","","","","","","","","","","","","",""
"5571","","<div style=""width:500px;"">
  <p>What best describes how you currently feel?</p>
  </div>","24","html-slider-response","13","135631","0.0-5.0-4.0","76","1","2025-07-16 08:34:41","1f75c3e559b7213887762d5229550c2b","212.69.57.202","Mozilla/5.0 (X11; CrOS x86_64 14541.0.0) AppleWebKit/537.36 (KHTML, like Gecko) Chrome/137.0.0.0 Safari/537.36","WebKit","Chrome","137.0.0.0","ChromeOS","14541.0.0","https://app.prolific.com/","en-GB,en;q=0.9","5d9a55cb01556d0013fa8369","68764874ac79eee8c1d4cb03","68776416a50fdf4f1e8beb11","2","0","5d9a55cb01556d0013fa8369","2","0","2025-07-16T08:36:57.520Z","","","","","","","","","","","MotivationQ","","50","","","","","","","","","","","","","","","","","","","","","","","","","","","","",""
"","","","","ctl-task-cpt","14","171207","0.0-5.0-0.1","76","1","2025-07-16 08:34:41","1f75c3e559b7213887762d5229550c2b","212.69.57.202","Mozilla/5.0 (X11; CrOS x86_64 14541.0.0) AppleWebKit/537.36 (KHTML, like Gecko) Chrome/137.0.0.0 Safari/537.36","WebKit","Chrome","137.0.0.0","ChromeOS","14541.0.0","https://app.prolific.com/","en-GB,en;q=0.9","5d9a55cb01556d0013fa8369","68764874ac79eee8c1d4cb03","68776416a50fdf4f1e8beb11","2","0","5d9a55cb01556d0013fa8369","2","0","2025-07-16T08:37:33.097Z","","","","","","","","","","","","","","win-only","1","g1:NE,g2:SW","0.9","2","0","136876.4","1423.1","6426.6","32571.3","1","4","4","6","2","4","4","5","1","0.03787878787878788","1729.5","3000","380","[""down"",""left""]","{""num_key_presses"":8,""num_perfect"":7,""num_errors"":0,""num_randdir"":1,""num_randdir_good_moves"":0,""num_whilered"":0,""num_whileblue"":0,""num_blue"":1,""num_good_moves"":7}","[412.8214133126395,415.32142761775424,0.4,412.8214133126395,415.32142761775424,118.6,412.8214133126395,415.32142761775424,223.3,366.5714133126395,461.57142761775424,323.8,326.5714133126395,494.07142761775424,427.8,487.8214133126395,286.57142761775424,528.1,491.5714133126395,281.57142761775424,628.1,491.5714133126395,281.57142761775424,732.6,491.5714133126395,281.57142761775424,837.5,491.5714133126395,281.57142761775424,937.5,430.3214133126395,352.82142761775424,1039.7,325.3214133126395,525.3214276177542,1142.7,291.5714133126395,586.5714276177542,1242.7,252.8214133126395,621.5714276177542,1359.3,116.5714133126395,712.8214276177542,1479.3,105.3214133126395,717.8214276177542,1583.2,102.8214133126395,717.8214276177542,1719.3,102.8214133126395,717.8214276177542,1825.9,102.8214133126395,717.8214276177542,1930.2,102.8214133126395,717.8214276177542,2033.5,-193.4285866873605,719.0714276177542,2161,-198.4285866873605,724.0714276177542,2278.1,-198.4285866873605,724.0714276177542,2383.7,-198.4285866873605,724.0714276177542,2484,-198.4285866873605,724.0714276177542,2602.2,-198.4285866873605,724.0714276177542,2708.4,-198.4285866873605,724.0714276177542,2818.5,-198.4285866873605,724.0714276177542,2928.6,-198.4285866873605,724.0714276177542,3028.6,-198.4285866873605,724.0714276177542,3129.4,-198.4285866873605,724.0714276177542,3232.6,-198.4285866873605,724.0714276177542,3333.8,-198.4285866873605,724.0714276177542,3441.2,-198.4285866873605,724.0714276177542,3541.6,-198.4285866873605,724.0714276177542,3646.4,-198.4285866873605,724.0714276177542,3747.7,-198.4285866873605,724.0714276177542,3847.7,-198.4285866873605,724.0714276177542,3951.3,-198.4285866873605,724.0714276177542,4069.2,-198.4285866873605,724.0714276177542,4173.8,-198.4285866873605,724.0714276177542,4277.6,-198.4285866873605,724.0714276177542,4377.6,-198.4285866873605,724.0714276177542,4484,-198.4285866873605,724.0714276177542,4602.1,-198.4285866873605,724.0714276177542,4702.7,-198.4285866873605,724.0714276177542,4804.1,-198.4285866873605,724.0714276177542,4907.7]","[1494.7,1494.7,1000,0,494.7,""smooth"",""down"",""down"",""good_move"",4382.7,2887.6,2496.9,1495.1,390.7,""smooth"",""down"",""down"",""good_move"",7317.5,2934.5,2473.9,4383,460.6,""oops"",""down"",""up"",""bad_move"",10927.7,3609.2,3222.4,7318.5,386.8,""smooth"",""left"",""left"",""good_move"",14157.7,3227.8,2806.3,10929.9,421.5,""smooth"",""down"",""down"",""good_move"",19965.4,5805.9,1914.3,17640.5,410.6,""smooth"",""down"",""down"",""good_move"",23045.4,3078.4,2572.6,19967,505.8,""smooth"",""left"",""left"",""good_move"",26016.9,2969.8,2463,23047.1,506.8,""smooth"",""left"",""left"",""good_move""]","",""
"4363","","<div style=""width:500px;"">
  <p>What determined the result of this run?</p>
  </div>","41","html-slider-response","15","175572","0.0-5.0-1.1","76","1","2025-07-16 08:34:41","1f75c3e559b7213887762d5229550c2b","212.69.57.202","Mozilla/5.0 (X11; CrOS x86_64 14541.0.0) AppleWebKit/537.36 (KHTML, like Gecko) Chrome/137.0.0.0 Safari/537.36","WebKit","Chrome","137.0.0.0","ChromeOS","14541.0.0","https://app.prolific.com/","en-GB,en;q=0.9","5d9a55cb01556d0013fa8369","68764874ac79eee8c1d4cb03","68776416a50fdf4f1e8beb11","2","0","5d9a55cb01556d0013fa8369","2","0","2025-07-16T08:37:37.461Z","","","","","","","","","","","AttribQ","","50","","","","","","","","","","","","","","","","","","","","","","","","","","","","",""
"3256","","<div style=""width:500px;"">
  <p>How much control did you have over the ball?</p>
  </div>","41","html-slider-response","16","178830","0.0-5.0-2.1","76","1","2025-07-16 08:34:41","1f75c3e559b7213887762d5229550c2b","212.69.57.202","Mozilla/5.0 (X11; CrOS x86_64 14541.0.0) AppleWebKit/537.36 (KHTML, like Gecko) Chrome/137.0.0.0 Safari/537.36","WebKit","Chrome","137.0.0.0","ChromeOS","14541.0.0","https://app.prolific.com/","en-GB,en;q=0.9","5d9a55cb01556d0013fa8369","68764874ac79eee8c1d4cb03","68776416a50fdf4f1e8beb11","2","0","5d9a55cb01556d0013fa8369","2","0","2025-07-16T08:37:40.719Z","","","","","","","","","","","ControlQ","","50","","","","","","","","","","","","","","","","","","","","","","","","","","","","",""
"4046","","<div style=""width:500px;"">
  <p>How would you describe your current emotional state?</p>
  </div>","50","html-slider-response","17","182878","0.0-5.0-3.1","76","1","2025-07-16 08:34:41","1f75c3e559b7213887762d5229550c2b","212.69.57.202","Mozilla/5.0 (X11; CrOS x86_64 14541.0.0) AppleWebKit/537.36 (KHTML, like Gecko) Chrome/137.0.0.0 Safari/537.36","WebKit","Chrome","137.0.0.0","ChromeOS","14541.0.0","https://app.prolific.com/","en-GB,en;q=0.9","5d9a55cb01556d0013fa8369","68764874ac79eee8c1d4cb03","68776416a50fdf4f1e8beb11","2","0","5d9a55cb01556d0013fa8369","2","0","2025-07-16T08:37:44.767Z","","","","","","","","","","","StressQ","","50","","","","","","","","","","","","","","","","","","","","","","","","","","","","",""
"2918","","<div style=""width:500px;"">
  <p>What best describes how you currently feel?</p>
  </div>","28","html-slider-response","18","185797","0.0-5.0-4.1","76","1","2025-07-16 08:34:41","1f75c3e559b7213887762d5229550c2b","212.69.57.202","Mozilla/5.0 (X11; CrOS x86_64 14541.0.0) AppleWebKit/537.36 (KHTML, like Gecko) Chrome/137.0.0.0 Safari/537.36","WebKit","Chrome","137.0.0.0","ChromeOS","14541.0.0","https://app.prolific.com/","en-GB,en;q=0.9","5d9a55cb01556d0013fa8369","68764874ac79eee8c1d4cb03","68776416a50fdf4f1e8beb11","2","0","5d9a55cb01556d0013fa8369","2","0","2025-07-16T08:37:47.687Z","","","","","","","","","","","MotivationQ","","50","","","","","","","","","","","","","","","","","","","","","","","","","","","","",""
"","","","","ctl-task-cpt","19","221414","0.0-5.0-0.2","76","1","2025-07-16 08:34:41","1f75c3e559b7213887762d5229550c2b","212.69.57.202","Mozilla/5.0 (X11; CrOS x86_64 14541.0.0) AppleWebKit/537.36 (KHTML, like Gecko) Chrome/137.0.0.0 Safari/537.36","WebKit","Chrome","137.0.0.0","ChromeOS","14541.0.0","https://app.prolific.com/","en-GB,en;q=0.9","5d9a55cb01556d0013fa8369","68764874ac79eee8c1d4cb03","68776416a50fdf4f1e8beb11","2","0","5d9a55cb01556d0013fa8369","2","0","2025-07-16T08:38:23.303Z","","","","","","","","","","","","","","win-only","1","g1:NE,g2:SW","0.8","3","0","187043.8","1655","6660.6","32595.6","1","4","8","6","2","8","8","13","5","0.09848484848484848","2501.6","3000","785","[""down"",""left""]","{""num_key_presses"":8,""num_perfect"":7,""num_errors"":0,""num_randdir"":1,""num_randdir_good_moves"":0,""num_whilered"":0,""num_whileblue"":0,""num_blue"":1,""num_good_moves"":7}","[415.3214133126395,409.07142761775424,0.3,415.3214133126395,409.07142761775424,102,415.3214133126395,409.07142761775424,206.9,415.3214133126395,409.07142761775424,310.6,415.3214133126395,409.07142761775424,411.6,415.3214133126395,409.07142761775424,515.6,415.3214133126395,409.07142761775424,616.2,417.8214133126395,410.32142761775424,720.6,421.5714133126395,416.57142761775424,826.4,422.8214133126395,420.32142761775424,937.1,422.8214133126395,420.32142761775424,1041.2,422.8214133126395,420.32142761775424,1158,540.3214133126395,255.32142761775424,1280.6,595.3214133126395,187.82142761775424,1385.9,595.3214133126395,187.82142761775424,1515.6,244.0714133126395,622.8214276177542,1627.4,12.821413312639507,887.8214276177542,1727.5,-0.9285866873604931,899.0714276177542,1831.5,-0.9285866873604931,896.5714276177542,1936.1,129.0714133126395,706.5714276177542,2056.3,130.3214133126395,705.3214276177542,2173.8,130.3214133126395,705.3214276177542,2284.9,130.3214133126395,705.3214276177542,2403.5,130.3214133126395,705.3214276177542,2507.2,130.3214133126395,705.3214276177542,2645.3,130.3214133126395,705.3214276177542,2746.3,130.3214133126395,705.3214276177542,2847.8,-289.6785866873605,669.0714276177542,2951.2,-299.6785866873605,665.3214276177542,3073.9,-299.6785866873605,665.3214276177542,3196.2,-299.6785866873605,665.3214276177542,3299,-299.6785866873605,665.3214276177542,3401.1,-299.6785866873605,665.3214276177542,3508.2,-299.6785866873605,665.3214276177542,3611.2,-299.6785866873605,665.3214276177542,3711.7,-299.6785866873605,665.3214276177542,3814,-299.6785866873605,665.3214276177542,3915.9,-299.6785866873605,665.3214276177542,4017.3,-299.6785866873605,665.3214276177542,4120.1,-299.6785866873605,665.3214276177542,4228.6,-299.6785866873605,665.3214276177542,4330.7,-299.6785866873605,665.3214276177542,4430.8,-299.6785866873605,665.3214276177542,4535.6,-299.6785866873605,665.3214276177542,4653.1,-299.6785866873605,665.3214276177542,4756,-299.6785866873605,665.3214276177542,4856.1,-299.6785866873605,665.3214276177542,4957.3]","[5371.1,5371.1,2974.9,2014.9,381.3,""smooth"",""down"",""down"",""good_move"",7867,2495,2098.4,5372,396.6,""smooth"",""down"",""down"",""good_move"",9994.8,2114.6,1732.5,7880.3,382,""smooth"",""down"",""down"",""good_move"",12332.4,2336,1917.9,9996.5,418,""smooth"",""left"",""left"",""good_move"",16146.4,3812,3429.4,12334.5,382.6,""oops"",""left"",""right"",""bad_move"",19428.4,3280.5,2852.4,16147.9,428.1,""smooth"",""left"",""left"",""good_move"",22719.3,3290.3,2892.5,19429,397.8,""smooth"",""left"",""left"",""good_move"",25818,3097.4,2723.1,22720.6,374.3,""smooth"",""left"",""left"",""good_move""]","",""
"10211","","<div style=""width:500px;"">
  <p>What determined the result of this run?</p>
  </div>","37","html-slider-response","20","231627","0.0-5.0-1.2","76","1","2025-07-16 08:34:41","1f75c3e559b7213887762d5229550c2b","212.69.57.202","Mozilla/5.0 (X11; CrOS x86_64 14541.0.0) AppleWebKit/537.36 (KHTML, like Gecko) Chrome/137.0.0.0 Safari/537.36","WebKit","Chrome","137.0.0.0","ChromeOS","14541.0.0","https://app.prolific.com/","en-GB,en;q=0.9","5d9a55cb01556d0013fa8369","68764874ac79eee8c1d4cb03","68776416a50fdf4f1e8beb11","2","0","5d9a55cb01556d0013fa8369","2","0","2025-07-16T08:38:33.516Z","","","","","","","","","","","AttribQ","","50","","","","","","","","","","","","","","","","","","","","","","","","","","","","",""
"3203","","<div style=""width:500px;"">
  <p>How much control did you have over the ball?</p>
  </div>","38","html-slider-response","21","234832","0.0-5.0-2.2","76","1","2025-07-16 08:34:41","1f75c3e559b7213887762d5229550c2b","212.69.57.202","Mozilla/5.0 (X11; CrOS x86_64 14541.0.0) AppleWebKit/537.36 (KHTML, like Gecko) Chrome/137.0.0.0 Safari/537.36","WebKit","Chrome","137.0.0.0","ChromeOS","14541.0.0","https://app.prolific.com/","en-GB,en;q=0.9","5d9a55cb01556d0013fa8369","68764874ac79eee8c1d4cb03","68776416a50fdf4f1e8beb11","2","0","5d9a55cb01556d0013fa8369","2","0","2025-07-16T08:38:36.721Z","","","","","","","","","","","ControlQ","","50","","","","","","","","","","","","","","","","","","","","","","","","","","","","",""
"2201","","<div style=""width:500px;"">
  <p>How would you describe your current emotional state?</p>
  </div>","50","html-slider-response","22","237034","0.0-5.0-3.2","76","1","2025-07-16 08:34:41","1f75c3e559b7213887762d5229550c2b","212.69.57.202","Mozilla/5.0 (X11; CrOS x86_64 14541.0.0) AppleWebKit/537.36 (KHTML, like Gecko) Chrome/137.0.0.0 Safari/537.36","WebKit","Chrome","137.0.0.0","ChromeOS","14541.0.0","https://app.prolific.com/","en-GB,en;q=0.9","5d9a55cb01556d0013fa8369","68764874ac79eee8c1d4cb03","68776416a50fdf4f1e8beb11","2","0","5d9a55cb01556d0013fa8369","2","0","2025-07-16T08:38:38.924Z","","","","","","","","","","","StressQ","","50","","","","","","","","","","","","","","","","","","","","","","","","","","","","",""
"2909","","<div style=""width:500px;"">
  <p>What best describes how you currently feel?</p>
  </div>","33","html-slider-response","23","239945","0.0-5.0-4.2","76","1","2025-07-16 08:34:41","1f75c3e559b7213887762d5229550c2b","212.69.57.202","Mozilla/5.0 (X11; CrOS x86_64 14541.0.0) AppleWebKit/537.36 (KHTML, like Gecko) Chrome/137.0.0.0 Safari/537.36","WebKit","Chrome","137.0.0.0","ChromeOS","14541.0.0","https://app.prolific.com/","en-GB,en;q=0.9","5d9a55cb01556d0013fa8369","68764874ac79eee8c1d4cb03","68776416a50fdf4f1e8beb11","2","0","5d9a55cb01556d0013fa8369","2","0","2025-07-16T08:38:41.835Z","","","","","","","","","","","MotivationQ","","50","","","","","","","","","","","","","","","","","","","","","","","","","","","","",""
"","","","","ctl-task-cpt","24","274047","0.0-5.0-0.3","76","1","2025-07-16 08:34:41","1f75c3e559b7213887762d5229550c2b","212.69.57.202","Mozilla/5.0 (X11; CrOS x86_64 14541.0.0) AppleWebKit/537.36 (KHTML, like Gecko) Chrome/137.0.0.0 Safari/537.36","WebKit","Chrome","137.0.0.0","ChromeOS","14541.0.0","https://app.prolific.com/","en-GB,en;q=0.9","5d9a55cb01556d0013fa8369","68764874ac79eee8c1d4cb03","68776416a50fdf4f1e8beb11","2","0","5d9a55cb01556d0013fa8369","2","0","2025-07-16T08:39:15.936Z","","","","","","","","","","","","","","win-only","3","g1:SW,g2:NE","0.7","4","0","241192.2","1323.6","6328.9","31086.2","1","4","4","6","2","4","4","17","13","0.12878787878787878","2403.4","3000","1595","[""up"",""right""]","{""num_key_presses"":6,""num_perfect"":5,""num_errors"":0,""num_randdir"":1,""num_randdir_good_moves"":1,""num_whilered"":0,""num_whileblue"":0,""num_blue"":2,""num_good_moves"":6}","[419.0714133126395,414.07142761775424,0.6,419.0714133126395,414.07142761775424,121.4,419.0714133126395,414.07142761775424,230.6,155.3214133126395,521.5714276177542,332.1,-164.6785866873605,805.3214276177542,436.4,-182.1785866873605,819.0714276177542,540.3,-183.4285866873605,820.3214276177542,658.9,-183.4285866873605,820.3214276177542,785.6,-183.4285866873605,820.3214276177542,899.8,-183.4285866873605,820.3214276177542,1002,-183.4285866873605,820.3214276177542,1102,30.321413312639507,624.0714276177542,1207.5,30.321413312639507,625.3214276177542,1308,27.821413312639507,629.0714276177542,1409.4,831.5714133126395,112.82142761775425,1537.6,867.8214133126395,76.57142761775425,1644.9,867.8214133126395,76.57142761775425,1749.2,867.8214133126395,76.57142761775425,1876.9,769.0714133126395,84.07142761775425,1980.1,745.3214133126395,74.07142761775425,2082.4,745.3214133126395,74.07142761775425,2186.6,745.3214133126395,74.07142761775425,2315.3,745.3214133126395,74.07142761775425,2416,745.3214133126395,74.07142761775425,2546.9,745.3214133126395,74.07142761775425,2653,1094.0714133126396,105.32142761775425,2756.8,1134.0714133126396,136.57142761775424,2857.7,1135.3214133126396,136.57142761775424,2965.8,1135.3214133126396,136.57142761775424,3074.1,1135.3214133126396,136.57142761775424,3184.9,1135.3214133126396,136.57142761775424,3299.4,1135.3214133126396,136.57142761775424,3414.1,1135.3214133126396,136.57142761775424,3525,1135.3214133126396,136.57142761775424,3626.7,1135.3214133126396,136.57142761775424,3729,1135.3214133126396,136.57142761775424,3829,1135.3214133126396,136.57142761775424,3938.5,1135.3214133126396,136.57142761775424,4043.1,1135.3214133126396,136.57142761775424,4144.1,1135.3214133126396,136.57142761775424,4245.8,1135.3214133126396,136.57142761775424,4349.6,1135.3214133126396,136.57142761775424,4450,1135.3214133126396,136.57142761775424,4557.5,1135.3214133126396,136.57142761775424,4658.5,1135.3214133126396,136.57142761775424,4772.1,1135.3214133126396,136.57142761775424,4880.8]","[1395.6,1395.6,1000,0,395.6,""oops"",""up"",""up"",""good_move"",4144,2747.5,2329.1,1396.5,418.4,""smooth"",""up"",""up"",""good_move"",7760.3,3603.6,3275.1,4156.7,328.5,""smooth"",""up"",""up"",""good_move"",18845.3,11084.4,2557.4,15916.7,371.2,""smooth"",""right"",""right"",""good_move"",21438,2592.1,2171.1,18846,420.9,""smooth"",""right"",""right"",""good_move"",24564.8,3125.5,2761,21439.3,364.5,""smooth"",""right"",""right"",""good_move""]","",""
"4759","","<div style=""width:500px;"">
  <p>What determined the result of this run?</p>
  </div>","66","html-slider-response","25","278808","0.0-5.0-1.3","76","1","2025-07-16 08:34:41","1f75c3e559b7213887762d5229550c2b","212.69.57.202","Mozilla/5.0 (X11; CrOS x86_64 14541.0.0) AppleWebKit/537.36 (KHTML, like Gecko) Chrome/137.0.0.0 Safari/537.36","WebKit","Chrome","137.0.0.0","ChromeOS","14541.0.0","https://app.prolific.com/","en-GB,en;q=0.9","5d9a55cb01556d0013fa8369","68764874ac79eee8c1d4cb03","68776416a50fdf4f1e8beb11","2","0","5d9a55cb01556d0013fa8369","2","0","2025-07-16T08:39:20.698Z","","","","","","","","","","","AttribQ","","50","","","","","","","","","","","","","","","","","","","","","","","","","","","","",""
"3008","","<div style=""width:500px;"">
  <p>How much control did you have over the ball?</p>
  </div>","69","html-slider-response","26","281818","0.0-5.0-2.3","76","1","2025-07-16 08:34:41","1f75c3e559b7213887762d5229550c2b","212.69.57.202","Mozilla/5.0 (X11; CrOS x86_64 14541.0.0) AppleWebKit/537.36 (KHTML, like Gecko) Chrome/137.0.0.0 Safari/537.36","WebKit","Chrome","137.0.0.0","ChromeOS","14541.0.0","https://app.prolific.com/","en-GB,en;q=0.9","5d9a55cb01556d0013fa8369","68764874ac79eee8c1d4cb03","68776416a50fdf4f1e8beb11","2","0","5d9a55cb01556d0013fa8369","2","0","2025-07-16T08:39:23.708Z","","","","","","","","","","","ControlQ","","50","","","","","","","","","","","","","","","","","","","","","","","","","","","","",""
"2451","","<div style=""width:500px;"">
  <p>How would you describe your current emotional state?</p>
  </div>","50","html-slider-response","27","284271","0.0-5.0-3.3","76","1","2025-07-16 08:34:41","1f75c3e559b7213887762d5229550c2b","212.69.57.202","Mozilla/5.0 (X11; CrOS x86_64 14541.0.0) AppleWebKit/537.36 (KHTML, like Gecko) Chrome/137.0.0.0 Safari/537.36","WebKit","Chrome","137.0.0.0","ChromeOS","14541.0.0","https://app.prolific.com/","en-GB,en;q=0.9","5d9a55cb01556d0013fa8369","68764874ac79eee8c1d4cb03","68776416a50fdf4f1e8beb11","2","0","5d9a55cb01556d0013fa8369","2","0","2025-07-16T08:39:26.161Z","","","","","","","","","","","StressQ","","50","","","","","","","","","","","","","","","","","","","","","","","","","","","","",""
"2121","","<div style=""width:500px;"">
  <p>What best describes how you currently feel?</p>
  </div>","26","html-slider-response","28","286395","0.0-5.0-4.3","76","1","2025-07-16 08:34:41","1f75c3e559b7213887762d5229550c2b","212.69.57.202","Mozilla/5.0 (X11; CrOS x86_64 14541.0.0) AppleWebKit/537.36 (KHTML, like Gecko) Chrome/137.0.0.0 Safari/537.36","WebKit","Chrome","137.0.0.0","ChromeOS","14541.0.0","https://app.prolific.com/","en-GB,en;q=0.9","5d9a55cb01556d0013fa8369","68764874ac79eee8c1d4cb03","68776416a50fdf4f1e8beb11","2","0","5d9a55cb01556d0013fa8369","2","0","2025-07-16T08:39:28.284Z","","","","","","","","","","","MotivationQ","","50","","","","","","","","","","","","","","","","","","","","","","","","","","","","",""
"","","","","ctl-task-cpt","29","343045","0.0-5.0-0.4","76","1","2025-07-16 08:34:41","1f75c3e559b7213887762d5229550c2b","212.69.57.202","Mozilla/5.0 (X11; CrOS x86_64 14541.0.0) AppleWebKit/537.36 (KHTML, like Gecko) Chrome/137.0.0.0 Safari/537.36","WebKit","Chrome","137.0.0.0","ChromeOS","14541.0.0","https://app.prolific.com/","en-GB,en;q=0.9","5d9a55cb01556d0013fa8369","68764874ac79eee8c1d4cb03","68776416a50fdf4f1e8beb11","2","0","5d9a55cb01556d0013fa8369","2","0","2025-07-16T08:40:24.935Z","","","","","","","","","","","","","","win-only","1","g1:NE,g2:SW","0.6","5","0","287641.2","7873.2","12902.6","53639.4","1","4","4","6","2","-4","-4","13","17","0.09848484848484848","2369.7","3000","-1885","[""down"",""left""]","{""num_key_presses"":8,""num_perfect"":5,""num_errors"":0,""num_randdir"":3,""num_randdir_good_moves"":1,""num_whilered"":0,""num_whileblue"":0,""num_blue"":4,""num_good_moves"":6}","[420.3214133126395,415.32142761775424,0.3,420.3214133126395,415.32142761775424,102.4,420.3214133126395,415.32142761775424,208.2,431.5714133126395,417.82142761775424,312.5,1165.3214133126396,551.5714276177542,428.6,1247.8214133126396,539.0714276177542,539.4,1249.0714133126396,536.5714276177542,677.3,1249.0714133126396,536.5714276177542,780.4,1249.0714133126396,536.5714276177542,905.9,1249.0714133126396,536.5714276177542,1017.5,1249.0714133126396,536.5714276177542,1121.8,1195.3214133126396,516.5714276177542,1234.2,810.3214133126395,492.82142761775424,1338.1,541.5714133126395,652.8214276177542,1438.8,496.5714133126395,671.5714276177542,1541.9,496.5714133126395,671.5714276177542,1674.7,496.5714133126395,671.5714276177542,1803.1,186.5714133126395,756.5714276177542,1922.1,169.0714133126395,755.3214276177542,2059.6,157.8214133126395,754.0714276177542,2161.8,85.3214133126395,747.8214276177542,2266.3,82.8214133126395,746.5714276177542,2378.6,82.8214133126395,746.5714276177542,2482.5,82.8214133126395,746.5714276177542,2594,82.8214133126395,746.5714276177542,2719.7,82.8214133126395,746.5714276177542,2837.8,-413.4285866873605,701.5714276177542,2945.7,-413.4285866873605,701.5714276177542,3055.3,-413.4285866873605,701.5714276177542,3166.4,-413.4285866873605,701.5714276177542,3291.8,-413.4285866873605,701.5714276177542,3391.9,-413.4285866873605,701.5714276177542,3498.4,-413.4285866873605,701.5714276177542,3608.7,-413.4285866873605,701.5714276177542,3710.1,-413.4285866873605,701.5714276177542,3815.8,-413.4285866873605,701.5714276177542,3934.6,-413.4285866873605,701.5714276177542,4038.9,-413.4285866873605,701.5714276177542,4162.4,-413.4285866873605,701.5714276177542,4270.6,-413.4285866873605,701.5714276177542,4375.1,-413.4285866873605,701.5714276177542,4497.4,-413.4285866873605,701.5714276177542,4597.8,-413.4285866873605,701.5714276177542,4703.9,-413.4285866873605,701.5714276177542,4806.4,-413.4285866873605,701.5714276177542,4910.8]","[4361,4361,1939.4,2015.7,405.9,""smooth"",""down"",""down"",""good_move"",7887,3513.9,3110.9,4373.1,403,""smooth"",""down"",""down"",""good_move"",10647.6,2759.9,2390.5,7887.7,369.4,""smooth"",""down"",""down"",""good_move"",13560.1,2900.1,2458,10660,442.1,""oops"",""left"",""right"",""bad_move"",20725.3,7163.7,3199,17012.1,514.2,""oops"",""left"",""up"",""bad_move"",24464.2,3727.1,1916.2,20737.1,1810.9,""smooth"",""left"",""left"",""good_move"",27451.5,2974.3,2590.2,24477.2,384.1,""smooth"",""left"",""left"",""good_move"",37048.4,9596.4,2175.1,34433.5,439.8,""oops"",""left"",""down"",""good_move""]","",""
"4621","","<div style=""width:500px;"">
  <p>What determined the result of this run?</p>
  </div>","0","html-slider-response","30","347668","0.0-5.0-1.4","76","1","2025-07-16 08:34:41","1f75c3e559b7213887762d5229550c2b","212.69.57.202","Mozilla/5.0 (X11; CrOS x86_64 14541.0.0) AppleWebKit/537.36 (KHTML, like Gecko) Chrome/137.0.0.0 Safari/537.36","WebKit","Chrome","137.0.0.0","ChromeOS","14541.0.0","https://app.prolific.com/","en-GB,en;q=0.9","5d9a55cb01556d0013fa8369","68764874ac79eee8c1d4cb03","68776416a50fdf4f1e8beb11","2","0","5d9a55cb01556d0013fa8369","2","0","2025-07-16T08:40:29.557Z","","","","","","","","","","","AttribQ","","50","","","","","","","","","","","","","","","","","","","","","","","","","","","","",""
"2609","","<div style=""width:500px;"">
  <p>How much control did you have over the ball?</p>
  </div>","0","html-slider-response","31","350280","0.0-5.0-2.4","76","1","2025-07-16 08:34:41","1f75c3e559b7213887762d5229550c2b","212.69.57.202","Mozilla/5.0 (X11; CrOS x86_64 14541.0.0) AppleWebKit/537.36 (KHTML, like Gecko) Chrome/137.0.0.0 Safari/537.36","WebKit","Chrome","137.0.0.0","ChromeOS","14541.0.0","https://app.prolific.com/","en-GB,en;q=0.9","5d9a55cb01556d0013fa8369","68764874ac79eee8c1d4cb03","68776416a50fdf4f1e8beb11","2","0","5d9a55cb01556d0013fa8369","2","0","2025-07-16T08:40:32.169Z","","","","","","","","","","","ControlQ","","50","","","","","","","","","","","","","","","","","","","","","","","","","","","","",""
"2220","","<div style=""width:500px;"">
  <p>How would you describe your current emotional state?</p>
  </div>","50","html-slider-response","32","352502","0.0-5.0-3.4","76","1","2025-07-16 08:34:41","1f75c3e559b7213887762d5229550c2b","212.69.57.202","Mozilla/5.0 (X11; CrOS x86_64 14541.0.0) AppleWebKit/537.36 (KHTML, like Gecko) Chrome/137.0.0.0 Safari/537.36","WebKit","Chrome","137.0.0.0","ChromeOS","14541.0.0","https://app.prolific.com/","en-GB,en;q=0.9","5d9a55cb01556d0013fa8369","68764874ac79eee8c1d4cb03","68776416a50fdf4f1e8beb11","2","0","5d9a55cb01556d0013fa8369","2","0","2025-07-16T08:40:34.391Z","","","","","","","","","","","StressQ","","50","","","","","","","","","","","","","","","","","","","","","","","","","","","","",""
"2928","","<div style=""width:500px;"">
  <p>What best describes how you currently feel?</p>
  </div>","14","html-slider-response","33","355432","0.0-5.0-4.4","76","1","2025-07-16 08:34:41","1f75c3e559b7213887762d5229550c2b","212.69.57.202","Mozilla/5.0 (X11; CrOS x86_64 14541.0.0) AppleWebKit/537.36 (KHTML, like Gecko) Chrome/137.0.0.0 Safari/537.36","WebKit","Chrome","137.0.0.0","ChromeOS","14541.0.0","https://app.prolific.com/","en-GB,en;q=0.9","5d9a55cb01556d0013fa8369","68764874ac79eee8c1d4cb03","68776416a50fdf4f1e8beb11","2","0","5d9a55cb01556d0013fa8369","2","0","2025-07-16T08:40:37.321Z","","","","","","","","","","","MotivationQ","","50","","","","","","","","","","","","","","","","","","","","","","","","","","","","",""
"","","","","ctl-task-cpt","34","377377","0.0-5.0-0.5","76","1","2025-07-16 08:34:41","1f75c3e559b7213887762d5229550c2b","212.69.57.202","Mozilla/5.0 (X11; CrOS x86_64 14541.0.0) AppleWebKit/537.36 (KHTML, like Gecko) Chrome/137.0.0.0 Safari/537.36","WebKit","Chrome","137.0.0.0","ChromeOS","14541.0.0","https://app.prolific.com/","en-GB,en;q=0.9","5d9a55cb01556d0013fa8369","68764874ac79eee8c1d4cb03","68776416a50fdf4f1e8beb11","2","0","5d9a55cb01556d0013fa8369","2","0","2025-07-16T08:40:59.267Z","","","","","","","","","","","","","","win-only","3","g1:SW,g2:NE","0.5","6","0","356678.9","2877.1","7882.7","18922.5","1","4","8","6","1","1","1","14","13","0.10606060606060606","1375.8","3000","2205","[""down"",""left""]","{""num_key_presses"":4,""num_perfect"":3,""num_errors"":0,""num_randdir"":1,""num_randdir_good_moves"":1,""num_whilered"":0,""num_whileblue"":0,""num_blue"":0,""num_good_moves"":4}","[414.0714133126395,421.57142761775424,1.4,414.0714133126395,421.57142761775424,111.5,414.0714133126395,421.57142761775424,217.9,414.0714133126395,421.57142761775424,329,414.0714133126395,421.57142761775424,433.5,414.0714133126395,421.57142761775424,534.6,414.0714133126395,421.57142761775424,643.3,414.0714133126395,421.57142761775424,743.3,414.0714133126395,421.57142761775424,847.4,157.8214133126395,619.0714276177542,956.8,81.5714133126395,694.0714276177542,1058.4,45.32141331263951,750.3214276177542,1167.7,41.57141331263951,757.8214276177542,1275.6,42.82141331263951,757.8214276177542,1392.1,42.82141331263951,757.8214276177542,1501.3,42.82141331263951,757.8214276177542,1628.6,42.82141331263951,757.8214276177542,1746.4,-305.9285866873605,727.8214276177542,1854.4,-439.6785866873605,701.5714276177542,1961.2,-439.6785866873605,701.5714276177542,2076.5,-439.6785866873605,701.5714276177542,2176.5,-439.6785866873605,701.5714276177542,2278.1,-439.6785866873605,701.5714276177542,2389.4,-439.6785866873605,701.5714276177542,2494,-439.6785866873605,701.5714276177542,2604.2,-439.6785866873605,701.5714276177542,2707.9,-439.6785866873605,701.5714276177542,2808.4,-439.6785866873605,701.5714276177542,2915.5,-439.6785866873605,701.5714276177542,3025.4,-439.6785866873605,701.5714276177542,3126.5,-439.6785866873605,701.5714276177542,3227.3,-439.6785866873605,701.5714276177542,3329,-439.6785866873605,701.5714276177542,3443.8,-439.6785866873605,701.5714276177542,3544.2,-439.6785866873605,701.5714276177542,3663.4,-439.6785866873605,701.5714276177542,3773.4,-439.6785866873605,701.5714276177542,3892.8,-439.6785866873605,701.5714276177542,3996.3,-439.6785866873605,701.5714276177542,4099.8,-439.6785866873605,701.5714276177542,4207.6,-439.6785866873605,701.5714276177542,4319.8,-439.6785866873605,701.5714276177542,4424.2,-439.6785866873605,701.5714276177542,4525.5,-439.6785866873605,701.5714276177542,4627.7,-439.6785866873605,701.5714276177542,4736.7,-439.6785866873605,701.5714276177542,4841,-439.6785866873605,701.5714276177542,4942.4]","[1422.2,1422.2,1000,0,422.2,""smooth"",""down"",""down"",""good_move"",4565.8,3142.4,2751.1,1423.4,391.3,""oops"",""down"",""down"",""good_move"",7748.4,3181.1,2762.4,4567.3,418.7,""smooth"",""left"",""left"",""good_move"",10818.3,3056.3,2624.3,7762,432,""smooth"",""left"",""left"",""good_move""]","",""
"3428","","<div style=""width:500px;"">
  <p>What determined the result of this run?</p>
  </div>","1","html-slider-response","35","380807","0.0-5.0-1.5","76","1","2025-07-16 08:34:41","1f75c3e559b7213887762d5229550c2b","212.69.57.202","Mozilla/5.0 (X11; CrOS x86_64 14541.0.0) AppleWebKit/537.36 (KHTML, like Gecko) Chrome/137.0.0.0 Safari/537.36","WebKit","Chrome","137.0.0.0","ChromeOS","14541.0.0","https://app.prolific.com/","en-GB,en;q=0.9","5d9a55cb01556d0013fa8369","68764874ac79eee8c1d4cb03","68776416a50fdf4f1e8beb11","2","0","5d9a55cb01556d0013fa8369","2","0","2025-07-16T08:41:02.696Z","","","","","","","","","","","AttribQ","","50","","","","","","","","","","","","","","","","","","","","","","","","","","","","",""
"2940","","<div style=""width:500px;"">
  <p>How much control did you have over the ball?</p>
  </div>","0","html-slider-response","36","383750","0.0-5.0-2.5","76","1","2025-07-16 08:34:41","1f75c3e559b7213887762d5229550c2b","212.69.57.202","Mozilla/5.0 (X11; CrOS x86_64 14541.0.0) AppleWebKit/537.36 (KHTML, like Gecko) Chrome/137.0.0.0 Safari/537.36","WebKit","Chrome","137.0.0.0","ChromeOS","14541.0.0","https://app.prolific.com/","en-GB,en;q=0.9","5d9a55cb01556d0013fa8369","68764874ac79eee8c1d4cb03","68776416a50fdf4f1e8beb11","2","0","5d9a55cb01556d0013fa8369","2","0","2025-07-16T08:41:05.639Z","","","","","","","","","","","ControlQ","","50","","","","","","","","","","","","","","","","","","","","","","","","","","","","",""
"2816","","<div style=""width:500px;"">
  <p>How would you describe your current emotional state?</p>
  </div>","50","html-slider-response","37","386569","0.0-5.0-3.5","76","1","2025-07-16 08:34:41","1f75c3e559b7213887762d5229550c2b","212.69.57.202","Mozilla/5.0 (X11; CrOS x86_64 14541.0.0) AppleWebKit/537.36 (KHTML, like Gecko) Chrome/137.0.0.0 Safari/537.36","WebKit","Chrome","137.0.0.0","ChromeOS","14541.0.0","https://app.prolific.com/","en-GB,en;q=0.9","5d9a55cb01556d0013fa8369","68764874ac79eee8c1d4cb03","68776416a50fdf4f1e8beb11","2","0","5d9a55cb01556d0013fa8369","2","0","2025-07-16T08:41:08.458Z","","","","","","","","","","","StressQ","","50","","","","","","","","","","","","","","","","","","","","","","","","","","","","",""
"5997","","<div style=""width:500px;"">
  <p>What best describes how you currently feel?</p>
  </div>","21","html-slider-response","38","392568","0.0-5.0-4.5","76","1","2025-07-16 08:34:41","1f75c3e559b7213887762d5229550c2b","212.69.57.202","Mozilla/5.0 (X11; CrOS x86_64 14541.0.0) AppleWebKit/537.36 (KHTML, like Gecko) Chrome/137.0.0.0 Safari/537.36","WebKit","Chrome","137.0.0.0","ChromeOS","14541.0.0","https://app.prolific.com/","en-GB,en;q=0.9","5d9a55cb01556d0013fa8369","68764874ac79eee8c1d4cb03","68776416a50fdf4f1e8beb11","2","0","5d9a55cb01556d0013fa8369","2","0","2025-07-16T08:41:14.457Z","","","","","","","","","","","MotivationQ","","50","","","","","","","","","","","","","","","","","","","","","","","","","","","","",""
"","","","","ctl-task-cpt","39","429588","0.0-5.0-0.6","76","1","2025-07-16 08:34:41","1f75c3e559b7213887762d5229550c2b","212.69.57.202","Mozilla/5.0 (X11; CrOS x86_64 14541.0.0) AppleWebKit/537.36 (KHTML, like Gecko) Chrome/137.0.0.0 Safari/537.36","WebKit","Chrome","137.0.0.0","ChromeOS","14541.0.0","https://app.prolific.com/","en-GB,en;q=0.9","5d9a55cb01556d0013fa8369","68764874ac79eee8c1d4cb03","68776416a50fdf4f1e8beb11","2","0","5d9a55cb01556d0013fa8369","2","0","2025-07-16T08:41:51.477Z","","","","","","","","","","","","","","win-only","1","g1:NE,g2:SW","0.4","7","0","393814.5","1434.6","6452.6","34005.4","1","4","8","6","1","1","1","15","14","0.11363636363636363","1697.1","3000","440","[""up"",""right""]","{""num_key_presses"":8,""num_perfect"":4,""num_errors"":0,""num_randdir"":4,""num_randdir_good_moves"":2,""num_whilered"":0,""num_whileblue"":0,""num_blue"":1,""num_good_moves"":6}","[412.8214133126395,424.07142761775424,0.5,412.8214133126395,424.07142761775424,104.2,412.8214133126395,424.07142761775424,205,355.3214133126395,431.57142761775424,315.8,151.5714133126395,516.5714276177542,416,-242.1785866873605,745.3214276177542,517.8,-248.4285866873605,742.8214276177542,630.4,-248.4285866873605,742.8214276177542,732.9,-248.4285866873605,742.8214276177542,836.2,72.8214133126395,514.0714276177542,973.6,780.3214133126395,75.32142761775425,1085.2,805.3214133126395,67.82142761775425,1190.1,807.8214133126395,67.82142761775425,1294,809.0714133126395,69.07142761775425,1407.8,809.0714133126395,71.57142761775425,1508.8,810.3214133126395,74.07142761775425,1614,810.3214133126395,74.07142761775425,1722.1,810.3214133126395,74.07142761775425,1875.3,837.8214133126395,86.57142761775425,1977.2,867.8214133126395,91.57142761775425,2082,867.8214133126395,91.57142761775425,2200.7,867.8214133126395,91.57142761775425,2306.6,867.8214133126395,91.57142761775425,2412.6,867.8214133126395,91.57142761775425,2520.7,867.8214133126395,91.57142761775425,2632.6,867.8214133126395,91.57142761775425,2736.9,867.8214133126395,91.57142761775425,2847.1,867.8214133126395,91.57142761775425,2948.1,867.8214133126395,91.57142761775425,3057.2,867.8214133126395,91.57142761775425,3164.8,867.8214133126395,91.57142761775425,3264.9,867.8214133126395,91.57142761775425,3368.1,867.8214133126395,91.57142761775425,3468.2,867.8214133126395,91.57142761775425,3569.5,867.8214133126395,91.57142761775425,3678,867.8214133126395,91.57142761775425,3779.6,867.8214133126395,91.57142761775425,3881.9,867.8214133126395,91.57142761775425,3989.1,867.8214133126395,91.57142761775425,4089.8,867.8214133126395,91.57142761775425,4192.8,867.8214133126395,91.57142761775425,4299.2,867.8214133126395,91.57142761775425,4400.9,867.8214133126395,91.57142761775425,4503.9,867.8214133126395,91.57142761775425,4606.6,867.8214133126395,91.57142761775425,4710.2,867.8214133126395,91.57142761775425,4810.8,867.8214133126395,91.57142761775425,4914.3]","[1427.6,1427.6,1000,0,427.6,""smooth"",""up"",""up"",""good_move"",5080.6,3641.7,2708.4,1438.9,933.3,""smooth"",""up"",""up"",""good_move"",7833.9,2752.7,2407.7,5081.2,345,""oops"",""right"",""down"",""bad_move"",13865.2,6030.6,2193.3,11156.6,515.4,""oops"",""right"",""left"",""bad_move"",18016.9,4151.2,2877.9,13865.7,1273.3,""oops"",""up"",""up"",""good_move"",21582.1,3550.9,3141.4,18031.4,409.4,""oops"",""right"",""right"",""good_move"",24611.1,3027.4,2669.5,21583.8,357.8,""smooth"",""right"",""right"",""good_move"",27374.9,2763.3,1946.3,24611.6,817,""smooth"",""right"",""right"",""good_move""]","",""
"5040","","<div style=""width:500px;"">
  <p>What determined the result of this run?</p>
  </div>","0","html-slider-response","40","434631","0.0-5.0-1.6","76","1","2025-07-16 08:34:41","1f75c3e559b7213887762d5229550c2b","212.69.57.202","Mozilla/5.0 (X11; CrOS x86_64 14541.0.0) AppleWebKit/537.36 (KHTML, like Gecko) Chrome/137.0.0.0 Safari/537.36","WebKit","Chrome","137.0.0.0","ChromeOS","14541.0.0","https://app.prolific.com/","en-GB,en;q=0.9","5d9a55cb01556d0013fa8369","68764874ac79eee8c1d4cb03","68776416a50fdf4f1e8beb11","2","0","5d9a55cb01556d0013fa8369","2","0","2025-07-16T08:41:56.520Z","","","","","","","","","","","AttribQ","","50","","","","","","","","","","","","","","","","","","","","","","","","","","","","",""
"3017","","<div style=""width:500px;"">
  <p>How much control did you have over the ball?</p>
  </div>","1","html-slider-response","41","437650","0.0-5.0-2.6","76","1","2025-07-16 08:34:41","1f75c3e559b7213887762d5229550c2b","212.69.57.202","Mozilla/5.0 (X11; CrOS x86_64 14541.0.0) AppleWebKit/537.36 (KHTML, like Gecko) Chrome/137.0.0.0 Safari/537.36","WebKit","Chrome","137.0.0.0","ChromeOS","14541.0.0","https://app.prolific.com/","en-GB,en;q=0.9","5d9a55cb01556d0013fa8369","68764874ac79eee8c1d4cb03","68776416a50fdf4f1e8beb11","2","0","5d9a55cb01556d0013fa8369","2","0","2025-07-16T08:41:59.539Z","","","","","","","","","","","ControlQ","","50","","","","","","","","","","","","","","","","","","","","","","","","","","","","",""
"3158","","<div style=""width:500px;"">
  <p>How would you describe your current emotional state?</p>
  </div>","50","html-slider-response","42","440811","0.0-5.0-3.6","76","1","2025-07-16 08:34:41","1f75c3e559b7213887762d5229550c2b","212.69.57.202","Mozilla/5.0 (X11; CrOS x86_64 14541.0.0) AppleWebKit/537.36 (KHTML, like Gecko) Chrome/137.0.0.0 Safari/537.36","WebKit","Chrome","137.0.0.0","ChromeOS","14541.0.0","https://app.prolific.com/","en-GB,en;q=0.9","5d9a55cb01556d0013fa8369","68764874ac79eee8c1d4cb03","68776416a50fdf4f1e8beb11","2","0","5d9a55cb01556d0013fa8369","2","0","2025-07-16T08:42:02.700Z","","","","","","","","","","","StressQ","","50","","","","","","","","","","","","","","","","","","","","","","","","","","","","",""
"2548","","<div style=""width:500px;"">
  <p>What best describes how you currently feel?</p>
  </div>","12","html-slider-response","43","443361","0.0-5.0-4.6","76","1","2025-07-16 08:34:41","1f75c3e559b7213887762d5229550c2b","212.69.57.202","Mozilla/5.0 (X11; CrOS x86_64 14541.0.0) AppleWebKit/537.36 (KHTML, like Gecko) Chrome/137.0.0.0 Safari/537.36","WebKit","Chrome","137.0.0.0","ChromeOS","14541.0.0","https://app.prolific.com/","en-GB,en;q=0.9","5d9a55cb01556d0013fa8369","68764874ac79eee8c1d4cb03","68776416a50fdf4f1e8beb11","2","0","5d9a55cb01556d0013fa8369","2","0","2025-07-16T08:42:05.251Z","","","","","","","","","","","MotivationQ","","50","","","","","","","","","","","","","","","","","","","","","","","","","","","","",""
"","","","","ctl-task-cpt","44","537238","0.0-5.0-0.7","76","1","2025-07-16 08:34:41","1f75c3e559b7213887762d5229550c2b","212.69.57.202","Mozilla/5.0 (X11; CrOS x86_64 14541.0.0) AppleWebKit/537.36 (KHTML, like Gecko) Chrome/137.0.0.0 Safari/537.36","WebKit","Chrome","137.0.0.0","ChromeOS","14541.0.0","https://app.prolific.com/","en-GB,en;q=0.9","5d9a55cb01556d0013fa8369","68764874ac79eee8c1d4cb03","68776416a50fdf4f1e8beb11","2","0","5d9a55cb01556d0013fa8369","2","0","2025-07-16T08:43:39.127Z","","","","","","","","","","","","","","win-only","1","g1:NE,g2:SW","0.3","8","0","444608.4","1363.4","6379.2","90836.9","1","4","4","6","1","-1","-3","12","15","0.09090909090909091","1951.6","3000","-545","[""up"",""right""]","{""num_key_presses"":19,""num_perfect"":5,""num_errors"":2,""num_randdir"":12,""num_randdir_good_moves"":3,""num_whilered"":0,""num_whileblue"":2,""num_blue"":5,""num_good_moves"":8}","[417.8214133126395,406.57142761775424,0.4,417.8214133126395,406.57142761775424,102.6,417.8214133126395,406.57142761775424,209.1,417.8214133126395,406.57142761775424,313.2,534.0714133126395,390.32142761775424,418.5,966.5714133126395,364.07142761775424,522.6,982.8214133126395,365.32142761775424,629,982.8214133126395,365.32142761775424,729.7,982.8214133126395,365.32142761775424,838.5,982.8214133126395,365.32142761775424,942.5,982.8214133126395,365.32142761775424,1057.5,982.8214133126395,365.32142761775424,1172.8,982.8214133126395,365.32142761775424,1278.9,891.5714133126395,301.57142761775424,1386.5,650.3214133126395,106.57142761775425,1492.1,646.5714133126395,102.82142761775425,1596.6,679.0714133126395,102.82142761775425,1705.5,736.5714133126395,105.32142761775425,1813.6,739.0714133126395,105.32142761775425,1927.2,739.0714133126395,105.32142761775425,2032.5,739.0714133126395,105.32142761775425,2134.9,850.3214133126395,121.57142761775425,2242.8,1107.8214133126396,181.57142761775424,2343.1,1159.0714133126396,201.57142761775424,2448,1159.0714133126396,201.57142761775424,2553.5,1159.0714133126396,201.57142761775424,2656.6,1159.0714133126396,201.57142761775424,2760.6,1159.0714133126396,201.57142761775424,2861.6,1159.0714133126396,201.57142761775424,2965.6,1159.0714133126396,201.57142761775424,3068.8,1159.0714133126396,201.57142761775424,3177.4,1159.0714133126396,201.57142761775424,3283.9,1159.0714133126396,201.57142761775424,3385.8,1159.0714133126396,201.57142761775424,3489.9,1159.0714133126396,201.57142761775424,3590.9,1159.0714133126396,201.57142761775424,3694.7,1159.0714133126396,201.57142761775424,3801.4,1159.0714133126396,201.57142761775424,3903.6,1159.0714133126396,201.57142761775424,4011.8,1159.0714133126396,201.57142761775424,4113.9,1159.0714133126396,201.57142761775424,4221.4,1159.0714133126396,201.57142761775424,4326.7,1159.0714133126396,201.57142761775424,4429.3,1159.0714133126396,201.57142761775424,4534.1,1159.0714133126396,201.57142761775424,4638.9,1159.0714133126396,201.57142761775424,4740.8,1159.0714133126396,201.57142761775424,4843.1,1159.0714133126396,201.57142761775424,4943.1]","[1770.1,1770.1,1000,0,770.1,""smooth"",""down"",""down"",""bad_move"",8528.7,6758,2561.8,5592.1,374.8,""while_blue"",""up"",""down"",""bad_move"",16413.3,7884,3518.6,12469.8,424.9,""oops"",""up"",""left"",""bad_move"",19814.4,3400.3,2680.7,16414.1,719.7,""oops"",""up"",""left"",""bad_move"",22980.3,3165.4,2648.6,19814.9,516.8,""oops"",""up"",""right"",""good_move"",25576,2595,2026.2,22981,568.8,""smooth"",""up"",""up"",""good_move"",28987.2,3410.6,2992.9,25576.6,417.7,""smooth"",""up"",""up"",""good_move"",32556.7,3569,2566,28987.7,1003.1,""oops"",""up"",""down"",""bad_move"",36676.1,4119,3058.8,32557.1,1060.2,""oops"",""up"",""down"",""bad_move"",43179.1,6502.5,2461.3,40254.7,463.1,""oops"",""up"",""left"",""bad_move"",49351.2,6171.6,1977.9,43179.6,4193.7,""oops"",""up"",""down"",""bad_move"",52448.3,3096.5,2623.6,49351.8,472.9,""oops"",""right"",""up"",""good_move"",57080.9,4632.2,2915.6,52448.7,1716.6,""oops"",""right"",""left"",""bad_move"",62005.8,4924.5,3115,57081.3,1809.5,""oops"",""right"",""up"",""good_move"",66988.1,4981.8,2174.9,62006.3,2806.9,""oops"",""right"",""down"",""bad_move"",69809.5,2820.9,2132.3,66988.7,688.5,""oops"",""right"",""down"",""bad_move"",72626.6,2816.5,2381,69810.1,435.5,""while_blue"",""right"",""up"",""good_move"",77930.6,5303.7,1675.5,72627,3628.1,""smooth"",""right"",""right"",""good_move"",81322.7,3391.7,2788.2,77931,603.5,""smooth"",""right"",""right"",""good_move""]","",""
"4122","","<div style=""width:500px;"">
  <p>What determined the result of this run?</p>
  </div>","0","html-slider-response","45","541364","0.0-5.0-1.7","76","1","2025-07-16 08:34:41","1f75c3e559b7213887762d5229550c2b","212.69.57.202","Mozilla/5.0 (X11; CrOS x86_64 14541.0.0) AppleWebKit/537.36 (KHTML, like Gecko) Chrome/137.0.0.0 Safari/537.36","WebKit","Chrome","137.0.0.0","ChromeOS","14541.0.0","https://app.prolific.com/","en-GB,en;q=0.9","5d9a55cb01556d0013fa8369","68764874ac79eee8c1d4cb03","68776416a50fdf4f1e8beb11","2","0","5d9a55cb01556d0013fa8369","2","0","2025-07-16T08:43:43.253Z","","","","","","","","","","","AttribQ","","50","","","","","","","","","","","","","","","","","","","","","","","","","","","","",""
"2344","","<div style=""width:500px;"">
  <p>How much control did you have over the ball?</p>
  </div>","0","html-slider-response","46","543712","0.0-5.0-2.7","76","1","2025-07-16 08:34:41","1f75c3e559b7213887762d5229550c2b","212.69.57.202","Mozilla/5.0 (X11; CrOS x86_64 14541.0.0) AppleWebKit/537.36 (KHTML, like Gecko) Chrome/137.0.0.0 Safari/537.36","WebKit","Chrome","137.0.0.0","ChromeOS","14541.0.0","https://app.prolific.com/","en-GB,en;q=0.9","5d9a55cb01556d0013fa8369","68764874ac79eee8c1d4cb03","68776416a50fdf4f1e8beb11","2","0","5d9a55cb01556d0013fa8369","2","0","2025-07-16T08:43:45.602Z","","","","","","","","","","","ControlQ","","50","","","","","","","","","","","","","","","","","","","","","","","","","","","","",""
"5413","","<div style=""width:500px;"">
  <p>How would you describe your current emotional state?</p>
  </div>","61","html-slider-response","47","549131","0.0-5.0-3.7","76","1","2025-07-16 08:34:41","1f75c3e559b7213887762d5229550c2b","212.69.57.202","Mozilla/5.0 (X11; CrOS x86_64 14541.0.0) AppleWebKit/537.36 (KHTML, like Gecko) Chrome/137.0.0.0 Safari/537.36","WebKit","Chrome","137.0.0.0","ChromeOS","14541.0.0","https://app.prolific.com/","en-GB,en;q=0.9","5d9a55cb01556d0013fa8369","68764874ac79eee8c1d4cb03","68776416a50fdf4f1e8beb11","2","0","5d9a55cb01556d0013fa8369","2","0","2025-07-16T08:43:51.020Z","","","","","","","","","","","StressQ","","50","","","","","","","","","","","","","","","","","","","","","","","","","","","","",""
"2412","","<div style=""width:500px;"">
  <p>What best describes how you currently feel?</p>
  </div>","2","html-slider-response","48","551549","0.0-5.0-4.7","76","1","2025-07-16 08:34:41","1f75c3e559b7213887762d5229550c2b","212.69.57.202","Mozilla/5.0 (X11; CrOS x86_64 14541.0.0) AppleWebKit/537.36 (KHTML, like Gecko) Chrome/137.0.0.0 Safari/537.36","WebKit","Chrome","137.0.0.0","ChromeOS","14541.0.0","https://app.prolific.com/","en-GB,en;q=0.9","5d9a55cb01556d0013fa8369","68764874ac79eee8c1d4cb03","68776416a50fdf4f1e8beb11","2","0","5d9a55cb01556d0013fa8369","2","0","2025-07-16T08:43:53.438Z","","","","","","","","","","","MotivationQ","","50","","","","","","","","","","","","","","","","","","","","","","","","","","","","",""
"","","","","ctl-task-cpt","49","675099","0.0-5.0-0.8","76","1","2025-07-16 08:34:41","1f75c3e559b7213887762d5229550c2b","212.69.57.202","Mozilla/5.0 (X11; CrOS x86_64 14541.0.0) AppleWebKit/537.36 (KHTML, like Gecko) Chrome/137.0.0.0 Safari/537.36","WebKit","Chrome","137.0.0.0","ChromeOS","14541.0.0","https://app.prolific.com/","en-GB,en;q=0.9","5d9a55cb01556d0013fa8369","68764874ac79eee8c1d4cb03","68776416a50fdf4f1e8beb11","2","0","5d9a55cb01556d0013fa8369","2","0","2025-07-16T08:45:56.988Z","","","","","","","","","","","","","","win-only","3","g1:SW,g2:NE","0.2","9","0","552799.4","1680.4","6723.6","120389.4","1","4","8","6","1","1","1","13","12","0.09848484848484848","1626.1","3000","2105","[""down"",""left""]","{""num_key_presses"":16,""num_perfect"":4,""num_errors"":0,""num_randdir"":12,""num_randdir_good_moves"":6,""num_whilered"":0,""num_whileblue"":0,""num_blue"":4,""num_good_moves"":10}","[417.8214133126395,411.57142761775424,0.6,417.8214133126395,411.57142761775424,109.2,417.8214133126395,411.57142761775424,248.5,417.8214133126395,411.57142761775424,386.6,811.5714133126395,345.32142761775424,525.2,1284.0714133126396,360.32142761775424,667.6,1292.8214133126396,359.07142761775424,807.7,1282.8214133126396,356.57142761775424,951,182.8214133126395,842.8214276177542,1091.9,104.0714133126395,869.0714276177542,1237.1,102.8214133126395,864.0714276177542,1376.4,110.3214133126395,795.3214276177542,1516.9,110.3214133126395,791.5714276177542,1662.2,110.3214133126395,791.5714276177542,1800.9,110.3214133126395,791.5714276177542,1937.6,110.3214133126395,791.5714276177542,2075.8,-250.9285866873605,757.8214276177542,2217.3,-250.9285866873605,756.5714276177542,2356.3,-250.9285866873605,756.5714276177542,2493.8,-250.9285866873605,756.5714276177542,2631.2,-250.9285866873605,756.5714276177542,2772.6,-250.9285866873605,756.5714276177542,2913,-250.9285866873605,756.5714276177542,3055.9,-250.9285866873605,756.5714276177542,3196.4,-250.9285866873605,756.5714276177542,3338.9,-250.9285866873605,756.5714276177542,3477.9,-250.9285866873605,756.5714276177542,3618,-250.9285866873605,756.5714276177542,3718.1,-250.9285866873605,756.5714276177542,3858.1,-250.9285866873605,756.5714276177542,4001.8,-250.9285866873605,756.5714276177542,4145,-250.9285866873605,756.5714276177542,4288.5,-250.9285866873605,756.5714276177542,4429,-250.9285866873605,756.5714276177542,4570.4,-250.9285866873605,756.5714276177542,4713.2,-250.9285866873605,756.5714276177542,4854.5,-250.9285866873605,756.5714276177542,4996.4]","[4326.3,4326.3,1764.7,2048.9,512.7,""oops"",""down"",""left"",""good_move"",12888.7,8561.8,2101.4,4327,6460.3,""smooth"",""down"",""down"",""good_move"",16553.7,3664.5,3031.8,12889.2,632.7,""oops"",""down"",""up"",""bad_move"",25121.6,8567.3,2379.2,16554.3,6188.1,""oops"",""down"",""right"",""bad_move"",31770.4,6648.2,2866.7,28393.1,510.6,""oops"",""down"",""down"",""good_move"",35847.9,4077.2,3398.7,31770.7,678.5,""smooth"",""left"",""left"",""good_move"",44732.2,8883.9,2787.9,35848.3,6096,""oops"",""left"",""left"",""good_move"",53649.3,8916.8,3014.4,44732.5,5902.4,""oops"",""down"",""right"",""bad_move"",60187.6,6538.1,2839.3,56730.6,617.7,""oops"",""left"",""down"",""good_move"",63230.7,3042.7,2363,60188,679.7,""oops"",""left"",""right"",""bad_move"",66173.5,2942.5,2398,63231,544.5,""oops"",""left"",""up"",""bad_move"",75478.9,9305,3030.9,66173.9,6274.1,""oops"",""left"",""up"",""bad_move"",84914.5,9435.4,2664.4,75479.1,6771,""oops"",""left"",""left"",""good_move"",98756.4,13841.5,3296.2,94766.8,693.4,""smooth"",""left"",""left"",""good_move"",108347.9,9591,2588.5,98756.9,7002.5,""smooth"",""down"",""down"",""good_move"",111931.5,3583.2,2761.9,108348.3,821.3,""oops"",""down"",""down"",""good_move""]","",""
"2993","","<div style=""width:500px;"">
  <p>What determined the result of this run?</p>
  </div>","2","html-slider-response","50","678098","0.0-5.0-1.8","76","1","2025-07-16 08:34:41","1f75c3e559b7213887762d5229550c2b","212.69.57.202","Mozilla/5.0 (X11; CrOS x86_64 14541.0.0) AppleWebKit/537.36 (KHTML, like Gecko) Chrome/137.0.0.0 Safari/537.36","WebKit","Chrome","137.0.0.0","ChromeOS","14541.0.0","https://app.prolific.com/","en-GB,en;q=0.9","5d9a55cb01556d0013fa8369","68764874ac79eee8c1d4cb03","68776416a50fdf4f1e8beb11","2","0","5d9a55cb01556d0013fa8369","2","0","2025-07-16T08:45:59.988Z","","","","","","","","","","","AttribQ","","50","","","","","","","","","","","","","","","","","","","","","","","","","","","","",""
"3203","","<div style=""width:500px;"">
  <p>How much control did you have over the ball?</p>
  </div>","0","html-slider-response","51","681308","0.0-5.0-2.8","76","1","2025-07-16 08:34:41","1f75c3e559b7213887762d5229550c2b","212.69.57.202","Mozilla/5.0 (X11; CrOS x86_64 14541.0.0) AppleWebKit/537.36 (KHTML, like Gecko) Chrome/137.0.0.0 Safari/537.36","WebKit","Chrome","137.0.0.0","ChromeOS","14541.0.0","https://app.prolific.com/","en-GB,en;q=0.9","5d9a55cb01556d0013fa8369","68764874ac79eee8c1d4cb03","68776416a50fdf4f1e8beb11","2","0","5d9a55cb01556d0013fa8369","2","0","2025-07-16T08:46:03.197Z","","","","","","","","","","","ControlQ","","50","","","","","","","","","","","","","","","","","","","","","","","","","","","","",""
"3426","","<div style=""width:500px;"">
  <p>How would you describe your current emotional state?</p>
  </div>","63","html-slider-response","52","684741","0.0-5.0-3.8","76","1","2025-07-16 08:34:41","1f75c3e559b7213887762d5229550c2b","212.69.57.202","Mozilla/5.0 (X11; CrOS x86_64 14541.0.0) AppleWebKit/537.36 (KHTML, like Gecko) Chrome/137.0.0.0 Safari/537.36","WebKit","Chrome","137.0.0.0","ChromeOS","14541.0.0","https://app.prolific.com/","en-GB,en;q=0.9","5d9a55cb01556d0013fa8369","68764874ac79eee8c1d4cb03","68776416a50fdf4f1e8beb11","2","0","5d9a55cb01556d0013fa8369","2","0","2025-07-16T08:46:06.630Z","","","","","","","","","","","StressQ","","50","","","","","","","","","","","","","","","","","","","","","","","","","","","","",""
"3111","","<div style=""width:500px;"">
  <p>What best describes how you currently feel?</p>
  </div>","5","html-slider-response","53","687859","0.0-5.0-4.8","76","1","2025-07-16 08:34:41","1f75c3e559b7213887762d5229550c2b","212.69.57.202","Mozilla/5.0 (X11; CrOS x86_64 14541.0.0) AppleWebKit/537.36 (KHTML, like Gecko) Chrome/137.0.0.0 Safari/537.36","WebKit","Chrome","137.0.0.0","ChromeOS","14541.0.0","https://app.prolific.com/","en-GB,en;q=0.9","5d9a55cb01556d0013fa8369","68764874ac79eee8c1d4cb03","68776416a50fdf4f1e8beb11","2","0","5d9a55cb01556d0013fa8369","2","0","2025-07-16T08:46:09.748Z","","","","","","","","","","","MotivationQ","","50","","","","","","","","","","","","","","","","","","","","","","","","","","","","",""
"","","","","ctl-task-cpt","54","768185","0.0-5.0-0.9","76","1","2025-07-16 08:34:41","1f75c3e559b7213887762d5229550c2b","212.69.57.202","Mozilla/5.0 (X11; CrOS x86_64 14541.0.0) AppleWebKit/537.36 (KHTML, like Gecko) Chrome/137.0.0.0 Safari/537.36","WebKit","Chrome","137.0.0.0","ChromeOS","14541.0.0","https://app.prolific.com/","en-GB,en;q=0.9","5d9a55cb01556d0013fa8369","68764874ac79eee8c1d4cb03","68776416a50fdf4f1e8beb11","2","0","5d9a55cb01556d0013fa8369","2","0","2025-07-16T08:47:30.074Z","","","","","","","","","","","","","","win-only","2","g1:SE,g2:NW","0.4","10","0","689110.8","2881.8","7904.7","77208.2","1","4","4","6","1","1","1","14","13","0.10606060606060606","1278.3","3000","2505","[""down"",""right""]","{""num_key_presses"":11,""num_perfect"":4,""num_errors"":0,""num_randdir"":7,""num_randdir_good_moves"":4,""num_whilered"":0,""num_whileblue"":0,""num_blue"":4,""num_good_moves"":8}","[416.5714133126395,420.32142761775424,0.4,416.5714133126395,420.32142761775424,154.9,416.5714133126395,420.32142761775424,275.2,416.5714133126395,420.32142761775424,394.6,416.5714133126395,420.32142761775424,515.3,416.5714133126395,420.32142761775424,634.9,416.5714133126395,420.32142761775424,755.2,650.3214133126395,564.0714276177542,876,785.3214133126395,746.5714276177542,997.8,796.5714133126395,777.8214276177542,1120.4,797.8214133126395,781.5714276177542,1242.2,797.8214133126395,781.5714276177542,1368.5,797.8214133126395,781.5714276177542,1489.5,797.8214133126395,781.5714276177542,1611.2,946.5714133126395,806.5714276177542,1732.7,1047.8214133126396,836.5714276177542,1854.8,1049.0714133126396,837.8214276177542,1976.8,1049.0714133126396,837.8214276177542,2098.6,1049.0714133126396,837.8214276177542,2222.1,1049.0714133126396,837.8214276177542,2342.3,1049.0714133126396,837.8214276177542,2463.6,1049.0714133126396,837.8214276177542,2585,1049.0714133126396,837.8214276177542,2705.8,1049.0714133126396,837.8214276177542,2826.9,1049.0714133126396,837.8214276177542,2948.4,1049.0714133126396,837.8214276177542,3068.7,1049.0714133126396,837.8214276177542,3192.5,1049.0714133126396,837.8214276177542,3316.2,1049.0714133126396,837.8214276177542,3437,1049.0714133126396,837.8214276177542,3558.4,1049.0714133126396,837.8214276177542,3681.6,1049.0714133126396,837.8214276177542,3802.3,1049.0714133126396,837.8214276177542,3924.9,1049.0714133126396,837.8214276177542,4046.4,1049.0714133126396,837.8214276177542,4169.1,1049.0714133126396,837.8214276177542,4293.5,1049.0714133126396,837.8214276177542,4415.3,1049.0714133126396,837.8214276177542,4535.7,1049.0714133126396,837.8214276177542,4657.9,1049.0714133126396,837.8214276177542,4779.9,1049.0714133126396,837.8214276177542,4900.7]","[1620.5,1620.5,1000,0,620.5,""oops"",""down"",""left"",""bad_move"",12565.7,10944.8,2219.3,1620.9,8725.5,""oops"",""down"",""left"",""bad_move"",23391.7,10825.8,2715.9,12566,8109.9,""oops"",""down"",""up"",""bad_move"",34592.6,11200.4,1728.2,23392.2,9472.2,""oops"",""right"",""down"",""good_move"",38013.7,3420.8,2358.8,34592.9,1062,""oops"",""right"",""right"",""good_move"",41276.6,3262.3,2623.3,38014.3,639,""oops"",""right"",""down"",""good_move"",50835.3,9558.4,2429.4,47850,555.9,""smooth"",""right"",""right"",""good_move"",53568.2,2732.6,2202.9,50835.6,529.7,""smooth"",""right"",""right"",""good_move"",56005.7,2437.1,1815.6,53568.6,621.5,""smooth"",""right"",""right"",""good_move"",62073.9,6067.9,2487,59020.5,566.4,""smooth"",""down"",""down"",""good_move"",69198.2,7123.7,3124.1,65421.8,652.3,""oops"",""right"",""right"",""good_move""]","",""
"5247","","<div style=""width:500px;"">
  <p>What determined the result of this run?</p>
  </div>","0","html-slider-response","55","773442","0.0-5.0-1.9","76","1","2025-07-16 08:34:41","1f75c3e559b7213887762d5229550c2b","212.69.57.202","Mozilla/5.0 (X11; CrOS x86_64 14541.0.0) AppleWebKit/537.36 (KHTML, like Gecko) Chrome/137.0.0.0 Safari/537.36","WebKit","Chrome","137.0.0.0","ChromeOS","14541.0.0","https://app.prolific.com/","en-GB,en;q=0.9","5d9a55cb01556d0013fa8369","68764874ac79eee8c1d4cb03","68776416a50fdf4f1e8beb11","2","0","5d9a55cb01556d0013fa8369","2","0","2025-07-16T08:47:35.331Z","","","","","","","","","","","AttribQ","","50","","","","","","","","","","","","","","","","","","","","","","","","","","","","",""
"3003","","<div style=""width:500px;"">
  <p>How much control did you have over the ball?</p>
  </div>","2","html-slider-response","56","776455","0.0-5.0-2.9","76","1","2025-07-16 08:34:41","1f75c3e559b7213887762d5229550c2b","212.69.57.202","Mozilla/5.0 (X11; CrOS x86_64 14541.0.0) AppleWebKit/537.36 (KHTML, like Gecko) Chrome/137.0.0.0 Safari/537.36","WebKit","Chrome","137.0.0.0","ChromeOS","14541.0.0","https://app.prolific.com/","en-GB,en;q=0.9","5d9a55cb01556d0013fa8369","68764874ac79eee8c1d4cb03","68776416a50fdf4f1e8beb11","2","0","5d9a55cb01556d0013fa8369","2","0","2025-07-16T08:47:38.344Z","","","","","","","","","","","ControlQ","","50","","","","","","","","","","","","","","","","","","","","","","","","","","","","",""
"3165","","<div style=""width:500px;"">
  <p>How would you describe your current emotional state?</p>
  </div>","59","html-slider-response","57","779631","0.0-5.0-3.9","76","1","2025-07-16 08:34:41","1f75c3e559b7213887762d5229550c2b","212.69.57.202","Mozilla/5.0 (X11; CrOS x86_64 14541.0.0) AppleWebKit/537.36 (KHTML, like Gecko) Chrome/137.0.0.0 Safari/537.36","WebKit","Chrome","137.0.0.0","ChromeOS","14541.0.0","https://app.prolific.com/","en-GB,en;q=0.9","5d9a55cb01556d0013fa8369","68764874ac79eee8c1d4cb03","68776416a50fdf4f1e8beb11","2","0","5d9a55cb01556d0013fa8369","2","0","2025-07-16T08:47:41.520Z","","","","","","","","","","","StressQ","","50","","","","","","","","","","","","","","","","","","","","","","","","","","","","",""
"2721","","<div style=""width:500px;"">
  <p>What best describes how you currently feel?</p>
  </div>","0","html-slider-response","58","782362","0.0-5.0-4.9","76","1","2025-07-16 08:34:41","1f75c3e559b7213887762d5229550c2b","212.69.57.202","Mozilla/5.0 (X11; CrOS x86_64 14541.0.0) AppleWebKit/537.36 (KHTML, like Gecko) Chrome/137.0.0.0 Safari/537.36","WebKit","Chrome","137.0.0.0","ChromeOS","14541.0.0","https://app.prolific.com/","en-GB,en;q=0.9","5d9a55cb01556d0013fa8369","68764874ac79eee8c1d4cb03","68776416a50fdf4f1e8beb11","2","0","5d9a55cb01556d0013fa8369","2","0","2025-07-16T08:47:44.251Z","","","","","","","","","","","MotivationQ","","50","","","","","","","","","","","","","","","","","","","","","","","","","","","","",""
"","","","","ctl-task-cpt","59","857180","0.0-5.0-0.10","76","1","2025-07-16 08:34:41","1f75c3e559b7213887762d5229550c2b","212.69.57.202","Mozilla/5.0 (X11; CrOS x86_64 14541.0.0) AppleWebKit/537.36 (KHTML, like Gecko) Chrome/137.0.0.0 Safari/537.36","WebKit","Chrome","137.0.0.0","ChromeOS","14541.0.0","https://app.prolific.com/","en-GB,en;q=0.9","5d9a55cb01556d0013fa8369","68764874ac79eee8c1d4cb03","68776416a50fdf4f1e8beb11","2","0","5d9a55cb01556d0013fa8369","2","0","2025-07-16T08:48:59.069Z","","","","","","","","","","","","","","win-only","0","g1:NW,g2:SE","0.5","11","0","783615","2398.9","7401.5","71783.9","1","4","4","6","1","1","1","15","14","0.11363636363636363","1744.4","3000","60","[""left"",""up""]","{""num_key_presses"":14,""num_perfect"":7,""num_errors"":0,""num_randdir"":7,""num_randdir_good_moves"":2,""num_whilered"":0,""num_whileblue"":0,""num_blue"":6,""num_good_moves"":9}","[415.3214133126395,415.32142761775424,0.5,415.3214133126395,415.32142761775424,109.5,415.3214133126395,415.32142761775424,219.7,415.3214133126395,415.32142761775424,320.4,415.3214133126395,415.32142761775424,422.3,657.8214133126395,400.32142761775424,538.6,850.3214133126395,394.07142761775424,640.3,857.8214133126395,395.32142761775424,740.9,856.5714133126395,396.57142761775424,851.6,264.0714133126395,232.82142761775424,955.3,142.8214133126395,7.821427617754253,1057.4,142.8214133126395,7.821427617754253,1163.9,142.8214133126395,7.821427617754253,1272.2,142.8214133126395,7.821427617754253,1385.4,60.32141331263951,59.07142761775425,1489.8,54.07141331263951,62.82142761775425,1592.7,54.07141331263951,62.82142761775425,1702,54.07141331263951,62.82142761775425,1818.4,54.07141331263951,62.82142761775425,1928.5,54.07141331263951,62.82142761775425,2038.9,54.07141331263951,62.82142761775425,2154.1,-142.1785866873605,134.07142761775424,2256.1,-159.6785866873605,139.07142761775424,2368.9,-159.6785866873605,139.07142761775424,2479.3,-159.6785866873605,139.07142761775424,2585.3,-159.6785866873605,139.07142761775424,2689.3,-159.6785866873605,139.07142761775424,2790.1,-159.6785866873605,139.07142761775424,2891.1,-159.6785866873605,139.07142761775424,3002.5,-159.6785866873605,139.07142761775424,3112.2,-159.6785866873605,139.07142761775424,3218.1,-159.6785866873605,139.07142761775424,3325.7,-159.6785866873605,139.07142761775424,3435.9,-159.6785866873605,139.07142761775424,3536.3,-159.6785866873605,139.07142761775424,3652,-159.6785866873605,139.07142761775424,3758.7,-159.6785866873605,139.07142761775424,3859.1,-159.6785866873605,139.07142761775424,3964.8,-159.6785866873605,139.07142761775424,4069.1,-159.6785866873605,139.07142761775424,4181.3,-159.6785866873605,139.07142761775424,4296.4,-159.6785866873605,139.07142761775424,4403,-159.6785866873605,139.07142761775424,4508.3,-159.6785866873605,139.07142761775424,4623.7,-159.6785866873605,139.07142761775424,4726.9,-159.6785866873605,139.07142761775424,4827.2,-159.6785866873605,139.07142761775424,4938.1]","[4600.8,4600.8,2048.9,2025.8,526.1,""oops"",""up"",""right"",""bad_move"",14884,10282.8,3079,11023.1,781.9,""oops"",""left"",""left"",""good_move"",17523,2638.5,2268.1,14884.5,370.4,""oops"",""left"",""down"",""bad_move"",21433,3909.4,3267.4,17523.6,642,""smooth"",""left"",""left"",""good_move"",24644.2,3210.9,2805.2,21433.3,405.7,""smooth"",""left"",""left"",""good_move"",33920.9,9276.2,2330.2,31083.4,507.4,""oops"",""up"",""down"",""bad_move"",37290.4,3369,2829.2,33921.5,539.8,""smooth"",""up"",""up"",""good_move"",41092.4,3801.1,2202.2,37291.3,1599,""smooth"",""up"",""up"",""good_move"",44519.2,3426.1,2823.6,41093.1,602.5,""oops"",""up"",""right"",""bad_move"",47919.9,3400.1,2909.6,44519.8,490.5,""smooth"",""up"",""up"",""good_move"",50472,2551.6,2026.6,47920.4,525,""oops"",""up"",""right"",""bad_move"",53978.5,3506,2988.7,50472.5,517.3,""smooth"",""up"",""up"",""good_move"",57132.3,3153.4,2556.9,53979,596.5,""smooth"",""left"",""left"",""good_move"",64119.7,6986.9,3049.2,60690.1,380.4,""oops"",""left"",""left"",""good_move""]","",""
"6858","","<div style=""width:500px;"">
  <p>What determined the result of this run?</p>
  </div>","1","html-slider-response","60","864040","0.0-5.0-1.10","76","1","2025-07-16 08:34:41","1f75c3e559b7213887762d5229550c2b","212.69.57.202","Mozilla/5.0 (X11; CrOS x86_64 14541.0.0) AppleWebKit/537.36 (KHTML, like Gecko) Chrome/137.0.0.0 Safari/537.36","WebKit","Chrome","137.0.0.0","ChromeOS","14541.0.0","https://app.prolific.com/","en-GB,en;q=0.9","5d9a55cb01556d0013fa8369","68764874ac79eee8c1d4cb03","68776416a50fdf4f1e8beb11","2","0","5d9a55cb01556d0013fa8369","2","0","2025-07-16T08:49:05.929Z","","","","","","","","","","","AttribQ","","50","","","","","","","","","","","","","","","","","","","","","","","","","","","","",""
"2728","","<div style=""width:500px;"">
  <p>How much control did you have over the ball?</p>
  </div>","1","html-slider-response","61","866771","0.0-5.0-2.10","76","1","2025-07-16 08:34:41","1f75c3e559b7213887762d5229550c2b","212.69.57.202","Mozilla/5.0 (X11; CrOS x86_64 14541.0.0) AppleWebKit/537.36 (KHTML, like Gecko) Chrome/137.0.0.0 Safari/537.36","WebKit","Chrome","137.0.0.0","ChromeOS","14541.0.0","https://app.prolific.com/","en-GB,en;q=0.9","5d9a55cb01556d0013fa8369","68764874ac79eee8c1d4cb03","68776416a50fdf4f1e8beb11","2","0","5d9a55cb01556d0013fa8369","2","0","2025-07-16T08:49:08.660Z","","","","","","","","","","","ControlQ","","50","","","","","","","","","","","","","","","","","","","","","","","","","","","","",""
"2888","","<div style=""width:500px;"">
  <p>How would you describe your current emotional state?</p>
  </div>","64","html-slider-response","62","869660","0.0-5.0-3.10","76","1","2025-07-16 08:34:41","1f75c3e559b7213887762d5229550c2b","212.69.57.202","Mozilla/5.0 (X11; CrOS x86_64 14541.0.0) AppleWebKit/537.36 (KHTML, like Gecko) Chrome/137.0.0.0 Safari/537.36","WebKit","Chrome","137.0.0.0","ChromeOS","14541.0.0","https://app.prolific.com/","en-GB,en;q=0.9","5d9a55cb01556d0013fa8369","68764874ac79eee8c1d4cb03","68776416a50fdf4f1e8beb11","2","0","5d9a55cb01556d0013fa8369","2","0","2025-07-16T08:49:11.549Z","","","","","","","","","","","StressQ","","50","","","","","","","","","","","","","","","","","","","","","","","","","","","","",""
"2752","","<div style=""width:500px;"">
  <p>What best describes how you currently feel?</p>
  </div>","2","html-slider-response","63","872414","0.0-5.0-4.10","76","1","2025-07-16 08:34:41","1f75c3e559b7213887762d5229550c2b","212.69.57.202","Mozilla/5.0 (X11; CrOS x86_64 14541.0.0) AppleWebKit/537.36 (KHTML, like Gecko) Chrome/137.0.0.0 Safari/537.36","WebKit","Chrome","137.0.0.0","ChromeOS","14541.0.0","https://app.prolific.com/","en-GB,en;q=0.9","5d9a55cb01556d0013fa8369","68764874ac79eee8c1d4cb03","68776416a50fdf4f1e8beb11","2","0","5d9a55cb01556d0013fa8369","2","0","2025-07-16T08:49:14.303Z","","","","","","","","","","","MotivationQ","","50","","","","","","","","","","","","","","","","","","","","","","","","","","","","",""
"","","","","ctl-task-cpt","64","937720","0.0-5.0-0.11","76","1","2025-07-16 08:34:41","1f75c3e559b7213887762d5229550c2b","212.69.57.202","Mozilla/5.0 (X11; CrOS x86_64 14541.0.0) AppleWebKit/537.36 (KHTML, like Gecko) Chrome/137.0.0.0 Safari/537.36","WebKit","Chrome","137.0.0.0","ChromeOS","14541.0.0","https://app.prolific.com/","en-GB,en;q=0.9","5d9a55cb01556d0013fa8369","68764874ac79eee8c1d4cb03","68776416a50fdf4f1e8beb11","2","0","5d9a55cb01556d0013fa8369","2","0","2025-07-16T08:50:19.609Z","","","","","","","","","","","","","","win-only","2","g1:SE,g2:NW","0.6","12","0","873660.3","34268.8","39276.2","62284.2","1","4","8","6","1","1","1","16","15","0.12121212121212122","2103.4","3000","1780","[""down"",""right""]","{""num_key_presses"":8,""num_perfect"":4,""num_errors"":0,""num_randdir"":4,""num_randdir_good_moves"":2,""num_whilered"":0,""num_whileblue"":0,""num_blue"":0,""num_good_moves"":6}","[415.3214133126395,414.07142761775424,0.5,415.3214133126395,414.07142761775424,116,415.3214133126395,414.07142761775424,223.4,415.3214133126395,414.07142761775424,333.9,415.3214133126395,414.07142761775424,450,415.3214133126395,414.07142761775424,551.2,415.3214133126395,414.07142761775424,663.3,415.3214133126395,414.07142761775424,765.5,415.3214133126395,414.07142761775424,867.7,587.8214133126395,439.07142761775424,981.8,789.0714133126395,660.3214276177542,1090.8,801.5714133126395,696.5714276177542,1197.7,801.5714133126395,699.0714276177542,1302.2,801.5714133126395,699.0714276177542,1410.8,801.5714133126395,699.0714276177542,1513.7,801.5714133126395,699.0714276177542,1630.6,792.8214133126395,710.3214276177542,1734.9,787.8214133126395,715.3214276177542,1844.5,780.3214133126395,719.0714276177542,1947.7,772.8214133126395,721.5714276177542,2065,772.8214133126395,721.5714276177542,2173.9,772.8214133126395,721.5714276177542,2277.3,772.8214133126395,721.5714276177542,2383,927.8214133126395,750.3214276177542,2501,929.0714133126395,749.0714276177542,2639.1,929.0714133126395,749.0714276177542,2752.4,929.0714133126395,749.0714276177542,2857.7,929.0714133126395,749.0714276177542,2964.4,929.0714133126395,749.0714276177542,3071.7,929.0714133126395,749.0714276177542,3187.3,929.0714133126395,749.0714276177542,3302.4,929.0714133126395,749.0714276177542,3403.7,929.0714133126395,749.0714276177542,3508.4,929.0714133126395,749.0714276177542,3616.8,929.0714133126395,749.0714276177542,3720.3,929.0714133126395,749.0714276177542,3833.7,929.0714133126395,749.0714276177542,3935.2,929.0714133126395,749.0714276177542,4048,929.0714133126395,749.0714276177542,4148.2,929.0714133126395,749.0714276177542,4260.1,929.0714133126395,749.0714276177542,4362.5,929.0714133126395,749.0714276177542,4474.6,929.0714133126395,749.0714276177542,4581.4,929.0714133126395,749.0714276177542,4687.8,929.0714133126395,749.0714276177542,4803,929.0714133126395,749.0714276177542,4907.1]","[1517.4,1517.4,1000,0,517.4,""smooth"",""down"",""down"",""good_move"",4657,3139,2672.9,1518,466.1,""smooth"",""down"",""down"",""good_move"",8339.6,3681.3,3103,4658.4,578.2,""oops"",""right"",""left"",""bad_move"",11525.4,3185.3,2492.5,8340.2,692.8,""smooth"",""right"",""right"",""good_move"",14030.5,2504.3,2105.1,11526.2,399.2,""oops"",""right"",""up"",""bad_move"",16913.9,2882.7,2544.7,14031.3,338,""oops"",""right"",""right"",""good_move"",20190.9,3276.7,2894.6,16914.3,382.1,""oops"",""right"",""down"",""good_move"",22787.7,2596.3,2208.9,20191.5,387.3,""smooth"",""right"",""right"",""good_move""]","",""
"126167","","<div style=""width:500px;"">
  <p>What determined the result of this run?</p>
  </div>","2","html-slider-response","65","1063889","0.0-5.0-1.11","76","1","2025-07-16 08:34:41","1f75c3e559b7213887762d5229550c2b","212.69.57.202","Mozilla/5.0 (X11; CrOS x86_64 14541.0.0) AppleWebKit/537.36 (KHTML, like Gecko) Chrome/137.0.0.0 Safari/537.36","WebKit","Chrome","137.0.0.0","ChromeOS","14541.0.0","https://app.prolific.com/","en-GB,en;q=0.9","5d9a55cb01556d0013fa8369","68764874ac79eee8c1d4cb03","68776416a50fdf4f1e8beb11","2","0","5d9a55cb01556d0013fa8369","2","0","2025-07-16T08:52:25.778Z","","","","","","","","","","","AttribQ","","50","","","","","","","","","","","","","","","","","","","","","","","","","","","","",""
"3265","","<div style=""width:500px;"">
  <p>How much control did you have over the ball?</p>
  </div>","0","html-slider-response","66","1067157","0.0-5.0-2.11","76","1","2025-07-16 08:34:41","1f75c3e559b7213887762d5229550c2b","212.69.57.202","Mozilla/5.0 (X11; CrOS x86_64 14541.0.0) AppleWebKit/537.36 (KHTML, like Gecko) Chrome/137.0.0.0 Safari/537.36","WebKit","Chrome","137.0.0.0","ChromeOS","14541.0.0","https://app.prolific.com/","en-GB,en;q=0.9","5d9a55cb01556d0013fa8369","68764874ac79eee8c1d4cb03","68776416a50fdf4f1e8beb11","2","0","5d9a55cb01556d0013fa8369","2","0","2025-07-16T08:52:29.046Z","","","","","","","","","","","ControlQ","","50","","","","","","","","","","","","","","","","","","","","","","","","","","","","",""
"4213","","<div style=""width:500px;"">
  <p>How would you describe your current emotional state?</p>
  </div>","61","html-slider-response","67","1071371","0.0-5.0-3.11","76","1","2025-07-16 08:34:41","1f75c3e559b7213887762d5229550c2b","212.69.57.202","Mozilla/5.0 (X11; CrOS x86_64 14541.0.0) AppleWebKit/537.36 (KHTML, like Gecko) Chrome/137.0.0.0 Safari/537.36","WebKit","Chrome","137.0.0.0","ChromeOS","14541.0.0","https://app.prolific.com/","en-GB,en;q=0.9","5d9a55cb01556d0013fa8369","68764874ac79eee8c1d4cb03","68776416a50fdf4f1e8beb11","2","0","5d9a55cb01556d0013fa8369","2","0","2025-07-16T08:52:33.260Z","","","","","","","","","","","StressQ","","50","","","","","","","","","","","","","","","","","","","","","","","","","","","","",""
"2986","","<div style=""width:500px;"">
  <p>What best describes how you currently feel?</p>
  </div>","1","html-slider-response","68","1074360","0.0-5.0-4.11","76","1","2025-07-16 08:34:41","1f75c3e559b7213887762d5229550c2b","212.69.57.202","Mozilla/5.0 (X11; CrOS x86_64 14541.0.0) AppleWebKit/537.36 (KHTML, like Gecko) Chrome/137.0.0.0 Safari/537.36","WebKit","Chrome","137.0.0.0","ChromeOS","14541.0.0","https://app.prolific.com/","en-GB,en;q=0.9","5d9a55cb01556d0013fa8369","68764874ac79eee8c1d4cb03","68776416a50fdf4f1e8beb11","2","0","5d9a55cb01556d0013fa8369","2","0","2025-07-16T08:52:36.249Z","","","","","","","","","","","MotivationQ","","50","","","","","","","","","","","","","","","","","","","","","","","","","","","","",""
"","","","","ctl-task-cpt","69","1106245","0.0-5.0-0.12","76","1","2025-07-16 08:34:41","1f75c3e559b7213887762d5229550c2b","212.69.57.202","Mozilla/5.0 (X11; CrOS x86_64 14541.0.0) AppleWebKit/537.36 (KHTML, like Gecko) Chrome/137.0.0.0 Safari/537.36","WebKit","Chrome","137.0.0.0","ChromeOS","14541.0.0","https://app.prolific.com/","en-GB,en;q=0.9","5d9a55cb01556d0013fa8369","68764874ac79eee8c1d4cb03","68776416a50fdf4f1e8beb11","2","0","5d9a55cb01556d0013fa8369","2","0","2025-07-16T08:53:08.134Z","","","","","","","","","","","","","","win-only","2","g1:SE,g2:NW","0.7","13","0","1075607.2","1810.5","6820.2","28862.7","1","4","8","6","1","1","1","17","16","0.12878787878787878","1813.8","3000","2020","[""down"",""right""]","{""num_key_presses"":6,""num_perfect"":4,""num_errors"":0,""num_randdir"":2,""num_randdir_good_moves"":1,""num_whilered"":0,""num_whileblue"":0,""num_blue"":1,""num_good_moves"":5}","[415.3214133126395,421.57142761775424,0.5,415.3214133126395,421.57142761775424,109.9,415.3214133126395,421.57142761775424,216.5,415.3214133126395,421.57142761775424,323.3,415.3214133126395,421.57142761775424,430.1,415.3214133126395,421.57142761775424,530.2,415.3214133126395,421.57142761775424,646.2,415.3214133126395,421.57142761775424,753.7,415.3214133126395,421.57142761775424,862.9,415.3214133126395,421.57142761775424,984.2,415.3214133126395,421.57142761775424,1090,415.3214133126395,421.57142761775424,1197.3,599.0714133126395,631.5714276177542,1308.3,642.8214133126395,689.0714276177542,1416.4,646.5714133126395,691.5714276177542,1531.9,744.0714133126395,760.3214276177542,1637.8,754.0714133126395,764.0714276177542,1742.2,754.0714133126395,765.3214276177542,1857,754.0714133126395,765.3214276177542,1961.7,754.0714133126395,765.3214276177542,2062,754.0714133126395,765.3214276177542,2166.1,1050.3214133126396,772.8214276177542,2279.5,1199.0714133126396,770.3214276177542,2390.9,1199.0714133126396,770.3214276177542,2491.1,1199.0714133126396,770.3214276177542,2617,1199.0714133126396,770.3214276177542,2729.3,1199.0714133126396,770.3214276177542,2845.9,1199.0714133126396,770.3214276177542,2947.8,1199.0714133126396,770.3214276177542,3062.4,1199.0714133126396,770.3214276177542,3165.3,1199.0714133126396,770.3214276177542,3268,1199.0714133126396,770.3214276177542,3371.8,1199.0714133126396,770.3214276177542,3474.3,1199.0714133126396,770.3214276177542,3574.9,1199.0714133126396,770.3214276177542,3678.5,1199.0714133126396,770.3214276177542,3797.5,1199.0714133126396,770.3214276177542,3911.4,1199.0714133126396,770.3214276177542,4013.3,1199.0714133126396,770.3214276177542,4113.7,1199.0714133126396,770.3214276177542,4217.1,1199.0714133126396,770.3214276177542,4330.8,1199.0714133126396,770.3214276177542,4431.6,1199.0714133126396,770.3214276177542,4537.7,1199.0714133126396,770.3214276177542,4641.3,1199.0714133126396,770.3214276177542,4754.4,1199.0714133126396,770.3214276177542,4859.3,1199.0714133126396,770.3214276177542,4960]","[1398.3,1398.3,1000,0,398.3,""oops"",""down"",""down"",""good_move"",7440.8,6041.8,2592.2,4411.3,437.3,""oops"",""down"",""left"",""bad_move"",10650.1,3208.9,1941.4,7441.2,1267.5,""smooth"",""down"",""down"",""good_move"",14063.4,3412.8,2882.9,10650.6,529.9,""smooth"",""right"",""right"",""good_move"",18251.9,4187.5,3135.9,14064.4,1051.6,""smooth"",""right"",""right"",""good_move"",21708.4,3456.1,3054.8,18252.3,401.3,""smooth"",""right"",""right"",""good_move""]","",""
"6570","","<div style=""width:500px;"">
  <p>What determined the result of this run?</p>
  </div>","0","html-slider-response","70","1112818","0.0-5.0-1.12","76","1","2025-07-16 08:34:41","1f75c3e559b7213887762d5229550c2b","212.69.57.202","Mozilla/5.0 (X11; CrOS x86_64 14541.0.0) AppleWebKit/537.36 (KHTML, like Gecko) Chrome/137.0.0.0 Safari/537.36","WebKit","Chrome","137.0.0.0","ChromeOS","14541.0.0","https://app.prolific.com/","en-GB,en;q=0.9","5d9a55cb01556d0013fa8369","68764874ac79eee8c1d4cb03","68776416a50fdf4f1e8beb11","2","0","5d9a55cb01556d0013fa8369","2","0","2025-07-16T08:53:14.707Z","","","","","","","","","","","AttribQ","","50","","","","","","","","","","","","","","","","","","","","","","","","","","","","",""
"2761","","<div style=""width:500px;"">
  <p>How much control did you have over the ball?</p>
  </div>","0","html-slider-response","71","1115582","0.0-5.0-2.12","76","1","2025-07-16 08:34:41","1f75c3e559b7213887762d5229550c2b","212.69.57.202","Mozilla/5.0 (X11; CrOS x86_64 14541.0.0) AppleWebKit/537.36 (KHTML, like Gecko) Chrome/137.0.0.0 Safari/537.36","WebKit","Chrome","137.0.0.0","ChromeOS","14541.0.0","https://app.prolific.com/","en-GB,en;q=0.9","5d9a55cb01556d0013fa8369","68764874ac79eee8c1d4cb03","68776416a50fdf4f1e8beb11","2","0","5d9a55cb01556d0013fa8369","2","0","2025-07-16T08:53:17.471Z","","","","","","","","","","","ControlQ","","50","","","","","","","","","","","","","","","","","","","","","","","","","","","","",""
"3596","","<div style=""width:500px;"">
  <p>How would you describe your current emotional state?</p>
  </div>","61","html-slider-response","72","1119180","0.0-5.0-3.12","76","1","2025-07-16 08:34:41","1f75c3e559b7213887762d5229550c2b","212.69.57.202","Mozilla/5.0 (X11; CrOS x86_64 14541.0.0) AppleWebKit/537.36 (KHTML, like Gecko) Chrome/137.0.0.0 Safari/537.36","WebKit","Chrome","137.0.0.0","ChromeOS","14541.0.0","https://app.prolific.com/","en-GB,en;q=0.9","5d9a55cb01556d0013fa8369","68764874ac79eee8c1d4cb03","68776416a50fdf4f1e8beb11","2","0","5d9a55cb01556d0013fa8369","2","0","2025-07-16T08:53:21.069Z","","","","","","","","","","","StressQ","","50","","","","","","","","","","","","","","","","","","","","","","","","","","","","",""
"2500","","<div style=""width:500px;"">
  <p>What best describes how you currently feel?</p>
  </div>","4","html-slider-response","73","1121682","0.0-5.0-4.12","76","1","2025-07-16 08:34:41","1f75c3e559b7213887762d5229550c2b","212.69.57.202","Mozilla/5.0 (X11; CrOS x86_64 14541.0.0) AppleWebKit/537.36 (KHTML, like Gecko) Chrome/137.0.0.0 Safari/537.36","WebKit","Chrome","137.0.0.0","ChromeOS","14541.0.0","https://app.prolific.com/","en-GB,en;q=0.9","5d9a55cb01556d0013fa8369","68764874ac79eee8c1d4cb03","68776416a50fdf4f1e8beb11","2","0","5d9a55cb01556d0013fa8369","2","0","2025-07-16T08:53:23.572Z","","","","","","","","","","","MotivationQ","","50","","","","","","","","","","","","","","","","","","","","","","","","","","","","",""
"","","","","ctl-task-cpt","74","1174490","0.0-5.0-0.13","76","1","2025-07-16 08:34:41","1f75c3e559b7213887762d5229550c2b","212.69.57.202","Mozilla/5.0 (X11; CrOS x86_64 14541.0.0) AppleWebKit/537.36 (KHTML, like Gecko) Chrome/137.0.0.0 Safari/537.36","WebKit","Chrome","137.0.0.0","ChromeOS","14541.0.0","https://app.prolific.com/","en-GB,en;q=0.9","5d9a55cb01556d0013fa8369","68764874ac79eee8c1d4cb03","68776416a50fdf4f1e8beb11","2","0","5d9a55cb01556d0013fa8369","2","0","2025-07-16T08:54:16.379Z","","","","","","","","","","","","","","win-only","1","g1:NE,g2:SW","0.8","14","0","1122929.3","32939.6","37951.5","49779.9","1","4","4","6","1","1","1","18","17","0.13636363636363635","1742.8","3000","2490","[""up"",""right""]","{""num_key_presses"":4,""num_perfect"":4,""num_errors"":0,""num_randdir"":0,""num_randdir_good_moves"":0,""num_whilered"":0,""num_whileblue"":0,""num_blue"":0,""num_good_moves"":4}","[419.0714133126395,406.57142761775424,0.9,419.0714133126395,406.57142761775424,117.5,419.0714133126395,406.57142761775424,228.8,635.3214133126395,417.82142761775424,337.5,1080.3214133126396,481.57142761775424,443.7,1086.5714133126396,479.07142761775424,555.2,1086.5714133126396,479.07142761775424,665.3,1086.5714133126396,479.07142761775424,779.3,1086.5714133126396,479.07142761775424,890.5,1086.5714133126396,479.07142761775424,1003.5,836.5714133126395,356.57142761775424,1121.6,615.3214133126395,-39.67857238224575,1236.3,620.3214133126395,-37.17857238224575,1339.7,764.0714133126395,-4.678572382245747,1447.9,780.3214133126395,11.571427617754253,1548,787.8214133126395,25.321427617754253,1660.8,787.8214133126395,26.571427617754253,1770.8,787.8214133126395,26.571427617754253,1888.1,787.8214133126395,26.571427617754253,1994.7,787.8214133126395,26.571427617754253,2096.3,971.5714133126395,54.07142761775425,2197.4,995.3214133126395,57.82142761775425,2308.9,995.3214133126395,57.82142761775425,2427.4,995.3214133126395,57.82142761775425,2544.6,995.3214133126395,57.82142761775425,2652.4,995.3214133126395,57.82142761775425,2757.2,995.3214133126395,57.82142761775425,2864.1,995.3214133126395,57.82142761775425,2972.6,995.3214133126395,57.82142761775425,3076.6,995.3214133126395,57.82142761775425,3181.2,995.3214133126395,57.82142761775425,3287.1,995.3214133126395,57.82142761775425,3390.1,995.3214133126395,57.82142761775425,3498.6,995.3214133126395,57.82142761775425,3606.6,995.3214133126395,57.82142761775425,3710.1,995.3214133126395,57.82142761775425,3817.3,995.3214133126395,57.82142761775425,3926.5,995.3214133126395,57.82142761775425,4029.2,995.3214133126395,57.82142761775425,4142.9,995.3214133126395,57.82142761775425,4245.9,995.3214133126395,57.82142761775425,4347.8,995.3214133126395,57.82142761775425,4463.2,995.3214133126395,57.82142761775425,4568.1,995.3214133126395,57.82142761775425,4670.6,995.3214133126395,57.82142761775425,4778.9,995.3214133126395,57.82142761775425,4894.3,995.3214133126395,57.82142761775425,4994.3]","[1558,1558,1000,0,558,""smooth"",""up"",""up"",""good_move"",4851.3,3292.8,2894.3,1558.5,398.5,""smooth"",""up"",""up"",""good_move"",8482.5,3630.5,2055.5,4852,1575,""smooth"",""right"",""right"",""good_move"",11534.1,3050.6,2638.6,8483.5,412,""smooth"",""right"",""right"",""good_move""]","",""
"4851","","<div style=""width:500px;"">
  <p>What determined the result of this run?</p>
  </div>","1","html-slider-response","75","1179343","0.0-5.0-1.13","76","1","2025-07-16 08:34:41","1f75c3e559b7213887762d5229550c2b","212.69.57.202","Mozilla/5.0 (X11; CrOS x86_64 14541.0.0) AppleWebKit/537.36 (KHTML, like Gecko) Chrome/137.0.0.0 Safari/537.36","WebKit","Chrome","137.0.0.0","ChromeOS","14541.0.0","https://app.prolific.com/","en-GB,en;q=0.9","5d9a55cb01556d0013fa8369","68764874ac79eee8c1d4cb03","68776416a50fdf4f1e8beb11","2","0","5d9a55cb01556d0013fa8369","2","0","2025-07-16T08:54:21.232Z","","","","","","","","","","","AttribQ","","50","","","","","","","","","","","","","","","","","","","","","","","","","","","","",""
"3017","","<div style=""width:500px;"">
  <p>How much control did you have over the ball?</p>
  </div>","0","html-slider-response","76","1182363","0.0-5.0-2.13","76","1","2025-07-16 08:34:41","1f75c3e559b7213887762d5229550c2b","212.69.57.202","Mozilla/5.0 (X11; CrOS x86_64 14541.0.0) AppleWebKit/537.36 (KHTML, like Gecko) Chrome/137.0.0.0 Safari/537.36","WebKit","Chrome","137.0.0.0","ChromeOS","14541.0.0","https://app.prolific.com/","en-GB,en;q=0.9","5d9a55cb01556d0013fa8369","68764874ac79eee8c1d4cb03","68776416a50fdf4f1e8beb11","2","0","5d9a55cb01556d0013fa8369","2","0","2025-07-16T08:54:24.252Z","","","","","","","","","","","ControlQ","","50","","","","","","","","","","","","","","","","","","","","","","","","","","","","",""
"2650","","<div style=""width:500px;"">
  <p>How would you describe your current emotional state?</p>
