"rt","response_timestamp","stimulus","response","trial_type","trial_index","time_elapsed","internal_node_id","run_id","condition","recorded_at","source_code_version","ip","user_agent","device","browser","browser_version","platform","platform_version","referer","accept_language","PROLIFIC_PID","STUDY_ID","SESSION_ID","WEEK","BATCH","prolific_id","week","batch","realtime","success","responses","item_order","radio_event_ids","radio_event_times","key_event_times","mouse_event_times","straightlining","zigzagging","honeypot","eventType","view_history","slider_start","which_type","canvas_config","goals_layout","control_level","trial_number","tutorial_trial_number","trial_start_time","phase1_start_time","phase2_start_time","phase3_start_time","goal_1_value","goal_1_distance","goal_2_value","goal_2_distance","goal_selected","outcome","outcome_total","participant_final_score","participant_initial_score","participant_final_score_prop","goal_choice_rt","allocated_time","allocated_time_remaining","goal_direction","counts","mouse_movements","key_presses","question_order","question_id"
"3186","1753261913362","<p style='font-size:40px;line-height:1.25'><strong>Welcome to the experiment!</strong></p><p style='font-size:1.1em;line-height:1.25'>Thank you for participanting in our experiment again! You will be asked to play the Dysfunctional Ball Game again. We will briefly recap the rules before we start.</p><p style='font-size:1.1em;line-height:1.25'>Press <strong>Next</strong> to continue.</p>","0","custom-html-button-response","0","3187","0.0-0.0","203","1","2025-07-23 09:11:47","1f75c3e559b7213887762d5229550c2b","178.166.40.254","Mozilla/5.0 (Windows NT 10.0; Win64; x64) AppleWebKit/537.36 (KHTML, like Gecko) Chrome/138.0.0.0 Safari/537.36 Edg/138.0.0.0","WebKit","Edge","138.0.0.0","Windows","10.0","https://app.prolific.com/","en-GB,en;q=0.9,en-US;q=0.8,pt-BR;q=0.7,pt-PT;q=0.6,pt;q=0.5","6172d51173f6962cef6b18cf","683db9eb0562dbf637994deb","6880a74b67973b678b8675a6","2","1","6172d51173f6962cef6b18cf","2","1","2025-07-23T09:11:53.362Z","","","","","","","","","","","","","","","","","","","","","","","","","","","","","","","","","","","","","","","","","",""
"8126","","","","fullscreen","1","12315","0.0-1.0","203","1","2025-07-23 09:11:47","1f75c3e559b7213887762d5229550c2b","178.166.40.254","Mozilla/5.0 (Windows NT 10.0; Win64; x64) AppleWebKit/537.36 (KHTML, like Gecko) Chrome/138.0.0.0 Safari/537.36 Edg/138.0.0.0","WebKit","Edge","138.0.0.0","Windows","10.0","https://app.prolific.com/","en-GB,en;q=0.9,en-US;q=0.8,pt-BR;q=0.7,pt-PT;q=0.6,pt;q=0.5","6172d51173f6962cef6b18cf","683db9eb0562dbf637994deb","6880a74b67973b678b8675a6","2","1","6172d51173f6962cef6b18cf","2","1","","true","","","","","","","","","","","","","","","","","","","","","","","","","","","","","","","","","","","","","","","","",""
"4198","1753261926689","<p style='font-size:1.1em;line-height:1.25'>In the following, we will ask you a few questions relating to your feelings in the last 24 hours.<br></p><p style='font-size:1.1em;line-height:1.25'>Press the <strong>Next</strong> button to continue.</p>","0","custom-html-button-response","2","16514","0.0-2.0-0.0","203","1","2025-07-23 09:11:47","1f75c3e559b7213887762d5229550c2b","178.166.40.254","Mozilla/5.0 (Windows NT 10.0; Win64; x64) AppleWebKit/537.36 (KHTML, like Gecko) Chrome/138.0.0.0 Safari/537.36 Edg/138.0.0.0","WebKit","Edge","138.0.0.0","Windows","10.0","https://app.prolific.com/","en-GB,en;q=0.9,en-US;q=0.8,pt-BR;q=0.7,pt-PT;q=0.6,pt;q=0.5","6172d51173f6962cef6b18cf","683db9eb0562dbf637994deb","6880a74b67973b678b8675a6","2","1","6172d51173f6962cef6b18cf","2","1","2025-07-23T09:12:06.689Z","","","","","","","","","","","","","","","","","","","","","","","","","","","","","","","","","","","","","","","","","",""
"70475.69999998808","","","","survey-template","3","86994","0.0-2.0-1.0","203","1","2025-07-23 09:11:47","1f75c3e559b7213887762d5229550c2b","178.166.40.254","Mozilla/5.0 (Windows NT 10.0; Win64; x64) AppleWebKit/537.36 (KHTML, like Gecko) Chrome/138.0.0.0 Safari/537.36 Edg/138.0.0.0","WebKit","Edge","138.0.0.0","Windows","10.0","https://app.prolific.com/","en-GB,en;q=0.9,en-US;q=0.8,pt-BR;q=0.7,pt-PT;q=0.6,pt;q=0.5","6172d51173f6962cef6b18cf","683db9eb0562dbf637994deb","6880a74b67973b678b8675a6","2","1","6172d51173f6962cef6b18cf","2","1","2025-07-23T09:13:17.169Z","","{""Q01"":""0"",""Q02"":""0"",""Q03"":""0"",""Q04"":""1"",""Q05"":""0"",""Q06"":""0"",""Q07"":""0"",""Q08"":""0"",""Q09"":""0"",""Q10"":""0"",""Q11"":""0"",""Q12"":""2"",""Q13"":""5"",""Q14"":""0"",""Q15"":""3"",""Q16"":""0"",""Q17"":""0"",""Q18"":""0"",""Q19"":""0"",""Q20"":""0"",""Q21"":""0"",""Q22"":""0""}","[0,1,2,3,4,5,6,7,8,9,10,11,12,13,14,15,16,17,18,19,20,21]","[""Q01"",""Q02"",""Q03"",""Q04"",""Q05"",""Q06"",""Q07"",""Q08"",""Q09"",""Q10"",""Q11"",""Q12"",""Q13"",""Q12"",""Q14"",""Q15"",""Q16"",""Q17"",""Q18"",""Q19"",""Q20"",""Q21"",""Q22""]","[3862.800000011921,5039.9000000059605,5643.4000000059605,7819.199999988079,8501.199999988079,10387.199999988079,11363,13725,14455.800000011921,15905.59999999404,23635.80000001192,25258.30000001192,27715,31381.69999998808,34556.5,39361.09999999404,42030.90000000596,43683.5,44431.40000000596,50139.80000001192,55910.30000001192,58704.5,61905]","[]","[1.300000011920929,3862.800000011921,4439,5039.9000000059605,5643.4000000059605,7391.0999999940395,7819.199999988079,8501.199999988079,10387.199999988079,11363,12549.199999988079,13725,14455.800000011921,15905.59999999404,17260.09999999404,23635.80000001192,25258.30000001192,27715,31381.69999998808,34556.5,39361.09999999404,42030.90000000596,43683.5,44431.40000000596,50139.80000001192,55910.30000001192,58704.5,61905,65965.30000001192,70473.69999998808]","0.8181818181818182","0.14285714285714285","0","drsp","","","","","","","","","","","","","","","","","","","","","","","","","","","","","","",""
"21132.5","","","","survey-template","4","108127","0.0-2.0-2.0","203","1","2025-07-23 09:11:47","1f75c3e559b7213887762d5229550c2b","178.166.40.254","Mozilla/5.0 (Windows NT 10.0; Win64; x64) AppleWebKit/537.36 (KHTML, like Gecko) Chrome/138.0.0.0 Safari/537.36 Edg/138.0.0.0","WebKit","Edge","138.0.0.0","Windows","10.0","https://app.prolific.com/","en-GB,en;q=0.9,en-US;q=0.8,pt-BR;q=0.7,pt-PT;q=0.6,pt;q=0.5","6172d51173f6962cef6b18cf","683db9eb0562dbf637994deb","6880a74b67973b678b8675a6","2","1","6172d51173f6962cef6b18cf","2","1","2025-07-23T09:13:38.303Z","","{""Q01"":""0"",""Q02"":""1"",""Q03"":""0""}","[0,1,2]","[""Q01"",""Q02"",""Q02"",""Q03""]","[7204.799999982119,8744.199999988079,9943.09999999404,20038.09999999404]","[]","[7204.799999982119,8744.199999988079,9556,9943.09999999404,19638.19999998808,20038.09999999404,21132]","0.6666666666666666","0","0","stress","","","","","","","","","","","","","","","","","","","","","","","","","","","","","","",""
"2916","","","","instructions","5","111044","0.0-3.0-0.0","203","1","2025-07-23 09:11:47","1f75c3e559b7213887762d5229550c2b","178.166.40.254","Mozilla/5.0 (Windows NT 10.0; Win64; x64) AppleWebKit/537.36 (KHTML, like Gecko) Chrome/138.0.0.0 Safari/537.36 Edg/138.0.0.0","WebKit","Edge","138.0.0.0","Windows","10.0","https://app.prolific.com/","en-GB,en;q=0.9,en-US;q=0.8,pt-BR;q=0.7,pt-PT;q=0.6,pt;q=0.5","6172d51173f6962cef6b18cf","683db9eb0562dbf637994deb","6880a74b67973b678b8675a6","2","1","6172d51173f6962cef6b18cf","2","1","","","","","","","","","","","","","[{""page_index"":0,""viewing_time"":2916}]","","","","","","","","","","","","","","","","","","","","","","","","","","","","","",""
"9269","","<p>Before you start with this game please answer the following three questions yourself. </p>
  <p>Through this game, we measure several aspects of your cognitive performance, such as reaction times, multi-tasking capabilities </p>
  <p>and the ability to assess the situation you are in.</p>
  <p></p>
  <p><b>How good do you usually are in such tasks?</b></p>","40","html-slider-response","6","120314","0.0-4.0-0.0","203","1","2025-07-23 09:11:47","1f75c3e559b7213887762d5229550c2b","178.166.40.254","Mozilla/5.0 (Windows NT 10.0; Win64; x64) AppleWebKit/537.36 (KHTML, like Gecko) Chrome/138.0.0.0 Safari/537.36 Edg/138.0.0.0","WebKit","Edge","138.0.0.0","Windows","10.0","https://app.prolific.com/","en-GB,en;q=0.9,en-US;q=0.8,pt-BR;q=0.7,pt-PT;q=0.6,pt;q=0.5","6172d51173f6962cef6b18cf","683db9eb0562dbf637994deb","6880a74b67973b678b8675a6","2","1","6172d51173f6962cef6b18cf","2","1","2025-07-23T09:13:50.489Z","","","","","","","","","","","PreSkillQ","","50","","","","","","","","","","","","","","","","","","","","","","","","","","","","",""
"3664","","<div style=""width:500px;"">
  <p>How well do you think you will perform in this task compared to other participants?</p>
  </div>","15","html-slider-response","7","123979","0.0-4.0-1.0","203","1","2025-07-23 09:11:47","1f75c3e559b7213887762d5229550c2b","178.166.40.254","Mozilla/5.0 (Windows NT 10.0; Win64; x64) AppleWebKit/537.36 (KHTML, like Gecko) Chrome/138.0.0.0 Safari/537.36 Edg/138.0.0.0","WebKit","Edge","138.0.0.0","Windows","10.0","https://app.prolific.com/","en-GB,en;q=0.9,en-US;q=0.8,pt-BR;q=0.7,pt-PT;q=0.6,pt;q=0.5","6172d51173f6962cef6b18cf","683db9eb0562dbf637994deb","6880a74b67973b678b8675a6","2","1","6172d51173f6962cef6b18cf","2","1","2025-07-23T09:13:54.154Z","","","","","","","","","","","PrePerfQ","","50","","","","","","","","","","","","","","","","","","","","","","","","","","","","",""
"2631","","<div style=""width:500px;"">
  <p>What best describes how you currently feel?</p>
  </div>","100","html-slider-response","8","126611","0.0-4.0-2.0","203","1","2025-07-23 09:11:47","1f75c3e559b7213887762d5229550c2b","178.166.40.254","Mozilla/5.0 (Windows NT 10.0; Win64; x64) AppleWebKit/537.36 (KHTML, like Gecko) Chrome/138.0.0.0 Safari/537.36 Edg/138.0.0.0","WebKit","Edge","138.0.0.0","Windows","10.0","https://app.prolific.com/","en-GB,en;q=0.9,en-US;q=0.8,pt-BR;q=0.7,pt-PT;q=0.6,pt;q=0.5","6172d51173f6962cef6b18cf","683db9eb0562dbf637994deb","6880a74b67973b678b8675a6","2","1","6172d51173f6962cef6b18cf","2","1","2025-07-23T09:13:56.786Z","","","","","","","","","","","PreMotivationQ","","50","","","","","","","","","","","","","","","","","","","","","","","","","","","","",""
"","","","","ctl-task-cpt","9","161523","0.0-5.0-0.0","203","1","2025-07-23 09:11:47","1f75c3e559b7213887762d5229550c2b","178.166.40.254","Mozilla/5.0 (Windows NT 10.0; Win64; x64) AppleWebKit/537.36 (KHTML, like Gecko) Chrome/138.0.0.0 Safari/537.36 Edg/138.0.0.0","WebKit","Edge","138.0.0.0","Windows","10.0","https://app.prolific.com/","en-GB,en;q=0.9,en-US;q=0.8,pt-BR;q=0.7,pt-PT;q=0.6,pt;q=0.5","6172d51173f6962cef6b18cf","683db9eb0562dbf637994deb","6880a74b67973b678b8675a6","2","1","6172d51173f6962cef6b18cf","2","1","2025-07-23T09:14:31.698Z","","","","","","","","","","","","","","win-only","1","g1:NE,g2:SW","1","1","0","127479.2","1577","6580.5","31906.8","1","4","8","6","2","8","7","7","0","0.05303030303030303","967.9","3000","445","[""down"",""left""]","{""num_key_presses"":8,""num_perfect"":7,""num_errors"":1,""num_randdir"":0,""num_randdir_good_moves"":0,""num_whilered"":0,""num_whileblue"":1,""num_blue"":2,""num_good_moves"":7}","[420.57142857142856,416.47767857142856,0.2,420.57142857142856,416.47767857142856,104,420.57142857142856,416.47767857142856,204.1,420.57142857142856,416.47767857142856,308.1,420.57142857142856,416.47767857142856,408.2,418.57142857142856,416.47767857142856,508.4,247.57142857142856,603.4776785714286,608.4,164.57142857142856,709.4776785714286,713.5,157.57142857142856,719.4776785714286,813.6,116.57142857142857,752.4776785714286,914.2,108.57142857142857,758.4776785714286,1014.3,107.57142857142857,758.4776785714286,1118.9,107.57142857142857,758.4776785714286,1219,190.57142857142856,784.4776785714286,1319.1,369.57142857142856,798.4776785714286,1423.8,464.57142857142856,790.4776785714286,1528.4,490.57142857142856,789.4776785714286,1628.4,490.57142857142856,789.4776785714286,1728.5,491.57142857142856,789.4776785714286,1828.7,491.57142857142856,789.4776785714286,1928.7,491.57142857142856,789.4776785714286,2028.8,491.57142857142856,789.4776785714286,2128.9,491.57142857142856,789.4776785714286,2228.9,491.57142857142856,789.4776785714286,2329,491.57142857142856,789.4776785714286,2429.1,491.57142857142856,789.4776785714286,2533.1,491.57142857142856,789.4776785714286,2633.3,491.57142857142856,789.4776785714286,2733.3,491.57142857142856,789.4776785714286,2833.4,491.57142857142856,789.4776785714286,2933.6,491.57142857142856,789.4776785714286,3033.6,491.57142857142856,789.4776785714286,3133.8,491.57142857142856,789.4776785714286,3233.8,491.57142857142856,789.4776785714286,3333.9,491.57142857142856,789.4776785714286,3434,619.5714285714286,769.4776785714286,3534.1,869.5714285714286,723.4776785714286,3638.2,984.5714285714286,701.4776785714286,3738.3,984.5714285714286,701.4776785714286,3838.3,980.5714285714286,701.4776785714286,3938.5,980.5714285714286,701.4776785714286,4038.6,980.5714285714286,701.4776785714286,4138.6,980.5714285714286,701.4776785714286,4238.7,980.5714285714286,701.4776785714286,4338.8,980.5714285714286,701.4776785714286,4438.8,980.5714285714286,701.4776785714286,4538.9,980.5714285714286,701.4776785714286,4639,980.5714285714286,701.4776785714286,4743.2,980.5714285714286,701.4776785714286,4843.2,980.5714285714286,701.4776785714286,4943.3]","[1462.3,1462.2,1000,0.1,462.2,""smooth"",""down"",""down"",""good_move"",8067.5,6605,2717.6,5019.9,330,""smooth"",""down"",""down"",""good_move"",11216.5,3148.8,2843.8,8067.7,305,""smooth"",""down"",""down"",""good_move"",14050.9,2834.3,2464,11216.6,370.3,""smooth"",""left"",""left"",""good_move"",16602.5,2551.3,2204.2,14051.2,347.1,""smooth"",""left"",""left"",""good_move"",19252.5,2649.8,2322.7,16602.7,327.1,""while_blue"",""left"",""right"",""bad_move"",22586.5,3333.8,2923,19252.7,410.8,""smooth"",""left"",""left"",""good_move"",25238.9,2652.3,2276,22586.6,376.3,""smooth"",""left"",""left"",""good_move""]","",""
"3037","","<div style=""width:500px;"">
  <p>What determined the result of this run?</p>
  </div>","100","html-slider-response","10","164562","0.0-5.0-1.0","203","1","2025-07-23 09:11:47","1f75c3e559b7213887762d5229550c2b","178.166.40.254","Mozilla/5.0 (Windows NT 10.0; Win64; x64) AppleWebKit/537.36 (KHTML, like Gecko) Chrome/138.0.0.0 Safari/537.36 Edg/138.0.0.0","WebKit","Edge","138.0.0.0","Windows","10.0","https://app.prolific.com/","en-GB,en;q=0.9,en-US;q=0.8,pt-BR;q=0.7,pt-PT;q=0.6,pt;q=0.5","6172d51173f6962cef6b18cf","683db9eb0562dbf637994deb","6880a74b67973b678b8675a6","2","1","6172d51173f6962cef6b18cf","2","1","2025-07-23T09:14:34.737Z","","","","","","","","","","","AttribQ","","50","","","","","","","","","","","","","","","","","","","","","","","","","","","","",""
"3574","","<div style=""width:500px;"">
  <p>How much control did you have over the ball?</p>
  </div>","100","html-slider-response","11","168137","0.0-5.0-2.0","203","1","2025-07-23 09:11:47","1f75c3e559b7213887762d5229550c2b","178.166.40.254","Mozilla/5.0 (Windows NT 10.0; Win64; x64) AppleWebKit/537.36 (KHTML, like Gecko) Chrome/138.0.0.0 Safari/537.36 Edg/138.0.0.0","WebKit","Edge","138.0.0.0","Windows","10.0","https://app.prolific.com/","en-GB,en;q=0.9,en-US;q=0.8,pt-BR;q=0.7,pt-PT;q=0.6,pt;q=0.5","6172d51173f6962cef6b18cf","683db9eb0562dbf637994deb","6880a74b67973b678b8675a6","2","1","6172d51173f6962cef6b18cf","2","1","2025-07-23T09:14:38.312Z","","","","","","","","","","","ControlQ","","50","","","","","","","","","","","","","","","","","","","","","","","","","","","","",""
"2324","","<div style=""width:500px;"">
  <p>How would you describe your current emotional state?</p>
  </div>","0","html-slider-response","12","170462","0.0-5.0-3.0","203","1","2025-07-23 09:11:47","1f75c3e559b7213887762d5229550c2b","178.166.40.254","Mozilla/5.0 (Windows NT 10.0; Win64; x64) AppleWebKit/537.36 (KHTML, like Gecko) Chrome/138.0.0.0 Safari/537.36 Edg/138.0.0.0","WebKit","Edge","138.0.0.0","Windows","10.0","https://app.prolific.com/","en-GB,en;q=0.9,en-US;q=0.8,pt-BR;q=0.7,pt-PT;q=0.6,pt;q=0.5","6172d51173f6962cef6b18cf","683db9eb0562dbf637994deb","6880a74b67973b678b8675a6","2","1","6172d51173f6962cef6b18cf","2","1","2025-07-23T09:14:40.637Z","","","","","","","","","","","StressQ","","50","","","","","","","","","","","","","","","","","","","","","","","","","","","","",""
"2035","","<div style=""width:500px;"">
  <p>What best describes how you currently feel?</p>
  </div>","100","html-slider-response","13","172498","0.0-5.0-4.0","203","1","2025-07-23 09:11:47","1f75c3e559b7213887762d5229550c2b","178.166.40.254","Mozilla/5.0 (Windows NT 10.0; Win64; x64) AppleWebKit/537.36 (KHTML, like Gecko) Chrome/138.0.0.0 Safari/537.36 Edg/138.0.0.0","WebKit","Edge","138.0.0.0","Windows","10.0","https://app.prolific.com/","en-GB,en;q=0.9,en-US;q=0.8,pt-BR;q=0.7,pt-PT;q=0.6,pt;q=0.5","6172d51173f6962cef6b18cf","683db9eb0562dbf637994deb","6880a74b67973b678b8675a6","2","1","6172d51173f6962cef6b18cf","2","1","2025-07-23T09:14:42.673Z","","","","","","","","","","","MotivationQ","","50","","","","","","","","","","","","","","","","","","","","","","","","","","","","",""
"","","","","ctl-task-cpt","14","192169","0.0-5.0-0.1","203","1","2025-07-23 09:11:47","1f75c3e559b7213887762d5229550c2b","178.166.40.254","Mozilla/5.0 (Windows NT 10.0; Win64; x64) AppleWebKit/537.36 (KHTML, like Gecko) Chrome/138.0.0.0 Safari/537.36 Edg/138.0.0.0","WebKit","Edge","138.0.0.0","Windows","10.0","https://app.prolific.com/","en-GB,en;q=0.9,en-US;q=0.8,pt-BR;q=0.7,pt-PT;q=0.6,pt;q=0.5","6172d51173f6962cef6b18cf","683db9eb0562dbf637994deb","6880a74b67973b678b8675a6","2","1","6172d51173f6962cef6b18cf","2","1","2025-07-23T09:15:02.344Z","","","","","","","","","","","","","","win-only","0","g1:NW,g2:SE","0.9","2","0","173365","1018.4","6020.5","16665.5","1","4","4","6","1","1","1","8","7","0.06060606060606061","841.1","3000","1345","[""left"",""up""]","{""num_key_presses"":4,""num_perfect"":4,""num_errors"":0,""num_randdir"":0,""num_randdir_good_moves"":0,""num_whilered"":0,""num_whileblue"":0,""num_blue"":0,""num_good_moves"":4}","[408.57142857142856,427.47767857142856,0.2,409.57142857142856,425.47767857142856,102,409.57142857142856,425.47767857142856,202.1,409.57142857142856,425.47767857142856,303.2,392.57142857142856,410.47767857142856,407.3,285.57142857142856,303.47767857142856,507.3,140.57142857142856,156.47767857142856,607.5,112.57142857142857,119.47767857142857,711.8,93.57142857142857,103.47767857142857,811.8,93.57142857142857,103.47767857142857,912,91.57142857142857,103.47767857142857,1012.1,-103.42857142857143,155.47767857142856,1117,-188.42857142857144,185.47767857142856,1217.2,-187.42857142857144,191.47767857142856,1317.2,-185.42857142857144,192.47767857142856,1422,-185.42857142857144,192.47767857142856,1522.8,-185.42857142857144,192.47767857142856,1627.2,-185.42857142857144,192.47767857142856,1731.9,-185.42857142857144,192.47767857142856,1837.1,-185.42857142857144,192.47767857142856,1937.1,-185.42857142857144,192.47767857142856,2037.2,-185.42857142857144,192.47767857142856,2137.2,-185.42857142857144,192.47767857142856,2237.3,-185.42857142857144,192.47767857142856,2337.4,-185.42857142857144,192.47767857142856,2441.6,-185.42857142857144,192.47767857142856,2541.8,-185.42857142857144,192.47767857142856,2641.8,-185.42857142857144,192.47767857142856,2742,-185.42857142857144,192.47767857142856,2842.1,-185.42857142857144,192.47767857142856,2947,-185.42857142857144,192.47767857142856,3047.1,-185.42857142857144,192.47767857142856,3147.1,-185.42857142857144,192.47767857142856,3247.2,-185.42857142857144,192.47767857142856,3347.3,-185.42857142857144,192.47767857142856,3447.5,-185.42857142857144,192.47767857142856,3547.5,-185.42857142857144,192.47767857142856,3651.9,-185.42857142857144,192.47767857142856,3756.7,-185.42857142857144,192.47767857142856,3857,-185.42857142857144,192.47767857142856,3957.1,-185.42857142857144,192.47767857142856,4062,-185.42857142857144,192.47767857142856,4162.1,-185.42857142857144,192.47767857142856,4262.1,-185.42857142857144,192.47767857142856,4362.3,-185.42857142857144,192.47767857142856,4462.3,-185.42857142857144,192.47767857142856,4562.4,-185.42857142857144,192.47767857142856,4666.8,-185.42857142857144,192.47767857142856,4766.8,-185.42857142857144,192.47767857142856,4866.9,-185.42857142857144,192.47767857142856,4967]","[1393.1,1393.1,1000,0,393.1,""smooth"",""up"",""up"",""good_move"",4673.7,3280.2,2613.2,1393.5,667,""smooth"",""left"",""left"",""good_move"",7918.6,3244.8,2940.9,4673.8,303.9,""smooth"",""up"",""up"",""good_move"",10556.6,2637.9,2324.8,7918.7,313.1,""smooth"",""left"",""left"",""good_move""]","",""
"4127","","<div style=""width:500px;"">
  <p>What determined the result of this run?</p>
  </div>","100","html-slider-response","15","196297","0.0-5.0-1.1","203","1","2025-07-23 09:11:47","1f75c3e559b7213887762d5229550c2b","178.166.40.254","Mozilla/5.0 (Windows NT 10.0; Win64; x64) AppleWebKit/537.36 (KHTML, like Gecko) Chrome/138.0.0.0 Safari/537.36 Edg/138.0.0.0","WebKit","Edge","138.0.0.0","Windows","10.0","https://app.prolific.com/","en-GB,en;q=0.9,en-US;q=0.8,pt-BR;q=0.7,pt-PT;q=0.6,pt;q=0.5","6172d51173f6962cef6b18cf","683db9eb0562dbf637994deb","6880a74b67973b678b8675a6","2","1","6172d51173f6962cef6b18cf","2","1","2025-07-23T09:15:06.472Z","","","","","","","","","","","AttribQ","","50","","","","","","","","","","","","","","","","","","","","","","","","","","","","",""
"2175","","<div style=""width:500px;"">
  <p>How much control did you have over the ball?</p>
  </div>","100","html-slider-response","16","198473","0.0-5.0-2.1","203","1","2025-07-23 09:11:47","1f75c3e559b7213887762d5229550c2b","178.166.40.254","Mozilla/5.0 (Windows NT 10.0; Win64; x64) AppleWebKit/537.36 (KHTML, like Gecko) Chrome/138.0.0.0 Safari/537.36 Edg/138.0.0.0","WebKit","Edge","138.0.0.0","Windows","10.0","https://app.prolific.com/","en-GB,en;q=0.9,en-US;q=0.8,pt-BR;q=0.7,pt-PT;q=0.6,pt;q=0.5","6172d51173f6962cef6b18cf","683db9eb0562dbf637994deb","6880a74b67973b678b8675a6","2","1","6172d51173f6962cef6b18cf","2","1","2025-07-23T09:15:08.648Z","","","","","","","","","","","ControlQ","","50","","","","","","","","","","","","","","","","","","","","","","","","","","","","",""
"1661","","<div style=""width:500px;"">
  <p>How would you describe your current emotional state?</p>
  </div>","0","html-slider-response","17","200135","0.0-5.0-3.1","203","1","2025-07-23 09:11:47","1f75c3e559b7213887762d5229550c2b","178.166.40.254","Mozilla/5.0 (Windows NT 10.0; Win64; x64) AppleWebKit/537.36 (KHTML, like Gecko) Chrome/138.0.0.0 Safari/537.36 Edg/138.0.0.0","WebKit","Edge","138.0.0.0","Windows","10.0","https://app.prolific.com/","en-GB,en;q=0.9,en-US;q=0.8,pt-BR;q=0.7,pt-PT;q=0.6,pt;q=0.5","6172d51173f6962cef6b18cf","683db9eb0562dbf637994deb","6880a74b67973b678b8675a6","2","1","6172d51173f6962cef6b18cf","2","1","2025-07-23T09:15:10.310Z","","","","","","","","","","","StressQ","","50","","","","","","","","","","","","","","","","","","","","","","","","","","","","",""
"2594","","<div style=""width:500px;"">
  <p>What best describes how you currently feel?</p>
  </div>","98","html-slider-response","18","202730","0.0-5.0-4.1","203","1","2025-07-23 09:11:47","1f75c3e559b7213887762d5229550c2b","178.166.40.254","Mozilla/5.0 (Windows NT 10.0; Win64; x64) AppleWebKit/537.36 (KHTML, like Gecko) Chrome/138.0.0.0 Safari/537.36 Edg/138.0.0.0","WebKit","Edge","138.0.0.0","Windows","10.0","https://app.prolific.com/","en-GB,en;q=0.9,en-US;q=0.8,pt-BR;q=0.7,pt-PT;q=0.6,pt;q=0.5","6172d51173f6962cef6b18cf","683db9eb0562dbf637994deb","6880a74b67973b678b8675a6","2","1","6172d51173f6962cef6b18cf","2","1","2025-07-23T09:15:12.905Z","","","","","","","","","","","MotivationQ","","50","","","","","","","","","","","","","","","","","","","","","","","","","","","","",""
"","","","","ctl-task-cpt","19","221634","0.0-5.0-0.2","203","1","2025-07-23 09:11:47","1f75c3e559b7213887762d5229550c2b","178.166.40.254","Mozilla/5.0 (Windows NT 10.0; Win64; x64) AppleWebKit/537.36 (KHTML, like Gecko) Chrome/138.0.0.0 Safari/537.36 Edg/138.0.0.0","WebKit","Edge","138.0.0.0","Windows","10.0","https://app.prolific.com/","en-GB,en;q=0.9,en-US;q=0.8,pt-BR;q=0.7,pt-PT;q=0.6,pt;q=0.5","6172d51173f6962cef6b18cf","683db9eb0562dbf637994deb","6880a74b67973b678b8675a6","2","1","6172d51173f6962cef6b18cf","2","1","2025-07-23T09:15:31.809Z","","","","","","","","","","","","","","win-only","0","g1:NW,g2:SE","0.8","3","0","203597.8","1001","6005.6","15885.8","1","4","8","6","1","1","1","9","8","0.06818181818181818","1079.1","3000","1825","[""left"",""up""]","{""num_key_presses"":4,""num_perfect"":3,""num_errors"":0,""num_randdir"":1,""num_randdir_good_moves"":1,""num_whilered"":0,""num_whileblue"":0,""num_blue"":0,""num_good_moves"":4}","[419.57142857142856,417.47767857142856,0.2,419.57142857142856,417.47767857142856,105.2,419.57142857142856,417.47767857142856,209.6,419.57142857142856,417.47767857142856,309.7,403.57142857142856,416.47767857142856,409.8,318.57142857142856,355.47767857142856,509.9,168.57142857142856,234.47767857142856,610,156.57142857142856,199.47767857142856,711.1,116.57142857142857,152.47767857142856,814.2,62.57142857142857,105.47767857142857,914.3,60.57142857142857,93.47767857142857,1014.5,62.57142857142857,91.47767857142857,1114.5,61.57142857142857,91.47767857142857,1214.6,-0.4285714285714306,102.47767857142857,1314.6,-296.42857142857144,151.47767857142856,1420.1,-319.42857142857144,161.47767857142856,1524.7,-313.42857142857144,164.47767857142856,1629.3,-313.42857142857144,164.47767857142856,1729.4,-313.42857142857144,164.47767857142856,1829.5,-313.42857142857144,164.47767857142856,1929.8,-313.42857142857144,164.47767857142856,2035.1,-313.42857142857144,164.47767857142856,2135.7,-313.42857142857144,164.47767857142856,2239.3,-313.42857142857144,164.47767857142856,2339.9,-313.42857142857144,164.47767857142856,2444.9,-313.42857142857144,164.47767857142856,2549.2,-313.42857142857144,164.47767857142856,2649.2,-313.42857142857144,164.47767857142856,2749.3,-313.42857142857144,164.47767857142856,2849.3,-313.42857142857144,164.47767857142856,2955,-313.42857142857144,164.47767857142856,3059.7,-313.42857142857144,164.47767857142856,3164.4,-313.42857142857144,164.47767857142856,3264.5,-313.42857142857144,164.47767857142856,3364.5,-313.42857142857144,164.47767857142856,3464.6,-313.42857142857144,164.47767857142856,3564.7,-313.42857142857144,164.47767857142856,3665.8,-313.42857142857144,164.47767857142856,3769.7,-313.42857142857144,164.47767857142856,3869.8,-313.42857142857144,164.47767857142856,3969.9,-313.42857142857144,164.47767857142856,4069.9,-313.42857142857144,164.47767857142856,4170,-313.42857142857144,164.47767857142856,4270.1,-313.42857142857144,164.47767857142856,4374.2,-313.42857142857144,164.47767857142856,4474.4,-313.42857142857144,164.47767857142856,4574.8,-313.42857142857144,164.47767857142856,4675,-313.42857142857144,164.47767857142856,4775.1,-313.42857142857144,164.47767857142856,4879.1,-313.42857142857144,164.47767857142856,4979.7]","[1342.7,1342.7,1000,0,342.7,""smooth"",""up"",""up"",""good_move"",3932.6,2589.7,2318.9,1342.9,270.8,""oops"",""left"",""left"",""good_move"",6976.3,3043.4,2738.8,3932.9,304.6,""smooth"",""up"",""up"",""good_move"",9792.7,2816.2,2534.8,6976.5,281.4,""smooth"",""left"",""left"",""good_move""]","",""
"3303","","<div style=""width:500px;"">
  <p>What determined the result of this run?</p>
  </div>","100","html-slider-response","20","224938","0.0-5.0-1.2","203","1","2025-07-23 09:11:47","1f75c3e559b7213887762d5229550c2b","178.166.40.254","Mozilla/5.0 (Windows NT 10.0; Win64; x64) AppleWebKit/537.36 (KHTML, like Gecko) Chrome/138.0.0.0 Safari/537.36 Edg/138.0.0.0","WebKit","Edge","138.0.0.0","Windows","10.0","https://app.prolific.com/","en-GB,en;q=0.9,en-US;q=0.8,pt-BR;q=0.7,pt-PT;q=0.6,pt;q=0.5","6172d51173f6962cef6b18cf","683db9eb0562dbf637994deb","6880a74b67973b678b8675a6","2","1","6172d51173f6962cef6b18cf","2","1","2025-07-23T09:15:35.113Z","","","","","","","","","","","AttribQ","","50","","","","","","","","","","","","","","","","","","","","","","","","","","","","",""
"2387","","<div style=""width:500px;"">
  <p>How much control did you have over the ball?</p>
  </div>","100","html-slider-response","21","227325","0.0-5.0-2.2","203","1","2025-07-23 09:11:47","1f75c3e559b7213887762d5229550c2b","178.166.40.254","Mozilla/5.0 (Windows NT 10.0; Win64; x64) AppleWebKit/537.36 (KHTML, like Gecko) Chrome/138.0.0.0 Safari/537.36 Edg/138.0.0.0","WebKit","Edge","138.0.0.0","Windows","10.0","https://app.prolific.com/","en-GB,en;q=0.9,en-US;q=0.8,pt-BR;q=0.7,pt-PT;q=0.6,pt;q=0.5","6172d51173f6962cef6b18cf","683db9eb0562dbf637994deb","6880a74b67973b678b8675a6","2","1","6172d51173f6962cef6b18cf","2","1","2025-07-23T09:15:37.500Z","","","","","","","","","","","ControlQ","","50","","","","","","","","","","","","","","","","","","","","","","","","","","","","",""
"2352","","<div style=""width:500px;"">
  <p>How would you describe your current emotional state?</p>
  </div>","0","html-slider-response","22","229677","0.0-5.0-3.2","203","1","2025-07-23 09:11:47","1f75c3e559b7213887762d5229550c2b","178.166.40.254","Mozilla/5.0 (Windows NT 10.0; Win64; x64) AppleWebKit/537.36 (KHTML, like Gecko) Chrome/138.0.0.0 Safari/537.36 Edg/138.0.0.0","WebKit","Edge","138.0.0.0","Windows","10.0","https://app.prolific.com/","en-GB,en;q=0.9,en-US;q=0.8,pt-BR;q=0.7,pt-PT;q=0.6,pt;q=0.5","6172d51173f6962cef6b18cf","683db9eb0562dbf637994deb","6880a74b67973b678b8675a6","2","1","6172d51173f6962cef6b18cf","2","1","2025-07-23T09:15:39.852Z","","","","","","","","","","","StressQ","","50","","","","","","","","","","","","","","","","","","","","","","","","","","","","",""
"1518","","<div style=""width:500px;"">
  <p>What best describes how you currently feel?</p>
  </div>","100","html-slider-response","23","231196","0.0-5.0-4.2","203","1","2025-07-23 09:11:47","1f75c3e559b7213887762d5229550c2b","178.166.40.254","Mozilla/5.0 (Windows NT 10.0; Win64; x64) AppleWebKit/537.36 (KHTML, like Gecko) Chrome/138.0.0.0 Safari/537.36 Edg/138.0.0.0","WebKit","Edge","138.0.0.0","Windows","10.0","https://app.prolific.com/","en-GB,en;q=0.9,en-US;q=0.8,pt-BR;q=0.7,pt-PT;q=0.6,pt;q=0.5","6172d51173f6962cef6b18cf","683db9eb0562dbf637994deb","6880a74b67973b678b8675a6","2","1","6172d51173f6962cef6b18cf","2","1","2025-07-23T09:15:41.371Z","","","","","","","","","","","MotivationQ","","50","","","","","","","","","","","","","","","","","","","","","","","","","","","","",""
"","","","","ctl-task-cpt","24","248984","0.0-5.0-0.3","203","1","2025-07-23 09:11:47","1f75c3e559b7213887762d5229550c2b","178.166.40.254","Mozilla/5.0 (Windows NT 10.0; Win64; x64) AppleWebKit/537.36 (KHTML, like Gecko) Chrome/138.0.0.0 Safari/537.36 Edg/138.0.0.0","WebKit","Edge","138.0.0.0","Windows","10.0","https://app.prolific.com/","en-GB,en;q=0.9,en-US;q=0.8,pt-BR;q=0.7,pt-PT;q=0.6,pt;q=0.5","6172d51173f6962cef6b18cf","683db9eb0562dbf637994deb","6880a74b67973b678b8675a6","2","1","6172d51173f6962cef6b18cf","2","1","2025-07-23T09:15:59.159Z","","","","","","","","","","","","","","win-only","0","g1:NW,g2:SE","0.7","4","0","232064.2","859.8","5860.3","14770.8","1","4","4","6","1","1","1","10","9","0.07575757575757576","920.1","3000","1730","[""left"",""up""]","{""num_key_presses"":4,""num_perfect"":3,""num_errors"":0,""num_randdir"":1,""num_randdir_good_moves"":1,""num_whilered"":0,""num_whileblue"":0,""num_blue"":0,""num_good_moves"":4}","[405.57142857142856,422.47767857142856,0.1,405.57142857142856,422.47767857142856,107.8,405.57142857142856,422.47767857142856,211.2,405.57142857142856,422.47767857142856,315.3,384.57142857142856,407.47767857142856,415.4,240.57142857142856,272.47767857142856,515.5,116.57142857142857,165.47767857142856,615.6,100.57142857142857,136.47767857142856,715.6,88.57142857142857,106.47767857142857,815.9,84.57142857142857,94.47767857142857,915.9,84.57142857142857,94.47767857142857,1016,41.57142857142857,98.47767857142857,1116.1,-101.42857142857143,125.47767857142857,1216.1,-195.42857142857144,164.47767857142856,1320.9,-233.42857142857144,193.47767857142856,1421.1,-253.42857142857144,210.47767857142856,1521.2,-253.42857142857144,211.47767857142856,1621.2,-253.42857142857144,212.47767857142856,1725.4,-253.42857142857144,212.47767857142856,1825.5,-253.42857142857144,212.47767857142856,1925.6,-253.42857142857144,212.47767857142856,2025.7,-253.42857142857144,212.47767857142856,2125.7,-253.42857142857144,212.47767857142856,2225.8,-253.42857142857144,212.47767857142856,2325.8,-253.42857142857144,212.47767857142856,2426,-253.42857142857144,212.47767857142856,2526,-253.42857142857144,212.47767857142856,2626.2,-253.42857142857144,212.47767857142856,2726.3,-253.42857142857144,212.47767857142856,2830.3,-253.42857142857144,212.47767857142856,2930.4,-253.42857142857144,212.47767857142856,3030.5,-253.42857142857144,212.47767857142856,3130.7,-253.42857142857144,212.47767857142856,3230.7,-253.42857142857144,212.47767857142856,3330.8,-253.42857142857144,212.47767857142856,3430.9,-253.42857142857144,212.47767857142856,3530.9,-253.42857142857144,212.47767857142856,3631,-253.42857142857144,212.47767857142856,3731.1,-253.42857142857144,212.47767857142856,3831.3,-253.42857142857144,212.47767857142856,3935.4,-253.42857142857144,212.47767857142856,4035.4,-253.42857142857144,212.47767857142856,4135.5,-253.42857142857144,212.47767857142856,4235.5,-253.42857142857144,212.47767857142856,4335.7,-253.42857142857144,212.47767857142856,4435.8,-253.42857142857144,212.47767857142856,4535.9,-253.42857142857144,212.47767857142856,4635.9,-253.42857142857144,212.47767857142856,4736,-253.42857142857144,212.47767857142856,4836.2,-253.42857142857144,212.47767857142856,4936.3]","[1373,1373,1000,0,373,""oops"",""left"",""left"",""good_move"",3547.5,2174.2,1854.3,1373.3,319.9,""smooth"",""up"",""up"",""good_move"",7099.5,3551.7,3289.8,3547.8,261.9,""smooth"",""up"",""up"",""good_move"",8824.5,1724.8,1382.3,7099.7,342.5,""smooth"",""left"",""left"",""good_move""]","",""
"1970","","<div style=""width:500px;"">
  <p>What determined the result of this run?</p>
  </div>","100","html-slider-response","25","250955","0.0-5.0-1.3","203","1","2025-07-23 09:11:47","1f75c3e559b7213887762d5229550c2b","178.166.40.254","Mozilla/5.0 (Windows NT 10.0; Win64; x64) AppleWebKit/537.36 (KHTML, like Gecko) Chrome/138.0.0.0 Safari/537.36 Edg/138.0.0.0","WebKit","Edge","138.0.0.0","Windows","10.0","https://app.prolific.com/","en-GB,en;q=0.9,en-US;q=0.8,pt-BR;q=0.7,pt-PT;q=0.6,pt;q=0.5","6172d51173f6962cef6b18cf","683db9eb0562dbf637994deb","6880a74b67973b678b8675a6","2","1","6172d51173f6962cef6b18cf","2","1","2025-07-23T09:16:01.130Z","","","","","","","","","","","AttribQ","","50","","","","","","","","","","","","","","","","","","","","","","","","","","","","",""
"1369","","<div style=""width:500px;"">
  <p>How much control did you have over the ball?</p>
  </div>","100","html-slider-response","26","252324","0.0-5.0-2.3","203","1","2025-07-23 09:11:47","1f75c3e559b7213887762d5229550c2b","178.166.40.254","Mozilla/5.0 (Windows NT 10.0; Win64; x64) AppleWebKit/537.36 (KHTML, like Gecko) Chrome/138.0.0.0 Safari/537.36 Edg/138.0.0.0","WebKit","Edge","138.0.0.0","Windows","10.0","https://app.prolific.com/","en-GB,en;q=0.9,en-US;q=0.8,pt-BR;q=0.7,pt-PT;q=0.6,pt;q=0.5","6172d51173f6962cef6b18cf","683db9eb0562dbf637994deb","6880a74b67973b678b8675a6","2","1","6172d51173f6962cef6b18cf","2","1","2025-07-23T09:16:02.500Z","","","","","","","","","","","ControlQ","","50","","","","","","","","","","","","","","","","","","","","","","","","","","","","",""
"1721","","<div style=""width:500px;"">
  <p>How would you describe your current emotional state?</p>
  </div>","0","html-slider-response","27","254046","0.0-5.0-3.3","203","1","2025-07-23 09:11:47","1f75c3e559b7213887762d5229550c2b","178.166.40.254","Mozilla/5.0 (Windows NT 10.0; Win64; x64) AppleWebKit/537.36 (KHTML, like Gecko) Chrome/138.0.0.0 Safari/537.36 Edg/138.0.0.0","WebKit","Edge","138.0.0.0","Windows","10.0","https://app.prolific.com/","en-GB,en;q=0.9,en-US;q=0.8,pt-BR;q=0.7,pt-PT;q=0.6,pt;q=0.5","6172d51173f6962cef6b18cf","683db9eb0562dbf637994deb","6880a74b67973b678b8675a6","2","1","6172d51173f6962cef6b18cf","2","1","2025-07-23T09:16:04.222Z","","","","","","","","","","","StressQ","","50","","","","","","","","","","","","","","","","","","","","","","","","","","","","",""
"2049","","<div style=""width:500px;"">
  <p>What best describes how you currently feel?</p>
  </div>","100","html-slider-response","28","256096","0.0-5.0-4.3","203","1","2025-07-23 09:11:47","1f75c3e559b7213887762d5229550c2b","178.166.40.254","Mozilla/5.0 (Windows NT 10.0; Win64; x64) AppleWebKit/537.36 (KHTML, like Gecko) Chrome/138.0.0.0 Safari/537.36 Edg/138.0.0.0","WebKit","Edge","138.0.0.0","Windows","10.0","https://app.prolific.com/","en-GB,en;q=0.9,en-US;q=0.8,pt-BR;q=0.7,pt-PT;q=0.6,pt;q=0.5","6172d51173f6962cef6b18cf","683db9eb0562dbf637994deb","6880a74b67973b678b8675a6","2","1","6172d51173f6962cef6b18cf","2","1","2025-07-23T09:16:06.272Z","","","","","","","","","","","MotivationQ","","50","","","","","","","","","","","","","","","","","","","","","","","","","","","","",""
"","","","","ctl-task-cpt","29","275364","0.0-5.0-0.4","203","1","2025-07-23 09:11:47","1f75c3e559b7213887762d5229550c2b","178.166.40.254","Mozilla/5.0 (Windows NT 10.0; Win64; x64) AppleWebKit/537.36 (KHTML, like Gecko) Chrome/138.0.0.0 Safari/537.36 Edg/138.0.0.0","WebKit","Edge","138.0.0.0","Windows","10.0","https://app.prolific.com/","en-GB,en;q=0.9,en-US;q=0.8,pt-BR;q=0.7,pt-PT;q=0.6,pt;q=0.5","6172d51173f6962cef6b18cf","683db9eb0562dbf637994deb","6880a74b67973b678b8675a6","2","1","6172d51173f6962cef6b18cf","2","1","2025-07-23T09:16:25.539Z","","","","","","","","","","","","","","win-only","2","g1:SE,g2:NW","0.6","5","0","256964.4","1946","6950.7","16250.4","1","4","8","6","1","1","1","11","10","0.08333333333333333","1214.8","3000","1800","[""down"",""right""]","{""num_key_presses"":4,""num_perfect"":3,""num_errors"":0,""num_randdir"":1,""num_randdir_good_moves"":1,""num_whilered"":0,""num_whileblue"":0,""num_blue"":0,""num_good_moves"":4}","[414.57142857142856,419.47767857142856,0.2,414.57142857142856,419.47767857142856,104.3,414.57142857142856,419.47767857142856,204.3,414.57142857142856,419.47767857142856,304.3,403.57142857142856,417.47767857142856,404.5,321.57142857142856,344.47767857142856,504.8,180.57142857142856,228.47767857142856,610,160.57142857142856,185.47767857142856,710.2,268.57142857142856,204.47767857142856,815.1,538.5714285714286,571.4776785714286,915.1,656.5714285714286,771.4776785714286,1020,676.5714285714286,765.4776785714286,1124.4,707.5714285714286,751.4776785714286,1224.6,707.5714285714286,751.4776785714286,1329.5,716.5714285714286,751.4776785714286,1429.6,756.5714285714286,755.4776785714286,1534.6,907.5714285714286,739.4776785714286,1634.9,1023.5714285714286,653.4776785714286,1734.9,1067.5714285714287,599.4776785714286,1835,1070.5714285714287,595.4776785714286,1935.1,1070.5714285714287,595.4776785714286,2039.2,1070.5714285714287,595.4776785714286,2139.3,1070.5714285714287,595.4776785714286,2244.2,1070.5714285714287,595.4776785714286,2344.4,1070.5714285714287,595.4776785714286,2444.5,1070.5714285714287,595.4776785714286,2544.6,1070.5714285714287,595.4776785714286,2644.8,1070.5714285714287,595.4776785714286,2744.8,1070.5714285714287,595.4776785714286,2844.9,1070.5714285714287,595.4776785714286,2945,1070.5714285714287,595.4776785714286,3045.1,1070.5714285714287,595.4776785714286,3149.1,1070.5714285714287,595.4776785714286,3249.2,1070.5714285714287,595.4776785714286,3349.4,1070.5714285714287,595.4776785714286,3449.4,1070.5714285714287,595.4776785714286,3549.5,1070.5714285714287,595.4776785714286,3649.6,1070.5714285714287,595.4776785714286,3749.6,1070.5714285714287,595.4776785714286,3849.7,1070.5714285714287,595.4776785714286,3949.9,1070.5714285714287,595.4776785714286,4049.9,1070.5714285714287,595.4776785714286,4150.3,1070.5714285714287,595.4776785714286,4254.4,1070.5714285714287,595.4776785714286,4359.1,1070.5714285714287,595.4776785714286,4459.4,1070.5714285714287,595.4776785714286,4559.5,1070.5714285714287,595.4776785714286,4664.4,1070.5714285714287,595.4776785714286,4764.5,1070.5714285714287,595.4776785714286,4864.8,1070.5714285714287,595.4776785714286,4964.9]","[1303.4,1303.4,1000,0,303.4,""smooth"",""right"",""right"",""good_move"",3586.8,2283.2,1946.9,1303.6,336.3,""smooth"",""down"",""down"",""good_move"",6518.8,2931.8,2640.8,3587,291,""oops"",""down"",""right"",""good_move"",9208.8,2689.9,2394.4,6518.9,295.5,""smooth"",""down"",""down"",""good_move""]","",""
"2661","","<div style=""width:500px;"">
  <p>What determined the result of this run?</p>
  </div>","85","html-slider-response","30","278026","0.0-5.0-1.4","203","1","2025-07-23 09:11:47","1f75c3e559b7213887762d5229550c2b","178.166.40.254","Mozilla/5.0 (Windows NT 10.0; Win64; x64) AppleWebKit/537.36 (KHTML, like Gecko) Chrome/138.0.0.0 Safari/537.36 Edg/138.0.0.0","WebKit","Edge","138.0.0.0","Windows","10.0","https://app.prolific.com/","en-GB,en;q=0.9,en-US;q=0.8,pt-BR;q=0.7,pt-PT;q=0.6,pt;q=0.5","6172d51173f6962cef6b18cf","683db9eb0562dbf637994deb","6880a74b67973b678b8675a6","2","1","6172d51173f6962cef6b18cf","2","1","2025-07-23T09:16:28.201Z","","","","","","","","","","","AttribQ","","50","","","","","","","","","","","","","","","","","","","","","","","","","","","","",""
"1984","","<div style=""width:500px;"">
  <p>How much control did you have over the ball?</p>
  </div>","77","html-slider-response","31","280011","0.0-5.0-2.4","203","1","2025-07-23 09:11:47","1f75c3e559b7213887762d5229550c2b","178.166.40.254","Mozilla/5.0 (Windows NT 10.0; Win64; x64) AppleWebKit/537.36 (KHTML, like Gecko) Chrome/138.0.0.0 Safari/537.36 Edg/138.0.0.0","WebKit","Edge","138.0.0.0","Windows","10.0","https://app.prolific.com/","en-GB,en;q=0.9,en-US;q=0.8,pt-BR;q=0.7,pt-PT;q=0.6,pt;q=0.5","6172d51173f6962cef6b18cf","683db9eb0562dbf637994deb","6880a74b67973b678b8675a6","2","1","6172d51173f6962cef6b18cf","2","1","2025-07-23T09:16:30.186Z","","","","","","","","","","","ControlQ","","50","","","","","","","","","","","","","","","","","","","","","","","","","","","","",""
"4194","","<div style=""width:500px;"">
  <p>How would you describe your current emotional state?</p>
  </div>","9","html-slider-response","32","284206","0.0-5.0-3.4","203","1","2025-07-23 09:11:47","1f75c3e559b7213887762d5229550c2b","178.166.40.254","Mozilla/5.0 (Windows NT 10.0; Win64; x64) AppleWebKit/537.36 (KHTML, like Gecko) Chrome/138.0.0.0 Safari/537.36 Edg/138.0.0.0","WebKit","Edge","138.0.0.0","Windows","10.0","https://app.prolific.com/","en-GB,en;q=0.9,en-US;q=0.8,pt-BR;q=0.7,pt-PT;q=0.6,pt;q=0.5","6172d51173f6962cef6b18cf","683db9eb0562dbf637994deb","6880a74b67973b678b8675a6","2","1","6172d51173f6962cef6b18cf","2","1","2025-07-23T09:16:34.381Z","","","","","","","","","","","StressQ","","50","","","","","","","","","","","","","","","","","","","","","","","","","","","","",""
"2035","","<div style=""width:500px;"">
  <p>What best describes how you currently feel?</p>
  </div>","100","html-slider-response","33","286242","0.0-5.0-4.4","203","1","2025-07-23 09:11:47","1f75c3e559b7213887762d5229550c2b","178.166.40.254","Mozilla/5.0 (Windows NT 10.0; Win64; x64) AppleWebKit/537.36 (KHTML, like Gecko) Chrome/138.0.0.0 Safari/537.36 Edg/138.0.0.0","WebKit","Edge","138.0.0.0","Windows","10.0","https://app.prolific.com/","en-GB,en;q=0.9,en-US;q=0.8,pt-BR;q=0.7,pt-PT;q=0.6,pt;q=0.5","6172d51173f6962cef6b18cf","683db9eb0562dbf637994deb","6880a74b67973b678b8675a6","2","1","6172d51173f6962cef6b18cf","2","1","2025-07-23T09:16:36.417Z","","","","","","","","","","","MotivationQ","","50","","","","","","","","","","","","","","","","","","","","","","","","","","","","",""
"","","","","ctl-task-cpt","34","305269","0.0-5.0-0.5","203","1","2025-07-23 09:11:47","1f75c3e559b7213887762d5229550c2b","178.166.40.254","Mozilla/5.0 (Windows NT 10.0; Win64; x64) AppleWebKit/537.36 (KHTML, like Gecko) Chrome/138.0.0.0 Safari/537.36 Edg/138.0.0.0","WebKit","Edge","138.0.0.0","Windows","10.0","https://app.prolific.com/","en-GB,en;q=0.9,en-US;q=0.8,pt-BR;q=0.7,pt-PT;q=0.6,pt;q=0.5","6172d51173f6962cef6b18cf","683db9eb0562dbf637994deb","6880a74b67973b678b8675a6","2","1","6172d51173f6962cef6b18cf","2","1","2025-07-23T09:16:55.444Z","","","","","","","","","","","","","","win-only","2","g1:SE,g2:NW","0.5","6","0","287109.6","893.5","5896.1","16010.1","1","4","4","6","1","1","0","11","11","0.08333333333333333","1028.7","3000","1965","[""down"",""right""]","{""num_key_presses"":4,""num_perfect"":3,""num_errors"":1,""num_randdir"":0,""num_randdir_good_moves"":0,""num_whilered"":0,""num_whileblue"":1,""num_blue"":1,""num_good_moves"":4}","[426.57142857142856,425.47767857142856,0,425.57142857142856,425.47767857142856,112,425.57142857142856,425.47767857142856,217.2,421.57142857142856,425.47767857142856,317.5,337.57142857142856,366.47767857142856,417.4,314.57142857142856,355.47767857142856,517.6,365.57142857142856,427.47767857142856,621.6,494.57142857142856,543.4776785714286,721.6,676.5714285714286,699.4776785714286,822.6,737.5714285714286,761.4776785714286,927,744.5714285714286,765.4776785714286,1032.1,745.5714285714286,766.4776785714286,1136.9,749.5714285714286,766.4776785714286,1242,895.5714285714286,700.4776785714286,1347.9,1004.5714285714286,646.4776785714286,1452,1022.5714285714286,644.4776785714286,1552.3,1024.5714285714287,642.4776785714286,1657.1,1026.5714285714287,642.4776785714286,1757.5,1026.5714285714287,642.4776785714286,1861.8,1026.5714285714287,642.4776785714286,1967.4,1026.5714285714287,642.4776785714286,2071.6,1026.5714285714287,642.4776785714286,2171.8,1026.5714285714287,642.4776785714286,2271.8,1026.5714285714287,642.4776785714286,2372,1026.5714285714287,642.4776785714286,2472.2,1026.5714285714287,642.4776785714286,2577.2,1026.5714285714287,642.4776785714286,2677.3,1026.5714285714287,642.4776785714286,2777.3,1026.5714285714287,642.4776785714286,2877.5,1026.5714285714287,642.4776785714286,2977.5,1026.5714285714287,642.4776785714286,3077.6,1026.5714285714287,642.4776785714286,3181.7,1026.5714285714287,642.4776785714286,3281.7,1026.5714285714287,642.4776785714286,3382,1026.5714285714287,642.4776785714286,3482.1,1026.5714285714287,642.4776785714286,3586.7,1026.5714285714287,642.4776785714286,3687,1026.5714285714287,642.4776785714286,3787.1,1026.5714285714287,642.4776785714286,3887.2,1026.5714285714287,642.4776785714286,3987.5,1026.5714285714287,642.4776785714286,4087.5,1026.5714285714287,642.4776785714286,4191.6,1026.5714285714287,642.4776785714286,4291.6,1026.5714285714287,642.4776785714286,4391.7,1026.5714285714287,642.4776785714286,4496.8,1026.5714285714287,642.4776785714286,4603,1026.5714285714287,642.4776785714286,4707.1,1026.5714285714287,642.4776785714286,4811.8,1026.5714285714287,642.4776785714286,4911.8]","[1324.2,1324.2,1000,0,324.2,""smooth"",""down"",""down"",""good_move"",4393.3,3068.8,2758.1,1324.5,310.7,""smooth"",""down"",""down"",""good_move"",7036.7,2643.3,2326.2,4393.4,317.1,""while_blue"",""right"",""right"",""good_move"",10026.3,2989.3,2570.7,7037,418.6,""smooth"",""right"",""right"",""good_move""]","",""
"1918","","<div style=""width:500px;"">
  <p>What determined the result of this run?</p>
  </div>","100","html-slider-response","35","307188","0.0-5.0-1.5","203","1","2025-07-23 09:11:47","1f75c3e559b7213887762d5229550c2b","178.166.40.254","Mozilla/5.0 (Windows NT 10.0; Win64; x64) AppleWebKit/537.36 (KHTML, like Gecko) Chrome/138.0.0.0 Safari/537.36 Edg/138.0.0.0","WebKit","Edge","138.0.0.0","Windows","10.0","https://app.prolific.com/","en-GB,en;q=0.9,en-US;q=0.8,pt-BR;q=0.7,pt-PT;q=0.6,pt;q=0.5","6172d51173f6962cef6b18cf","683db9eb0562dbf637994deb","6880a74b67973b678b8675a6","2","1","6172d51173f6962cef6b18cf","2","1","2025-07-23T09:16:57.363Z","","","","","","","","","","","AttribQ","","50","","","","","","","","","","","","","","","","","","","","","","","","","","","","",""
"1639","","<div style=""width:500px;"">
  <p>How much control did you have over the ball?</p>
  </div>","100","html-slider-response","36","308828","0.0-5.0-2.5","203","1","2025-07-23 09:11:47","1f75c3e559b7213887762d5229550c2b","178.166.40.254","Mozilla/5.0 (Windows NT 10.0; Win64; x64) AppleWebKit/537.36 (KHTML, like Gecko) Chrome/138.0.0.0 Safari/537.36 Edg/138.0.0.0","WebKit","Edge","138.0.0.0","Windows","10.0","https://app.prolific.com/","en-GB,en;q=0.9,en-US;q=0.8,pt-BR;q=0.7,pt-PT;q=0.6,pt;q=0.5","6172d51173f6962cef6b18cf","683db9eb0562dbf637994deb","6880a74b67973b678b8675a6","2","1","6172d51173f6962cef6b18cf","2","1","2025-07-23T09:16:59.003Z","","","","","","","","","","","ControlQ","","50","","","","","","","","","","","","","","","","","","","","","","","","","","","","",""
"8497","","<div style=""width:500px;"">
  <p>How would you describe your current emotional state?</p>
  </div>","36","html-slider-response","37","317326","0.0-5.0-3.5","203","1","2025-07-23 09:11:47","1f75c3e559b7213887762d5229550c2b","178.166.40.254","Mozilla/5.0 (Windows NT 10.0; Win64; x64) AppleWebKit/537.36 (KHTML, like Gecko) Chrome/138.0.0.0 Safari/537.36 Edg/138.0.0.0","WebKit","Edge","138.0.0.0","Windows","10.0","https://app.prolific.com/","en-GB,en;q=0.9,en-US;q=0.8,pt-BR;q=0.7,pt-PT;q=0.6,pt;q=0.5","6172d51173f6962cef6b18cf","683db9eb0562dbf637994deb","6880a74b67973b678b8675a6","2","1","6172d51173f6962cef6b18cf","2","1","2025-07-23T09:17:07.501Z","","","","","","","","","","","StressQ","","50","","","","","","","","","","","","","","","","","","","","","","","","","","","","",""
"2905","","<div style=""width:500px;"">
  <p>What best describes how you currently feel?</p>
  </div>","100","html-slider-response","38","320232","0.0-5.0-4.5","203","1","2025-07-23 09:11:47","1f75c3e559b7213887762d5229550c2b","178.166.40.254","Mozilla/5.0 (Windows NT 10.0; Win64; x64) AppleWebKit/537.36 (KHTML, like Gecko) Chrome/138.0.0.0 Safari/537.36 Edg/138.0.0.0","WebKit","Edge","138.0.0.0","Windows","10.0","https://app.prolific.com/","en-GB,en;q=0.9,en-US;q=0.8,pt-BR;q=0.7,pt-PT;q=0.6,pt;q=0.5","6172d51173f6962cef6b18cf","683db9eb0562dbf637994deb","6880a74b67973b678b8675a6","2","1","6172d51173f6962cef6b18cf","2","1","2025-07-23T09:17:10.407Z","","","","","","","","","","","MotivationQ","","50","","","","","","","","","","","","","","","","","","","","","","","","","","","","",""
"","","","","ctl-task-cpt","39","369589","0.0-5.0-0.6","203","1","2025-07-23 09:11:47","1f75c3e559b7213887762d5229550c2b","178.166.40.254","Mozilla/5.0 (Windows NT 10.0; Win64; x64) AppleWebKit/537.36 (KHTML, like Gecko) Chrome/138.0.0.0 Safari/537.36 Edg/138.0.0.0","WebKit","Edge","138.0.0.0","Windows","10.0","https://app.prolific.com/","en-GB,en;q=0.9,en-US;q=0.8,pt-BR;q=0.7,pt-PT;q=0.6,pt;q=0.5","6172d51173f6962cef6b18cf","683db9eb0562dbf637994deb","6880a74b67973b678b8675a6","2","1","6172d51173f6962cef6b18cf","2","1","2025-07-23T09:17:59.764Z","","","","","","","","","","","","","","win-only","2","g1:SE,g2:NW","0.4","7","0","321099.8","735.3","5735.7","46340.6","1","4","8","6","1","-1","-2","9","11","0.06818181818181818","852.6","3000","-3015","[""down"",""right""]","{""num_key_presses"":9,""num_perfect"":4,""num_errors"":1,""num_randdir"":4,""num_randdir_good_moves"":0,""num_whilered"":0,""num_whileblue"":1,""num_blue"":5,""num_good_moves"":4}","[420.57142857142856,420.47767857142856,0,420.57142857142856,420.47767857142856,113.5,420.57142857142856,420.47767857142856,215.1,420.57142857142856,420.47767857142856,315.1,421.57142857142856,441.47767857142856,420.3,593.5714285714286,591.4776785714286,525.2,723.5714285714286,717.4776785714286,626.4,757.5714285714286,741.4776785714286,730.5,796.5714285714286,757.4776785714286,835.5,797.5714285714286,757.4776785714286,935.7,797.5714285714286,757.4776785714286,1035.7,855.5714285714286,749.4776785714286,1139.8,1033.5714285714287,721.4776785714286,1239.9,1055.5714285714287,717.4776785714286,1340.1,1055.5714285714287,717.4776785714286,1445.6,1055.5714285714287,717.4776785714286,1550.1,1055.5714285714287,717.4776785714286,1650.4,1055.5714285714287,717.4776785714286,1755,1055.5714285714287,717.4776785714286,1855.6,1055.5714285714287,717.4776785714286,1955.6,1055.5714285714287,717.4776785714286,2055.6,1055.5714285714287,717.4776785714286,2159.8,1055.5714285714287,717.4776785714286,2259.8,1055.5714285714287,717.4776785714286,2359.9,1055.5714285714287,717.4776785714286,2460.1,1055.5714285714287,717.4776785714286,2560.2,1055.5714285714287,717.4776785714286,2665.2,1055.5714285714287,717.4776785714286,2765.4,1055.5714285714287,717.4776785714286,2865.5,1055.5714285714287,717.4776785714286,2965.6,1055.5714285714287,717.4776785714286,3065.6,1055.5714285714287,717.4776785714286,3165.7,1055.5714285714287,717.4776785714286,3270.3,1055.5714285714287,717.4776785714286,3370.4,1055.5714285714287,717.4776785714286,3475,1055.5714285714287,717.4776785714286,3575,1055.5714285714287,717.4776785714286,3675,1055.5714285714287,717.4776785714286,3775.2,1055.5714285714287,717.4776785714286,3875.3,1055.5714285714287,717.4776785714286,3975.3,1055.5714285714287,717.4776785714286,4075.4,1055.5714285714287,717.4776785714286,4180,1055.5714285714287,717.4776785714286,4280.2,1055.5714285714287,717.4776785714286,4380.2,1055.5714285714287,717.4776785714286,4485.3,1055.5714285714287,717.4776785714286,4585.5,1055.5714285714287,717.4776785714286,4690,1055.5714285714287,717.4776785714286,4790.1,1055.5714285714287,717.4776785714286,4894.9,1055.5714285714287,717.4776785714286,4995.3]","[1372.3,1372.3,1000,0,372.3,""oops"",""right"",""up"",""bad_move"",12444.7,11072.2,3193.1,8960,291.6,""oops"",""down"",""left"",""bad_move"",17949.5,5504.5,2036.5,15495.1,417.9,""smooth"",""down"",""down"",""good_move"",20726.6,2777,2458.6,17949.6,318.4,""smooth"",""down"",""down"",""good_move"",23683.8,2957.1,2633.1,20726.7,324,""oops"",""down"",""left"",""bad_move"",26196.4,2512.3,2235.5,23684.1,276.8,""while_blue"",""down"",""left"",""bad_move"",29480.3,3283.7,2840.6,26196.6,443.1,""smooth"",""down"",""down"",""good_move"",32195.2,2714.7,2373,29480.5,341.7,""oops"",""right"",""left"",""bad_move"",37898.1,5702.8,1561.5,35899.8,436.9,""smooth"",""right"",""right"",""good_move""]","",""
"4002","","<div style=""width:500px;"">
  <p>What determined the result of this run?</p>
  </div>","12","html-slider-response","40","373592","0.0-5.0-1.6","203","1","2025-07-23 09:11:47","1f75c3e559b7213887762d5229550c2b","178.166.40.254","Mozilla/5.0 (Windows NT 10.0; Win64; x64) AppleWebKit/537.36 (KHTML, like Gecko) Chrome/138.0.0.0 Safari/537.36 Edg/138.0.0.0","WebKit","Edge","138.0.0.0","Windows","10.0","https://app.prolific.com/","en-GB,en;q=0.9,en-US;q=0.8,pt-BR;q=0.7,pt-PT;q=0.6,pt;q=0.5","6172d51173f6962cef6b18cf","683db9eb0562dbf637994deb","6880a74b67973b678b8675a6","2","1","6172d51173f6962cef6b18cf","2","1","2025-07-23T09:18:03.767Z","","","","","","","","","","","AttribQ","","50","","","","","","","","","","","","","","","","","","","","","","","","","","","","",""
"3568","","<div style=""width:500px;"">
  <p>How much control did you have over the ball?</p>
  </div>","0","html-slider-response","41","377161","0.0-5.0-2.6","203","1","2025-07-23 09:11:47","1f75c3e559b7213887762d5229550c2b","178.166.40.254","Mozilla/5.0 (Windows NT 10.0; Win64; x64) AppleWebKit/537.36 (KHTML, like Gecko) Chrome/138.0.0.0 Safari/537.36 Edg/138.0.0.0","WebKit","Edge","138.0.0.0","Windows","10.0","https://app.prolific.com/","en-GB,en;q=0.9,en-US;q=0.8,pt-BR;q=0.7,pt-PT;q=0.6,pt;q=0.5","6172d51173f6962cef6b18cf","683db9eb0562dbf637994deb","6880a74b67973b678b8675a6","2","1","6172d51173f6962cef6b18cf","2","1","2025-07-23T09:18:07.336Z","","","","","","","","","","","ControlQ","","50","","","","","","","","","","","","","","","","","","","","","","","","","","","","",""
"2551","","<div style=""width:500px;"">
  <p>How would you describe your current emotional state?</p>
  </div>","69","html-slider-response","42","379712","0.0-5.0-3.6","203","1","2025-07-23 09:11:47","1f75c3e559b7213887762d5229550c2b","178.166.40.254","Mozilla/5.0 (Windows NT 10.0; Win64; x64) AppleWebKit/537.36 (KHTML, like Gecko) Chrome/138.0.0.0 Safari/537.36 Edg/138.0.0.0","WebKit","Edge","138.0.0.0","Windows","10.0","https://app.prolific.com/","en-GB,en;q=0.9,en-US;q=0.8,pt-BR;q=0.7,pt-PT;q=0.6,pt;q=0.5","6172d51173f6962cef6b18cf","683db9eb0562dbf637994deb","6880a74b67973b678b8675a6","2","1","6172d51173f6962cef6b18cf","2","1","2025-07-23T09:18:09.887Z","","","","","","","","","","","StressQ","","50","","","","","","","","","","","","","","","","","","","","","","","","","","","","",""
"3384","","<div style=""width:500px;"">
  <p>What best describes how you currently feel?</p>
  </div>","81","html-slider-response","43","383098","0.0-5.0-4.6","203","1","2025-07-23 09:11:47","1f75c3e559b7213887762d5229550c2b","178.166.40.254","Mozilla/5.0 (Windows NT 10.0; Win64; x64) AppleWebKit/537.36 (KHTML, like Gecko) Chrome/138.0.0.0 Safari/537.36 Edg/138.0.0.0","WebKit","Edge","138.0.0.0","Windows","10.0","https://app.prolific.com/","en-GB,en;q=0.9,en-US;q=0.8,pt-BR;q=0.7,pt-PT;q=0.6,pt;q=0.5","6172d51173f6962cef6b18cf","683db9eb0562dbf637994deb","6880a74b67973b678b8675a6","2","1","6172d51173f6962cef6b18cf","2","1","2025-07-23T09:18:13.273Z","","","","","","","","","","","MotivationQ","","50","","","","","","","","","","","","","","","","","","","","","","","","","","","","",""
"","","","","ctl-task-cpt","44","443060","0.0-5.0-0.7","203","1","2025-07-23 09:11:47","1f75c3e559b7213887762d5229550c2b","178.166.40.254","Mozilla/5.0 (Windows NT 10.0; Win64; x64) AppleWebKit/537.36 (KHTML, like Gecko) Chrome/138.0.0.0 Safari/537.36 Edg/138.0.0.0","WebKit","Edge","138.0.0.0","Windows","10.0","https://app.prolific.com/","en-GB,en;q=0.9,en-US;q=0.8,pt-BR;q=0.7,pt-PT;q=0.6,pt;q=0.5","6172d51173f6962cef6b18cf","683db9eb0562dbf637994deb","6880a74b67973b678b8675a6","2","1","6172d51173f6962cef6b18cf","2","1","2025-07-23T09:19:13.235Z","","","","","","","","","","","","","","win-only","1","g1:NE,g2:SW","0.3","8","0","383965.4","932","5935.4","56946.2","1","4","4","6","2","-4","-5","4","9","0.030303030303030304","1570.2","3000","-3015","[""down"",""left""]","{""num_key_presses"":9,""num_perfect"":3,""num_errors"":1,""num_randdir"":5,""num_randdir_good_moves"":1,""num_whilered"":0,""num_whileblue"":1,""num_blue"":8,""num_good_moves"":5}","[416.57142857142856,424.47767857142856,0.1,416.57142857142856,424.47767857142856,101.7,416.57142857142856,424.47767857142856,203.2,413.57142857142856,424.47767857142856,303.3,413.57142857142856,424.47767857142856,408.2,413.57142857142856,424.47767857142856,508.5,413.57142857142856,424.47767857142856,613.2,413.57142857142856,424.47767857142856,713.5,420.57142857142856,418.47767857142856,813.7,431.57142857142856,408.47767857142856,918.8,345.57142857142856,486.47767857142856,1023.2,207.57142857142856,659.4776785714286,1123.2,152.57142857142856,703.4776785714286,1223.2,151.57142857142856,704.4776785714286,1323.3,107.57142857142857,737.4776785714286,1423.4,82.57142857142857,770.4776785714286,1523.5,82.57142857142857,770.4776785714286,1628.3,82.57142857142857,770.4776785714286,1728.4,82.57142857142857,770.4776785714286,1833.2,135.57142857142856,770.4776785714286,1933.4,579.5714285714286,742.4776785714286,2033.8,903.5714285714286,682.4776785714286,2138.3,908.5714285714286,679.4776785714286,2238.9,908.5714285714286,679.4776785714286,2339.2,908.5714285714286,679.4776785714286,2443.3,908.5714285714286,679.4776785714286,2543.3,908.5714285714286,679.4776785714286,2648.1,908.5714285714286,679.4776785714286,2748.2,908.5714285714286,679.4776785714286,2848.7,908.5714285714286,679.4776785714286,2953.5,908.5714285714286,679.4776785714286,3058.5,908.5714285714286,679.4776785714286,3158.7,908.5714285714286,679.4776785714286,3258.9,908.5714285714286,679.4776785714286,3359,908.5714285714286,679.4776785714286,3459.2,908.5714285714286,679.4776785714286,3563.2,908.5714285714286,679.4776785714286,3663.3,908.5714285714286,679.4776785714286,3763.3,908.5714285714286,679.4776785714286,3868.5,908.5714285714286,679.4776785714286,3968.6,908.5714285714286,679.4776785714286,4068.7,908.5714285714286,679.4776785714286,4173.6,908.5714285714286,679.4776785714286,4276.5,908.5714285714286,679.4776785714286,4378.2,908.5714285714286,679.4776785714286,4478.2,908.5714285714286,679.4776785714286,4583.1,908.5714285714286,679.4776785714286,4683.3,908.5714285714286,679.4776785714286,4783.3,908.5714285714286,679.4776785714286,4888.4,908.5714285714286,679.4776785714286,4993.5]","[5098.9,5098.9,2677.1,2004.9,416.9,""oops"",""down"",""up"",""bad_move"",11639.3,6540.2,2579.8,8775.4,284.1,""oops"",""down"",""up"",""bad_move"",14265.8,2626.3,2216.6,11639.5,409.8,""oops"",""down"",""right"",""bad_move"",17055.8,2789.8,2505,14266,284.8,""smooth"",""down"",""down"",""good_move"",20177.8,3121.7,2751.8,17056.1,369.9,""oops"",""down"",""down"",""good_move"",22767.3,2589.3,2346.7,20178,242.6,""while_blue"",""down"",""left"",""good_move"",25082.8,2315.2,2029.1,22767.6,286.1,""smooth"",""down"",""down"",""good_move"",31362,6279.1,2094.6,28985,282.4,""smooth"",""down"",""down"",""good_move"",43674.3,12312.1,2314.5,40959.9,399.9,""oops"",""down"",""right"",""bad_move""]","",""
"3726","","<div style=""width:500px;"">
  <p>What determined the result of this run?</p>
  </div>","0","html-slider-response","45","446787","0.0-5.0-1.7","203","1","2025-07-23 09:11:47","1f75c3e559b7213887762d5229550c2b","178.166.40.254","Mozilla/5.0 (Windows NT 10.0; Win64; x64) AppleWebKit/537.36 (KHTML, like Gecko) Chrome/138.0.0.0 Safari/537.36 Edg/138.0.0.0","WebKit","Edge","138.0.0.0","Windows","10.0","https://app.prolific.com/","en-GB,en;q=0.9,en-US;q=0.8,pt-BR;q=0.7,pt-PT;q=0.6,pt;q=0.5","6172d51173f6962cef6b18cf","683db9eb0562dbf637994deb","6880a74b67973b678b8675a6","2","1","6172d51173f6962cef6b18cf","2","1","2025-07-23T09:19:16.962Z","","","","","","","","","","","AttribQ","","50","","","","","","","","","","","","","","","","","","","","","","","","","","","","",""
"2537","","<div style=""width:500px;"">
  <p>How much control did you have over the ball?</p>
  </div>","16","html-slider-response","46","449324","0.0-5.0-2.7","203","1","2025-07-23 09:11:47","1f75c3e559b7213887762d5229550c2b","178.166.40.254","Mozilla/5.0 (Windows NT 10.0; Win64; x64) AppleWebKit/537.36 (KHTML, like Gecko) Chrome/138.0.0.0 Safari/537.36 Edg/138.0.0.0","WebKit","Edge","138.0.0.0","Windows","10.0","https://app.prolific.com/","en-GB,en;q=0.9,en-US;q=0.8,pt-BR;q=0.7,pt-PT;q=0.6,pt;q=0.5","6172d51173f6962cef6b18cf","683db9eb0562dbf637994deb","6880a74b67973b678b8675a6","2","1","6172d51173f6962cef6b18cf","2","1","2025-07-23T09:19:19.499Z","","","","","","","","","","","ControlQ","","50","","","","","","","","","","","","","","","","","","","","","","","","","","","","",""
"1984","","<div style=""width:500px;"">
  <p>How would you describe your current emotional state?</p>
  </div>","79","html-slider-response","47","451309","0.0-5.0-3.7","203","1","2025-07-23 09:11:47","1f75c3e559b7213887762d5229550c2b","178.166.40.254","Mozilla/5.0 (Windows NT 10.0; Win64; x64) AppleWebKit/537.36 (KHTML, like Gecko) Chrome/138.0.0.0 Safari/537.36 Edg/138.0.0.0","WebKit","Edge","138.0.0.0","Windows","10.0","https://app.prolific.com/","en-GB,en;q=0.9,en-US;q=0.8,pt-BR;q=0.7,pt-PT;q=0.6,pt;q=0.5","6172d51173f6962cef6b18cf","683db9eb0562dbf637994deb","6880a74b67973b678b8675a6","2","1","6172d51173f6962cef6b18cf","2","1","2025-07-23T09:19:21.484Z","","","","","","","","","","","StressQ","","50","","","","","","","","","","","","","","","","","","","","","","","","","","","","",""
"4302","","<div style=""width:500px;"">
  <p>What best describes how you currently feel?</p>
  </div>","70","html-slider-response","48","455612","0.0-5.0-4.7","203","1","2025-07-23 09:11:47","1f75c3e559b7213887762d5229550c2b","178.166.40.254","Mozilla/5.0 (Windows NT 10.0; Win64; x64) AppleWebKit/537.36 (KHTML, like Gecko) Chrome/138.0.0.0 Safari/537.36 Edg/138.0.0.0","WebKit","Edge","138.0.0.0","Windows","10.0","https://app.prolific.com/","en-GB,en;q=0.9,en-US;q=0.8,pt-BR;q=0.7,pt-PT;q=0.6,pt;q=0.5","6172d51173f6962cef6b18cf","683db9eb0562dbf637994deb","6880a74b67973b678b8675a6","2","1","6172d51173f6962cef6b18cf","2","1","2025-07-23T09:19:25.787Z","","","","","","","","","","","MotivationQ","","50","","","","","","","","","","","","","","","","","","","","","","","","","","","","",""
"","","","","ctl-task-cpt","49","497789","0.0-5.0-0.8","203","1","2025-07-23 09:11:47","1f75c3e559b7213887762d5229550c2b","178.166.40.254","Mozilla/5.0 (Windows NT 10.0; Win64; x64) AppleWebKit/537.36 (KHTML, like Gecko) Chrome/138.0.0.0 Safari/537.36 Edg/138.0.0.0","WebKit","Edge","138.0.0.0","Windows","10.0","https://app.prolific.com/","en-GB,en;q=0.9,en-US;q=0.8,pt-BR;q=0.7,pt-PT;q=0.6,pt;q=0.5","6172d51173f6962cef6b18cf","683db9eb0562dbf637994deb","6880a74b67973b678b8675a6","2","1","6172d51173f6962cef6b18cf","2","1","2025-07-23T09:20:07.964Z","","","","","","","","","","","","","","win-only","0","g1:NW,g2:SE","0.2","9","0","456480.1","842.4","5845.6","39161","1","4","8","6","2","-8","-9","0","4","0","2099.9","3000","-3015","[""down"",""right""]","{""num_key_presses"":10,""num_perfect"":2,""num_errors"":1,""num_randdir"":7,""num_randdir_good_moves"":4,""num_whilered"":0,""num_whileblue"":1,""num_blue"":2,""num_good_moves"":7}","[419.57142857142856,408.47767857142856,0.2,419.57142857142856,408.47767857142856,109.3,419.57142857142856,408.47767857142856,213.5,419.57142857142856,408.47767857142856,313.5,419.57142857142856,408.47767857142856,417.9,419.57142857142856,408.47767857142856,518.6,419.57142857142856,408.47767857142856,623,419.57142857142856,408.47767857142856,723.1,417.57142857142856,408.47767857142856,828,271.57142857142856,289.47767857142856,928.3,241.57142857142856,267.47767857142856,1033.1,170.57142857142856,186.47767857142856,1133.4,132.57142857142856,122.47767857142857,1233.5,132.57142857142856,120.47767857142857,1338.2,111.57142857142857,114.47767857142857,1438.3,112.57142857142857,134.47767857142856,1543.1,403.57142857142856,480.47767857142856,1643.4,597.5714285714286,652.4776785714286,1748.2,653.5714285714286,723.4776785714286,1848.1,691.5714285714286,751.4776785714286,1948.2,729.5714285714286,758.4776785714286,2048.5,733.5714285714286,758.4776785714286,2153.3,733.5714285714286,758.4776785714286,2258.4,742.5714285714286,759.4776785714286,2358.5,1016.5714285714286,687.4776785714286,2462.9,1114.5714285714287,643.4776785714286,2563.1,1114.5714285714287,642.4776785714286,2667.7,1114.5714285714287,642.4776785714286,2767.8,1114.5714285714287,642.4776785714286,2867.9,1114.5714285714287,642.4776785714286,2973,1114.5714285714287,642.4776785714286,3073.3,1114.5714285714287,642.4776785714286,3173.5,1114.5714285714287,642.4776785714286,3278.3,1114.5714285714287,642.4776785714286,3378.4,1114.5714285714287,642.4776785714286,3478.4,1114.5714285714287,642.4776785714286,3583,1114.5714285714287,642.4776785714286,3687.7,1114.5714285714287,642.4776785714286,3787.8,1114.5714285714287,642.4776785714286,3887.9,1114.5714285714287,642.4776785714286,3988.3,1114.5714285714287,642.4776785714286,4093.2,1114.5714285714287,642.4776785714286,4193.7,1114.5714285714287,642.4776785714286,4298.1,1114.5714285714287,642.4776785714286,4398.6,1114.5714285714287,642.4776785714286,4503.2,1114.5714285714287,642.4776785714286,4603.5,1114.5714285714287,642.4776785714286,4708.1,1114.5714285714287,642.4776785714286,4808.1,1114.5714285714287,642.4776785714286,4912.9]","[1420.8,1420.8,1000,0,420.8,""oops"",""down"",""left"",""bad_move"",4982.8,3561.7,3211.4,1421.1,350.3,""oops"",""down"",""right"",""good_move"",7631.4,2648.3,2307.9,4983.1,340.4,""smooth"",""down"",""down"",""good_move"",10676.8,3045.2,2769.9,7631.6,275.3,""oops"",""down"",""left"",""bad_move"",13786.3,3109.3,2858.6,10677,250.7,""oops"",""down"",""left"",""bad_move"",16474.9,2688.4,2366.1,13786.5,322.3,""smooth"",""down"",""down"",""good_move"",19579.2,3104.1,2820.3,16475.1,283.8,""oops"",""down"",""down"",""good_move"",22015.8,2436.5,2170.7,19579.4,265.7,""while_blue"",""right"",""right"",""good_move"",28193.7,6177.6,2140.4,25564.8,488.5,""oops"",""right"",""right"",""good_move"",31115.4,2921.5,2653.6,28193.9,267.9,""oops"",""right"",""right"",""good_move""]","",""
"2411","","<div style=""width:500px;"">
  <p>What determined the result of this run?</p>
  </div>","0","html-slider-response","50","500201","0.0-5.0-1.8","203","1","2025-07-23 09:11:47","1f75c3e559b7213887762d5229550c2b","178.166.40.254","Mozilla/5.0 (Windows NT 10.0; Win64; x64) AppleWebKit/537.36 (KHTML, like Gecko) Chrome/138.0.0.0 Safari/537.36 Edg/138.0.0.0","WebKit","Edge","138.0.0.0","Windows","10.0","https://app.prolific.com/","en-GB,en;q=0.9,en-US;q=0.8,pt-BR;q=0.7,pt-PT;q=0.6,pt;q=0.5","6172d51173f6962cef6b18cf","683db9eb0562dbf637994deb","6880a74b67973b678b8675a6","2","1","6172d51173f6962cef6b18cf","2","1","2025-07-23T09:20:10.376Z","","","","","","","","","","","AttribQ","","50","","","","","","","","","","","","","","","","","","","","","","","","","","","","",""
"2332","","<div style=""width:500px;"">
  <p>How much control did you have over the ball?</p>
  </div>","0","html-slider-response","51","502534","0.0-5.0-2.8","203","1","2025-07-23 09:11:47","1f75c3e559b7213887762d5229550c2b","178.166.40.254","Mozilla/5.0 (Windows NT 10.0; Win64; x64) AppleWebKit/537.36 (KHTML, like Gecko) Chrome/138.0.0.0 Safari/537.36 Edg/138.0.0.0","WebKit","Edge","138.0.0.0","Windows","10.0","https://app.prolific.com/","en-GB,en;q=0.9,en-US;q=0.8,pt-BR;q=0.7,pt-PT;q=0.6,pt;q=0.5","6172d51173f6962cef6b18cf","683db9eb0562dbf637994deb","6880a74b67973b678b8675a6","2","1","6172d51173f6962cef6b18cf","2","1","2025-07-23T09:20:12.709Z","","","","","","","","","","","ControlQ","","50","","","","","","","","","","","","","","","","","","","","","","","","","","","","",""
"1809","","<div style=""width:500px;"">
  <p>How would you describe your current emotional state?</p>
  </div>","100","html-slider-response","52","504344","0.0-5.0-3.8","203","1","2025-07-23 09:11:47","1f75c3e559b7213887762d5229550c2b","178.166.40.254","Mozilla/5.0 (Windows NT 10.0; Win64; x64) AppleWebKit/537.36 (KHTML, like Gecko) Chrome/138.0.0.0 Safari/537.36 Edg/138.0.0.0","WebKit","Edge","138.0.0.0","Windows","10.0","https://app.prolific.com/","en-GB,en;q=0.9,en-US;q=0.8,pt-BR;q=0.7,pt-PT;q=0.6,pt;q=0.5","6172d51173f6962cef6b18cf","683db9eb0562dbf637994deb","6880a74b67973b678b8675a6","2","1","6172d51173f6962cef6b18cf","2","1","2025-07-23T09:20:14.519Z","","","","","","","","","","","StressQ","","50","","","","","","","","","","","","","","","","","","","","","","","","","","","","",""
"4110","","<div style=""width:500px;"">
  <p>What best describes how you currently feel?</p>
  </div>","40","html-slider-response","53","508455","0.0-5.0-4.8","203","1","2025-07-23 09:11:47","1f75c3e559b7213887762d5229550c2b","178.166.40.254","Mozilla/5.0 (Windows NT 10.0; Win64; x64) AppleWebKit/537.36 (KHTML, like Gecko) Chrome/138.0.0.0 Safari/537.36 Edg/138.0.0.0","WebKit","Edge","138.0.0.0","Windows","10.0","https://app.prolific.com/","en-GB,en;q=0.9,en-US;q=0.8,pt-BR;q=0.7,pt-PT;q=0.6,pt;q=0.5","6172d51173f6962cef6b18cf","683db9eb0562dbf637994deb","6880a74b67973b678b8675a6","2","1","6172d51173f6962cef6b18cf","2","1","2025-07-23T09:20:18.630Z","","","","","","","","","","","MotivationQ","","50","","","","","","","","","","","","","","","","","","","","","","","","","","","","",""
"","","","","ctl-task-cpt","54","526332","0.0-5.0-0.9","203","1","2025-07-23 09:11:47","1f75c3e559b7213887762d5229550c2b","178.166.40.254","Mozilla/5.0 (Windows NT 10.0; Win64; x64) AppleWebKit/537.36 (KHTML, like Gecko) Chrome/138.0.0.0 Safari/537.36 Edg/138.0.0.0","WebKit","Edge","138.0.0.0","Windows","10.0","https://app.prolific.com/","en-GB,en;q=0.9,en-US;q=0.8,pt-BR;q=0.7,pt-PT;q=0.6,pt;q=0.5","6172d51173f6962cef6b18cf","683db9eb0562dbf637994deb","6880a74b67973b678b8675a6","2","1","6172d51173f6962cef6b18cf","2","1","2025-07-23T09:20:36.507Z","","","","","","","","","","","","","","win-only","2","g1:SE,g2:NW","0.4","10","0","509322.5","1016.1","6020.7","14860.6","1","4","4","6","1","1","1","1","0","0.007575757575757576","1414.1","3000","1630","[""down"",""right""]","{""num_key_presses"":4,""num_perfect"":2,""num_errors"":0,""num_randdir"":2,""num_randdir_good_moves"":2,""num_whilered"":0,""num_whileblue"":0,""num_blue"":0,""num_good_moves"":4}","[422.57142857142856,414.47767857142856,0.2,422.57142857142856,414.47767857142856,100,422.57142857142856,414.47767857142856,204.1,421.57142857142856,416.47767857142856,304.3,432.57142857142856,433.47767857142856,404.3,491.57142857142856,481.47767857142856,504.4,484.57142857142856,469.47767857142856,610.9,470.57142857142856,456.47767857142856,714.6,467.57142857142856,464.47767857142856,814.7,477.57142857142856,510.47767857142856,914.9,551.5714285714286,601.4776785714286,1015,636.5714285714286,716.4776785714286,1119.1,766.5714285714286,824.4776785714286,1219.2,787.5714285714286,831.4776785714286,1319.9,787.5714285714286,831.4776785714286,1425.8,787.5714285714286,831.4776785714286,1527.6,787.5714285714286,831.4776785714286,1629.2,816.5714285714286,807.4776785714286,1730.3,948.5714285714286,714.4776785714286,1834.4,986.5714285714286,668.4776785714286,1934.5,986.5714285714286,668.4776785714286,2034.5,986.5714285714286,668.4776785714286,2134.6,986.5714285714286,668.4776785714286,2234.6,986.5714285714286,668.4776785714286,2334.7,986.5714285714286,668.4776785714286,2434.8,986.5714285714286,668.4776785714286,2535,986.5714285714286,668.4776785714286,2635,986.5714285714286,668.4776785714286,2739,986.5714285714286,668.4776785714286,2839.9,986.5714285714286,668.4776785714286,2940,986.5714285714286,668.4776785714286,3044.1,986.5714285714286,668.4776785714286,3144.2,986.5714285714286,668.4776785714286,3245.1,986.5714285714286,668.4776785714286,3349.9,986.5714285714286,668.4776785714286,3450,986.5714285714286,668.4776785714286,3554.1,986.5714285714286,668.4776785714286,3654.2,986.5714285714286,668.4776785714286,3754.6,986.5714285714286,668.4776785714286,3854.7,986.5714285714286,668.4776785714286,3954.8,986.5714285714286,668.4776785714286,4054.9,986.5714285714286,668.4776785714286,4155,986.5714285714286,668.4776785714286,4255.1,986.5714285714286,668.4776785714286,4359.2,986.5714285714286,668.4776785714286,4465.1,986.5714285714286,668.4776785714286,4569.2,986.5714285714286,668.4776785714286,4669.2,986.5714285714286,668.4776785714286,4769.4,986.5714285714286,668.4776785714286,4869.5,986.5714285714286,668.4776785714286,4969.5]","[1356.7,1356.8,1000,0,356.8,""smooth"",""down"",""down"",""good_move"",4033.3,2676.3,2281.7,1357,394.6,""oops"",""down"",""down"",""good_move"",6436.3,2402.9,2070.5,4033.4,332.4,""oops"",""right"",""right"",""good_move"",8747.3,2310.8,2008,6436.5,302.8,""smooth"",""right"",""right"",""good_move""]","",""
"4000","","<div style=""width:500px;"">
  <p>What determined the result of this run?</p>
  </div>","0","html-slider-response","55","530332","0.0-5.0-1.9","203","1","2025-07-23 09:11:47","1f75c3e559b7213887762d5229550c2b","178.166.40.254","Mozilla/5.0 (Windows NT 10.0; Win64; x64) AppleWebKit/537.36 (KHTML, like Gecko) Chrome/138.0.0.0 Safari/537.36 Edg/138.0.0.0","WebKit","Edge","138.0.0.0","Windows","10.0","https://app.prolific.com/","en-GB,en;q=0.9,en-US;q=0.8,pt-BR;q=0.7,pt-PT;q=0.6,pt;q=0.5","6172d51173f6962cef6b18cf","683db9eb0562dbf637994deb","6880a74b67973b678b8675a6","2","1","6172d51173f6962cef6b18cf","2","1","2025-07-23T09:20:40.508Z","","","","","","","","","","","AttribQ","","50","","","","","","","","","","","","","","","","","","","","","","","","","","","","",""
"4082","","<div style=""width:500px;"">
  <p>How much control did you have over the ball?</p>
  </div>","70","html-slider-response","56","534415","0.0-5.0-2.9","203","1","2025-07-23 09:11:47","1f75c3e559b7213887762d5229550c2b","178.166.40.254","Mozilla/5.0 (Windows NT 10.0; Win64; x64) AppleWebKit/537.36 (KHTML, like Gecko) Chrome/138.0.0.0 Safari/537.36 Edg/138.0.0.0","WebKit","Edge","138.0.0.0","Windows","10.0","https://app.prolific.com/","en-GB,en;q=0.9,en-US;q=0.8,pt-BR;q=0.7,pt-PT;q=0.6,pt;q=0.5","6172d51173f6962cef6b18cf","683db9eb0562dbf637994deb","6880a74b67973b678b8675a6","2","1","6172d51173f6962cef6b18cf","2","1","2025-07-23T09:20:44.590Z","","","","","","","","","","","ControlQ","","50","","","","","","","","","","","","","","","","","","","","","","","","","","","","",""
"1921","","<div style=""width:500px;"">
  <p>How would you describe your current emotional state?</p>
  </div>","30","html-slider-response","57","536337","0.0-5.0-3.9","203","1","2025-07-23 09:11:47","1f75c3e559b7213887762d5229550c2b","178.166.40.254","Mozilla/5.0 (Windows NT 10.0; Win64; x64) AppleWebKit/537.36 (KHTML, like Gecko) Chrome/138.0.0.0 Safari/537.36 Edg/138.0.0.0","WebKit","Edge","138.0.0.0","Windows","10.0","https://app.prolific.com/","en-GB,en;q=0.9,en-US;q=0.8,pt-BR;q=0.7,pt-PT;q=0.6,pt;q=0.5","6172d51173f6962cef6b18cf","683db9eb0562dbf637994deb","6880a74b67973b678b8675a6","2","1","6172d51173f6962cef6b18cf","2","1","2025-07-23T09:20:46.512Z","","","","","","","","","","","StressQ","","50","","","","","","","","","","","","","","","","","","","","","","","","","","","","",""
"2288","","<div style=""width:500px;"">
  <p>What best describes how you currently feel?</p>
  </div>","89","html-slider-response","58","538626","0.0-5.0-4.9","203","1","2025-07-23 09:11:47","1f75c3e559b7213887762d5229550c2b","178.166.40.254","Mozilla/5.0 (Windows NT 10.0; Win64; x64) AppleWebKit/537.36 (KHTML, like Gecko) Chrome/138.0.0.0 Safari/537.36 Edg/138.0.0.0","WebKit","Edge","138.0.0.0","Windows","10.0","https://app.prolific.com/","en-GB,en;q=0.9,en-US;q=0.8,pt-BR;q=0.7,pt-PT;q=0.6,pt;q=0.5","6172d51173f6962cef6b18cf","683db9eb0562dbf637994deb","6880a74b67973b678b8675a6","2","1","6172d51173f6962cef6b18cf","2","1","2025-07-23T09:20:48.801Z","","","","","","","","","","","MotivationQ","","50","","","","","","","","","","","","","","","","","","","","","","","","","","","","",""
"","","","","ctl-task-cpt","59","570849","0.0-5.0-0.10","203","1","2025-07-23 09:11:47","1f75c3e559b7213887762d5229550c2b","178.166.40.254","Mozilla/5.0 (Windows NT 10.0; Win64; x64) AppleWebKit/537.36 (KHTML, like Gecko) Chrome/138.0.0.0 Safari/537.36 Edg/138.0.0.0","WebKit","Edge","138.0.0.0","Windows","10.0","https://app.prolific.com/","en-GB,en;q=0.9,en-US;q=0.8,pt-BR;q=0.7,pt-PT;q=0.6,pt;q=0.5","6172d51173f6962cef6b18cf","683db9eb0562dbf637994deb","6880a74b67973b678b8675a6","2","1","6172d51173f6962cef6b18cf","2","1","2025-07-23T09:21:21.024Z","","","","","","","","","","","","","","win-only","2","g1:SE,g2:NW","0.5","11","0","539493.6","687.6","5690.5","29205.5","1","4","8","6","2","8","8","9","1","0.06818181818181818","1412.7","3000","310","[""left"",""up""]","{""num_key_presses"":8,""num_perfect"":5,""num_errors"":0,""num_randdir"":3,""num_randdir_good_moves"":2,""num_whilered"":0,""num_whileblue"":0,""num_blue"":1,""num_good_moves"":7}","[420.57142857142856,418.47767857142856,0.2,420.57142857142856,418.47767857142856,102.6,420.57142857142856,418.47767857142856,202.6,420.57142857142856,418.47767857142856,302.8,417.57142857142856,445.47767857142856,402.8,546.5714285714286,597.4776785714286,503.2,627.5714285714286,645.4776785714286,608.2,652.5714285714286,682.4776785714286,712.8,701.5714285714286,733.4776785714286,818.6,720.5714285714286,743.4776785714286,918.6,617.5714285714286,654.4776785714286,1022.7,167.57142857142856,317.47767857142856,1122.7,62.57142857142857,124.47767857142857,1222.8,40.57142857142857,84.47767857142857,1322.9,39.57142857142857,82.47767857142857,1423,38.57142857142857,82.47767857142857,1523.1,-18.42857142857143,96.47767857142857,1623.2,-141.42857142857144,128.47767857142856,1729.3,-142.42857142857144,130.47767857142856,1832.8,-127.42857142857143,134.47767857142856,1938.6,-127.42857142857143,134.47767857142856,2042.6,-127.42857142857143,134.47767857142856,2142.9,-127.42857142857143,134.47767857142856,2243,-127.42857142857143,134.47767857142856,2343.1,-127.42857142857143,134.47767857142856,2443.1,-127.42857142857143,134.47767857142856,2543.2,-127.42857142857143,134.47767857142856,2647.6,-127.42857142857143,134.47767857142856,2747.8,-127.42857142857143,134.47767857142856,2853.5,-127.42857142857143,134.47767857142856,2953.8,-127.42857142857143,134.47767857142856,3057.8,-127.42857142857143,134.47767857142856,3157.8,-127.42857142857143,134.47767857142856,3257.9,-127.42857142857143,134.47767857142856,3358,-127.42857142857143,134.47767857142856,3458.2,-127.42857142857143,134.47767857142856,3558.2,-127.42857142857143,134.47767857142856,3658.3,-127.42857142857143,134.47767857142856,3762.6,-127.42857142857143,134.47767857142856,3862.6,-127.42857142857143,134.47767857142856,3962.8,-127.42857142857143,134.47767857142856,4067.8,-127.42857142857143,134.47767857142856,4172.8,-127.42857142857143,134.47767857142856,4272.8,-127.42857142857143,134.47767857142856,4373,-127.42857142857143,134.47767857142856,4473,-127.42857142857143,134.47767857142856,4573.1,-127.42857142857143,134.47767857142856,4673.2,-127.42857142857143,134.47767857142856,4777.5,-127.42857142857143,134.47767857142856,4877.6,-127.42857142857143,134.47767857142856,4977.6]","[1341.3,1341.3,1000,0,341.3,""smooth"",""up"",""up"",""good_move"",4198.4,2856.9,2527.1,1341.5,329.8,""smooth"",""up"",""up"",""good_move"",7430.8,3232.3,2923.3,4198.5,309,""smooth"",""up"",""up"",""good_move"",12895.3,5464.3,1984.7,10565,345.6,""oops"",""left"",""right"",""bad_move"",15095.2,2199.7,1843.9,12895.5,355.8,""smooth"",""left"",""left"",""good_move"",18187.8,3092.2,2685.7,15095.6,406.5,""oops"",""left"",""left"",""good_move"",20697.4,2509.5,2184.8,18188,324.6,""oops"",""left"",""left"",""good_move"",23423.2,2725.6,2412.8,20697.6,312.8,""smooth"",""left"",""left"",""good_move""]","",""
"3009","","<div style=""width:500px;"">
  <p>What determined the result of this run?</p>
  </div>","2","html-slider-response","60","573858","0.0-5.0-1.10","203","1","2025-07-23 09:11:47","1f75c3e559b7213887762d5229550c2b","178.166.40.254","Mozilla/5.0 (Windows NT 10.0; Win64; x64) AppleWebKit/537.36 (KHTML, like Gecko) Chrome/138.0.0.0 Safari/537.36 Edg/138.0.0.0","WebKit","Edge","138.0.0.0","Windows","10.0","https://app.prolific.com/","en-GB,en;q=0.9,en-US;q=0.8,pt-BR;q=0.7,pt-PT;q=0.6,pt;q=0.5","6172d51173f6962cef6b18cf","683db9eb0562dbf637994deb","6880a74b67973b678b8675a6","2","1","6172d51173f6962cef6b18cf","2","1","2025-07-23T09:21:24.034Z","","","","","","","","","","","AttribQ","","50","","","","","","","","","","","","","","","","","","","","","","","","","","","","",""
"5213","","<div style=""width:500px;"">
  <p>How much control did you have over the ball?</p>
  </div>","40","html-slider-response","61","579072","0.0-5.0-2.10","203","1","2025-07-23 09:11:47","1f75c3e559b7213887762d5229550c2b","178.166.40.254","Mozilla/5.0 (Windows NT 10.0; Win64; x64) AppleWebKit/537.36 (KHTML, like Gecko) Chrome/138.0.0.0 Safari/537.36 Edg/138.0.0.0","WebKit","Edge","138.0.0.0","Windows","10.0","https://app.prolific.com/","en-GB,en;q=0.9,en-US;q=0.8,pt-BR;q=0.7,pt-PT;q=0.6,pt;q=0.5","6172d51173f6962cef6b18cf","683db9eb0562dbf637994deb","6880a74b67973b678b8675a6","2","1","6172d51173f6962cef6b18cf","2","1","2025-07-23T09:21:29.247Z","","","","","","","","","","","ControlQ","","50","","","","","","","","","","","","","","","","","","","","","","","","","","","","",""
"3234","","<div style=""width:500px;"">
  <p>How would you describe your current emotional state?</p>
  </div>","64","html-slider-response","62","582308","0.0-5.0-3.10","203","1","2025-07-23 09:11:47","1f75c3e559b7213887762d5229550c2b","178.166.40.254","Mozilla/5.0 (Windows NT 10.0; Win64; x64) AppleWebKit/537.36 (KHTML, like Gecko) Chrome/138.0.0.0 Safari/537.36 Edg/138.0.0.0","WebKit","Edge","138.0.0.0","Windows","10.0","https://app.prolific.com/","en-GB,en;q=0.9,en-US;q=0.8,pt-BR;q=0.7,pt-PT;q=0.6,pt;q=0.5","6172d51173f6962cef6b18cf","683db9eb0562dbf637994deb","6880a74b67973b678b8675a6","2","1","6172d51173f6962cef6b18cf","2","1","2025-07-23T09:21:32.483Z","","","","","","","","","","","StressQ","","50","","","","","","","","","","","","","","","","","","","","","","","","","","","","",""
"2490","","<div style=""width:500px;"">
  <p>What best describes how you currently feel?</p>
  </div>","78","html-slider-response","63","584798","0.0-5.0-4.10","203","1","2025-07-23 09:11:47","1f75c3e559b7213887762d5229550c2b","178.166.40.254","Mozilla/5.0 (Windows NT 10.0; Win64; x64) AppleWebKit/537.36 (KHTML, like Gecko) Chrome/138.0.0.0 Safari/537.36 Edg/138.0.0.0","WebKit","Edge","138.0.0.0","Windows","10.0","https://app.prolific.com/","en-GB,en;q=0.9,en-US;q=0.8,pt-BR;q=0.7,pt-PT;q=0.6,pt;q=0.5","6172d51173f6962cef6b18cf","683db9eb0562dbf637994deb","6880a74b67973b678b8675a6","2","1","6172d51173f6962cef6b18cf","2","1","2025-07-23T09:21:34.973Z","","","","","","","","","","","MotivationQ","","50","","","","","","","","","","","","","","","","","","","","","","","","","","","","",""
"","","","","ctl-task-cpt","64","626666","0.0-5.0-0.11","203","1","2025-07-23 09:11:47","1f75c3e559b7213887762d5229550c2b","178.166.40.254","Mozilla/5.0 (Windows NT 10.0; Win64; x64) AppleWebKit/537.36 (KHTML, like Gecko) Chrome/138.0.0.0 Safari/537.36 Edg/138.0.0.0","WebKit","Edge","138.0.0.0","Windows","10.0","https://app.prolific.com/","en-GB,en;q=0.9,en-US;q=0.8,pt-BR;q=0.7,pt-PT;q=0.6,pt;q=0.5","6172d51173f6962cef6b18cf","683db9eb0562dbf637994deb","6880a74b67973b678b8675a6","2","1","6172d51173f6962cef6b18cf","2","1","2025-07-23T09:22:16.841Z","","","","","","","","","","","","","","win-only","0","g1:NW,g2:SE","0.6","12","0","585666.1","1043","6045.8","38850.3","1","4","4","6","2","-4","-5","4","9","0.030303030303030304","1444.6","3000","-3015","[""down"",""right""]","{""num_key_presses"":9,""num_perfect"":5,""num_errors"":1,""num_randdir"":3,""num_randdir_good_moves"":0,""num_whilered"":0,""num_whileblue"":1,""num_blue"":3,""num_good_moves"":6}","[414.57142857142856,420.47767857142856,0.2,413.57142857142856,421.47767857142856,106.7,409.57142857142856,423.47767857142856,208.1,408.57142857142856,423.47767857142856,313,402.57142857142856,423.47767857142856,417.1,476.57142857142856,488.47767857142856,517.2,666.5714285714286,671.4776785714286,618.6,743.5714285714286,736.4776785714286,722.4,793.5714285714286,775.4776785714286,827.6,797.5714285714286,781.4776785714286,927.6,797.5714285714286,781.4776785714286,1027.7,797.5714285714286,781.4776785714286,1127.8,797.5714285714286,781.4776785714286,1227.9,797.5714285714286,782.4776785714286,1333,797.5714285714286,782.4776785714286,1438.1,797.5714285714286,782.4776785714286,1539.3,797.5714285714286,782.4776785714286,1642.4,844.5714285714286,776.4776785714286,1742.5,1151.5714285714287,702.4776785714286,1842.6,1182.5714285714287,694.4776785714286,1947.6,1182.5714285714287,694.4776785714286,2047.6,1182.5714285714287,694.4776785714286,2147.7,1182.5714285714287,694.4776785714286,2247.9,1182.5714285714287,694.4776785714286,2347.9,1182.5714285714287,694.4776785714286,2448,1182.5714285714287,694.4776785714286,2548.1,1182.5714285714287,694.4776785714286,2652.2,1182.5714285714287,694.4776785714286,2752.4,1182.5714285714287,694.4776785714286,2857.5,1182.5714285714287,694.4776785714286,2957.5,1182.5714285714287,694.4776785714286,3062.5,1182.5714285714287,694.4776785714286,3162.6,1182.5714285714287,694.4776785714286,3262.7,1182.5714285714287,694.4776785714286,3362.8,1182.5714285714287,694.4776785714286,3463,1182.5714285714287,694.4776785714286,3563,1182.5714285714287,694.4776785714286,3663.1,1182.5714285714287,694.4776785714286,3767.4,1182.5714285714287,694.4776785714286,3867.4,1182.5714285714287,694.4776785714286,3967.4,1182.5714285714287,694.4776785714286,4067.5,1182.5714285714287,694.4776785714286,4167.6,1182.5714285714287,694.4776785714286,4267.6,1182.5714285714287,694.4776785714286,4367.8,1182.5714285714287,694.4776785714286,4468.1,1182.5714285714287,694.4776785714286,4572.7,1182.5714285714287,694.4776785714286,4677.4,1182.5714285714287,694.4776785714286,4782.5,1182.5714285714287,694.4776785714286,4887.5,1182.5714285714287,694.4776785714286,4987.6]","[1391.4,1391.4,1000,0,391.4,""oops"",""down"",""left"",""bad_move"",3925,2533.3,2180.3,1391.7,353,""smooth"",""down"",""down"",""good_move"",6145.3,2220.1,1900.8,3925.2,319.3,""smooth"",""down"",""down"",""good_move"",13185.4,7039.9,3279.2,9485.7,420.5,""oops"",""down"",""up"",""bad_move"",15577.8,2392.2,2037.8,13185.6,354.4,""smooth"",""down"",""down"",""good_move"",18164.4,2586.4,2235.9,15578,350.5,""smooth"",""down"",""down"",""good_move"",20974.2,2809.7,2476.2,18164.5,333.5,""oops"",""right"",""left"",""bad_move"",27000.6,6026.1,2699.8,23994.7,306.1,""while_blue"",""right"",""right"",""good_move"",29917.3,2916.3,2473.8,27001,442.5,""smooth"",""right"",""right"",""good_move""]","",""
"2844","","<div style=""width:500px;"">
  <p>What determined the result of this run?</p>
  </div>","16","html-slider-response","65","629511","0.0-5.0-1.11","203","1","2025-07-23 09:11:47","1f75c3e559b7213887762d5229550c2b","178.166.40.254","Mozilla/5.0 (Windows NT 10.0; Win64; x64) AppleWebKit/537.36 (KHTML, like Gecko) Chrome/138.0.0.0 Safari/537.36 Edg/138.0.0.0","WebKit","Edge","138.0.0.0","Windows","10.0","https://app.prolific.com/","en-GB,en;q=0.9,en-US;q=0.8,pt-BR;q=0.7,pt-PT;q=0.6,pt;q=0.5","6172d51173f6962cef6b18cf","683db9eb0562dbf637994deb","6880a74b67973b678b8675a6","2","1","6172d51173f6962cef6b18cf","2","1","2025-07-23T09:22:19.686Z","","","","","","","","","","","AttribQ","","50","","","","","","","","","","","","","","","","","","","","","","","","","","","","",""
"3056","","<div style=""width:500px;"">
  <p>How much control did you have over the ball?</p>
  </div>","0","html-slider-response","66","632568","0.0-5.0-2.11","203","1","2025-07-23 09:11:47","1f75c3e559b7213887762d5229550c2b","178.166.40.254","Mozilla/5.0 (Windows NT 10.0; Win64; x64) AppleWebKit/537.36 (KHTML, like Gecko) Chrome/138.0.0.0 Safari/537.36 Edg/138.0.0.0","WebKit","Edge","138.0.0.0","Windows","10.0","https://app.prolific.com/","en-GB,en;q=0.9,en-US;q=0.8,pt-BR;q=0.7,pt-PT;q=0.6,pt;q=0.5","6172d51173f6962cef6b18cf","683db9eb0562dbf637994deb","6880a74b67973b678b8675a6","2","1","6172d51173f6962cef6b18cf","2","1","2025-07-23T09:22:22.743Z","","","","","","","","","","","ControlQ","","50","","","","","","","","","","","","","","","","","","","","","","","","","","","","",""
"2452","","<div style=""width:500px;"">
  <p>How would you describe your current emotional state?</p>
  </div>","85","html-slider-response","67","635021","0.0-5.0-3.11","203","1","2025-07-23 09:11:47","1f75c3e559b7213887762d5229550c2b","178.166.40.254","Mozilla/5.0 (Windows NT 10.0; Win64; x64) AppleWebKit/537.36 (KHTML, like Gecko) Chrome/138.0.0.0 Safari/537.36 Edg/138.0.0.0","WebKit","Edge","138.0.0.0","Windows","10.0","https://app.prolific.com/","en-GB,en;q=0.9,en-US;q=0.8,pt-BR;q=0.7,pt-PT;q=0.6,pt;q=0.5","6172d51173f6962cef6b18cf","683db9eb0562dbf637994deb","6880a74b67973b678b8675a6","2","1","6172d51173f6962cef6b18cf","2","1","2025-07-23T09:22:25.196Z","","","","","","","","","","","StressQ","","50","","","","","","","","","","","","","","","","","","","","","","","","","","","","",""
"2986","","<div style=""width:500px;"">
  <p>What best describes how you currently feel?</p>
  </div>","61","html-slider-response","68","638008","0.0-5.0-4.11","203","1","2025-07-23 09:11:47","1f75c3e559b7213887762d5229550c2b","178.166.40.254","Mozilla/5.0 (Windows NT 10.0; Win64; x64) AppleWebKit/537.36 (KHTML, like Gecko) Chrome/138.0.0.0 Safari/537.36 Edg/138.0.0.0","WebKit","Edge","138.0.0.0","Windows","10.0","https://app.prolific.com/","en-GB,en;q=0.9,en-US;q=0.8,pt-BR;q=0.7,pt-PT;q=0.6,pt;q=0.5","6172d51173f6962cef6b18cf","683db9eb0562dbf637994deb","6880a74b67973b678b8675a6","2","1","6172d51173f6962cef6b18cf","2","1","2025-07-23T09:22:28.183Z","","","","","","","","","","","MotivationQ","","50","","","","","","","","","","","","","","","","","","","","","","","","","","","","",""
"","","","","ctl-task-cpt","69","669380","0.0-5.0-0.12","203","1","2025-07-23 09:11:47","1f75c3e559b7213887762d5229550c2b","178.166.40.254","Mozilla/5.0 (Windows NT 10.0; Win64; x64) AppleWebKit/537.36 (KHTML, like Gecko) Chrome/138.0.0.0 Safari/537.36 Edg/138.0.0.0","WebKit","Edge","138.0.0.0","Windows","10.0","https://app.prolific.com/","en-GB,en;q=0.9,en-US;q=0.8,pt-BR;q=0.7,pt-PT;q=0.6,pt;q=0.5","6172d51173f6962cef6b18cf","683db9eb0562dbf637994deb","6880a74b67973b678b8675a6","2","1","6172d51173f6962cef6b18cf","2","1","2025-07-23T09:22:59.555Z","","","","","","","","","","","","","","win-only","0","g1:NW,g2:SE","0.7","13","0","638875.8","1163.5","6167","28355.7","1","4","8","6","2","8","7","11","4","0.08333333333333333","1169.3","3000","735","[""down"",""right""]","{""num_key_presses"":8,""num_perfect"":5,""num_errors"":1,""num_randdir"":2,""num_randdir_good_moves"":2,""num_whilered"":0,""num_whileblue"":1,""num_blue"":1,""num_good_moves"":7}","[423.57142857142856,426.47767857142856,0,423.57142857142856,426.47767857142856,102.3,423.57142857142856,426.47767857142856,207.1,423.57142857142856,426.47767857142856,307.2,423.57142857142856,426.47767857142856,407.3,420.57142857142856,428.47767857142856,507.3,422.57142857142856,444.47767857142856,612.1,422.57142857142856,444.47767857142856,717.1,470.57142857142856,492.47767857142856,822.2,735.5714285714286,694.4776785714286,927.2,779.5714285714286,742.4776785714286,1027.2,777.5714285714286,757.4776785714286,1127.3,777.5714285714286,757.4776785714286,1227.4,777.5714285714286,757.4776785714286,1327.6,896.5714285714286,724.4776785714286,1431.9,1076.5714285714287,641.4776785714286,1532.6,1102.5714285714287,628.4776785714286,1637,1102.5714285714287,628.4776785714286,1741.8,1102.5714285714287,628.4776785714286,1842,1102.5714285714287,628.4776785714286,1942,1102.5714285714287,628.4776785714286,2042.2,1102.5714285714287,628.4776785714286,2147.2,1102.5714285714287,628.4776785714286,2247.3,1102.5714285714287,628.4776785714286,2347.3,1102.5714285714287,628.4776785714286,2447.4,1102.5714285714287,628.4776785714286,2547.5,1102.5714285714287,628.4776785714286,2651.7,1102.5714285714287,628.4776785714286,2751.7,1102.5714285714287,628.4776785714286,2852.4,1102.5714285714287,628.4776785714286,2952.4,1102.5714285714287,628.4776785714286,3052.6,1102.5714285714287,628.4776785714286,3152.6,1102.5714285714287,628.4776785714286,3256.8,1102.5714285714287,628.4776785714286,3356.9,1102.5714285714287,628.4776785714286,3461.9,1102.5714285714287,628.4776785714286,3561.9,1102.5714285714287,628.4776785714286,3661.9,1102.5714285714287,628.4776785714286,3762.3,1102.5714285714287,628.4776785714286,3867.2,1102.5714285714287,628.4776785714286,3967.2,1102.5714285714287,628.4776785714286,4067.4,1102.5714285714287,628.4776785714286,4167.4,1102.5714285714287,628.4776785714286,4267.5,1102.5714285714287,628.4776785714286,4367.7,1102.5714285714287,628.4776785714286,4471.7,1102.5714285714287,628.4776785714286,4571.7,1102.5714285714287,628.4776785714286,4671.9,1102.5714285714287,628.4776785714286,4772.1,1102.5714285714287,628.4776785714286,4872.2,1102.5714285714287,628.4776785714286,4972.3]","[1317.3,1317.3,1000,0,317.3,""smooth"",""down"",""down"",""good_move"",3624.3,2306.8,1985.4,1317.5,321.4,""oops"",""down"",""down"",""good_move"",6522.1,2897.6,2617.4,3624.5,280.2,""smooth"",""right"",""right"",""good_move"",9729.4,3207,2907.4,6522.4,299.6,""smooth"",""down"",""down"",""good_move"",13016.3,3286.6,2961,9729.7,325.6,""oops"",""right"",""right"",""good_move"",16098.3,3081.8,2781.8,13016.5,300,""while_blue"",""right"",""left"",""bad_move"",19153.1,3054.5,2670.7,16098.6,383.8,""smooth"",""right"",""right"",""good_move"",22099.3,2946,2567.7,19153.3,378.3,""smooth"",""right"",""right"",""good_move""]","",""
"3247","","<div style=""width:500px;"">
  <p>What determined the result of this run?</p>
  </div>","38","html-slider-response","70","672628","0.0-5.0-1.12","203","1","2025-07-23 09:11:47","1f75c3e559b7213887762d5229550c2b","178.166.40.254","Mozilla/5.0 (Windows NT 10.0; Win64; x64) AppleWebKit/537.36 (KHTML, like Gecko) Chrome/138.0.0.0 Safari/537.36 Edg/138.0.0.0","WebKit","Edge","138.0.0.0","Windows","10.0","https://app.prolific.com/","en-GB,en;q=0.9,en-US;q=0.8,pt-BR;q=0.7,pt-PT;q=0.6,pt;q=0.5","6172d51173f6962cef6b18cf","683db9eb0562dbf637994deb","6880a74b67973b678b8675a6","2","1","6172d51173f6962cef6b18cf","2","1","2025-07-23T09:23:02.803Z","","","","","","","","","","","AttribQ","","50","","","","","","","","","","","","","","","","","","","","","","","","","","","","",""
"5967","","<div style=""width:500px;"">
  <p>How much control did you have over the ball?</p>
  </div>","62","html-slider-response","71","678596","0.0-5.0-2.12","203","1","2025-07-23 09:11:47","1f75c3e559b7213887762d5229550c2b","178.166.40.254","Mozilla/5.0 (Windows NT 10.0; Win64; x64) AppleWebKit/537.36 (KHTML, like Gecko) Chrome/138.0.0.0 Safari/537.36 Edg/138.0.0.0","WebKit","Edge","138.0.0.0","Windows","10.0","https://app.prolific.com/","en-GB,en;q=0.9,en-US;q=0.8,pt-BR;q=0.7,pt-PT;q=0.6,pt;q=0.5","6172d51173f6962cef6b18cf","683db9eb0562dbf637994deb","6880a74b67973b678b8675a6","2","1","6172d51173f6962cef6b18cf","2","1","2025-07-23T09:23:08.771Z","","","","","","","","","","","ControlQ","","50","","","","","","","","","","","","","","","","","","","","","","","","","","","","",""
"3415","","<div style=""width:500px;"">
  <p>How would you describe your current emotional state?</p>
  </div>","28","html-slider-response","72","682012","0.0-5.0-3.12","203","1","2025-07-23 09:11:47","1f75c3e559b7213887762d5229550c2b","178.166.40.254","Mozilla/5.0 (Windows NT 10.0; Win64; x64) AppleWebKit/537.36 (KHTML, like Gecko) Chrome/138.0.0.0 Safari/537.36 Edg/138.0.0.0","WebKit","Edge","138.0.0.0","Windows","10.0","https://app.prolific.com/","en-GB,en;q=0.9,en-US;q=0.8,pt-BR;q=0.7,pt-PT;q=0.6,pt;q=0.5","6172d51173f6962cef6b18cf","683db9eb0562dbf637994deb","6880a74b67973b678b8675a6","2","1","6172d51173f6962cef6b18cf","2","1","2025-07-23T09:23:12.187Z","","","","","","","","","","","StressQ","","50","","","","","","","","","","","","","","","","","","","","","","","","","","","","",""
"3140","","<div style=""width:500px;"">
  <p>What best describes how you currently feel?</p>
  </div>","93","html-slider-response","73","685153","0.0-5.0-4.12","203","1","2025-07-23 09:11:47","1f75c3e559b7213887762d5229550c2b","178.166.40.254","Mozilla/5.0 (Windows NT 10.0; Win64; x64) AppleWebKit/537.36 (KHTML, like Gecko) Chrome/138.0.0.0 Safari/537.36 Edg/138.0.0.0","WebKit","Edge","138.0.0.0","Windows","10.0","https://app.prolific.com/","en-GB,en;q=0.9,en-US;q=0.8,pt-BR;q=0.7,pt-PT;q=0.6,pt;q=0.5","6172d51173f6962cef6b18cf","683db9eb0562dbf637994deb","6880a74b67973b678b8675a6","2","1","6172d51173f6962cef6b18cf","2","1","2025-07-23T09:23:15.328Z","","","","","","","","","","","MotivationQ","","50","","","","","","","","","","","","","","","","","","","","","","","","","","","","",""
