"rt","response_timestamp","stimulus","response","trial_type","trial_index","time_elapsed","internal_node_id","run_id","condition","recorded_at","source_code_version","ip","user_agent","device","browser","browser_version","platform","platform_version","referer","accept_language","PROLIFIC_PID","STUDY_ID","SESSION_ID","WEEK","BATCH","prolific_id","week","batch","realtime","success","responses","item_order","radio_event_ids","radio_event_times","key_event_times","mouse_event_times","straightlining","zigzagging","honeypot","eventType","view_history","slider_start","which_type","canvas_config","goals_layout","control_level","trial_number","tutorial_trial_number","trial_start_time","phase1_start_time","phase2_start_time","phase3_start_time","goal_1_value","goal_1_distance","goal_2_value","goal_2_distance","goal_selected","outcome","outcome_total","participant_final_score","participant_initial_score","participant_final_score_prop","goal_choice_rt","allocated_time","allocated_time_remaining","goal_direction","counts","mouse_movements","key_presses","question_order","question_id"
"1624","1753258346410","<p style='font-size:40px;line-height:1.25'><strong>Welcome to the experiment!</strong></p><p style='font-size:1.1em;line-height:1.25'>Thank you for participanting in our experiment again! You will be asked to play the Dysfunctional Ball Game again. We will briefly recap the rules before we start.</p><p style='font-size:1.1em;line-height:1.25'>Press <strong>Next</strong> to continue.</p>","0","custom-html-button-response","0","1627","0.0-0.0","192","1","2025-07-23 08:12:24","1f75c3e559b7213887762d5229550c2b","80.192.212.91","Mozilla/5.0 (Macintosh; Intel Mac OS X 10_15_7) AppleWebKit/537.36 (KHTML, like Gecko) Chrome/137.0.0.0 Safari/537.36","Macintosh","Chrome","137.0.0.0","OS X","10_15_7","https://app.prolific.com/","en-GB,en-US;q=0.9,en;q=0.8","671a44d9d93641d1d9e96883","683db9eb0562dbf637994deb","6880985ad0acfe816a8010b7","2","1","671a44d9d93641d1d9e96883","2","1","2025-07-23T08:12:26.412Z","","","","","","","","","","","","","","","","","","","","","","","","","","","","","","","","","","","","","","","","","",""
"779","","","","fullscreen","1","3417","0.0-1.0","192","1","2025-07-23 08:12:24","1f75c3e559b7213887762d5229550c2b","80.192.212.91","Mozilla/5.0 (Macintosh; Intel Mac OS X 10_15_7) AppleWebKit/537.36 (KHTML, like Gecko) Chrome/137.0.0.0 Safari/537.36","Macintosh","Chrome","137.0.0.0","OS X","10_15_7","https://app.prolific.com/","en-GB,en-US;q=0.9,en;q=0.8","671a44d9d93641d1d9e96883","683db9eb0562dbf637994deb","6880985ad0acfe816a8010b7","2","1","671a44d9d93641d1d9e96883","2","1","","true","","","","","","","","","","","","","","","","","","","","","","","","","","","","","","","","","","","","","","","","",""
"921","1753258349144","<p style='font-size:1.1em;line-height:1.25'>In the following, we will ask you a few questions relating to your feelings in the last 24 hours.<br></p><p style='font-size:1.1em;line-height:1.25'>Press the <strong>Next</strong> button to continue.</p>","0","custom-html-button-response","2","4362","0.0-2.0-0.0","192","1","2025-07-23 08:12:24","1f75c3e559b7213887762d5229550c2b","80.192.212.91","Mozilla/5.0 (Macintosh; Intel Mac OS X 10_15_7) AppleWebKit/537.36 (KHTML, like Gecko) Chrome/137.0.0.0 Safari/537.36","Macintosh","Chrome","137.0.0.0","OS X","10_15_7","https://app.prolific.com/","en-GB,en-US;q=0.9,en;q=0.8","671a44d9d93641d1d9e96883","683db9eb0562dbf637994deb","6880985ad0acfe816a8010b7","2","1","671a44d9d93641d1d9e96883","2","1","2025-07-23T08:12:29.147Z","","","","","","","","","","","","","","","","","","","","","","","","","","","","","","","","","","","","","","","","","",""
"449941.40000003576","","","","survey-template","3","454315","0.0-2.0-1.0","192","1","2025-07-23 08:12:24","1f75c3e559b7213887762d5229550c2b","80.192.212.91","Mozilla/5.0 (Macintosh; Intel Mac OS X 10_15_7) AppleWebKit/537.36 (KHTML, like Gecko) Chrome/137.0.0.0 Safari/537.36","Macintosh","Chrome","137.0.0.0","OS X","10_15_7","https://app.prolific.com/","en-GB,en-US;q=0.9,en;q=0.8","671a44d9d93641d1d9e96883","683db9eb0562dbf637994deb","6880985ad0acfe816a8010b7","2","1","671a44d9d93641d1d9e96883","2","1","2025-07-23T08:19:59.100Z","","{""Q01"":""0"",""Q02"":""0"",""Q03"":""0"",""Q04"":""1"",""Q05"":""1"",""Q06"":""1"",""Q07"":""1"",""Q08"":""0"",""Q09"":""0"",""Q10"":""1"",""Q11"":""1"",""Q12"":""1"",""Q13"":""5"",""Q14"":""0"",""Q15"":""1"",""Q16"":""1"",""Q17"":""1"",""Q18"":""0"",""Q19"":""0"",""Q20"":""0"",""Q21"":""0"",""Q22"":""0""}","[0,1,2,3,4,5,6,7,8,9,10,11,12,13,14,15,16,17,18,19,20,21]","[""Q02"",""Q01"",""Q03"",""Q04"",""Q05"",""Q06"",""Q07"",""Q08"",""Q09"",""Q10"",""Q11"",""Q12"",""Q13"",""Q14"",""Q15"",""Q16"",""Q17"",""Q18"",""Q19"",""Q20"",""Q21"",""Q22""]","[422405.3000000119,422814.10000002384,424857.8000000119,425696.3000000119,426214.1999999881,427760,428469.5,429595.90000003576,430567.90000003576,431841.8000000119,432565.6999999881,434317.6999999881,435159.5,436705.8000000119,438359.8000000119,440193.3000000119,440803.60000002384,442181.6999999881,442749.6999999881,443683.60000002384,445077.6999999881,449076.1999999881]","[]","[0.10000002384185791,421964.1999999881,422405.3000000119,422814.10000002384,423973.8000000119,424644.40000003576,424857.8000000119,425696.3000000119,426214.1999999881,427760,428469.5,429595.90000003576,430567.90000003576,431411.90000003576,431841.8000000119,432565.6999999881,433538.40000003576,434080,434317.6999999881,435159.5,436705.8000000119,438359.8000000119,439618,440193.3000000119,440803.60000002384,442181.6999999881,442749.6999999881,443683.60000002384,445077.6999999881,447727.5,449076.1999999881,449929.90000003576]","0.5","0.2857142857142857","0","drsp","","","","","","","","","","","","","","","","","","","","","","","","","","","","","","",""
"4641.299999952316","","","","survey-template","4","458961","0.0-2.0-2.0","192","1","2025-07-23 08:12:24","1f75c3e559b7213887762d5229550c2b","80.192.212.91","Mozilla/5.0 (Macintosh; Intel Mac OS X 10_15_7) AppleWebKit/537.36 (KHTML, like Gecko) Chrome/137.0.0.0 Safari/537.36","Macintosh","Chrome","137.0.0.0","OS X","10_15_7","https://app.prolific.com/","en-GB,en-US;q=0.9,en;q=0.8","671a44d9d93641d1d9e96883","683db9eb0562dbf637994deb","6880985ad0acfe816a8010b7","2","1","671a44d9d93641d1d9e96883","2","1","2025-07-23T08:20:03.746Z","","{""Q01"":""2"",""Q02"":""3"",""Q03"":""2""}","[0,1,2]","[""Q01"",""Q02"",""Q03""]","[2205.399999976158,3195.699999988079,3975.7999999523163]","[]","[2205.399999976158,3195.699999988079,3975.7999999523163,4639.899999976158]","1","0","0","stress","","","","","","","","","","","","","","","","","","","","","","","","","","","","","","",""
"1315","","","","instructions","5","460278","0.0-3.0-0.0","192","1","2025-07-23 08:12:24","1f75c3e559b7213887762d5229550c2b","80.192.212.91","Mozilla/5.0 (Macintosh; Intel Mac OS X 10_15_7) AppleWebKit/537.36 (KHTML, like Gecko) Chrome/137.0.0.0 Safari/537.36","Macintosh","Chrome","137.0.0.0","OS X","10_15_7","https://app.prolific.com/","en-GB,en-US;q=0.9,en;q=0.8","671a44d9d93641d1d9e96883","683db9eb0562dbf637994deb","6880985ad0acfe816a8010b7","2","1","671a44d9d93641d1d9e96883","2","1","","","","","","","","","","","","","[{""page_index"":0,""viewing_time"":1315}]","","","","","","","","","","","","","","","","","","","","","","","","","","","","","",""
"3201","","<p>Before you start with this game please answer the following three questions yourself. </p>
  <p>Through this game, we measure several aspects of your cognitive performance, such as reaction times, multi-tasking capabilities </p>
  <p>and the ability to assess the situation you are in.</p>
  <p></p>
  <p><b>How good do you usually are in such tasks?</b></p>","43","html-slider-response","6","463486","0.0-4.0-0.0","192","1","2025-07-23 08:12:24","1f75c3e559b7213887762d5229550c2b","80.192.212.91","Mozilla/5.0 (Macintosh; Intel Mac OS X 10_15_7) AppleWebKit/537.36 (KHTML, like Gecko) Chrome/137.0.0.0 Safari/537.36","Macintosh","Chrome","137.0.0.0","OS X","10_15_7","https://app.prolific.com/","en-GB,en-US;q=0.9,en;q=0.8","671a44d9d93641d1d9e96883","683db9eb0562dbf637994deb","6880985ad0acfe816a8010b7","2","1","671a44d9d93641d1d9e96883","2","1","2025-07-23T08:20:08.271Z","","","","","","","","","","","PreSkillQ","","50","","","","","","","","","","","","","","","","","","","","","","","","","","","","",""
"1860","","<div style=""width:500px;"">
  <p>How well do you think you will perform in this task compared to other participants?</p>
  </div>","42","html-slider-response","7","465348","0.0-4.0-1.0","192","1","2025-07-23 08:12:24","1f75c3e559b7213887762d5229550c2b","80.192.212.91","Mozilla/5.0 (Macintosh; Intel Mac OS X 10_15_7) AppleWebKit/537.36 (KHTML, like Gecko) Chrome/137.0.0.0 Safari/537.36","Macintosh","Chrome","137.0.0.0","OS X","10_15_7","https://app.prolific.com/","en-GB,en-US;q=0.9,en;q=0.8","671a44d9d93641d1d9e96883","683db9eb0562dbf637994deb","6880985ad0acfe816a8010b7","2","1","671a44d9d93641d1d9e96883","2","1","2025-07-23T08:20:10.133Z","","","","","","","","","","","PrePerfQ","","50","","","","","","","","","","","","","","","","","","","","","","","","","","","","",""
"1932","","<div style=""width:500px;"">
  <p>What best describes how you currently feel?</p>
  </div>","86","html-slider-response","8","467282","0.0-4.0-2.0","192","1","2025-07-23 08:12:24","1f75c3e559b7213887762d5229550c2b","80.192.212.91","Mozilla/5.0 (Macintosh; Intel Mac OS X 10_15_7) AppleWebKit/537.36 (KHTML, like Gecko) Chrome/137.0.0.0 Safari/537.36","Macintosh","Chrome","137.0.0.0","OS X","10_15_7","https://app.prolific.com/","en-GB,en-US;q=0.9,en;q=0.8","671a44d9d93641d1d9e96883","683db9eb0562dbf637994deb","6880985ad0acfe816a8010b7","2","1","671a44d9d93641d1d9e96883","2","1","2025-07-23T08:20:12.067Z","","","","","","","","","","","PreMotivationQ","","50","","","","","","","","","","","","","","","","","","","","","","","","","","","","",""
"","","","","ctl-task-cpt","9","499993","0.0-5.0-0.0","192","1","2025-07-23 08:12:24","1f75c3e559b7213887762d5229550c2b","80.192.212.91","Mozilla/5.0 (Macintosh; Intel Mac OS X 10_15_7) AppleWebKit/537.36 (KHTML, like Gecko) Chrome/137.0.0.0 Safari/537.36","Macintosh","Chrome","137.0.0.0","OS X","10_15_7","https://app.prolific.com/","en-GB,en-US;q=0.9,en;q=0.8","671a44d9d93641d1d9e96883","683db9eb0562dbf637994deb","6880985ad0acfe816a8010b7","2","1","671a44d9d93641d1d9e96883","2","1","2025-07-23T08:20:44.778Z","","","","","","","","","","","","","","win-only","0","g1:NW,g2:SE","1","1","0","468235.4","1043","6045.8","29683.8","1","4","8","6","2","8","8","8","0","0.06060606060606061","1139.4","3000","860","[""down"",""right""]","{""num_key_presses"":6,""num_perfect"":6,""num_errors"":0,""num_randdir"":0,""num_randdir_good_moves"":0,""num_whilered"":0,""num_whileblue"":0,""num_blue"":2,""num_good_moves"":6}","[357.85714285714283,349.76339285714283,0.8,357.85714285714283,349.76339285714283,103.8,357.85714285714283,349.76339285714283,208.3,357.85714285714283,349.76339285714283,312.9,357.85714285714283,349.76339285714283,412.9,343.85714285714283,343.76339285714283,513.4,276.85714285714283,287.76339285714283,617.9,329.85714285714283,378.76339285714283,717.9,708.8571428571429,721.7633928571429,818.5,714.8571428571429,718.7633928571429,923.1,711.8571428571429,710.7633928571429,1023.2,654.8571428571429,665.7633928571429,1127.7,654.8571428571429,665.7633928571429,1228.1,659.8571428571429,597.7633928571429,1333,659.8571428571429,597.7633928571429,1438.8,659.8571428571429,597.7633928571429,1543.5,659.8571428571429,597.7633928571429,1648.5,659.8571428571429,597.7633928571429,1752.9,659.8571428571429,597.7633928571429,1853.1,659.8571428571429,597.7633928571429,1958.9,659.8571428571429,597.7633928571429,2063.1,659.8571428571429,597.7633928571429,2163.3,659.8571428571429,597.7633928571429,2263.5,659.8571428571429,597.7633928571429,2367.7,659.8571428571429,597.7633928571429,2467.8,659.8571428571429,597.7633928571429,2574.2,659.8571428571429,597.7633928571429,2678.1,659.8571428571429,597.7633928571429,2778.1,659.8571428571429,597.7633928571429,2878.7,659.8571428571429,597.7633928571429,2979.1,659.8571428571429,597.7633928571429,3083.4,659.8571428571429,597.7633928571429,3188.3,659.8571428571429,597.7633928571429,3293.2,659.8571428571429,597.7633928571429,3397.8,659.8571428571429,597.7633928571429,3498,659.8571428571429,597.7633928571429,3598.2,659.8571428571429,597.7633928571429,3703.1,659.8571428571429,597.7633928571429,3803.2,659.8571428571429,597.7633928571429,3903.2,659.8571428571429,597.7633928571429,4003.5,659.8571428571429,597.7633928571429,4108.7,659.8571428571429,597.7633928571429,4208.8,659.8571428571429,597.7633928571429,4313.7,659.8571428571429,597.7633928571429,4414,659.8571428571429,597.7633928571429,4518.4,659.8571428571429,597.7633928571429,4622.6,659.8571428571429,597.7633928571429,4723.2,659.8571428571429,597.7633928571429,4823.3,659.8571428571429,597.7633928571429,4924]","[1390.7,1390.7,1000,0,390.7,""smooth"",""down"",""down"",""good_move"",7068.4,5677.2,1370.6,5336.1,361.7,""smooth"",""down"",""down"",""good_move"",10092,3023.3,2659.2,7068.7,364.1,""smooth"",""right"",""right"",""good_move"",17589.1,7496.7,3338.2,13890.8,360.1,""smooth"",""right"",""right"",""good_move"",20105,2515.6,2143,17589.4,372.6,""smooth"",""right"",""right"",""good_move"",23546.6,3441.3,3046,20105.3,395.3,""smooth"",""down"",""down"",""good_move""]","",""
"3586","","<div style=""width:500px;"">
  <p>What determined the result of this run?</p>
  </div>","91","html-slider-response","10","503581","0.0-5.0-1.0","192","1","2025-07-23 08:12:24","1f75c3e559b7213887762d5229550c2b","80.192.212.91","Mozilla/5.0 (Macintosh; Intel Mac OS X 10_15_7) AppleWebKit/537.36 (KHTML, like Gecko) Chrome/137.0.0.0 Safari/537.36","Macintosh","Chrome","137.0.0.0","OS X","10_15_7","https://app.prolific.com/","en-GB,en-US;q=0.9,en;q=0.8","671a44d9d93641d1d9e96883","683db9eb0562dbf637994deb","6880985ad0acfe816a8010b7","2","1","671a44d9d93641d1d9e96883","2","1","2025-07-23T08:20:48.366Z","","","","","","","","","","","AttribQ","","50","","","","","","","","","","","","","","","","","","","","","","","","","","","","",""
"2008","","<div style=""width:500px;"">
  <p>How much control did you have over the ball?</p>
  </div>","93","html-slider-response","11","505591","0.0-5.0-2.0","192","1","2025-07-23 08:12:24","1f75c3e559b7213887762d5229550c2b","80.192.212.91","Mozilla/5.0 (Macintosh; Intel Mac OS X 10_15_7) AppleWebKit/537.36 (KHTML, like Gecko) Chrome/137.0.0.0 Safari/537.36","Macintosh","Chrome","137.0.0.0","OS X","10_15_7","https://app.prolific.com/","en-GB,en-US;q=0.9,en;q=0.8","671a44d9d93641d1d9e96883","683db9eb0562dbf637994deb","6880985ad0acfe816a8010b7","2","1","671a44d9d93641d1d9e96883","2","1","2025-07-23T08:20:50.376Z","","","","","","","","","","","ControlQ","","50","","","","","","","","","","","","","","","","","","","","","","","","","","","","",""
"1670","","<div style=""width:500px;"">
  <p>How would you describe your current emotional state?</p>
  </div>","7","html-slider-response","12","507261","0.0-5.0-3.0","192","1","2025-07-23 08:12:24","1f75c3e559b7213887762d5229550c2b","80.192.212.91","Mozilla/5.0 (Macintosh; Intel Mac OS X 10_15_7) AppleWebKit/537.36 (KHTML, like Gecko) Chrome/137.0.0.0 Safari/537.36","Macintosh","Chrome","137.0.0.0","OS X","10_15_7","https://app.prolific.com/","en-GB,en-US;q=0.9,en;q=0.8","671a44d9d93641d1d9e96883","683db9eb0562dbf637994deb","6880985ad0acfe816a8010b7","2","1","671a44d9d93641d1d9e96883","2","1","2025-07-23T08:20:52.046Z","","","","","","","","","","","StressQ","","50","","","","","","","","","","","","","","","","","","","","","","","","","","","","",""
"2146","","<div style=""width:500px;"">
  <p>What best describes how you currently feel?</p>
  </div>","92","html-slider-response","13","509409","0.0-5.0-4.0","192","1","2025-07-23 08:12:24","1f75c3e559b7213887762d5229550c2b","80.192.212.91","Mozilla/5.0 (Macintosh; Intel Mac OS X 10_15_7) AppleWebKit/537.36 (KHTML, like Gecko) Chrome/137.0.0.0 Safari/537.36","Macintosh","Chrome","137.0.0.0","OS X","10_15_7","https://app.prolific.com/","en-GB,en-US;q=0.9,en;q=0.8","671a44d9d93641d1d9e96883","683db9eb0562dbf637994deb","6880985ad0acfe816a8010b7","2","1","671a44d9d93641d1d9e96883","2","1","2025-07-23T08:20:54.194Z","","","","","","","","","","","MotivationQ","","50","","","","","","","","","","","","","","","","","","","","","","","","","","","","",""
"","","","","ctl-task-cpt","14","536827","0.0-5.0-0.1","192","1","2025-07-23 08:12:24","1f75c3e559b7213887762d5229550c2b","80.192.212.91","Mozilla/5.0 (Macintosh; Intel Mac OS X 10_15_7) AppleWebKit/537.36 (KHTML, like Gecko) Chrome/137.0.0.0 Safari/537.36","Macintosh","Chrome","137.0.0.0","OS X","10_15_7","https://app.prolific.com/","en-GB,en-US;q=0.9,en;q=0.8","671a44d9d93641d1d9e96883","683db9eb0562dbf637994deb","6880985ad0acfe816a8010b7","2","1","671a44d9d93641d1d9e96883","2","1","2025-07-23T08:21:21.612Z","","","","","","","","","","","","","","win-only","1","g1:NE,g2:SW","0.9","2","0","510339.2","815.5","5817","24411.1","1","4","4","6","2","4","4","12","8","0.09090909090909091","802.2","3000","1025","[""down"",""left""]","{""num_key_presses"":6,""num_perfect"":6,""num_errors"":0,""num_randdir"":0,""num_randdir_good_moves"":0,""num_whilered"":0,""num_whileblue"":0,""num_blue"":1,""num_good_moves"":6}","[351.85714285714283,358.76339285714283,0.2,351.85714285714283,358.76339285714283,101,351.85714285714283,358.76339285714283,205,347.85714285714283,376.76339285714283,306.1,362.85714285714283,398.76339285714283,410.8,-19.142857142857146,691.7633928571429,511.2,-20.142857142857146,691.7633928571429,615.6,18.857142857142854,655.7633928571429,720.8,58.857142857142854,644.7633928571429,822.3,58.857142857142854,644.7633928571429,925.5,58.857142857142854,644.7633928571429,1027.3,58.857142857142854,644.7633928571429,1128.5,58.857142857142854,644.7633928571429,1231.3,58.857142857142854,644.7633928571429,1336.4,58.857142857142854,644.7633928571429,1440.2,58.857142857142854,644.7633928571429,1541.3,58.857142857142854,644.7633928571429,1642,58.857142857142854,644.7633928571429,1745.7,58.857142857142854,644.7633928571429,1848.1,58.857142857142854,644.7633928571429,1951.6,58.857142857142854,644.7633928571429,2056.4,58.857142857142854,644.7633928571429,2160.5,58.857142857142854,644.7633928571429,2262.5,58.857142857142854,644.7633928571429,2365.4,58.857142857142854,644.7633928571429,2465.4,58.857142857142854,644.7633928571429,2565.7,58.857142857142854,644.7633928571429,2665.9,58.857142857142854,644.7633928571429,2770.8,58.857142857142854,644.7633928571429,2875.6,58.857142857142854,644.7633928571429,2975.8,58.857142857142854,644.7633928571429,3075.9,58.857142857142854,644.7633928571429,3176.1,58.857142857142854,644.7633928571429,3282.4,58.857142857142854,644.7633928571429,3386.1,58.857142857142854,644.7633928571429,3486.5,58.857142857142854,644.7633928571429,3586.5,58.857142857142854,644.7633928571429,3691.1,58.857142857142854,644.7633928571429,3791.3,58.857142857142854,644.7633928571429,3896.9,58.857142857142854,644.7633928571429,4001,58.857142857142854,644.7633928571429,4101.1,58.857142857142854,644.7633928571429,4205.4,58.857142857142854,644.7633928571429,4305.7,58.857142857142854,644.7633928571429,4405.8,58.857142857142854,644.7633928571429,4510.1,58.857142857142854,644.7633928571429,4616.1,58.857142857142854,644.7633928571429,4721.4,58.857142857142854,644.7633928571429,4825.4,58.857142857142854,644.7633928571429,4926.4]","[1283.3,1283.3,1000,0,283.3,""smooth"",""down"",""down"",""good_move"",7255.3,5971.8,2133.9,4764.1,357.3,""smooth"",""left"",""left"",""good_move"",10102.5,2846.8,2512.7,7255.7,334.1,""smooth"",""down"",""down"",""good_move"",12825.1,2722.3,2380.2,10102.8,342.1,""smooth"",""left"",""left"",""good_move"",15137.4,2312,1983.6,12825.4,328.4,""smooth"",""down"",""down"",""good_move"",18508.5,3370.9,3008.4,15137.6,362.5,""smooth"",""left"",""left"",""good_move""]","",""
"1251","","<div style=""width:500px;"">
  <p>What determined the result of this run?</p>
  </div>","86","html-slider-response","15","538079","0.0-5.0-1.1","192","1","2025-07-23 08:12:24","1f75c3e559b7213887762d5229550c2b","80.192.212.91","Mozilla/5.0 (Macintosh; Intel Mac OS X 10_15_7) AppleWebKit/537.36 (KHTML, like Gecko) Chrome/137.0.0.0 Safari/537.36","Macintosh","Chrome","137.0.0.0","OS X","10_15_7","https://app.prolific.com/","en-GB,en-US;q=0.9,en;q=0.8","671a44d9d93641d1d9e96883","683db9eb0562dbf637994deb","6880985ad0acfe816a8010b7","2","1","671a44d9d93641d1d9e96883","2","1","2025-07-23T08:21:22.864Z","","","","","","","","","","","AttribQ","","50","","","","","","","","","","","","","","","","","","","","","","","","","","","","",""
"1230","","<div style=""width:500px;"">
  <p>How much control did you have over the ball?</p>
  </div>","85","html-slider-response","16","539311","0.0-5.0-2.1","192","1","2025-07-23 08:12:24","1f75c3e559b7213887762d5229550c2b","80.192.212.91","Mozilla/5.0 (Macintosh; Intel Mac OS X 10_15_7) AppleWebKit/537.36 (KHTML, like Gecko) Chrome/137.0.0.0 Safari/537.36","Macintosh","Chrome","137.0.0.0","OS X","10_15_7","https://app.prolific.com/","en-GB,en-US;q=0.9,en;q=0.8","671a44d9d93641d1d9e96883","683db9eb0562dbf637994deb","6880985ad0acfe816a8010b7","2","1","671a44d9d93641d1d9e96883","2","1","2025-07-23T08:21:24.096Z","","","","","","","","","","","ControlQ","","50","","","","","","","","","","","","","","","","","","","","","","","","","","","","",""
"1442","","<div style=""width:500px;"">
  <p>How would you describe your current emotional state?</p>
  </div>","8","html-slider-response","17","540753","0.0-5.0-3.1","192","1","2025-07-23 08:12:24","1f75c3e559b7213887762d5229550c2b","80.192.212.91","Mozilla/5.0 (Macintosh; Intel Mac OS X 10_15_7) AppleWebKit/537.36 (KHTML, like Gecko) Chrome/137.0.0.0 Safari/537.36","Macintosh","Chrome","137.0.0.0","OS X","10_15_7","https://app.prolific.com/","en-GB,en-US;q=0.9,en;q=0.8","671a44d9d93641d1d9e96883","683db9eb0562dbf637994deb","6880985ad0acfe816a8010b7","2","1","671a44d9d93641d1d9e96883","2","1","2025-07-23T08:21:25.539Z","","","","","","","","","","","StressQ","","50","","","","","","","","","","","","","","","","","","","","","","","","","","","","",""
"1343","","<div style=""width:500px;"">
  <p>What best describes how you currently feel?</p>
  </div>","86","html-slider-response","18","542097","0.0-5.0-4.1","192","1","2025-07-23 08:12:24","1f75c3e559b7213887762d5229550c2b","80.192.212.91","Mozilla/5.0 (Macintosh; Intel Mac OS X 10_15_7) AppleWebKit/537.36 (KHTML, like Gecko) Chrome/137.0.0.0 Safari/537.36","Macintosh","Chrome","137.0.0.0","OS X","10_15_7","https://app.prolific.com/","en-GB,en-US;q=0.9,en;q=0.8","671a44d9d93641d1d9e96883","683db9eb0562dbf637994deb","6880985ad0acfe816a8010b7","2","1","671a44d9d93641d1d9e96883","2","1","2025-07-23T08:21:26.882Z","","","","","","","","","","","MotivationQ","","50","","","","","","","","","","","","","","","","","","","","","","","","","","","","",""
"","","","","ctl-task-cpt","19","578922","0.0-5.0-0.2","192","1","2025-07-23 08:12:24","1f75c3e559b7213887762d5229550c2b","80.192.212.91","Mozilla/5.0 (Macintosh; Intel Mac OS X 10_15_7) AppleWebKit/537.36 (KHTML, like Gecko) Chrome/137.0.0.0 Safari/537.36","Macintosh","Chrome","137.0.0.0","OS X","10_15_7","https://app.prolific.com/","en-GB,en-US;q=0.9,en;q=0.8","671a44d9d93641d1d9e96883","683db9eb0562dbf637994deb","6880985ad0acfe816a8010b7","2","1","671a44d9d93641d1d9e96883","2","1","2025-07-23T08:22:03.707Z","","","","","","","","","","","","","","win-only","3","g1:SW,g2:NE","0.8","3","0","543031","616.8","5621","33811.5","1","4","4","6","2","-4","-6","6","12","0.045454545454545456","840.1","3000","-2805","[""up"",""right""]","{""num_key_presses"":9,""num_perfect"":5,""num_errors"":2,""num_randdir"":2,""num_randdir_good_moves"":0,""num_whilered"":0,""num_whileblue"":1,""num_blue"":1,""num_good_moves"":5}","[355.85714285714283,362.76339285714283,0.2,354.85714285714283,362.76339285714283,104.4,347.85714285714283,361.76339285714283,204.5,346.85714285714283,362.76339285714283,315.6,337.85714285714283,379.76339285714283,419.3,646.8571428571429,167.76339285714286,523.4,648.8571428571429,117.76339285714286,624.8,645.8571428571429,101.76339285714286,728.9,643.8571428571429,75.76339285714286,829.7,643.8571428571429,75.76339285714286,929.7,643.8571428571429,75.76339285714286,1032.6,643.8571428571429,75.76339285714286,1134.1,643.8571428571429,75.76339285714286,1234.8,643.8571428571429,75.76339285714286,1340,643.8571428571429,75.76339285714286,1446.1,643.8571428571429,75.76339285714286,1549.6,643.8571428571429,75.76339285714286,1654.2,643.8571428571429,75.76339285714286,1754.9,643.8571428571429,75.76339285714286,1860,643.8571428571429,75.76339285714286,1960,643.8571428571429,75.76339285714286,2060.3,643.8571428571429,75.76339285714286,2165.6,643.8571428571429,75.76339285714286,2269.2,643.8571428571429,75.76339285714286,2369.2,643.8571428571429,75.76339285714286,2474.2,643.8571428571429,75.76339285714286,2574.8,643.8571428571429,75.76339285714286,2678.9,643.8571428571429,75.76339285714286,2784.1,643.8571428571429,75.76339285714286,2890.2,643.8571428571429,75.76339285714286,2995.3,643.8571428571429,75.76339285714286,3098.8,643.8571428571429,75.76339285714286,3203.9,643.8571428571429,75.76339285714286,3304,643.8571428571429,75.76339285714286,3408.8,643.8571428571429,75.76339285714286,3509.7,643.8571428571429,75.76339285714286,3613.9,643.8571428571429,75.76339285714286,3713.9,643.8571428571429,75.76339285714286,3819.2,643.8571428571429,75.76339285714286,3919.5,643.8571428571429,75.76339285714286,4019.7,643.8571428571429,75.76339285714286,4124.3,643.8571428571429,75.76339285714286,4229.5,643.8571428571429,75.76339285714286,4334,643.8571428571429,75.76339285714286,4438.4,643.8571428571429,75.76339285714286,4539.7,643.8571428571429,75.76339285714286,4645,643.8571428571429,75.76339285714286,4749.1,643.8571428571429,75.76339285714286,4850,643.8571428571429,75.76339285714286,4951.7]","[1432,1432,1000,0,432,""oops"",""right"",""down"",""bad_move"",4420.5,2988,2645,1432.5,343,""oops"",""right"",""left"",""bad_move"",7005.1,2584.3,2126,4420.8,458.3,""smooth"",""up"",""up"",""good_move"",9721.9,2716.5,2379.9,7005.4,336.6,""smooth"",""up"",""up"",""good_move"",12563.8,2841.7,2906.1,9722.1,-64.4,""error"",""-"",""-"",""no_move"",16376.1,3812.1,2480.1,13565.2,330.9,""smooth"",""right"",""right"",""good_move"",19369.6,2993.2,2586.7,16376.4,406.5,""smooth"",""right"",""right"",""good_move"",21409.6,2039.8,1741.6,19369.8,298.2,""while_blue"",""right"",""left"",""bad_move"",25072.7,3662.9,3133.9,21409.8,529,""smooth"",""right"",""right"",""good_move""]","",""
"1685","","<div style=""width:500px;"">
  <p>What determined the result of this run?</p>
  </div>","45","html-slider-response","20","580608","0.0-5.0-1.2","192","1","2025-07-23 08:12:24","1f75c3e559b7213887762d5229550c2b","80.192.212.91","Mozilla/5.0 (Macintosh; Intel Mac OS X 10_15_7) AppleWebKit/537.36 (KHTML, like Gecko) Chrome/137.0.0.0 Safari/537.36","Macintosh","Chrome","137.0.0.0","OS X","10_15_7","https://app.prolific.com/","en-GB,en-US;q=0.9,en;q=0.8","671a44d9d93641d1d9e96883","683db9eb0562dbf637994deb","6880985ad0acfe816a8010b7","2","1","671a44d9d93641d1d9e96883","2","1","2025-07-23T08:22:05.393Z","","","","","","","","","","","AttribQ","","50","","","","","","","","","","","","","","","","","","","","","","","","","","","","",""
"1812","","<div style=""width:500px;"">
  <p>How much control did you have over the ball?</p>
  </div>","47","html-slider-response","21","582421","0.0-5.0-2.2","192","1","2025-07-23 08:12:24","1f75c3e559b7213887762d5229550c2b","80.192.212.91","Mozilla/5.0 (Macintosh; Intel Mac OS X 10_15_7) AppleWebKit/537.36 (KHTML, like Gecko) Chrome/137.0.0.0 Safari/537.36","Macintosh","Chrome","137.0.0.0","OS X","10_15_7","https://app.prolific.com/","en-GB,en-US;q=0.9,en;q=0.8","671a44d9d93641d1d9e96883","683db9eb0562dbf637994deb","6880985ad0acfe816a8010b7","2","1","671a44d9d93641d1d9e96883","2","1","2025-07-23T08:22:07.206Z","","","","","","","","","","","ControlQ","","50","","","","","","","","","","","","","","","","","","","","","","","","","","","","",""
"2119","","<div style=""width:500px;"">
  <p>How would you describe your current emotional state?</p>
  </div>","16","html-slider-response","22","584541","0.0-5.0-3.2","192","1","2025-07-23 08:12:24","1f75c3e559b7213887762d5229550c2b","80.192.212.91","Mozilla/5.0 (Macintosh; Intel Mac OS X 10_15_7) AppleWebKit/537.36 (KHTML, like Gecko) Chrome/137.0.0.0 Safari/537.36","Macintosh","Chrome","137.0.0.0","OS X","10_15_7","https://app.prolific.com/","en-GB,en-US;q=0.9,en;q=0.8","671a44d9d93641d1d9e96883","683db9eb0562dbf637994deb","6880985ad0acfe816a8010b7","2","1","671a44d9d93641d1d9e96883","2","1","2025-07-23T08:22:09.326Z","","","","","","","","","","","StressQ","","50","","","","","","","","","","","","","","","","","","","","","","","","","","","","",""
"1921","","<div style=""width:500px;"">
  <p>What best describes how you currently feel?</p>
  </div>","88","html-slider-response","23","586463","0.0-5.0-4.2","192","1","2025-07-23 08:12:24","1f75c3e559b7213887762d5229550c2b","80.192.212.91","Mozilla/5.0 (Macintosh; Intel Mac OS X 10_15_7) AppleWebKit/537.36 (KHTML, like Gecko) Chrome/137.0.0.0 Safari/537.36","Macintosh","Chrome","137.0.0.0","OS X","10_15_7","https://app.prolific.com/","en-GB,en-US;q=0.9,en;q=0.8","671a44d9d93641d1d9e96883","683db9eb0562dbf637994deb","6880985ad0acfe816a8010b7","2","1","671a44d9d93641d1d9e96883","2","1","2025-07-23T08:22:11.249Z","","","","","","","","","","","MotivationQ","","50","","","","","","","","","","","","","","","","","","","","","","","","","","","","",""
"","","","","ctl-task-cpt","24","615211","0.0-5.0-0.3","192","1","2025-07-23 08:12:24","1f75c3e559b7213887762d5229550c2b","80.192.212.91","Mozilla/5.0 (Macintosh; Intel Mac OS X 10_15_7) AppleWebKit/537.36 (KHTML, like Gecko) Chrome/137.0.0.0 Safari/537.36","Macintosh","Chrome","137.0.0.0","OS X","10_15_7","https://app.prolific.com/","en-GB,en-US;q=0.9,en;q=0.8","671a44d9d93641d1d9e96883","683db9eb0562dbf637994deb","6880985ad0acfe816a8010b7","2","1","671a44d9d93641d1d9e96883","2","1","2025-07-23T08:22:39.996Z","","","","","","","","","","","","","","win-only","1","g1:NE,g2:SW","0.7","4","0","587397","925.3","5927.6","25736.1","1","4","8","6","2","8","8","14","6","0.10606060606060606","763.7","3000","1180","[""down"",""left""]","{""num_key_presses"":6,""num_perfect"":5,""num_errors"":0,""num_randdir"":1,""num_randdir_good_moves"":1,""num_whilered"":0,""num_whileblue"":0,""num_blue"":1,""num_good_moves"":6}","[351.85714285714283,350.76339285714283,0.3,351.85714285714283,350.76339285714283,100.5,351.85714285714283,350.76339285714283,202.5,351.85714285714283,350.76339285714283,312.2,512.8571428571429,293.76339285714283,414.9,132.85714285714286,535.7633928571429,515,43.857142857142854,614.7633928571429,615.6,44.857142857142854,618.7633928571429,720.5,49.857142857142854,624.7633928571429,827,49.857142857142854,624.7633928571429,930.9,49.857142857142854,624.7633928571429,1030.9,49.857142857142854,624.7633928571429,1131,49.857142857142854,624.7633928571429,1237,49.857142857142854,624.7633928571429,1340.5,49.857142857142854,624.7633928571429,1441,49.857142857142854,624.7633928571429,1542.1,49.857142857142854,624.7633928571429,1645.8,49.857142857142854,624.7633928571429,1745.8,49.857142857142854,624.7633928571429,1850.6,49.857142857142854,624.7633928571429,1950.8,49.857142857142854,624.7633928571429,2052.1,49.857142857142854,624.7633928571429,2157.4,49.857142857142854,624.7633928571429,2258.1,49.857142857142854,624.7633928571429,2360.6,49.857142857142854,624.7633928571429,2466,49.857142857142854,624.7633928571429,2570.3,49.857142857142854,624.7633928571429,2672.3,49.857142857142854,624.7633928571429,2779.5,49.857142857142854,624.7633928571429,2880.9,49.857142857142854,624.7633928571429,2986.1,49.857142857142854,624.7633928571429,3091.6,49.857142857142854,624.7633928571429,3195,49.857142857142854,624.7633928571429,3295.2,49.857142857142854,624.7633928571429,3396.2,49.857142857142854,624.7633928571429,3500.6,49.857142857142854,624.7633928571429,3600.9,49.857142857142854,624.7633928571429,3701,49.857142857142854,624.7633928571429,3808.8,49.857142857142854,624.7633928571429,3909.1,49.857142857142854,624.7633928571429,4010.4,49.857142857142854,624.7633928571429,4118.2,49.857142857142854,624.7633928571429,4221.5,49.857142857142854,624.7633928571429,4323.2,49.857142857142854,624.7633928571429,4431.1,49.857142857142854,624.7633928571429,4535.2,49.857142857142854,624.7633928571429,4636.4,49.857142857142854,624.7633928571429,4741.9,49.857142857142854,624.7633928571429,4842.8,49.857142857142854,624.7633928571429,4945.8]","[1413.8,1413.9,1000,0,413.9,""smooth"",""down"",""down"",""good_move"",4184,2769.9,2493.6,1414.1,276.3,""oops"",""left"",""down"",""good_move"",7136.1,2951.9,2666.1,4184.2,285.8,""smooth"",""left"",""left"",""good_move"",10315.4,3179,2831.9,7136.4,347.1,""smooth"",""left"",""left"",""good_move"",13280.5,2964.8,2678.3,10315.7,286.5,""smooth"",""down"",""down"",""good_move"",19722.6,6441.9,2123.4,17207.8,391.4,""smooth"",""left"",""left"",""good_move""]","",""
"1378","","<div style=""width:500px;"">
  <p>What determined the result of this run?</p>
  </div>","86","html-slider-response","25","616590","0.0-5.0-1.3","192","1","2025-07-23 08:12:24","1f75c3e559b7213887762d5229550c2b","80.192.212.91","Mozilla/5.0 (Macintosh; Intel Mac OS X 10_15_7) AppleWebKit/537.36 (KHTML, like Gecko) Chrome/137.0.0.0 Safari/537.36","Macintosh","Chrome","137.0.0.0","OS X","10_15_7","https://app.prolific.com/","en-GB,en-US;q=0.9,en;q=0.8","671a44d9d93641d1d9e96883","683db9eb0562dbf637994deb","6880985ad0acfe816a8010b7","2","1","671a44d9d93641d1d9e96883","2","1","2025-07-23T08:22:41.375Z","","","","","","","","","","","AttribQ","","50","","","","","","","","","","","","","","","","","","","","","","","","","","","","",""
"3262","","<div style=""width:500px;"">
  <p>How much control did you have over the ball?</p>
  </div>","86","html-slider-response","26","619853","0.0-5.0-2.3","192","1","2025-07-23 08:12:24","1f75c3e559b7213887762d5229550c2b","80.192.212.91","Mozilla/5.0 (Macintosh; Intel Mac OS X 10_15_7) AppleWebKit/537.36 (KHTML, like Gecko) Chrome/137.0.0.0 Safari/537.36","Macintosh","Chrome","137.0.0.0","OS X","10_15_7","https://app.prolific.com/","en-GB,en-US;q=0.9,en;q=0.8","671a44d9d93641d1d9e96883","683db9eb0562dbf637994deb","6880985ad0acfe816a8010b7","2","1","671a44d9d93641d1d9e96883","2","1","2025-07-23T08:22:44.638Z","","","","","","","","","","","ControlQ","","50","","","","","","","","","","","","","","","","","","","","","","","","","","","","",""
"1437","","<div style=""width:500px;"">
  <p>How would you describe your current emotional state?</p>
  </div>","13","html-slider-response","27","621291","0.0-5.0-3.3","192","1","2025-07-23 08:12:24","1f75c3e559b7213887762d5229550c2b","80.192.212.91","Mozilla/5.0 (Macintosh; Intel Mac OS X 10_15_7) AppleWebKit/537.36 (KHTML, like Gecko) Chrome/137.0.0.0 Safari/537.36","Macintosh","Chrome","137.0.0.0","OS X","10_15_7","https://app.prolific.com/","en-GB,en-US;q=0.9,en;q=0.8","671a44d9d93641d1d9e96883","683db9eb0562dbf637994deb","6880985ad0acfe816a8010b7","2","1","671a44d9d93641d1d9e96883","2","1","2025-07-23T08:22:46.076Z","","","","","","","","","","","StressQ","","50","","","","","","","","","","","","","","","","","","","","","","","","","","","","",""
"1207","","<div style=""width:500px;"">
  <p>What best describes how you currently feel?</p>
  </div>","91","html-slider-response","28","622499","0.0-5.0-4.3","192","1","2025-07-23 08:12:24","1f75c3e559b7213887762d5229550c2b","80.192.212.91","Mozilla/5.0 (Macintosh; Intel Mac OS X 10_15_7) AppleWebKit/537.36 (KHTML, like Gecko) Chrome/137.0.0.0 Safari/537.36","Macintosh","Chrome","137.0.0.0","OS X","10_15_7","https://app.prolific.com/","en-GB,en-US;q=0.9,en;q=0.8","671a44d9d93641d1d9e96883","683db9eb0562dbf637994deb","6880985ad0acfe816a8010b7","2","1","671a44d9d93641d1d9e96883","2","1","2025-07-23T08:22:47.284Z","","","","","","","","","","","MotivationQ","","50","","","","","","","","","","","","","","","","","","","","","","","","","","","","",""
"","","","","ctl-task-cpt","29","661176","0.0-5.0-0.4","192","1","2025-07-23 08:12:24","1f75c3e559b7213887762d5229550c2b","80.192.212.91","Mozilla/5.0 (Macintosh; Intel Mac OS X 10_15_7) AppleWebKit/537.36 (KHTML, like Gecko) Chrome/137.0.0.0 Safari/537.36","Macintosh","Chrome","137.0.0.0","OS X","10_15_7","https://app.prolific.com/","en-GB,en-US;q=0.9,en;q=0.8","671a44d9d93641d1d9e96883","683db9eb0562dbf637994deb","6880985ad0acfe816a8010b7","2","1","671a44d9d93641d1d9e96883","2","1","2025-07-23T08:23:25.961Z","","","","","","","","","","","","","","win-only","0","g1:NW,g2:SE","0.6","5","0","623433.6","509.2","5511.2","35666.1","1","4","4","6","2","-4","-6","8","14","0.06060606060606061","816.2","3000","-2850","[""down"",""right""]","{""num_key_presses"":10,""num_perfect"":6,""num_errors"":2,""num_randdir"":2,""num_randdir_good_moves"":0,""num_whilered"":0,""num_whileblue"":2,""num_blue"":2,""num_good_moves"":7}","[354.85714285714283,346.76339285714283,0.2,354.85714285714283,346.76339285714283,100.7,354.85714285714283,346.76339285714283,201.7,354.85714285714283,346.76339285714283,302.1,354.85714285714283,346.76339285714283,406.4,522.8571428571429,534.7633928571429,512.8,616.8571428571429,563.7633928571429,617.1,649.8571428571429,599.7633928571429,720.5,663.8571428571429,629.7633928571429,822.2,663.8571428571429,629.7633928571429,926.9,663.8571428571429,629.7633928571429,1032.1,663.8571428571429,629.7633928571429,1132.8,663.8571428571429,629.7633928571429,1237,663.8571428571429,629.7633928571429,1341.2,663.8571428571429,629.7633928571429,1447,663.8571428571429,629.7633928571429,1549.1,663.8571428571429,629.7633928571429,1651.5,663.8571428571429,629.7633928571429,1751.5,663.8571428571429,629.7633928571429,1852.1,663.8571428571429,629.7633928571429,1956.3,663.8571428571429,629.7633928571429,2056.6,663.8571428571429,629.7633928571429,2161.5,663.8571428571429,629.7633928571429,2268.4,663.8571428571429,629.7633928571429,2369.9,663.8571428571429,629.7633928571429,2471.7,663.8571428571429,629.7633928571429,2571.7,663.8571428571429,629.7633928571429,2676.7,663.8571428571429,629.7633928571429,2781,663.8571428571429,629.7633928571429,2881.1,663.8571428571429,629.7633928571429,2981.4,663.8571428571429,629.7633928571429,3086.8,663.8571428571429,629.7633928571429,3188.3,663.8571428571429,629.7633928571429,3291.4,663.8571428571429,629.7633928571429,3396.4,663.8571428571429,629.7633928571429,3496.4,663.8571428571429,629.7633928571429,3596.7,663.8571428571429,629.7633928571429,3697.2,663.8571428571429,629.7633928571429,3797.2,663.8571428571429,629.7633928571429,3905.2,663.8571428571429,629.7633928571429,4006.1,663.8571428571429,629.7633928571429,4106.8,663.8571428571429,629.7633928571429,4211.9,663.8571428571429,629.7633928571429,4312.1,663.8571428571429,629.7633928571429,4416.1,663.8571428571429,629.7633928571429,4516.2,663.8571428571429,629.7633928571429,4617,663.8571428571429,629.7633928571429,4721.1,663.8571428571429,629.7633928571429,4821.3,663.8571428571429,629.7633928571429,4921.3]","[1373.6,1373.6,1000,0,373.6,""smooth"",""down"",""down"",""good_move"",4892.4,3518.4,3217.1,1374,301.3,""smooth"",""right"",""right"",""good_move"",7697.5,2804.8,2492.7,4892.7,312.1,""smooth"",""down"",""down"",""good_move"",9998.4,2300.7,2024.8,7697.7,275.9,""while_blue"",""right"",""right"",""good_move"",13324,3325.3,2803.9,9998.7,521.4,""oops"",""right"",""up"",""bad_move"",15467,2142.8,1791.1,13324.2,351.7,""smooth"",""right"",""right"",""good_move"",18443.5,2976.2,2702.2,15467.3,274,""while_blue"",""down"",""up"",""bad_move"",21145.6,2701.9,2341.1,18443.7,360.8,""smooth"",""down"",""down"",""good_move"",24458.6,3312.8,2946.4,21145.8,366.4,""smooth"",""down"",""down"",""good_move"",26988.5,2529.6,2195.6,24458.9,334,""oops"",""down"",""left"",""bad_move""]","",""
"1707","","<div style=""width:500px;"">
  <p>What determined the result of this run?</p>
  </div>","41","html-slider-response","30","662884","0.0-5.0-1.4","192","1","2025-07-23 08:12:24","1f75c3e559b7213887762d5229550c2b","80.192.212.91","Mozilla/5.0 (Macintosh; Intel Mac OS X 10_15_7) AppleWebKit/537.36 (KHTML, like Gecko) Chrome/137.0.0.0 Safari/537.36","Macintosh","Chrome","137.0.0.0","OS X","10_15_7","https://app.prolific.com/","en-GB,en-US;q=0.9,en;q=0.8","671a44d9d93641d1d9e96883","683db9eb0562dbf637994deb","6880985ad0acfe816a8010b7","2","1","671a44d9d93641d1d9e96883","2","1","2025-07-23T08:23:27.669Z","","","","","","","","","","","AttribQ","","50","","","","","","","","","","","","","","","","","","","","","","","","","","","","",""
"1315","","<div style=""width:500px;"">
  <p>How much control did you have over the ball?</p>
  </div>","42","html-slider-response","31","664200","0.0-5.0-2.4","192","1","2025-07-23 08:12:24","1f75c3e559b7213887762d5229550c2b","80.192.212.91","Mozilla/5.0 (Macintosh; Intel Mac OS X 10_15_7) AppleWebKit/537.36 (KHTML, like Gecko) Chrome/137.0.0.0 Safari/537.36","Macintosh","Chrome","137.0.0.0","OS X","10_15_7","https://app.prolific.com/","en-GB,en-US;q=0.9,en;q=0.8","671a44d9d93641d1d9e96883","683db9eb0562dbf637994deb","6880985ad0acfe816a8010b7","2","1","671a44d9d93641d1d9e96883","2","1","2025-07-23T08:23:28.985Z","","","","","","","","","","","ControlQ","","50","","","","","","","","","","","","","","","","","","","","","","","","","","","","",""
"3023","","<div style=""width:500px;"">
  <p>How would you describe your current emotional state?</p>
  </div>","34","html-slider-response","32","667224","0.0-5.0-3.4","192","1","2025-07-23 08:12:24","1f75c3e559b7213887762d5229550c2b","80.192.212.91","Mozilla/5.0 (Macintosh; Intel Mac OS X 10_15_7) AppleWebKit/537.36 (KHTML, like Gecko) Chrome/137.0.0.0 Safari/537.36","Macintosh","Chrome","137.0.0.0","OS X","10_15_7","https://app.prolific.com/","en-GB,en-US;q=0.9,en;q=0.8","671a44d9d93641d1d9e96883","683db9eb0562dbf637994deb","6880985ad0acfe816a8010b7","2","1","671a44d9d93641d1d9e96883","2","1","2025-07-23T08:23:32.009Z","","","","","","","","","","","StressQ","","50","","","","","","","","","","","","","","","","","","","","","","","","","","","","",""
"1262","","<div style=""width:500px;"">
  <p>What best describes how you currently feel?</p>
  </div>","84","html-slider-response","33","668486","0.0-5.0-4.4","192","1","2025-07-23 08:12:24","1f75c3e559b7213887762d5229550c2b","80.192.212.91","Mozilla/5.0 (Macintosh; Intel Mac OS X 10_15_7) AppleWebKit/537.36 (KHTML, like Gecko) Chrome/137.0.0.0 Safari/537.36","Macintosh","Chrome","137.0.0.0","OS X","10_15_7","https://app.prolific.com/","en-GB,en-US;q=0.9,en;q=0.8","671a44d9d93641d1d9e96883","683db9eb0562dbf637994deb","6880985ad0acfe816a8010b7","2","1","671a44d9d93641d1d9e96883","2","1","2025-07-23T08:23:33.271Z","","","","","","","","","","","MotivationQ","","50","","","","","","","","","","","","","","","","","","","","","","","","","","","","",""
"","","","","ctl-task-cpt","34","722362","0.0-5.0-0.5","192","1","2025-07-23 08:12:24","1f75c3e559b7213887762d5229550c2b","80.192.212.91","Mozilla/5.0 (Macintosh; Intel Mac OS X 10_15_7) AppleWebKit/537.36 (KHTML, like Gecko) Chrome/137.0.0.0 Safari/537.36","Macintosh","Chrome","137.0.0.0","OS X","10_15_7","https://app.prolific.com/","en-GB,en-US;q=0.9,en;q=0.8","671a44d9d93641d1d9e96883","683db9eb0562dbf637994deb","6880985ad0acfe816a8010b7","2","1","671a44d9d93641d1d9e96883","2","1","2025-07-23T08:24:27.147Z","","","","","","","","","","","","","","win-only","3","g1:SW,g2:NE","0.5","6","0","669419.5","554.6","5556.4","50857.2","1","4","8","6","2","-8","-9","0","8","0","738.3","3000","-2715","[""up"",""right""]","{""num_key_presses"":10,""num_perfect"":4,""num_errors"":1,""num_randdir"":5,""num_randdir_good_moves"":1,""num_whilered"":0,""num_whileblue"":1,""num_blue"":5,""num_good_moves"":6}","[358.85714285714283,344.76339285714283,0.2,358.85714285714283,344.76339285714283,101.3,358.85714285714283,344.76339285714283,208,358.85714285714283,344.76339285714283,311.4,373.85714285714283,334.76339285714283,411.5,593.8571428571429,180.76339285714286,515.6,656.8571428571429,108.76339285714286,616.9,656.8571428571429,90.76339285714286,718.3,656.8571428571429,90.76339285714286,823.1,656.8571428571429,90.76339285714286,926.6,656.8571428571429,90.76339285714286,1028.4,656.8571428571429,90.76339285714286,1131,656.8571428571429,89.76339285714286,1231.1,656.8571428571429,89.76339285714286,1331.4,656.8571428571429,89.76339285714286,1437.8,656.8571428571429,89.76339285714286,1546.6,656.8571428571429,89.76339285714286,1652.4,656.8571428571429,89.76339285714286,1758.8,656.8571428571429,89.76339285714286,1861.6,656.8571428571429,89.76339285714286,1966.2,656.8571428571429,89.76339285714286,2072.1,656.8571428571429,89.76339285714286,2175.3,656.8571428571429,89.76339285714286,2276.5,656.8571428571429,89.76339285714286,2382,656.8571428571429,89.76339285714286,2482,656.8571428571429,89.76339285714286,2587.1,656.8571428571429,89.76339285714286,2690.9,656.8571428571429,89.76339285714286,2791.8,656.8571428571429,89.76339285714286,2896.8,656.8571428571429,89.76339285714286,3000.9,656.8571428571429,89.76339285714286,3101.9,656.8571428571429,89.76339285714286,3206.7,656.8571428571429,89.76339285714286,3309,656.8571428571429,89.76339285714286,3411.8,656.8571428571429,89.76339285714286,3516.4,656.8571428571429,89.76339285714286,3624.8,656.8571428571429,89.76339285714286,3731.5,656.8571428571429,89.76339285714286,3836.4,656.8571428571429,89.76339285714286,3939.3,656.8571428571429,89.76339285714286,4046.1,656.8571428571429,89.76339285714286,4146.1,656.8571428571429,89.76339285714286,4246.2,656.8571428571429,89.76339285714286,4351.1,656.8571428571429,89.76339285714286,4451.1,656.8571428571429,89.76339285714286,4551.2,656.8571428571429,89.76339285714286,4651.9,656.8571428571429,89.76339285714286,4758.3,656.8571428571429,89.76339285714286,4861.6,656.8571428571429,89.76339285714286,4965.8]","[1363.4,1363.4,1000,0,363.4,""smooth"",""right"",""right"",""good_move"",4841.8,3477.9,3006.7,1363.9,471.2,""oops"",""up"",""right"",""good_move"",7059.8,2217.8,1811.1,4842,406.7,""oops"",""up"",""left"",""bad_move"",9894.5,2834.4,2453.2,7060.1,381.3,""oops"",""up"",""left"",""bad_move"",12460.8,2566,2203.7,9894.8,362.3,""smooth"",""up"",""up"",""good_move"",15808.1,3347,3067.4,12461.1,279.6,""while_blue"",""up"",""right"",""good_move"",19089.1,3280.6,2865.7,15808.5,414.9,""smooth"",""up"",""up"",""good_move"",29554.7,10465.4,3034.2,26204.8,315.7,""smooth"",""right"",""right"",""good_move"",32191.8,2636.9,2335.2,29554.9,301.7,""oops"",""right"",""down"",""bad_move"",34990.3,2798.3,2516.7,32192.1,281.5,""oops"",""right"",""down"",""bad_move""]","",""
"1917","","<div style=""width:500px;"">
  <p>What determined the result of this run?</p>
  </div>","35","html-slider-response","35","724280","0.0-5.0-1.5","192","1","2025-07-23 08:12:24","1f75c3e559b7213887762d5229550c2b","80.192.212.91","Mozilla/5.0 (Macintosh; Intel Mac OS X 10_15_7) AppleWebKit/537.36 (KHTML, like Gecko) Chrome/137.0.0.0 Safari/537.36","Macintosh","Chrome","137.0.0.0","OS X","10_15_7","https://app.prolific.com/","en-GB,en-US;q=0.9,en;q=0.8","671a44d9d93641d1d9e96883","683db9eb0562dbf637994deb","6880985ad0acfe816a8010b7","2","1","671a44d9d93641d1d9e96883","2","1","2025-07-23T08:24:29.065Z","","","","","","","","","","","AttribQ","","50","","","","","","","","","","","","","","","","","","","","","","","","","","","","",""
"1583","","<div style=""width:500px;"">
  <p>How much control did you have over the ball?</p>
  </div>","38","html-slider-response","36","725864","0.0-5.0-2.5","192","1","2025-07-23 08:12:24","1f75c3e559b7213887762d5229550c2b","80.192.212.91","Mozilla/5.0 (Macintosh; Intel Mac OS X 10_15_7) AppleWebKit/537.36 (KHTML, like Gecko) Chrome/137.0.0.0 Safari/537.36","Macintosh","Chrome","137.0.0.0","OS X","10_15_7","https://app.prolific.com/","en-GB,en-US;q=0.9,en;q=0.8","671a44d9d93641d1d9e96883","683db9eb0562dbf637994deb","6880985ad0acfe816a8010b7","2","1","671a44d9d93641d1d9e96883","2","1","2025-07-23T08:24:30.649Z","","","","","","","","","","","ControlQ","","50","","","","","","","","","","","","","","","","","","","","","","","","","","","","",""
"1657","","<div style=""width:500px;"">
  <p>How would you describe your current emotional state?</p>
  </div>","36","html-slider-response","37","727521","0.0-5.0-3.5","192","1","2025-07-23 08:12:24","1f75c3e559b7213887762d5229550c2b","80.192.212.91","Mozilla/5.0 (Macintosh; Intel Mac OS X 10_15_7) AppleWebKit/537.36 (KHTML, like Gecko) Chrome/137.0.0.0 Safari/537.36","Macintosh","Chrome","137.0.0.0","OS X","10_15_7","https://app.prolific.com/","en-GB,en-US;q=0.9,en;q=0.8","671a44d9d93641d1d9e96883","683db9eb0562dbf637994deb","6880985ad0acfe816a8010b7","2","1","671a44d9d93641d1d9e96883","2","1","2025-07-23T08:24:32.306Z","","","","","","","","","","","StressQ","","50","","","","","","","","","","","","","","","","","","","","","","","","","","","","",""
"1166","","<div style=""width:500px;"">
  <p>What best describes how you currently feel?</p>
  </div>","82","html-slider-response","38","728688","0.0-5.0-4.5","192","1","2025-07-23 08:12:24","1f75c3e559b7213887762d5229550c2b","80.192.212.91","Mozilla/5.0 (Macintosh; Intel Mac OS X 10_15_7) AppleWebKit/537.36 (KHTML, like Gecko) Chrome/137.0.0.0 Safari/537.36","Macintosh","Chrome","137.0.0.0","OS X","10_15_7","https://app.prolific.com/","en-GB,en-US;q=0.9,en;q=0.8","671a44d9d93641d1d9e96883","683db9eb0562dbf637994deb","6880985ad0acfe816a8010b7","2","1","671a44d9d93641d1d9e96883","2","1","2025-07-23T08:24:33.473Z","","","","","","","","","","","MotivationQ","","50","","","","","","","","","","","","","","","","","","","","","","","","","","","","",""
"","","","","ctl-task-cpt","39","765413","0.0-5.0-0.6","192","1","2025-07-23 08:12:24","1f75c3e559b7213887762d5229550c2b","80.192.212.91","Mozilla/5.0 (Macintosh; Intel Mac OS X 10_15_7) AppleWebKit/537.36 (KHTML, like Gecko) Chrome/137.0.0.0 Safari/537.36","Macintosh","Chrome","137.0.0.0","OS X","10_15_7","https://app.prolific.com/","en-GB,en-US;q=0.9,en;q=0.8","671a44d9d93641d1d9e96883","683db9eb0562dbf637994deb","6880985ad0acfe816a8010b7","2","1","671a44d9d93641d1d9e96883","2","1","2025-07-23T08:25:10.198Z","","","","","","","","","","","","","","win-only","2","g1:SE,g2:NW","0.4","7","0","729622.8","1085.7","6093.4","33715.5","1","4","8","6","2","-8","-8","0","0","0","994","3000","-2700","[""left"",""up""]","{""num_key_presses"":9,""num_perfect"":4,""num_errors"":0,""num_randdir"":5,""num_randdir_good_moves"":2,""num_whilered"":0,""num_whileblue"":0,""num_blue"":0,""num_good_moves"":6}","[347.85714285714283,351.76339285714283,0.3,347.85714285714283,351.76339285714283,100.7,346.85714285714283,347.76339285714283,209.7,332.85714285714283,344.76339285714283,310.2,159.85714285714286,152.76339285714286,414.9,373.85714285714283,406.76339285714283,520.4,224.85714285714286,264.76339285714283,621.5,-14.142857142857146,68.76339285714286,725.4,-8.142857142857146,57.763392857142854,829.3,22.857142857142854,46.763392857142854,930.5,43.857142857142854,46.763392857142854,1038.9,43.857142857142854,46.763392857142854,1144.8,43.857142857142854,46.763392857142854,1248.2,43.857142857142854,46.763392857142854,1350.6,43.857142857142854,46.763392857142854,1456.7,43.857142857142854,46.763392857142854,1560.4,43.857142857142854,46.763392857142854,1665.1,43.857142857142854,46.763392857142854,1765.7,43.857142857142854,46.763392857142854,1875.7,43.857142857142854,46.763392857142854,1980.1,43.857142857142854,46.763392857142854,2087.5,43.857142857142854,46.763392857142854,2189.8,43.857142857142854,46.763392857142854,2290.3,43.857142857142854,46.763392857142854,2395,43.857142857142854,46.763392857142854,2500.5,43.857142857142854,46.763392857142854,2608.9,43.857142857142854,46.763392857142854,2709.6,43.857142857142854,46.763392857142854,2811.3,43.857142857142854,46.763392857142854,2912.6,43.857142857142854,46.763392857142854,3015.4,43.857142857142854,46.763392857142854,3123.2,43.857142857142854,46.763392857142854,3226.7,43.857142857142854,46.763392857142854,3329.6,43.857142857142854,46.763392857142854,3430.4,43.857142857142854,46.763392857142854,3535.7,43.857142857142854,46.763392857142854,3640.7,43.857142857142854,46.763392857142854,3748.1,43.857142857142854,46.763392857142854,3849.5,43.857142857142854,46.763392857142854,3950,43.857142857142854,46.763392857142854,4055.4,43.857142857142854,46.763392857142854,4158.6,43.857142857142854,46.763392857142854,4259.7,43.857142857142854,46.763392857142854,4360.3,43.857142857142854,46.763392857142854,4465.6,43.857142857142854,46.763392857142854,4570.2,43.857142857142854,46.763392857142854,4670.2,43.857142857142854,46.763392857142854,4775.9,43.857142857142854,46.763392857142854,4876.5,43.857142857142854,46.763392857142854,4976.9]","[1410.4,1410.4,1000,0,410.4,""oops"",""left"",""left"",""good_move"",4476.7,3066,2675.3,1410.7,390.7,""smooth"",""up"",""up"",""good_move"",7514.1,3037.2,2585.9,4476.9,451.3,""smooth"",""left"",""left"",""good_move"",10628.8,3114.6,2785.7,7514.2,328.9,""oops"",""up"",""down"",""bad_move"",13365.6,2736.5,2438.4,10629.1,298.1,""smooth"",""left"",""left"",""good_move"",15937.9,2572.2,2238,13365.7,334.2,""smooth"",""up"",""up"",""good_move"",19037.9,3099.6,2766.3,15938.3,333.3,""oops"",""up"",""down"",""bad_move"",22042,3003.9,2714.8,19038.1,289.1,""oops"",""up"",""right"",""bad_move"",25059.2,3016.8,2702,22042.4,314.8,""oops"",""up"",""left"",""good_move""]","",""
"2127","","<div style=""width:500px;"">
  <p>What determined the result of this run?</p>
  </div>","28","html-slider-response","40","767540","0.0-5.0-1.6","192","1","2025-07-23 08:12:24","1f75c3e559b7213887762d5229550c2b","80.192.212.91","Mozilla/5.0 (Macintosh; Intel Mac OS X 10_15_7) AppleWebKit/537.36 (KHTML, like Gecko) Chrome/137.0.0.0 Safari/537.36","Macintosh","Chrome","137.0.0.0","OS X","10_15_7","https://app.prolific.com/","en-GB,en-US;q=0.9,en;q=0.8","671a44d9d93641d1d9e96883","683db9eb0562dbf637994deb","6880985ad0acfe816a8010b7","2","1","671a44d9d93641d1d9e96883","2","1","2025-07-23T08:25:12.325Z","","","","","","","","","","","AttribQ","","50","","","","","","","","","","","","","","","","","","","","","","","","","","","","",""
"2059","","<div style=""width:500px;"">
  <p>How much control did you have over the ball?</p>
  </div>","23","html-slider-response","41","769600","0.0-5.0-2.6","192","1","2025-07-23 08:12:24","1f75c3e559b7213887762d5229550c2b","80.192.212.91","Mozilla/5.0 (Macintosh; Intel Mac OS X 10_15_7) AppleWebKit/537.36 (KHTML, like Gecko) Chrome/137.0.0.0 Safari/537.36","Macintosh","Chrome","137.0.0.0","OS X","10_15_7","https://app.prolific.com/","en-GB,en-US;q=0.9,en;q=0.8","671a44d9d93641d1d9e96883","683db9eb0562dbf637994deb","6880985ad0acfe816a8010b7","2","1","671a44d9d93641d1d9e96883","2","1","2025-07-23T08:25:14.385Z","","","","","","","","","","","ControlQ","","50","","","","","","","","","","","","","","","","","","","","","","","","","","","","",""
"1182","","<div style=""width:500px;"">
  <p>How would you describe your current emotional state?</p>
  </div>","45","html-slider-response","42","770782","0.0-5.0-3.6","192","1","2025-07-23 08:12:24","1f75c3e559b7213887762d5229550c2b","80.192.212.91","Mozilla/5.0 (Macintosh; Intel Mac OS X 10_15_7) AppleWebKit/537.36 (KHTML, like Gecko) Chrome/137.0.0.0 Safari/537.36","Macintosh","Chrome","137.0.0.0","OS X","10_15_7","https://app.prolific.com/","en-GB,en-US;q=0.9,en;q=0.8","671a44d9d93641d1d9e96883","683db9eb0562dbf637994deb","6880985ad0acfe816a8010b7","2","1","671a44d9d93641d1d9e96883","2","1","2025-07-23T08:25:15.568Z","","","","","","","","","","","StressQ","","50","","","","","","","","","","","","","","","","","","","","","","","","","","","","",""
"1148","","<div style=""width:500px;"">
  <p>What best describes how you currently feel?</p>
  </div>","85","html-slider-response","43","771931","0.0-5.0-4.6","192","1","2025-07-23 08:12:24","1f75c3e559b7213887762d5229550c2b","80.192.212.91","Mozilla/5.0 (Macintosh; Intel Mac OS X 10_15_7) AppleWebKit/537.36 (KHTML, like Gecko) Chrome/137.0.0.0 Safari/537.36","Macintosh","Chrome","137.0.0.0","OS X","10_15_7","https://app.prolific.com/","en-GB,en-US;q=0.9,en;q=0.8","671a44d9d93641d1d9e96883","683db9eb0562dbf637994deb","6880985ad0acfe816a8010b7","2","1","671a44d9d93641d1d9e96883","2","1","2025-07-23T08:25:16.716Z","","","","","","","","","","","MotivationQ","","50","","","","","","","","","","","","","","","","","","","","","","","","","","","","",""
"","","","","ctl-task-cpt","44","800521","0.0-5.0-0.7","192","1","2025-07-23 08:12:24","1f75c3e559b7213887762d5229550c2b","80.192.212.91","Mozilla/5.0 (Macintosh; Intel Mac OS X 10_15_7) AppleWebKit/537.36 (KHTML, like Gecko) Chrome/137.0.0.0 Safari/537.36","Macintosh","Chrome","137.0.0.0","OS X","10_15_7","https://app.prolific.com/","en-GB,en-US;q=0.9,en;q=0.8","671a44d9d93641d1d9e96883","683db9eb0562dbf637994deb","6880985ad0acfe816a8010b7","2","1","671a44d9d93641d1d9e96883","2","1","2025-07-23T08:25:45.306Z","","","","","","","","","","","","","","win-only","1","g1:NE,g2:SW","0.3","8","0","772866.9","982.6","5990.6","25576.4","1","4","4","6","2","4","4","4","0","0.030303030303030304","766.6","3000","990","[""down"",""left""]","{""num_key_presses"":6,""num_perfect"":3,""num_errors"":0,""num_randdir"":3,""num_randdir_good_moves"":3,""num_whilered"":0,""num_whileblue"":0,""num_blue"":1,""num_good_moves"":6}","[352.85714285714283,350.76339285714283,0.1,354.85714285714283,352.76339285714283,101.3,354.85714285714283,352.76339285714283,203.1,346.85714285714283,351.76339285714283,303.8,183.85714285714286,526.7633928571429,408.5,148.85714285714286,580.7633928571429,517.4,112.85714285714286,597.7633928571429,624.2,85.85714285714286,611.7633928571429,726.6,85.85714285714286,611.7633928571429,829.1,85.85714285714286,611.7633928571429,939.4,85.85714285714286,611.7633928571429,1043.1,85.85714285714286,611.7633928571429,1143.2,85.85714285714286,611.7633928571429,1243.3,85.85714285714286,611.7633928571429,1343.3,85.85714285714286,611.7633928571429,1444.1,85.85714285714286,611.7633928571429,1551.5,85.85714285714286,611.7633928571429,1653.4,85.85714285714286,611.7633928571429,1758,85.85714285714286,611.7633928571429,1858.5,85.85714285714286,611.7633928571429,1966,85.85714285714286,611.7633928571429,2069.8,85.85714285714286,611.7633928571429,2172.3,85.85714285714286,611.7633928571429,2273.2,85.85714285714286,611.7633928571429,2378.5,85.85714285714286,611.7633928571429,2483.7,85.85714285714286,611.7633928571429,2590.5,85.85714285714286,611.7633928571429,2692.9,85.85714285714286,611.7633928571429,2793.4,85.85714285714286,611.7633928571429,2902.8,85.85714285714286,611.7633928571429,3003.3,85.85714285714286,611.7633928571429,3112.3,85.85714285714286,611.7633928571429,3213.5,85.85714285714286,611.7633928571429,3318.7,85.85714285714286,611.7633928571429,3423.4,85.85714285714286,611.7633928571429,3528.4,85.85714285714286,611.7633928571429,3628.5,85.85714285714286,611.7633928571429,3736.5,85.85714285714286,611.7633928571429,3837.8,85.85714285714286,611.7633928571429,3937.9,85.85714285714286,611.7633928571429,4038.5,85.85714285714286,611.7633928571429,4138.7,85.85714285714286,611.7633928571429,4243.2,85.85714285714286,611.7633928571429,4353.9,85.85714285714286,611.7633928571429,4456.8,85.85714285714286,611.7633928571429,4558.6,85.85714285714286,611.7633928571429,4662.7,85.85714285714286,611.7633928571429,4763.3,85.85714285714286,611.7633928571429,4873.5,85.85714285714286,611.7633928571429,4978.1]","[1366.8,1366.8,1000,0,366.8,""oops"",""down"",""down"",""good_move"",7871.2,6504.1,2379,5055,437.2,""oops"",""left"",""left"",""good_move"",11327.4,3455.9,3109.6,7871.5,346.3,""smooth"",""left"",""left"",""good_move"",13694,2366.5,1904.6,11327.5,461.9,""oops"",""down"",""down"",""good_move"",16506.9,2812.6,2520.5,13694.3,292.1,""smooth"",""down"",""down"",""good_move"",19475.6,2968.4,2646.8,16507.2,321.6,""smooth"",""left"",""left"",""good_move""]","",""
"1018","","<div style=""width:500px;"">
  <p>What determined the result of this run?</p>
  </div>","57","html-slider-response","45","801540","0.0-5.0-1.7","192","1","2025-07-23 08:12:24","1f75c3e559b7213887762d5229550c2b","80.192.212.91","Mozilla/5.0 (Macintosh; Intel Mac OS X 10_15_7) AppleWebKit/537.36 (KHTML, like Gecko) Chrome/137.0.0.0 Safari/537.36","Macintosh","Chrome","137.0.0.0","OS X","10_15_7","https://app.prolific.com/","en-GB,en-US;q=0.9,en;q=0.8","671a44d9d93641d1d9e96883","683db9eb0562dbf637994deb","6880985ad0acfe816a8010b7","2","1","671a44d9d93641d1d9e96883","2","1","2025-07-23T08:25:46.325Z","","","","","","","","","","","AttribQ","","50","","","","","","","","","","","","","","","","","","","","","","","","","","","","",""
"2076","","<div style=""width:500px;"">
  <p>How much control did you have over the ball?</p>
  </div>","56","html-slider-response","46","803618","0.0-5.0-2.7","192","1","2025-07-23 08:12:24","1f75c3e559b7213887762d5229550c2b","80.192.212.91","Mozilla/5.0 (Macintosh; Intel Mac OS X 10_15_7) AppleWebKit/537.36 (KHTML, like Gecko) Chrome/137.0.0.0 Safari/537.36","Macintosh","Chrome","137.0.0.0","OS X","10_15_7","https://app.prolific.com/","en-GB,en-US;q=0.9,en;q=0.8","671a44d9d93641d1d9e96883","683db9eb0562dbf637994deb","6880985ad0acfe816a8010b7","2","1","671a44d9d93641d1d9e96883","2","1","2025-07-23T08:25:48.403Z","","","","","","","","","","","ControlQ","","50","","","","","","","","","","","","","","","","","","","","","","","","","","","","",""
"1669","","<div style=""width:500px;"">
  <p>How would you describe your current emotional state?</p>
  </div>","44","html-slider-response","47","805288","0.0-5.0-3.7","192","1","2025-07-23 08:12:24","1f75c3e559b7213887762d5229550c2b","80.192.212.91","Mozilla/5.0 (Macintosh; Intel Mac OS X 10_15_7) AppleWebKit/537.36 (KHTML, like Gecko) Chrome/137.0.0.0 Safari/537.36","Macintosh","Chrome","137.0.0.0","OS X","10_15_7","https://app.prolific.com/","en-GB,en-US;q=0.9,en;q=0.8","671a44d9d93641d1d9e96883","683db9eb0562dbf637994deb","6880985ad0acfe816a8010b7","2","1","671a44d9d93641d1d9e96883","2","1","2025-07-23T08:25:50.073Z","","","","","","","","","","","StressQ","","50","","","","","","","","","","","","","","","","","","","","","","","","","","","","",""
"1151","","<div style=""width:500px;"">
  <p>What best describes how you currently feel?</p>
  </div>","87","html-slider-response","48","806440","0.0-5.0-4.7","192","1","2025-07-23 08:12:24","1f75c3e559b7213887762d5229550c2b","80.192.212.91","Mozilla/5.0 (Macintosh; Intel Mac OS X 10_15_7) AppleWebKit/537.36 (KHTML, like Gecko) Chrome/137.0.0.0 Safari/537.36","Macintosh","Chrome","137.0.0.0","OS X","10_15_7","https://app.prolific.com/","en-GB,en-US;q=0.9,en;q=0.8","671a44d9d93641d1d9e96883","683db9eb0562dbf637994deb","6880985ad0acfe816a8010b7","2","1","671a44d9d93641d1d9e96883","2","1","2025-07-23T08:25:51.225Z","","","","","","","","","","","MotivationQ","","50","","","","","","","","","","","","","","","","","","","","","","","","","","","","",""
"","","","","ctl-task-cpt","49","858946","0.0-5.0-0.8","192","1","2025-07-23 08:12:24","1f75c3e559b7213887762d5229550c2b","80.192.212.91","Mozilla/5.0 (Macintosh; Intel Mac OS X 10_15_7) AppleWebKit/537.36 (KHTML, like Gecko) Chrome/137.0.0.0 Safari/537.36","Macintosh","Chrome","137.0.0.0","OS X","10_15_7","https://app.prolific.com/","en-GB,en-US;q=0.9,en;q=0.8","671a44d9d93641d1d9e96883","683db9eb0562dbf637994deb","6880985ad0acfe816a8010b7","2","1","671a44d9d93641d1d9e96883","2","1","2025-07-23T08:26:43.731Z","","","","","","","","","","","","","","win-only","1","g1:NE,g2:SW","0.2","9","0","807375.8","1224.5","6226.2","49496.6","1","4","8","6","2","-8","-12","0","4","0","704.9","3000","-2580","[""down"",""left""]","{""num_key_presses"":14,""num_perfect"":2,""num_errors"":4,""num_randdir"":8,""num_randdir_good_moves"":5,""num_whilered"":0,""num_whileblue"":2,""num_blue"":3,""num_good_moves"":8}","[352.85714285714283,361.76339285714283,0.2,352.85714285714283,361.76339285714283,101.8,352.85714285714283,361.76339285714283,201.9,352.85714285714283,361.76339285714283,306.3,259.85714285714283,495.76339285714283,416.5,182.85714285714286,551.7633928571429,518.6,132.85714285714286,570.7633928571429,618.6,110.85714285714286,597.7633928571429,727.7,110.85714285714286,597.7633928571429,831.8,106.85714285714286,598.7633928571429,931.8,102.85714285714286,600.7633928571429,1036.5,102.85714285714286,600.7633928571429,1138.7,102.85714285714286,600.7633928571429,1251.1,102.85714285714286,600.7633928571429,1352,102.85714285714286,600.7633928571429,1456.8,102.85714285714286,600.7633928571429,1569.5,102.85714285714286,600.7633928571429,1672.1,102.85714285714286,600.7633928571429,1775.8,102.85714285714286,600.7633928571429,1887.3,102.85714285714286,600.7633928571429,1991.7,102.85714285714286,600.7633928571429,2104,102.85714285714286,600.7633928571429,2206.5,102.85714285714286,600.7633928571429,2306.6,102.85714285714286,600.7633928571429,2412,102.85714285714286,600.7633928571429,2516.7,102.85714285714286,600.7633928571429,2621.5,102.85714285714286,600.7633928571429,2721.9,102.85714285714286,600.7633928571429,2821.9,102.85714285714286,600.7633928571429,2932.6,102.85714285714286,600.7633928571429,3038.1,102.85714285714286,600.7633928571429,3138.5,102.85714285714286,600.7633928571429,3241.8,102.85714285714286,600.7633928571429,3354,102.85714285714286,600.7633928571429,3456.4,102.85714285714286,600.7633928571429,3566,102.85714285714286,600.7633928571429,3668.6,102.85714285714286,600.7633928571429,3771.7,102.85714285714286,600.7633928571429,3879.1,102.85714285714286,600.7633928571429,3984.3,102.85714285714286,600.7633928571429,4086,102.85714285714286,600.7633928571429,4186.8,102.85714285714286,600.7633928571429,4287.7,102.85714285714286,600.7633928571429,4391.5,102.85714285714286,600.7633928571429,4496.1,102.85714285714286,600.7633928571429,4598.4,102.85714285714286,600.7633928571429,4702.7,102.85714285714286,600.7633928571429,4806.1,102.85714285714286,600.7633928571429,4907.1]","[4051.9,4051.9,1668.1,2009.7,374.1,""oops"",""down"",""up"",""bad_move"",6260,2207.7,1912.3,4052.3,295.4,""oops"",""left"",""left"",""good_move"",9684.8,3424.5,3067.8,6260.3,356.8,""oops"",""left"",""down"",""good_move"",12328.1,2643.1,2292.3,9685,350.8,""oops"",""left"",""right"",""bad_move"",15339.7,3011.3,2552.8,12328.4,458.5,""oops"",""left"",""left"",""good_move"",18315.4,2975.5,2710.4,15339.9,265.1,""oops"",""down"",""left"",""good_move"",21357.1,3041.6,2760.2,18315.5,281.4,""smooth"",""down"",""down"",""good_move"",24166.2,2808.9,2652.4,21357.4,156.4,""oops"",""down"",""right"",""bad_move"",26885.7,2719.1,2468.2,24166.6,250.9,""while_blue"",""down"",""right"",""bad_move"",29168.2,2282.2,1960.6,26886,321.6,""smooth"",""left"",""left"",""good_move"",31405.8,2237.4,2647.5,29168.4,-410.1,""error"",""-"",""-"",""no_move"",32829.6,1423.6,1545.9,32406.9,-1123.2,""error"",""-"",""-"",""no_move"",37462,4632.3,3241.8,33835.1,385.2,""oops"",""left"",""left"",""good_move"",40082.1,2619.7,2277.1,37462.4,342.6,""while_blue"",""left"",""left"",""good_move""]","",""
"1638","","<div style=""width:500px;"">
  <p>What determined the result of this run?</p>
  </div>","15","html-slider-response","50","860584","0.0-5.0-1.8","192","1","2025-07-23 08:12:24","1f75c3e559b7213887762d5229550c2b","80.192.212.91","Mozilla/5.0 (Macintosh; Intel Mac OS X 10_15_7) AppleWebKit/537.36 (KHTML, like Gecko) Chrome/137.0.0.0 Safari/537.36","Macintosh","Chrome","137.0.0.0","OS X","10_15_7","https://app.prolific.com/","en-GB,en-US;q=0.9,en;q=0.8","671a44d9d93641d1d9e96883","683db9eb0562dbf637994deb","6880985ad0acfe816a8010b7","2","1","671a44d9d93641d1d9e96883","2","1","2025-07-23T08:26:45.369Z","","","","","","","","","","","AttribQ","","50","","","","","","","","","","","","","","","","","","","","","","","","","","","","",""
"1091","","<div style=""width:500px;"">
  <p>How much control did you have over the ball?</p>
  </div>","23","html-slider-response","51","861677","0.0-5.0-2.8","192","1","2025-07-23 08:12:24","1f75c3e559b7213887762d5229550c2b","80.192.212.91","Mozilla/5.0 (Macintosh; Intel Mac OS X 10_15_7) AppleWebKit/537.36 (KHTML, like Gecko) Chrome/137.0.0.0 Safari/537.36","Macintosh","Chrome","137.0.0.0","OS X","10_15_7","https://app.prolific.com/","en-GB,en-US;q=0.9,en;q=0.8","671a44d9d93641d1d9e96883","683db9eb0562dbf637994deb","6880985ad0acfe816a8010b7","2","1","671a44d9d93641d1d9e96883","2","1","2025-07-23T08:26:46.462Z","","","","","","","","","","","ControlQ","","50","","","","","","","","","","","","","","","","","","","","","","","","","","","","",""
"1340","","<div style=""width:500px;"">
  <p>How would you describe your current emotional state?</p>
  </div>","61","html-slider-response","52","863018","0.0-5.0-3.8","192","1","2025-07-23 08:12:24","1f75c3e559b7213887762d5229550c2b","80.192.212.91","Mozilla/5.0 (Macintosh; Intel Mac OS X 10_15_7) AppleWebKit/537.36 (KHTML, like Gecko) Chrome/137.0.0.0 Safari/537.36","Macintosh","Chrome","137.0.0.0","OS X","10_15_7","https://app.prolific.com/","en-GB,en-US;q=0.9,en;q=0.8","671a44d9d93641d1d9e96883","683db9eb0562dbf637994deb","6880985ad0acfe816a8010b7","2","1","671a44d9d93641d1d9e96883","2","1","2025-07-23T08:26:47.803Z","","","","","","","","","","","StressQ","","50","","","","","","","","","","","","","","","","","","","","","","","","","","","","",""
"1309","","<div style=""width:500px;"">
  <p>What best describes how you currently feel?</p>
  </div>","76","html-slider-response","53","864328","0.0-5.0-4.8","192","1","2025-07-23 08:12:24","1f75c3e559b7213887762d5229550c2b","80.192.212.91","Mozilla/5.0 (Macintosh; Intel Mac OS X 10_15_7) AppleWebKit/537.36 (KHTML, like Gecko) Chrome/137.0.0.0 Safari/537.36","Macintosh","Chrome","137.0.0.0","OS X","10_15_7","https://app.prolific.com/","en-GB,en-US;q=0.9,en;q=0.8","671a44d9d93641d1d9e96883","683db9eb0562dbf637994deb","6880985ad0acfe816a8010b7","2","1","671a44d9d93641d1d9e96883","2","1","2025-07-23T08:26:49.113Z","","","","","","","","","","","MotivationQ","","50","","","","","","","","","","","","","","","","","","","","","","","","","","","","",""
"","","","","ctl-task-cpt","54","903236","0.0-5.0-0.9","192","1","2025-07-23 08:12:24","1f75c3e559b7213887762d5229550c2b","80.192.212.91","Mozilla/5.0 (Macintosh; Intel Mac OS X 10_15_7) AppleWebKit/537.36 (KHTML, like Gecko) Chrome/137.0.0.0 Safari/537.36","Macintosh","Chrome","137.0.0.0","OS X","10_15_7","https://app.prolific.com/","en-GB,en-US;q=0.9,en;q=0.8","671a44d9d93641d1d9e96883","683db9eb0562dbf637994deb","6880985ad0acfe816a8010b7","2","1","671a44d9d93641d1d9e96883","2","1","2025-07-23T08:27:28.021Z","","","","","","","","","","","","","","win-only","1","g1:NE,g2:SW","0.4","10","0","865265.6","650.6","5651.5","35896.5","1","4","4","6","2","-4","-4","0","0","0","604.6","3000","-2385","[""down"",""left""]","{""num_key_presses"":9,""num_perfect"":4,""num_errors"":0,""num_randdir"":5,""num_randdir_good_moves"":1,""num_whilered"":0,""num_whileblue"":0,""num_blue"":1,""num_good_moves"":5}","[351.85714285714283,358.76339285714283,0.1,351.85714285714283,358.76339285714283,100.1,351.85714285714283,358.76339285714283,200.4,350.85714285714283,357.76339285714283,300.8,243.85714285714286,490.76339285714283,402.2,90.85714285714286,622.7633928571429,505.4,90.85714285714286,624.7633928571429,609.9,90.85714285714286,624.7633928571429,716.4,90.85714285714286,624.7633928571429,821.8,90.85714285714286,624.7633928571429,932.8,90.85714285714286,624.7633928571429,1034,90.85714285714286,624.7633928571429,1135.5,90.85714285714286,624.7633928571429,1240.1,90.85714285714286,624.7633928571429,1340.8,90.85714285714286,624.7633928571429,1445.4,90.85714285714286,624.7633928571429,1547.5,90.85714285714286,624.7633928571429,1650.5,90.85714285714286,624.7633928571429,1756,90.85714285714286,624.7633928571429,1860.6,90.85714285714286,624.7633928571429,1961.2,90.85714285714286,624.7633928571429,2071.4,90.85714285714286,624.7633928571429,2181.5,90.85714285714286,624.7633928571429,2283.4,90.85714285714286,624.7633928571429,2385.8,90.85714285714286,624.7633928571429,2490.3,90.85714285714286,624.7633928571429,2591.9,90.85714285714286,624.7633928571429,2701.1,90.85714285714286,624.7633928571429,2807.5,90.85714285714286,624.7633928571429,2910.1,90.85714285714286,624.7633928571429,3010.6,90.85714285714286,624.7633928571429,3115.3,90.85714285714286,624.7633928571429,3216.5,90.85714285714286,624.7633928571429,3316.6,90.85714285714286,624.7633928571429,3421,90.85714285714286,624.7633928571429,3523.7,90.85714285714286,624.7633928571429,3635.7,90.85714285714286,624.7633928571429,3738.2,90.85714285714286,624.7633928571429,3841.3,90.85714285714286,624.7633928571429,3945.6,90.85714285714286,624.7633928571429,4050.5,90.85714285714286,624.7633928571429,4151.9,90.85714285714286,624.7633928571429,4256,90.85714285714286,624.7633928571429,4367.9,90.85714285714286,624.7633928571429,4470,90.85714285714286,624.7633928571429,4575.1,90.85714285714286,624.7633928571429,4687.8,90.85714285714286,624.7633928571429,4788.3,90.85714285714286,624.7633928571429,4890,90.85714285714286,624.7633928571429,4992]","[5095,5095,2749.6,2006.7,338.7,""oops"",""down"",""right"",""bad_move"",7497.8,2402.5,2056.8,5095.3,345.7,""smooth"",""down"",""down"",""good_move"",9812.7,2314.4,1997.7,7498.3,316.7,""smooth"",""down"",""down"",""good_move"",12586.6,2773.6,2417,9813,356.6,""smooth"",""left"",""left"",""good_move"",16127.6,3540.6,2719.9,12587,820.7,""oops"",""left"",""down"",""good_move"",18991.5,2863.7,2458.6,16127.9,405.1,""smooth"",""left"",""left"",""good_move"",21939.3,2947.5,2619.9,18991.8,327.6,""oops"",""left"",""up"",""bad_move"",24990.7,3051.2,2752.4,21939.5,298.8,""oops"",""left"",""up"",""bad_move"",27825.5,2834.6,2531.2,24990.9,303.4,""oops"",""left"",""right"",""bad_move""]","",""
"1327","","<div style=""width:500px;"">
  <p>What determined the result of this run?</p>
  </div>","14","html-slider-response","55","904566","0.0-5.0-1.9","192","1","2025-07-23 08:12:24","1f75c3e559b7213887762d5229550c2b","80.192.212.91","Mozilla/5.0 (Macintosh; Intel Mac OS X 10_15_7) AppleWebKit/537.36 (KHTML, like Gecko) Chrome/137.0.0.0 Safari/537.36","Macintosh","Chrome","137.0.0.0","OS X","10_15_7","https://app.prolific.com/","en-GB,en-US;q=0.9,en;q=0.8","671a44d9d93641d1d9e96883","683db9eb0562dbf637994deb","6880985ad0acfe816a8010b7","2","1","671a44d9d93641d1d9e96883","2","1","2025-07-23T08:27:29.351Z","","","","","","","","","","","AttribQ","","50","","","","","","","","","","","","","","","","","","","","","","","","","","","","",""
"2494","","<div style=""width:500px;"">
  <p>How much control did you have over the ball?</p>
  </div>","24","html-slider-response","56","907061","0.0-5.0-2.9","192","1","2025-07-23 08:12:24","1f75c3e559b7213887762d5229550c2b","80.192.212.91","Mozilla/5.0 (Macintosh; Intel Mac OS X 10_15_7) AppleWebKit/537.36 (KHTML, like Gecko) Chrome/137.0.0.0 Safari/537.36","Macintosh","Chrome","137.0.0.0","OS X","10_15_7","https://app.prolific.com/","en-GB,en-US;q=0.9,en;q=0.8","671a44d9d93641d1d9e96883","683db9eb0562dbf637994deb","6880985ad0acfe816a8010b7","2","1","671a44d9d93641d1d9e96883","2","1","2025-07-23T08:27:31.846Z","","","","","","","","","","","ControlQ","","50","","","","","","","","","","","","","","","","","","","","","","","","","","","","",""
"1224","","<div style=""width:500px;"">
  <p>How would you describe your current emotional state?</p>
  </div>","77","html-slider-response","57","908286","0.0-5.0-3.9","192","1","2025-07-23 08:12:24","1f75c3e559b7213887762d5229550c2b","80.192.212.91","Mozilla/5.0 (Macintosh; Intel Mac OS X 10_15_7) AppleWebKit/537.36 (KHTML, like Gecko) Chrome/137.0.0.0 Safari/537.36","Macintosh","Chrome","137.0.0.0","OS X","10_15_7","https://app.prolific.com/","en-GB,en-US;q=0.9,en;q=0.8","671a44d9d93641d1d9e96883","683db9eb0562dbf637994deb","6880985ad0acfe816a8010b7","2","1","671a44d9d93641d1d9e96883","2","1","2025-07-23T08:27:33.071Z","","","","","","","","","","","StressQ","","50","","","","","","","","","","","","","","","","","","","","","","","","","","","","",""
"1234","","<div style=""width:500px;"">
  <p>What best describes how you currently feel?</p>
  </div>","86","html-slider-response","58","909520","0.0-5.0-4.9","192","1","2025-07-23 08:12:24","1f75c3e559b7213887762d5229550c2b","80.192.212.91","Mozilla/5.0 (Macintosh; Intel Mac OS X 10_15_7) AppleWebKit/537.36 (KHTML, like Gecko) Chrome/137.0.0.0 Safari/537.36","Macintosh","Chrome","137.0.0.0","OS X","10_15_7","https://app.prolific.com/","en-GB,en-US;q=0.9,en;q=0.8","671a44d9d93641d1d9e96883","683db9eb0562dbf637994deb","6880985ad0acfe816a8010b7","2","1","671a44d9d93641d1d9e96883","2","1","2025-07-23T08:27:34.306Z","","","","","","","","","","","MotivationQ","","50","","","","","","","","","","","","","","","","","","","","","","","","","","","","",""
"","","","","ctl-task-cpt","59","951454","0.0-5.0-0.10","192","1","2025-07-23 08:12:24","1f75c3e559b7213887762d5229550c2b","80.192.212.91","Mozilla/5.0 (Macintosh; Intel Mac OS X 10_15_7) AppleWebKit/537.36 (KHTML, like Gecko) Chrome/137.0.0.0 Safari/537.36","Macintosh","Chrome","137.0.0.0","OS X","10_15_7","https://app.prolific.com/","en-GB,en-US;q=0.9,en;q=0.8","671a44d9d93641d1d9e96883","683db9eb0562dbf637994deb","6880985ad0acfe816a8010b7","2","1","671a44d9d93641d1d9e96883","2","1","2025-07-23T08:28:16.240Z","","","","","","","","","","","","","","win-only","3","g1:SW,g2:NE","0.5","11","0","910458.4","484.3","5489.3","38911.7","1","4","4","6","2","-4","-4","0","0","0","968.6","3000","-2320","[""up"",""right""]","{""num_key_presses"":10,""num_perfect"":5,""num_errors"":0,""num_randdir"":5,""num_randdir_good_moves"":2,""num_whilered"":0,""num_whileblue"":0,""num_blue"":1,""num_good_moves"":7}","[347.85714285714283,359.76339285714283,0.4,347.85714285714283,359.76339285714283,103,347.85714285714283,359.76339285714283,206.8,338.85714285714283,368.76339285714283,310.9,136.85714285714286,545.7633928571429,413.2,127.85714285714286,553.7633928571429,514,249.85714285714286,455.76339285714283,619.9,611.8571428571429,119.76339285714286,723.4,609.8571428571429,103.76339285714286,828.9,617.8571428571429,87.76339285714286,933,621.8571428571429,81.76339285714286,1039.3,621.8571428571429,81.76339285714286,1140.1,621.8571428571429,81.76339285714286,1245.8,621.8571428571429,81.76339285714286,1349.2,621.8571428571429,81.76339285714286,1463.1,621.8571428571429,81.76339285714286,1565.2,621.8571428571429,81.76339285714286,1670.9,621.8571428571429,81.76339285714286,1772.1,621.8571428571429,81.76339285714286,1886,621.8571428571429,81.76339285714286,1989.3,621.8571428571429,81.76339285714286,2095.7,621.8571428571429,81.76339285714286,2198.3,621.8571428571429,81.76339285714286,2301.6,621.8571428571429,81.76339285714286,2404.5,621.8571428571429,81.76339285714286,2509.5,621.8571428571429,81.76339285714286,2612.3,621.8571428571429,81.76339285714286,2714.4,621.8571428571429,81.76339285714286,2824.7,621.8571428571429,81.76339285714286,2932,621.8571428571429,81.76339285714286,3034.2,621.8571428571429,81.76339285714286,3134.3,621.8571428571429,81.76339285714286,3236.2,621.8571428571429,81.76339285714286,3346.7,621.8571428571429,81.76339285714286,3447.4,621.8571428571429,81.76339285714286,3560.8,621.8571428571429,81.76339285714286,3662.4,621.8571428571429,81.76339285714286,3763,621.8571428571429,81.76339285714286,3870,621.8571428571429,81.76339285714286,3973.2,621.8571428571429,81.76339285714286,4081.7,621.8571428571429,81.76339285714286,4181.9,621.8571428571429,81.76339285714286,4282.9,621.8571428571429,81.76339285714286,4383.9,621.8571428571429,81.76339285714286,4488.8,621.8571428571429,81.76339285714286,4588.8,621.8571428571429,81.76339285714286,4692.8,621.8571428571429,81.76339285714286,4800.8,621.8571428571429,81.76339285714286,4902]","[1398.3,1398.3,1000,0,398.3,""oops"",""right"",""left"",""bad_move"",3713,2314.3,1931.2,1398.7,383.1,""smooth"",""up"",""up"",""good_move"",6694.2,2981,2671.8,3713.2,309.2,""smooth"",""up"",""up"",""good_move"",9880.6,3186.2,2888.7,6694.4,297.5,""smooth"",""right"",""right"",""good_move"",15658.4,5777.6,2112.8,13093.1,452.5,""smooth"",""right"",""right"",""good_move"",18406,2747.5,2324.5,15658.5,423,""oops"",""right"",""up"",""good_move"",20643.4,2237,1896.2,18406.4,340.8,""oops"",""right"",""down"",""bad_move"",24370.8,3727.1,3359.6,20643.7,367.5,""smooth"",""right"",""right"",""good_move"",26795.2,2424,2110.3,24371.2,313.7,""oops"",""right"",""down"",""bad_move"",30266.8,3471.3,3156.4,26795.6,314.9,""oops"",""right"",""right"",""good_move""]","",""
"1230","","<div style=""width:500px;"">
  <p>What determined the result of this run?</p>
  </div>","19","html-slider-response","60","952686","0.0-5.0-1.10","192","1","2025-07-23 08:12:24","1f75c3e559b7213887762d5229550c2b","80.192.212.91","Mozilla/5.0 (Macintosh; Intel Mac OS X 10_15_7) AppleWebKit/537.36 (KHTML, like Gecko) Chrome/137.0.0.0 Safari/537.36","Macintosh","Chrome","137.0.0.0","OS X","10_15_7","https://app.prolific.com/","en-GB,en-US;q=0.9,en;q=0.8","671a44d9d93641d1d9e96883","683db9eb0562dbf637994deb","6880985ad0acfe816a8010b7","2","1","671a44d9d93641d1d9e96883","2","1","2025-07-23T08:28:17.471Z","","","","","","","","","","","AttribQ","","50","","","","","","","","","","","","","","","","","","","","","","","","","","","","",""
"1468","","<div style=""width:500px;"">
  <p>How much control did you have over the ball?</p>
  </div>","22","html-slider-response","61","954155","0.0-5.0-2.10","192","1","2025-07-23 08:12:24","1f75c3e559b7213887762d5229550c2b","80.192.212.91","Mozilla/5.0 (Macintosh; Intel Mac OS X 10_15_7) AppleWebKit/537.36 (KHTML, like Gecko) Chrome/137.0.0.0 Safari/537.36","Macintosh","Chrome","137.0.0.0","OS X","10_15_7","https://app.prolific.com/","en-GB,en-US;q=0.9,en;q=0.8","671a44d9d93641d1d9e96883","683db9eb0562dbf637994deb","6880985ad0acfe816a8010b7","2","1","671a44d9d93641d1d9e96883","2","1","2025-07-23T08:28:18.940Z","","","","","","","","","","","ControlQ","","50","","","","","","","","","","","","","","","","","","","","","","","","","","","","",""
"926","","<div style=""width:500px;"">
  <p>How would you describe your current emotional state?</p>
  </div>","74","html-slider-response","62","955082","0.0-5.0-3.10","192","1","2025-07-23 08:12:24","1f75c3e559b7213887762d5229550c2b","80.192.212.91","Mozilla/5.0 (Macintosh; Intel Mac OS X 10_15_7) AppleWebKit/537.36 (KHTML, like Gecko) Chrome/137.0.0.0 Safari/537.36","Macintosh","Chrome","137.0.0.0","OS X","10_15_7","https://app.prolific.com/","en-GB,en-US;q=0.9,en;q=0.8","671a44d9d93641d1d9e96883","683db9eb0562dbf637994deb","6880985ad0acfe816a8010b7","2","1","671a44d9d93641d1d9e96883","2","1","2025-07-23T08:28:19.867Z","","","","","","","","","","","StressQ","","50","","","","","","","","","","","","","","","","","","","","","","","","","","","","",""
"913","","<div style=""width:500px;"">
  <p>What best describes how you currently feel?</p>
  </div>","82","html-slider-response","63","955996","0.0-5.0-4.10","192","1","2025-07-23 08:12:24","1f75c3e559b7213887762d5229550c2b","80.192.212.91","Mozilla/5.0 (Macintosh; Intel Mac OS X 10_15_7) AppleWebKit/537.36 (KHTML, like Gecko) Chrome/137.0.0.0 Safari/537.36","Macintosh","Chrome","137.0.0.0","OS X","10_15_7","https://app.prolific.com/","en-GB,en-US;q=0.9,en;q=0.8","671a44d9d93641d1d9e96883","683db9eb0562dbf637994deb","6880985ad0acfe816a8010b7","2","1","671a44d9d93641d1d9e96883","2","1","2025-07-23T08:28:20.781Z","","","","","","","","","","","MotivationQ","","50","","","","","","","","","","","","","","","","","","","","","","","","","","","","",""
"","","","","ctl-task-cpt","64","982705","0.0-5.0-0.11","192","1","2025-07-23 08:12:24","1f75c3e559b7213887762d5229550c2b","80.192.212.91","Mozilla/5.0 (Macintosh; Intel Mac OS X 10_15_7) AppleWebKit/537.36 (KHTML, like Gecko) Chrome/137.0.0.0 Safari/537.36","Macintosh","Chrome","137.0.0.0","OS X","10_15_7","https://app.prolific.com/","en-GB,en-US;q=0.9,en;q=0.8","671a44d9d93641d1d9e96883","683db9eb0562dbf637994deb","6880985ad0acfe816a8010b7","2","1","671a44d9d93641d1d9e96883","2","1","2025-07-23T08:28:47.490Z","","","","","","","","","","","","","","win-only","1","g1:NE,g2:SW","0.6","12","0","956934.3","586.7","5591.7","23693.5","1","4","8","6","1","1","0","0","0","0","865.9","3000","1545","[""up"",""right""]","{""num_key_presses"":7,""num_perfect"":4,""num_errors"":1,""num_randdir"":2,""num_randdir_good_moves"":1,""num_whilered"":0,""num_whileblue"":0,""num_blue"":0,""num_good_moves"":5}","[357.85714285714283,358.76339285714283,0.4,357.85714285714283,358.76339285714283,104.9,356.85714285714283,359.76339285714283,209.6,302.85714285714283,423.76339285714283,312.3,163.85714285714286,550.7633928571429,412.6,268.85714285714283,467.76339285714283,524.9,768.8571428571429,81.76339285714286,628.9,735.8571428571429,54.763392857142854,743.9,695.8571428571429,57.763392857142854,844.9,692.8571428571429,59.763392857142854,947.7,692.8571428571429,59.763392857142854,1054.3,692.8571428571429,59.763392857142854,1156.8,692.8571428571429,59.763392857142854,1263.6,692.8571428571429,59.763392857142854,1369.1,692.8571428571429,59.763392857142854,1474.6,692.8571428571429,59.763392857142854,1575.1,692.8571428571429,59.763392857142854,1675.9,692.8571428571429,59.763392857142854,1778.5,692.8571428571429,59.763392857142854,1882.1,692.8571428571429,59.763392857142854,1982.3,692.8571428571429,59.763392857142854,2087.6,692.8571428571429,59.763392857142854,2192.9,692.8571428571429,59.763392857142854,2294.3,692.8571428571429,59.763392857142854,2402.7,692.8571428571429,59.763392857142854,2504.4,692.8571428571429,59.763392857142854,2604.5,692.8571428571429,59.763392857142854,2711.9,692.8571428571429,59.763392857142854,2812.2,692.8571428571429,59.763392857142854,2922.2,692.8571428571429,59.763392857142854,3026,692.8571428571429,59.763392857142854,3130.3,692.8571428571429,59.763392857142854,3235.3,692.8571428571429,59.763392857142854,3338.8,692.8571428571429,59.763392857142854,3443.9,692.8571428571429,59.763392857142854,3543.9,692.8571428571429,59.763392857142854,3646,692.8571428571429,59.763392857142854,3751.9,692.8571428571429,59.763392857142854,3853.3,692.8571428571429,59.763392857142854,3955.7,692.8571428571429,59.763392857142854,4058.2,692.8571428571429,59.763392857142854,4159,692.8571428571429,59.763392857142854,4261.8,692.8571428571429,59.763392857142854,4365.1,692.8571428571429,59.763392857142854,4474.9,692.8571428571429,59.763392857142854,4581.3,692.8571428571429,59.763392857142854,4686,692.8571428571429,59.763392857142854,4789,692.8571428571429,59.763392857142854,4892.3,692.8571428571429,59.763392857142854,4992.3]","[307.5,307.5,1000,0,-692.5,""error"",""-"",""-"",""no_move"",4085,3777.3,2391,1309.2,384.8,""smooth"",""right"",""right"",""good_move"",6908.2,2822.9,2475,4085.3,347.9,""smooth"",""right"",""right"",""good_move"",9435,2526.6,2235.3,6908.4,291.3,""oops"",""up"",""down"",""bad_move"",12700.2,3264.9,2958.3,9435.4,306.5,""oops"",""up"",""up"",""good_move"",15289.9,2589.4,2279.4,12700.5,310,""smooth"",""up"",""up"",""good_move"",17987.2,2697.2,2400.4,15290,296.8,""smooth"",""up"",""up"",""good_move""]","",""
"2307","","<div style=""width:500px;"">
  <p>What determined the result of this run?</p>
  </div>","47","html-slider-response","65","985013","0.0-5.0-1.11","192","1","2025-07-23 08:12:24","1f75c3e559b7213887762d5229550c2b","80.192.212.91","Mozilla/5.0 (Macintosh; Intel Mac OS X 10_15_7) AppleWebKit/537.36 (KHTML, like Gecko) Chrome/137.0.0.0 Safari/537.36","Macintosh","Chrome","137.0.0.0","OS X","10_15_7","https://app.prolific.com/","en-GB,en-US;q=0.9,en;q=0.8","671a44d9d93641d1d9e96883","683db9eb0562dbf637994deb","6880985ad0acfe816a8010b7","2","1","671a44d9d93641d1d9e96883","2","1","2025-07-23T08:28:49.798Z","","","","","","","","","","","AttribQ","","50","","","","","","","","","","","","","","","","","","","","","","","","","","","","",""
"1143","","<div style=""width:500px;"">
  <p>How much control did you have over the ball?</p>
  </div>","50","html-slider-response","66","986157","0.0-5.0-2.11","192","1","2025-07-23 08:12:24","1f75c3e559b7213887762d5229550c2b","80.192.212.91","Mozilla/5.0 (Macintosh; Intel Mac OS X 10_15_7) AppleWebKit/537.36 (KHTML, like Gecko) Chrome/137.0.0.0 Safari/537.36","Macintosh","Chrome","137.0.0.0","OS X","10_15_7","https://app.prolific.com/","en-GB,en-US;q=0.9,en;q=0.8","671a44d9d93641d1d9e96883","683db9eb0562dbf637994deb","6880985ad0acfe816a8010b7","2","1","671a44d9d93641d1d9e96883","2","1","2025-07-23T08:28:50.942Z","","","","","","","","","","","ControlQ","","50","","","","","","","","","","","","","","","","","","","","","","","","","","","","",""
"1535","","<div style=""width:500px;"">
  <p>How would you describe your current emotional state?</p>
  </div>","83","html-slider-response","67","987693","0.0-5.0-3.11","192","1","2025-07-23 08:12:24","1f75c3e559b7213887762d5229550c2b","80.192.212.91","Mozilla/5.0 (Macintosh; Intel Mac OS X 10_15_7) AppleWebKit/537.36 (KHTML, like Gecko) Chrome/137.0.0.0 Safari/537.36","Macintosh","Chrome","137.0.0.0","OS X","10_15_7","https://app.prolific.com/","en-GB,en-US;q=0.9,en;q=0.8","671a44d9d93641d1d9e96883","683db9eb0562dbf637994deb","6880985ad0acfe816a8010b7","2","1","671a44d9d93641d1d9e96883","2","1","2025-07-23T08:28:52.478Z","","","","","","","","","","","StressQ","","50","","","","","","","","","","","","","","","","","","","","","","","","","","","","",""
"1560","","<div style=""width:500px;"">
  <p>What best describes how you currently feel?</p>
  </div>","83","html-slider-response","68","989253","0.0-5.0-4.11","192","1","2025-07-23 08:12:24","1f75c3e559b7213887762d5229550c2b","80.192.212.91","Mozilla/5.0 (Macintosh; Intel Mac OS X 10_15_7) AppleWebKit/537.36 (KHTML, like Gecko) Chrome/137.0.0.0 Safari/537.36","Macintosh","Chrome","137.0.0.0","OS X","10_15_7","https://app.prolific.com/","en-GB,en-US;q=0.9,en;q=0.8","671a44d9d93641d1d9e96883","683db9eb0562dbf637994deb","6880985ad0acfe816a8010b7","2","1","671a44d9d93641d1d9e96883","2","1","2025-07-23T08:28:54.038Z","","","","","","","","","","","MotivationQ","","50","","","","","","","","","","","","","","","","","","","","","","","","","","","","",""
"","","","","ctl-task-cpt","69","1014607","0.0-5.0-0.12","192","1","2025-07-23 08:12:24","1f75c3e559b7213887762d5229550c2b","80.192.212.91","Mozilla/5.0 (Macintosh; Intel Mac OS X 10_15_7) AppleWebKit/537.36 (KHTML, like Gecko) Chrome/137.0.0.0 Safari/537.36","Macintosh","Chrome","137.0.0.0","OS X","10_15_7","https://app.prolific.com/","en-GB,en-US;q=0.9,en;q=0.8","671a44d9d93641d1d9e96883","683db9eb0562dbf637994deb","6880985ad0acfe816a8010b7","2","1","671a44d9d93641d1d9e96883","2","1","2025-07-23T08:29:19.392Z","","","","","","","","","","","","","","win-only","1","g1:NE,g2:SW","0.7","13","0","990192.6","395.7","5401.5","22340.7","1","4","8","6","1","1","1","1","0","0.007575757575757576","646.7","3000","1295","[""up"",""right""]","{""num_key_presses"":6,""num_perfect"":4,""num_errors"":0,""num_randdir"":2,""num_randdir_good_moves"":1,""num_whilered"":0,""num_whileblue"":0,""num_blue"":0,""num_good_moves"":5}","[353.85714285714283,358.76339285714283,0.2,353.85714285714283,358.76339285714283,103.1,354.85714285714283,353.76339285714283,211.8,421.85714285714283,291.76339285714283,314.8,563.8571428571429,161.76339285714286,417,591.8571428571429,108.76339285714286,522.3,630.8571428571429,69.76339285714286,632.3,630.8571428571429,69.76339285714286,733.6,630.8571428571429,69.76339285714286,837.9,630.8571428571429,69.76339285714286,940.6,630.8571428571429,69.76339285714286,1044.4,630.8571428571429,69.76339285714286,1150,630.8571428571429,69.76339285714286,1255.7,630.8571428571429,69.76339285714286,1360,630.8571428571429,69.76339285714286,1465.2,630.8571428571429,69.76339285714286,1565.2,630.8571428571429,69.76339285714286,1666.3,630.8571428571429,69.76339285714286,1774.1,630.8571428571429,69.76339285714286,1875.9,630.8571428571429,69.76339285714286,1980.8,630.8571428571429,69.76339285714286,2081.2,630.8571428571429,69.76339285714286,2185.5,630.8571428571429,69.76339285714286,2287.5,630.8571428571429,69.76339285714286,2390.8,630.8571428571429,69.76339285714286,2494.8,630.8571428571429,69.76339285714286,2597,630.8571428571429,69.76339285714286,2700.1,630.8571428571429,69.76339285714286,2800.9,630.8571428571429,69.76339285714286,2902.8,630.8571428571429,69.76339285714286,3003.6,630.8571428571429,69.76339285714286,3105,630.8571428571429,69.76339285714286,3206.6,630.8571428571429,69.76339285714286,3307.7,630.8571428571429,69.76339285714286,3419.2,630.8571428571429,69.76339285714286,3519.7,630.8571428571429,69.76339285714286,3626,630.8571428571429,69.76339285714286,3730.1,630.8571428571429,69.76339285714286,3831.3,630.8571428571429,69.76339285714286,3931.8,630.8571428571429,69.76339285714286,4037.3,630.8571428571429,69.76339285714286,4144.4,630.8571428571429,69.76339285714286,4246,630.8571428571429,69.76339285714286,4349,630.8571428571429,69.76339285714286,4451.7,630.8571428571429,69.76339285714286,4552.4,630.8571428571429,69.76339285714286,4657.4,630.8571428571429,69.76339285714286,4757.7,630.8571428571429,69.76339285714286,4863.9,630.8571428571429,69.76339285714286,4965.7]","[1458.8,1458.8,1000,0,458.8,""smooth"",""right"",""right"",""good_move"",3756.8,2297.6,1957.5,1459.2,340.1,""smooth"",""right"",""right"",""good_move"",6820.3,3063.3,2684.8,3757,378.5,""oops"",""up"",""left"",""bad_move"",10317.9,3497.4,3007.3,6820.5,490.1,""smooth"",""up"",""up"",""good_move"",13433,3114.9,2729.5,10318.1,385.4,""smooth"",""up"",""up"",""good_move"",16822.5,3389.3,2891.5,13433.2,497.8,""oops"",""right"",""right"",""good_move""]","",""
"1216","","<div style=""width:500px;"">
  <p>What determined the result of this run?</p>
  </div>","58","html-slider-response","70","1015824","0.0-5.0-1.12","192","1","2025-07-23 08:12:24","1f75c3e559b7213887762d5229550c2b","80.192.212.91","Mozilla/5.0 (Macintosh; Intel Mac OS X 10_15_7) AppleWebKit/537.36 (KHTML, like Gecko) Chrome/137.0.0.0 Safari/537.36","Macintosh","Chrome","137.0.0.0","OS X","10_15_7","https://app.prolific.com/","en-GB,en-US;q=0.9,en;q=0.8","671a44d9d93641d1d9e96883","683db9eb0562dbf637994deb","6880985ad0acfe816a8010b7","2","1","671a44d9d93641d1d9e96883","2","1","2025-07-23T08:29:20.609Z","","","","","","","","","","","AttribQ","","50","","","","","","","","","","","","","","","","","","","","","","","","","","","","",""
"1013","","<div style=""width:500px;"">
  <p>How much control did you have over the ball?</p>
  </div>","57","html-slider-response","71","1016838","0.0-5.0-2.12","192","1","2025-07-23 08:12:24","1f75c3e559b7213887762d5229550c2b","80.192.212.91","Mozilla/5.0 (Macintosh; Intel Mac OS X 10_15_7) AppleWebKit/537.36 (KHTML, like Gecko) Chrome/137.0.0.0 Safari/537.36","Macintosh","Chrome","137.0.0.0","OS X","10_15_7","https://app.prolific.com/","en-GB,en-US;q=0.9,en;q=0.8","671a44d9d93641d1d9e96883","683db9eb0562dbf637994deb","6880985ad0acfe816a8010b7","2","1","671a44d9d93641d1d9e96883","2","1","2025-07-23T08:29:21.623Z","","","","","","","","","","","ControlQ","","50","","","","","","","","","","","","","","","","","","","","","","","","","","","","",""
"1452","","<div style=""width:500px;"">
  <p>How would you describe your current emotional state?</p>
  </div>","75","html-slider-response","72","1018290","0.0-5.0-3.12","192","1","2025-07-23 08:12:24","1f75c3e559b7213887762d5229550c2b","80.192.212.91","Mozilla/5.0 (Macintosh; Intel Mac OS X 10_15_7) AppleWebKit/537.36 (KHTML, like Gecko) Chrome/137.0.0.0 Safari/537.36","Macintosh","Chrome","137.0.0.0","OS X","10_15_7","https://app.prolific.com/","en-GB,en-US;q=0.9,en;q=0.8","671a44d9d93641d1d9e96883","683db9eb0562dbf637994deb","6880985ad0acfe816a8010b7","2","1","671a44d9d93641d1d9e96883","2","1","2025-07-23T08:29:23.076Z","","","","","","","","","","","StressQ","","50","","","","","","","","","","","","","","","","","","","","","","","","","","","","",""
"1483","","<div style=""width:500px;"">
  <p>What best describes how you currently feel?</p>
  </div>","84","html-slider-response","73","1019775","0.0-5.0-4.12","192","1","2025-07-23 08:12:24","1f75c3e559b7213887762d5229550c2b","80.192.212.91","Mozilla/5.0 (Macintosh; Intel Mac OS X 10_15_7) AppleWebKit/537.36 (KHTML, like Gecko) Chrome/137.0.0.0 Safari/537.36","Macintosh","Chrome","137.0.0.0","OS X","10_15_7","https://app.prolific.com/","en-GB,en-US;q=0.9,en;q=0.8","671a44d9d93641d1d9e96883","683db9eb0562dbf637994deb","6880985ad0acfe816a8010b7","2","1","671a44d9d93641d1d9e96883","2","1","2025-07-23T08:29:24.560Z","","","","","","","","","","","MotivationQ","","50","","","","","","","","","","","","","","","","","","","","","","","","","","","","",""
