"rt","response_timestamp","stimulus","response","trial_type","trial_index","time_elapsed","internal_node_id","run_id","condition","recorded_at","source_code_version","ip","user_agent","device","browser","browser_version","platform","platform_version","referer","accept_language","PROLIFIC_PID","STUDY_ID","SESSION_ID","WEEK","BATCH","prolific_id","week","batch","realtime","success","responses","item_order","radio_event_ids","radio_event_times","key_event_times","mouse_event_times","straightlining","zigzagging","honeypot","eventType","view_history","slider_start","which_type","canvas_config","goals_layout","control_level","trial_number","tutorial_trial_number","trial_start_time","phase1_start_time","phase2_start_time","phase3_start_time","goal_1_value","goal_1_distance","goal_2_value","goal_2_distance","goal_selected","outcome","outcome_total","participant_final_score","participant_initial_score","participant_final_score_prop","goal_choice_rt","allocated_time","allocated_time_remaining","goal_direction","counts","mouse_movements","key_presses","question_order","question_id"
"72958","1753864909346","<p style='font-size:40px;line-height:1.25'><strong>Welcome to the experiment!</strong></p><p style='font-size:1.1em;line-height:1.25'>Thank you for participanting in our experiment again! You will be asked to play the Dysfunctional Ball Game again. We will briefly recap the rules before we start.</p><p style='font-size:1.1em;line-height:1.25'>Press <strong>Next</strong> to continue.</p>","0","custom-html-button-response","0","72961","0.0-0.0","249","1","2025-07-30 08:36:49","1f75c3e559b7213887762d5229550c2b","41.150.35.210","Mozilla/5.0 (Windows NT 10.0; Win64; x64) AppleWebKit/537.36 (KHTML, like Gecko) Chrome/138.0.0.0 Safari/537.36","WebKit","Chrome","138.0.0.0","Windows","10.0","https://app.prolific.com/","en-ZA,en-GB;q=0.9,en-US;q=0.8,en;q=0.7","67f14975a8c12321ab2d0e61","6877631c9844ddd5501205fc","6889d98e06072073f3bec367","3","1","67f14975a8c12321ab2d0e61","3","1","2025-07-30T08:41:49.347Z","","","","","","","","","","","","","","","","","","","","","","","","","","","","","","","","","","","","","","","","","",""
"20694","","","","fullscreen","1","94677","0.0-1.0","249","1","2025-07-30 08:36:49","1f75c3e559b7213887762d5229550c2b","41.150.35.210","Mozilla/5.0 (Windows NT 10.0; Win64; x64) AppleWebKit/537.36 (KHTML, like Gecko) Chrome/138.0.0.0 Safari/537.36","WebKit","Chrome","138.0.0.0","Windows","10.0","https://app.prolific.com/","en-ZA,en-GB;q=0.9,en-US;q=0.8,en;q=0.7","67f14975a8c12321ab2d0e61","6877631c9844ddd5501205fc","6889d98e06072073f3bec367","3","1","67f14975a8c12321ab2d0e61","3","1","","true","","","","","","","","","","","","","","","","","","","","","","","","","","","","","","","","","","","","","","","","",""
"14305","1753864945370","<p style='font-size:1.1em;line-height:1.25'>In the following, we will ask you a few questions relating to your feelings in the last 24 hours.<br></p><p style='font-size:1.1em;line-height:1.25'>Press the <strong>Next</strong> button to continue.</p>","0","custom-html-button-response","2","108984","0.0-2.0-0.0","249","1","2025-07-30 08:36:49","1f75c3e559b7213887762d5229550c2b","41.150.35.210","Mozilla/5.0 (Windows NT 10.0; Win64; x64) AppleWebKit/537.36 (KHTML, like Gecko) Chrome/138.0.0.0 Safari/537.36","WebKit","Chrome","138.0.0.0","Windows","10.0","https://app.prolific.com/","en-ZA,en-GB;q=0.9,en-US;q=0.8,en;q=0.7","67f14975a8c12321ab2d0e61","6877631c9844ddd5501205fc","6889d98e06072073f3bec367","3","1","67f14975a8c12321ab2d0e61","3","1","2025-07-30T08:42:25.370Z","","","","","","","","","","","","","","","","","","","","","","","","","","","","","","","","","","","","","","","","","",""
"182712.79999995232","","","","survey-template","3","291722","0.0-2.0-1.0","249","1","2025-07-30 08:36:49","1f75c3e559b7213887762d5229550c2b","41.150.35.210","Mozilla/5.0 (Windows NT 10.0; Win64; x64) AppleWebKit/537.36 (KHTML, like Gecko) Chrome/138.0.0.0 Safari/537.36","WebKit","Chrome","138.0.0.0","Windows","10.0","https://app.prolific.com/","en-ZA,en-GB;q=0.9,en-US;q=0.8,en;q=0.7","67f14975a8c12321ab2d0e61","6877631c9844ddd5501205fc","6889d98e06072073f3bec367","3","1","67f14975a8c12321ab2d0e61","3","1","2025-07-30T08:45:28.108Z","","{""Q01"":""1"",""Q02"":""0"",""Q03"":""0"",""Q04"":""0"",""Q05"":""2"",""Q06"":""1"",""Q07"":""1"",""Q08"":""1"",""Q09"":""0"",""Q10"":""0"",""Q11"":""0"",""Q12"":""0"",""Q13"":""5"",""Q14"":""1"",""Q15"":""1"",""Q16"":""0"",""Q17"":""1"",""Q18"":""0"",""Q19"":""0"",""Q20"":""0"",""Q21"":""0"",""Q22"":""0""}","[0,1,2,3,4,5,6,7,8,9,10,11,12,13,14,15,16,17,18,19,20,21]","[""Q01"",""Q02"",""Q03"",""Q04"",""Q04"",""Q04"",""Q05"",""Q06"",""Q06"",""Q06"",""Q07"",""Q08"",""Q09"",""Q10"",""Q11"",""Q12"",""Q13"",""Q14"",""Q15"",""Q16"",""Q17"",""Q18"",""Q19"",""Q20"",""Q21"",""Q22""]","[6085.599999904633,10548.899999856949,16648.89999985695,18922.799999952316,22212.799999952316,30449.89999985695,32462,43974.59999990463,46853.89999985695,51625.59999990463,54228.199999809265,64309,68794.59999990463,72518.19999980927,74752,76790,79476.79999995232,108100,123483.79999995232,127864,129799,133580,134857.89999985695,140733.5,144068.69999980927,145636.89999985695]","[]","[0.09999990463256836,6085.599999904633,10548.899999856949,12971,15174.699999809265,16648.89999985695,18922.799999952316,22212.799999952316,30449.89999985695,32462,43974.59999990463,46853.89999985695,50351.09999990463,51625.59999990463,54228.199999809265,64309,68794.59999990463,72518.19999980927,74752,76790,79476.79999995232,106097.79999995232,108100,123483.79999995232,127864,129799,131490.29999995232,133580,134857.89999985695,140733.5,144068.69999980927,145636.89999985695,182704.59999990463]","0.5909090909090909","0.3333333333333333","0","drsp","","","","","","","","","","","","","","","","","","","","","","","","","","","","","","",""
"17230.700000047684","","","","survey-template","4","308956","0.0-2.0-2.0","249","1","2025-07-30 08:36:49","1f75c3e559b7213887762d5229550c2b","41.150.35.210","Mozilla/5.0 (Windows NT 10.0; Win64; x64) AppleWebKit/537.36 (KHTML, like Gecko) Chrome/138.0.0.0 Safari/537.36","WebKit","Chrome","138.0.0.0","Windows","10.0","https://app.prolific.com/","en-ZA,en-GB;q=0.9,en-US;q=0.8,en;q=0.7","67f14975a8c12321ab2d0e61","6877631c9844ddd5501205fc","6889d98e06072073f3bec367","3","1","67f14975a8c12321ab2d0e61","3","1","2025-07-30T08:45:45.342Z","","{""Q01"":""2"",""Q02"":""1"",""Q03"":""0""}","[0,1,2]","[""Q01"",""Q01"",""Q02"",""Q02"",""Q03""]","[3618.7000000476837,4868.599999904633,9349.299999952316,11452.700000047684,15936.900000095367]","[]","[3618.7000000476837,4868.599999904633,9349.299999952316,11452.700000047684,15936.900000095367,17229.200000047684]","0.3333333333333333","0","0","stress","","","","","","","","","","","","","","","","","","","","","","","","","","","","","","",""
"31115","","","","instructions","5","340074","0.0-3.0-0.0","249","1","2025-07-30 08:36:49","1f75c3e559b7213887762d5229550c2b","41.150.35.210","Mozilla/5.0 (Windows NT 10.0; Win64; x64) AppleWebKit/537.36 (KHTML, like Gecko) Chrome/138.0.0.0 Safari/537.36","WebKit","Chrome","138.0.0.0","Windows","10.0","https://app.prolific.com/","en-ZA,en-GB;q=0.9,en-US;q=0.8,en;q=0.7","67f14975a8c12321ab2d0e61","6877631c9844ddd5501205fc","6889d98e06072073f3bec367","3","1","67f14975a8c12321ab2d0e61","3","1","","","","","","","","","","","","","[{""page_index"":0,""viewing_time"":31115}]","","","","","","","","","","","","","","","","","","","","","","","","","","","","","",""
"28478","","<p>Before you start with this game please answer the following three questions yourself. </p>
  <p>Through this game, we measure several aspects of your cognitive performance, such as reaction times, multi-tasking capabilities </p>
  <p>and the ability to assess the situation you are in.</p>
  <p></p>
  <p><b>How good do you usually are in such tasks?</b></p>","87","html-slider-response","6","368571","0.0-4.0-0.0","249","1","2025-07-30 08:36:49","1f75c3e559b7213887762d5229550c2b","41.150.35.210","Mozilla/5.0 (Windows NT 10.0; Win64; x64) AppleWebKit/537.36 (KHTML, like Gecko) Chrome/138.0.0.0 Safari/537.36","WebKit","Chrome","138.0.0.0","Windows","10.0","https://app.prolific.com/","en-ZA,en-GB;q=0.9,en-US;q=0.8,en;q=0.7","67f14975a8c12321ab2d0e61","6877631c9844ddd5501205fc","6889d98e06072073f3bec367","3","1","67f14975a8c12321ab2d0e61","3","1","2025-07-30T08:46:44.957Z","","","","","","","","","","","PreSkillQ","","50","","","","","","","","","","","","","","","","","","","","","","","","","","","","",""
"6866","","<div style=""width:500px;"">
  <p>How well do you think you will perform in this task compared to other participants?</p>
  </div>","83","html-slider-response","7","375439","0.0-4.0-1.0","249","1","2025-07-30 08:36:49","1f75c3e559b7213887762d5229550c2b","41.150.35.210","Mozilla/5.0 (Windows NT 10.0; Win64; x64) AppleWebKit/537.36 (KHTML, like Gecko) Chrome/138.0.0.0 Safari/537.36","WebKit","Chrome","138.0.0.0","Windows","10.0","https://app.prolific.com/","en-ZA,en-GB;q=0.9,en-US;q=0.8,en;q=0.7","67f14975a8c12321ab2d0e61","6877631c9844ddd5501205fc","6889d98e06072073f3bec367","3","1","67f14975a8c12321ab2d0e61","3","1","2025-07-30T08:46:51.825Z","","","","","","","","","","","PrePerfQ","","50","","","","","","","","","","","","","","","","","","","","","","","","","","","","",""
"4497","","<div style=""width:500px;"">
  <p>What best describes how you currently feel?</p>
  </div>","100","html-slider-response","8","379937","0.0-4.0-2.0","249","1","2025-07-30 08:36:49","1f75c3e559b7213887762d5229550c2b","41.150.35.210","Mozilla/5.0 (Windows NT 10.0; Win64; x64) AppleWebKit/537.36 (KHTML, like Gecko) Chrome/138.0.0.0 Safari/537.36","WebKit","Chrome","138.0.0.0","Windows","10.0","https://app.prolific.com/","en-ZA,en-GB;q=0.9,en-US;q=0.8,en;q=0.7","67f14975a8c12321ab2d0e61","6877631c9844ddd5501205fc","6889d98e06072073f3bec367","3","1","67f14975a8c12321ab2d0e61","3","1","2025-07-30T08:46:56.324Z","","","","","","","","","","","PreMotivationQ","","50","","","","","","","","","","","","","","","","","","","","","","","","","","","","",""
"","","","","ctl-task-cpt","9","414749","0.0-5.0-0.0","249","1","2025-07-30 08:36:49","1f75c3e559b7213887762d5229550c2b","41.150.35.210","Mozilla/5.0 (Windows NT 10.0; Win64; x64) AppleWebKit/537.36 (KHTML, like Gecko) Chrome/138.0.0.0 Safari/537.36","WebKit","Chrome","138.0.0.0","Windows","10.0","https://app.prolific.com/","en-ZA,en-GB;q=0.9,en-US;q=0.8,en;q=0.7","67f14975a8c12321ab2d0e61","6877631c9844ddd5501205fc","6889d98e06072073f3bec367","3","1","67f14975a8c12321ab2d0e61","3","1","2025-07-30T08:47:31.136Z","","","","","","","","","","","","","","win-only","1","g1:NE,g2:SW","1","1","0","387060.9","4182.8","9185.6","31785.4","1","4","8","6","2","8","8","8","0","0.06060606060606061","1267.3","3000","915","[""down"",""left""]","{""num_key_presses"":6,""num_perfect"":6,""num_errors"":0,""num_randdir"":0,""num_randdir_good_moves"":0,""num_whilered"":0,""num_whileblue"":0,""num_blue"":2,""num_good_moves"":6}","[292.22232142857143,290.12857142857143,0.8,292.22232142857143,290.12857142857143,105.6,292.22232142857143,290.12857142857143,212.7,292.22232142857143,290.12857142857143,314.3,292.22232142857143,290.12857142857143,420.2,127.22232142857143,436.12857142857143,520.5,3.2223214285714263,657.1285714285714,624.3,3.2223214285714263,657.1285714285714,725.1,3.2223214285714263,657.1285714285714,828.7,33.222321428571426,626.1285714285714,934.6,44.222321428571426,549.1285714285714,1035.2,44.222321428571426,543.1285714285714,1144.1,44.222321428571426,543.1285714285714,1246.5,44.222321428571426,543.1285714285714,1348.4,44.222321428571426,543.1285714285714,1454,44.222321428571426,543.1285714285714,1559.2,44.222321428571426,543.1285714285714,1663,44.222321428571426,543.1285714285714,1771,44.222321428571426,543.1285714285714,1880.8,44.222321428571426,543.1285714285714,1987.4,44.222321428571426,543.1285714285714,2088.1,44.222321428571426,543.1285714285714,2189,44.222321428571426,543.1285714285714,2293.4,44.222321428571426,543.1285714285714,2394.7,44.222321428571426,543.1285714285714,2503.1,44.222321428571426,543.1285714285714,2605.9,44.222321428571426,543.1285714285714,2712.4,44.222321428571426,543.1285714285714,2814.3,44.222321428571426,543.1285714285714,2920.7,44.222321428571426,543.1285714285714,3030.6,44.222321428571426,543.1285714285714,3136.5,44.222321428571426,543.1285714285714,3240.2,44.222321428571426,543.1285714285714,3344.7,44.222321428571426,543.1285714285714,3445.5,44.222321428571426,543.1285714285714,3546,44.222321428571426,543.1285714285714,3652.8,44.222321428571426,543.1285714285714,3755.5,44.222321428571426,543.1285714285714,3860.4,44.222321428571426,543.1285714285714,3961,44.222321428571426,543.1285714285714,4067.8,44.222321428571426,543.1285714285714,4170.1,44.222321428571426,543.1285714285714,4278.1,44.222321428571426,543.1285714285714,4378.3,44.222321428571426,543.1285714285714,4478.9,44.222321428571426,543.1285714285714,4586.1,44.222321428571426,543.1285714285714,4692.1,44.222321428571426,543.1285714285714,4794.4,44.222321428571426,543.1285714285714,4901]","[1405,1405,1000,0,405,""smooth"",""down"",""down"",""good_move"",11575.7,10170.3,2661,8548.4,366.4,""smooth"",""down"",""down"",""good_move"",14541,2964.9,2594.5,11576.1,370.4,""smooth"",""down"",""down"",""good_move"",17072.5,2531.1,2025,14541.4,506.1,""smooth"",""left"",""left"",""good_move"",19789.7,2716.8,2267.7,17073,449.1,""smooth"",""left"",""left"",""good_move"",22488.5,2698.4,1888.5,19790.2,809.8,""smooth"",""left"",""left"",""good_move""]","",""
"15803","","<div style=""width:500px;"">
  <p>What determined the result of this run?</p>
  </div>","95","html-slider-response","10","430555","0.0-5.0-1.0","249","1","2025-07-30 08:36:49","1f75c3e559b7213887762d5229550c2b","41.150.35.210","Mozilla/5.0 (Windows NT 10.0; Win64; x64) AppleWebKit/537.36 (KHTML, like Gecko) Chrome/138.0.0.0 Safari/537.36","WebKit","Chrome","138.0.0.0","Windows","10.0","https://app.prolific.com/","en-ZA,en-GB;q=0.9,en-US;q=0.8,en;q=0.7","67f14975a8c12321ab2d0e61","6877631c9844ddd5501205fc","6889d98e06072073f3bec367","3","1","67f14975a8c12321ab2d0e61","3","1","2025-07-30T08:47:46.941Z","","","","","","","","","","","AttribQ","","50","","","","","","","","","","","","","","","","","","","","","","","","","","","","",""
"2742","","<div style=""width:500px;"">
  <p>How much control did you have over the ball?</p>
  </div>","100","html-slider-response","11","433299","0.0-5.0-2.0","249","1","2025-07-30 08:36:49","1f75c3e559b7213887762d5229550c2b","41.150.35.210","Mozilla/5.0 (Windows NT 10.0; Win64; x64) AppleWebKit/537.36 (KHTML, like Gecko) Chrome/138.0.0.0 Safari/537.36","WebKit","Chrome","138.0.0.0","Windows","10.0","https://app.prolific.com/","en-ZA,en-GB;q=0.9,en-US;q=0.8,en;q=0.7","67f14975a8c12321ab2d0e61","6877631c9844ddd5501205fc","6889d98e06072073f3bec367","3","1","67f14975a8c12321ab2d0e61","3","1","2025-07-30T08:47:49.685Z","","","","","","","","","","","ControlQ","","50","","","","","","","","","","","","","","","","","","","","","","","","","","","","",""
"5131","","<div style=""width:500px;"">
  <p>How would you describe your current emotional state?</p>
  </div>","0","html-slider-response","12","438431","0.0-5.0-3.0","249","1","2025-07-30 08:36:49","1f75c3e559b7213887762d5229550c2b","41.150.35.210","Mozilla/5.0 (Windows NT 10.0; Win64; x64) AppleWebKit/537.36 (KHTML, like Gecko) Chrome/138.0.0.0 Safari/537.36","WebKit","Chrome","138.0.0.0","Windows","10.0","https://app.prolific.com/","en-ZA,en-GB;q=0.9,en-US;q=0.8,en;q=0.7","67f14975a8c12321ab2d0e61","6877631c9844ddd5501205fc","6889d98e06072073f3bec367","3","1","67f14975a8c12321ab2d0e61","3","1","2025-07-30T08:47:54.817Z","","","","","","","","","","","StressQ","","50","","","","","","","","","","","","","","","","","","","","","","","","","","","","",""
"3092","","<div style=""width:500px;"">
  <p>What best describes how you currently feel?</p>
  </div>","100","html-slider-response","13","441525","0.0-5.0-4.0","249","1","2025-07-30 08:36:49","1f75c3e559b7213887762d5229550c2b","41.150.35.210","Mozilla/5.0 (Windows NT 10.0; Win64; x64) AppleWebKit/537.36 (KHTML, like Gecko) Chrome/138.0.0.0 Safari/537.36","WebKit","Chrome","138.0.0.0","Windows","10.0","https://app.prolific.com/","en-ZA,en-GB;q=0.9,en-US;q=0.8,en;q=0.7","67f14975a8c12321ab2d0e61","6877631c9844ddd5501205fc","6889d98e06072073f3bec367","3","1","67f14975a8c12321ab2d0e61","3","1","2025-07-30T08:47:57.911Z","","","","","","","","","","","MotivationQ","","50","","","","","","","","","","","","","","","","","","","","","","","","","","","","",""
"","","","","ctl-task-cpt","14","474518","0.0-5.0-0.1","249","1","2025-07-30 08:36:49","1f75c3e559b7213887762d5229550c2b","41.150.35.210","Mozilla/5.0 (Windows NT 10.0; Win64; x64) AppleWebKit/537.36 (KHTML, like Gecko) Chrome/138.0.0.0 Safari/537.36","WebKit","Chrome","138.0.0.0","Windows","10.0","https://app.prolific.com/","en-ZA,en-GB;q=0.9,en-US;q=0.8,en;q=0.7","67f14975a8c12321ab2d0e61","6877631c9844ddd5501205fc","6889d98e06072073f3bec367","3","1","67f14975a8c12321ab2d0e61","3","1","2025-07-30T08:48:30.904Z","","","","","","","","","","","","","","win-only","2","g1:SE,g2:NW","0.9","2","0","448629.9","1680.4","6682.9","29979.8","1","4","4","6","2","4","4","12","8","0.09090909090909091","987.7","3000","850","[""left"",""up""]","{""num_key_presses"":8,""num_perfect"":7,""num_errors"":0,""num_randdir"":1,""num_randdir_good_moves"":0,""num_whilered"":0,""num_whileblue"":0,""num_blue"":0,""num_good_moves"":7}","[295.22232142857143,300.12857142857143,0.3,295.22232142857143,300.12857142857143,102.3,295.22232142857143,300.12857142857143,213.1,295.22232142857143,300.12857142857143,319.4,228.22232142857143,242.12857142857143,421.6,63.222321428571426,87.12857142857143,522.2,48.222321428571426,69.12857142857143,625.3,53.222321428571426,66.12857142857143,734.2,54.222321428571426,65.12857142857143,835.6,54.222321428571426,65.12857142857143,945.1,54.222321428571426,65.12857142857143,1045.5,54.222321428571426,65.12857142857143,1146.2,54.222321428571426,65.12857142857143,1250.4,54.222321428571426,65.12857142857143,1351.2,54.222321428571426,65.12857142857143,1460.6,54.222321428571426,65.12857142857143,1561.8,54.222321428571426,65.12857142857143,1662.1,54.222321428571426,65.12857142857143,1763.3,54.222321428571426,65.12857142857143,1864.5,54.222321428571426,65.12857142857143,1967.5,54.222321428571426,65.12857142857143,2075.6,54.222321428571426,65.12857142857143,2182,54.222321428571426,65.12857142857143,2290,54.222321428571426,65.12857142857143,2395.2,54.222321428571426,65.12857142857143,2497.5,54.222321428571426,65.12857142857143,2600.3,54.222321428571426,65.12857142857143,2704.4,54.222321428571426,65.12857142857143,2806.7,54.222321428571426,65.12857142857143,2907,54.222321428571426,65.12857142857143,3014.8,54.222321428571426,65.12857142857143,3115.5,54.222321428571426,65.12857142857143,3216.9,54.222321428571426,65.12857142857143,3317.2,54.222321428571426,65.12857142857143,3427.8,54.222321428571426,65.12857142857143,3533.8,54.222321428571426,65.12857142857143,3634.1,54.222321428571426,65.12857142857143,3737.5,54.222321428571426,65.12857142857143,3845.5,54.222321428571426,65.12857142857143,3946.5,54.222321428571426,65.12857142857143,4050.4,54.222321428571426,65.12857142857143,4155.4,54.222321428571426,65.12857142857143,4258.1,54.222321428571426,65.12857142857143,4361,54.222321428571426,65.12857142857143,4467.2,54.222321428571426,65.12857142857143,4576.2,54.222321428571426,65.12857142857143,4683.9,54.222321428571426,65.12857142857143,4788.7,54.222321428571426,65.12857142857143,4888.9,54.222321428571426,65.12857142857143,4997.1]","[1382.1,1382.1,1000,0,382.1,""smooth"",""up"",""up"",""good_move"",4549.6,3167.1,2791.1,1382.6,375.9,""smooth"",""up"",""up"",""good_move"",8256.3,3706.3,3298.8,4550,407.5,""smooth"",""up"",""up"",""good_move"",10619.5,2362.9,1995,8256.6,367.9,""oops"",""left"",""right"",""bad_move"",13551.8,2931.8,2618.2,10620,313.6,""smooth"",""left"",""left"",""good_move"",16715.7,3163.5,2781.2,13552.2,382.3,""smooth"",""left"",""left"",""good_move"",19468.4,2752.5,2366.5,16715.9,386,""smooth"",""left"",""left"",""good_move"",23176.7,3708,3384.9,19468.7,323.1,""smooth"",""left"",""left"",""good_move""]","",""
"3589","","<div style=""width:500px;"">
  <p>What determined the result of this run?</p>
  </div>","100","html-slider-response","15","478108","0.0-5.0-1.1","249","1","2025-07-30 08:36:49","1f75c3e559b7213887762d5229550c2b","41.150.35.210","Mozilla/5.0 (Windows NT 10.0; Win64; x64) AppleWebKit/537.36 (KHTML, like Gecko) Chrome/138.0.0.0 Safari/537.36","WebKit","Chrome","138.0.0.0","Windows","10.0","https://app.prolific.com/","en-ZA,en-GB;q=0.9,en-US;q=0.8,en;q=0.7","67f14975a8c12321ab2d0e61","6877631c9844ddd5501205fc","6889d98e06072073f3bec367","3","1","67f14975a8c12321ab2d0e61","3","1","2025-07-30T08:48:34.494Z","","","","","","","","","","","AttribQ","","50","","","","","","","","","","","","","","","","","","","","","","","","","","","","",""
"3165","","<div style=""width:500px;"">
  <p>How much control did you have over the ball?</p>
  </div>","89","html-slider-response","16","481274","0.0-5.0-2.1","249","1","2025-07-30 08:36:49","1f75c3e559b7213887762d5229550c2b","41.150.35.210","Mozilla/5.0 (Windows NT 10.0; Win64; x64) AppleWebKit/537.36 (KHTML, like Gecko) Chrome/138.0.0.0 Safari/537.36","WebKit","Chrome","138.0.0.0","Windows","10.0","https://app.prolific.com/","en-ZA,en-GB;q=0.9,en-US;q=0.8,en;q=0.7","67f14975a8c12321ab2d0e61","6877631c9844ddd5501205fc","6889d98e06072073f3bec367","3","1","67f14975a8c12321ab2d0e61","3","1","2025-07-30T08:48:37.660Z","","","","","","","","","","","ControlQ","","50","","","","","","","","","","","","","","","","","","","","","","","","","","","","",""
"3406","","<div style=""width:500px;"">
  <p>How would you describe your current emotional state?</p>
  </div>","17","html-slider-response","17","484681","0.0-5.0-3.1","249","1","2025-07-30 08:36:49","1f75c3e559b7213887762d5229550c2b","41.150.35.210","Mozilla/5.0 (Windows NT 10.0; Win64; x64) AppleWebKit/537.36 (KHTML, like Gecko) Chrome/138.0.0.0 Safari/537.36","WebKit","Chrome","138.0.0.0","Windows","10.0","https://app.prolific.com/","en-ZA,en-GB;q=0.9,en-US;q=0.8,en;q=0.7","67f14975a8c12321ab2d0e61","6877631c9844ddd5501205fc","6889d98e06072073f3bec367","3","1","67f14975a8c12321ab2d0e61","3","1","2025-07-30T08:48:41.067Z","","","","","","","","","","","StressQ","","50","","","","","","","","","","","","","","","","","","","","","","","","","","","","",""
"2507","","<div style=""width:500px;"">
  <p>What best describes how you currently feel?</p>
  </div>","100","html-slider-response","18","487190","0.0-5.0-4.1","249","1","2025-07-30 08:36:49","1f75c3e559b7213887762d5229550c2b","41.150.35.210","Mozilla/5.0 (Windows NT 10.0; Win64; x64) AppleWebKit/537.36 (KHTML, like Gecko) Chrome/138.0.0.0 Safari/537.36","WebKit","Chrome","138.0.0.0","Windows","10.0","https://app.prolific.com/","en-ZA,en-GB;q=0.9,en-US;q=0.8,en;q=0.7","67f14975a8c12321ab2d0e61","6877631c9844ddd5501205fc","6889d98e06072073f3bec367","3","1","67f14975a8c12321ab2d0e61","3","1","2025-07-30T08:48:43.576Z","","","","","","","","","","","MotivationQ","","50","","","","","","","","","","","","","","","","","","","","","","","","","","","","",""
"","","","","ctl-task-cpt","19","521512","0.0-5.0-0.2","249","1","2025-07-30 08:36:49","1f75c3e559b7213887762d5229550c2b","41.150.35.210","Mozilla/5.0 (Windows NT 10.0; Win64; x64) AppleWebKit/537.36 (KHTML, like Gecko) Chrome/138.0.0.0 Safari/537.36","WebKit","Chrome","138.0.0.0","Windows","10.0","https://app.prolific.com/","en-ZA,en-GB;q=0.9,en-US;q=0.8,en;q=0.7","67f14975a8c12321ab2d0e61","6877631c9844ddd5501205fc","6889d98e06072073f3bec367","3","1","67f14975a8c12321ab2d0e61","3","1","2025-07-30T08:49:17.898Z","","","","","","","","","","","","","","win-only","2","g1:SE,g2:NW","0.8","3","0","494295.9","2740.3","7742.8","31316","1","4","4","6","2","4","4","16","12","0.12121212121212122","1260.4","3000","1325","[""left"",""up""]","{""num_key_presses"":6,""num_perfect"":5,""num_errors"":0,""num_randdir"":1,""num_randdir_good_moves"":1,""num_whilered"":0,""num_whileblue"":0,""num_blue"":2,""num_good_moves"":6}","[293.22232142857143,293.12857142857143,0.3,293.22232142857143,293.12857142857143,106.6,293.22232142857143,293.12857142857143,207.1,293.22232142857143,293.12857142857143,315.7,293.22232142857143,293.12857142857143,416.1,330.22232142857143,328.12857142857143,521.4,208.22232142857143,201.12857142857143,622.2,141.22232142857143,120.12857142857143,726.8,128.22232142857143,109.12857142857143,828.1,82.22232142857143,79.12857142857143,933.5,67.22232142857143,66.12857142857143,1036.7,63.222321428571426,62.128571428571426,1143,63.222321428571426,62.128571428571426,1253.6,63.222321428571426,62.128571428571426,1356.4,63.222321428571426,62.128571428571426,1458.7,63.222321428571426,62.128571428571426,1562.1,63.222321428571426,62.128571428571426,1662.3,63.222321428571426,62.128571428571426,1765.7,63.222321428571426,62.128571428571426,1867.5,63.222321428571426,62.128571428571426,1970,63.222321428571426,62.128571428571426,2072.5,63.222321428571426,62.128571428571426,2178,63.222321428571426,62.128571428571426,2278.8,63.222321428571426,62.128571428571426,2388.4,63.222321428571426,62.128571428571426,2494.9,63.222321428571426,62.128571428571426,2595.3,63.222321428571426,62.128571428571426,2701.7,63.222321428571426,62.128571428571426,2801.7,63.222321428571426,62.128571428571426,2903.1,63.222321428571426,62.128571428571426,3003.7,63.222321428571426,62.128571428571426,3104.2,63.222321428571426,62.128571428571426,3205.3,63.222321428571426,62.128571428571426,3309.9,63.222321428571426,62.128571428571426,3411.7,63.222321428571426,62.128571428571426,3515.9,63.222321428571426,62.128571428571426,3622.3,63.222321428571426,62.128571428571426,3722.5,63.222321428571426,62.128571428571426,3822.9,63.222321428571426,62.128571428571426,3931.6,63.222321428571426,62.128571428571426,4032.7,63.222321428571426,62.128571428571426,4139,63.222321428571426,62.128571428571426,4240,63.222321428571426,62.128571428571426,4340.5,63.222321428571426,62.128571428571426,4442.3,63.222321428571426,62.128571428571426,4545.1,63.222321428571426,62.128571428571426,4653.2,63.222321428571426,62.128571428571426,4758.2,63.222321428571426,62.128571428571426,4858.5,63.222321428571426,62.128571428571426,4968.4]","[1364.5,1364.5,1000,0,364.5,""smooth"",""up"",""up"",""good_move"",4427.1,3062.3,2738.9,1365,323.3,""smooth"",""up"",""up"",""good_move"",7683.1,3255.6,2930,4427.5,325.6,""smooth"",""left"",""left"",""good_move"",9997.9,2314.3,1890.3,7683.6,424,""smooth"",""left"",""left"",""good_move"",16657.5,6659.5,2410.6,13848.5,398.5,""smooth"",""left"",""left"",""good_move"",23442.6,6784.8,2644.2,20402.4,396,""oops"",""up"",""up"",""good_move""]","",""
"8557","","<div style=""width:500px;"">
  <p>What determined the result of this run?</p>
  </div>","100","html-slider-response","20","530070","0.0-5.0-1.2","249","1","2025-07-30 08:36:49","1f75c3e559b7213887762d5229550c2b","41.150.35.210","Mozilla/5.0 (Windows NT 10.0; Win64; x64) AppleWebKit/537.36 (KHTML, like Gecko) Chrome/138.0.0.0 Safari/537.36","WebKit","Chrome","138.0.0.0","Windows","10.0","https://app.prolific.com/","en-ZA,en-GB;q=0.9,en-US;q=0.8,en;q=0.7","67f14975a8c12321ab2d0e61","6877631c9844ddd5501205fc","6889d98e06072073f3bec367","3","1","67f14975a8c12321ab2d0e61","3","1","2025-07-30T08:49:26.456Z","","","","","","","","","","","AttribQ","","50","","","","","","","","","","","","","","","","","","","","","","","","","","","","",""
"2856","","<div style=""width:500px;"">
  <p>How much control did you have over the ball?</p>
  </div>","100","html-slider-response","21","532928","0.0-5.0-2.2","249","1","2025-07-30 08:36:49","1f75c3e559b7213887762d5229550c2b","41.150.35.210","Mozilla/5.0 (Windows NT 10.0; Win64; x64) AppleWebKit/537.36 (KHTML, like Gecko) Chrome/138.0.0.0 Safari/537.36","WebKit","Chrome","138.0.0.0","Windows","10.0","https://app.prolific.com/","en-ZA,en-GB;q=0.9,en-US;q=0.8,en;q=0.7","67f14975a8c12321ab2d0e61","6877631c9844ddd5501205fc","6889d98e06072073f3bec367","3","1","67f14975a8c12321ab2d0e61","3","1","2025-07-30T08:49:29.314Z","","","","","","","","","","","ControlQ","","50","","","","","","","","","","","","","","","","","","","","","","","","","","","","",""
"2982","","<div style=""width:500px;"">
  <p>How would you describe your current emotional state?</p>
  </div>","5","html-slider-response","22","535912","0.0-5.0-3.2","249","1","2025-07-30 08:36:49","1f75c3e559b7213887762d5229550c2b","41.150.35.210","Mozilla/5.0 (Windows NT 10.0; Win64; x64) AppleWebKit/537.36 (KHTML, like Gecko) Chrome/138.0.0.0 Safari/537.36","WebKit","Chrome","138.0.0.0","Windows","10.0","https://app.prolific.com/","en-ZA,en-GB;q=0.9,en-US;q=0.8,en;q=0.7","67f14975a8c12321ab2d0e61","6877631c9844ddd5501205fc","6889d98e06072073f3bec367","3","1","67f14975a8c12321ab2d0e61","3","1","2025-07-30T08:49:32.298Z","","","","","","","","","","","StressQ","","50","","","","","","","","","","","","","","","","","","","","","","","","","","","","",""
"2255","","<div style=""width:500px;"">
  <p>What best describes how you currently feel?</p>
  </div>","100","html-slider-response","23","538168","0.0-5.0-4.2","249","1","2025-07-30 08:36:49","1f75c3e559b7213887762d5229550c2b","41.150.35.210","Mozilla/5.0 (Windows NT 10.0; Win64; x64) AppleWebKit/537.36 (KHTML, like Gecko) Chrome/138.0.0.0 Safari/537.36","WebKit","Chrome","138.0.0.0","Windows","10.0","https://app.prolific.com/","en-ZA,en-GB;q=0.9,en-US;q=0.8,en;q=0.7","67f14975a8c12321ab2d0e61","6877631c9844ddd5501205fc","6889d98e06072073f3bec367","3","1","67f14975a8c12321ab2d0e61","3","1","2025-07-30T08:49:34.555Z","","","","","","","","","","","MotivationQ","","50","","","","","","","","","","","","","","","","","","","","","","","","","","","","",""
"","","","","ctl-task-cpt","24","573332","0.0-5.0-0.3","249","1","2025-07-30 08:36:49","1f75c3e559b7213887762d5229550c2b","41.150.35.210","Mozilla/5.0 (Windows NT 10.0; Win64; x64) AppleWebKit/537.36 (KHTML, like Gecko) Chrome/138.0.0.0 Safari/537.36","WebKit","Chrome","138.0.0.0","Windows","10.0","https://app.prolific.com/","en-ZA,en-GB;q=0.9,en-US;q=0.8,en;q=0.7","67f14975a8c12321ab2d0e61","6877631c9844ddd5501205fc","6889d98e06072073f3bec367","3","1","67f14975a8c12321ab2d0e61","3","1","2025-07-30T08:50:09.718Z","","","","","","","","","","","","","","win-only","1","g1:NE,g2:SW","0.7","4","0","545274.6","969.3","5976.9","32150.4","1","4","8","6","2","8","8","24","16","0.18181818181818182","1087.6","3000","830","[""down"",""left""]","{""num_key_presses"":8,""num_perfect"":5,""num_errors"":0,""num_randdir"":3,""num_randdir_good_moves"":2,""num_whilered"":0,""num_whileblue"":0,""num_blue"":1,""num_good_moves"":7}","[297.22232142857143,296.12857142857143,0.1,297.22232142857143,296.12857142857143,104.5,297.22232142857143,296.12857142857143,209.2,297.22232142857143,296.12857142857143,309.3,276.22232142857143,295.12857142857143,415.1,188.22232142857143,362.12857142857143,515.3,142.22232142857143,420.12857142857143,619.9,113.22232142857143,456.12857142857143,724,87.22232142857143,502.12857142857143,828.6,79.22232142857143,517.1285714285714,936.8,79.22232142857143,517.1285714285714,1042.2,79.22232142857143,517.1285714285714,1143.2,79.22232142857143,517.1285714285714,1249.7,79.22232142857143,517.1285714285714,1352.5,79.22232142857143,517.1285714285714,1457.2,79.22232142857143,517.1285714285714,1559.9,79.22232142857143,517.1285714285714,1662.9,79.22232142857143,517.1285714285714,1771.1,79.22232142857143,517.1285714285714,1876.8,79.22232142857143,517.1285714285714,1978.3,79.22232142857143,517.1285714285714,2083.1,79.22232142857143,517.1285714285714,2183.4,79.22232142857143,517.1285714285714,2284.7,79.22232142857143,517.1285714285714,2394.8,79.22232142857143,517.1285714285714,2498.8,79.22232142857143,517.1285714285714,2599.1,79.22232142857143,517.1285714285714,2701,79.22232142857143,517.1285714285714,2802.6,79.22232142857143,517.1285714285714,2912,79.22232142857143,517.1285714285714,3017.6,79.22232142857143,517.1285714285714,3119.7,79.22232142857143,517.1285714285714,3224.3,79.22232142857143,517.1285714285714,3326.6,79.22232142857143,517.1285714285714,3432.3,79.22232142857143,517.1285714285714,3541.6,79.22232142857143,517.1285714285714,3642.9,79.22232142857143,517.1285714285714,3750.2,79.22232142857143,517.1285714285714,3851.6,79.22232142857143,517.1285714285714,3953.1,79.22232142857143,517.1285714285714,4055.3,79.22232142857143,517.1285714285714,4161.3,79.22232142857143,517.1285714285714,4261.4,79.22232142857143,517.1285714285714,4362.5,79.22232142857143,517.1285714285714,4469.7,79.22232142857143,517.1285714285714,4570.2,79.22232142857143,517.1285714285714,4671.4,79.22232142857143,517.1285714285714,4777.4,79.22232142857143,517.1285714285714,4884.7,79.22232142857143,517.1285714285714,4991.3]","[1403,1403,1000,0,403,""smooth"",""down"",""down"",""good_move"",4459.4,3055.9,2699.9,1403.6,355.9,""oops"",""down"",""left"",""good_move"",7078.7,2618.8,2250.6,4459.9,368.2,""oops"",""down"",""right"",""bad_move"",10518.8,3439.6,3077.1,7079.2,362.5,""smooth"",""down"",""down"",""good_move"",13722,3202.7,2820.7,10519.3,382,""smooth"",""down"",""down"",""good_move"",16533.9,2811.2,2510.4,13722.7,300.8,""smooth"",""left"",""left"",""good_move"",19081.1,2546.8,2172.2,16534.3,374.6,""smooth"",""left"",""left"",""good_move"",26060.1,6978.8,2476.2,23254.9,329,""oops"",""left"",""left"",""good_move""]","",""
"4746","","<div style=""width:500px;"">
  <p>What determined the result of this run?</p>
  </div>","100","html-slider-response","25","578080","0.0-5.0-1.3","249","1","2025-07-30 08:36:49","1f75c3e559b7213887762d5229550c2b","41.150.35.210","Mozilla/5.0 (Windows NT 10.0; Win64; x64) AppleWebKit/537.36 (KHTML, like Gecko) Chrome/138.0.0.0 Safari/537.36","WebKit","Chrome","138.0.0.0","Windows","10.0","https://app.prolific.com/","en-ZA,en-GB;q=0.9,en-US;q=0.8,en;q=0.7","67f14975a8c12321ab2d0e61","6877631c9844ddd5501205fc","6889d98e06072073f3bec367","3","1","67f14975a8c12321ab2d0e61","3","1","2025-07-30T08:50:14.466Z","","","","","","","","","","","AttribQ","","50","","","","","","","","","","","","","","","","","","","","","","","","","","","","",""
"5542","","<div style=""width:500px;"">
  <p>How much control did you have over the ball?</p>
  </div>","100","html-slider-response","26","583624","0.0-5.0-2.3","249","1","2025-07-30 08:36:49","1f75c3e559b7213887762d5229550c2b","41.150.35.210","Mozilla/5.0 (Windows NT 10.0; Win64; x64) AppleWebKit/537.36 (KHTML, like Gecko) Chrome/138.0.0.0 Safari/537.36","WebKit","Chrome","138.0.0.0","Windows","10.0","https://app.prolific.com/","en-ZA,en-GB;q=0.9,en-US;q=0.8,en;q=0.7","67f14975a8c12321ab2d0e61","6877631c9844ddd5501205fc","6889d98e06072073f3bec367","3","1","67f14975a8c12321ab2d0e61","3","1","2025-07-30T08:50:20.010Z","","","","","","","","","","","ControlQ","","50","","","","","","","","","","","","","","","","","","","","","","","","","","","","",""
"2706","","<div style=""width:500px;"">
  <p>How would you describe your current emotional state?</p>
  </div>","0","html-slider-response","27","586331","0.0-5.0-3.3","249","1","2025-07-30 08:36:49","1f75c3e559b7213887762d5229550c2b","41.150.35.210","Mozilla/5.0 (Windows NT 10.0; Win64; x64) AppleWebKit/537.36 (KHTML, like Gecko) Chrome/138.0.0.0 Safari/537.36","WebKit","Chrome","138.0.0.0","Windows","10.0","https://app.prolific.com/","en-ZA,en-GB;q=0.9,en-US;q=0.8,en;q=0.7","67f14975a8c12321ab2d0e61","6877631c9844ddd5501205fc","6889d98e06072073f3bec367","3","1","67f14975a8c12321ab2d0e61","3","1","2025-07-30T08:50:22.717Z","","","","","","","","","","","StressQ","","50","","","","","","","","","","","","","","","","","","","","","","","","","","","","",""
"3716","","<div style=""width:500px;"">
  <p>What best describes how you currently feel?</p>
  </div>","96","html-slider-response","28","590049","0.0-5.0-4.3","249","1","2025-07-30 08:36:49","1f75c3e559b7213887762d5229550c2b","41.150.35.210","Mozilla/5.0 (Windows NT 10.0; Win64; x64) AppleWebKit/537.36 (KHTML, like Gecko) Chrome/138.0.0.0 Safari/537.36","WebKit","Chrome","138.0.0.0","Windows","10.0","https://app.prolific.com/","en-ZA,en-GB;q=0.9,en-US;q=0.8,en;q=0.7","67f14975a8c12321ab2d0e61","6877631c9844ddd5501205fc","6889d98e06072073f3bec367","3","1","67f14975a8c12321ab2d0e61","3","1","2025-07-30T08:50:26.435Z","","","","","","","","","","","MotivationQ","","50","","","","","","","","","","","","","","","","","","","","","","","","","","","","",""
"","","","","ctl-task-cpt","29","616168","0.0-5.0-0.4","249","1","2025-07-30 08:36:49","1f75c3e559b7213887762d5229550c2b","41.150.35.210","Mozilla/5.0 (Windows NT 10.0; Win64; x64) AppleWebKit/537.36 (KHTML, like Gecko) Chrome/138.0.0.0 Safari/537.36","WebKit","Chrome","138.0.0.0","Windows","10.0","https://app.prolific.com/","en-ZA,en-GB;q=0.9,en-US;q=0.8,en;q=0.7","67f14975a8c12321ab2d0e61","6877631c9844ddd5501205fc","6889d98e06072073f3bec367","3","1","67f14975a8c12321ab2d0e61","3","1","2025-07-30T08:50:52.554Z","","","","","","","","","","","","","","win-only","1","g1:NE,g2:SW","0.6","5","0","597155.2","1414.5","6417.5","23098.1","1","4","4","6","2","4","4","28","24","0.21212121212121213","947.8","3000","1580","[""down"",""left""]","{""num_key_presses"":6,""num_perfect"":6,""num_errors"":0,""num_randdir"":0,""num_randdir_good_moves"":0,""num_whilered"":0,""num_whileblue"":0,""num_blue"":0,""num_good_moves"":6}","[299.22232142857143,298.12857142857143,0.2,299.22232142857143,298.12857142857143,102.6,299.22232142857143,298.12857142857143,202.8,299.22232142857143,298.12857142857143,311.8,273.22232142857143,307.12857142857143,415.5,167.22232142857143,464.12857142857143,522.9,113.22232142857143,506.12857142857143,629.2,93.22232142857143,567.1285714285714,733.5,93.22232142857143,567.1285714285714,839.2,93.22232142857143,567.1285714285714,942,93.22232142857143,567.1285714285714,1051.7,93.22232142857143,567.1285714285714,1151.9,93.22232142857143,567.1285714285714,1257.3,93.22232142857143,567.1285714285714,1364.7,93.22232142857143,567.1285714285714,1468.1,93.22232142857143,567.1285714285714,1569.2,93.22232142857143,567.1285714285714,1672.4,93.22232142857143,567.1285714285714,1774.6,93.22232142857143,567.1285714285714,1876,93.22232142857143,567.1285714285714,1976.7,93.22232142857143,567.1285714285714,2079.6,93.22232142857143,567.1285714285714,2184.8,93.22232142857143,567.1285714285714,2289.7,93.22232142857143,567.1285714285714,2398.1,93.22232142857143,567.1285714285714,2501.2,93.22232142857143,567.1285714285714,2601.5,93.22232142857143,567.1285714285714,2710.1,93.22232142857143,567.1285714285714,2817.2,93.22232142857143,567.1285714285714,2926.1,93.22232142857143,567.1285714285714,3029.9,93.22232142857143,567.1285714285714,3132.3,93.22232142857143,567.1285714285714,3236.1,93.22232142857143,567.1285714285714,3336.8,93.22232142857143,567.1285714285714,3449.3,93.22232142857143,567.1285714285714,3552.3,93.22232142857143,567.1285714285714,3660.4,93.22232142857143,567.1285714285714,3760.6,93.22232142857143,567.1285714285714,3866.1,93.22232142857143,567.1285714285714,3967.9,93.22232142857143,567.1285714285714,4068.3,93.22232142857143,567.1285714285714,4168.6,93.22232142857143,567.1285714285714,4274.2,93.22232142857143,567.1285714285714,4382.6,93.22232142857143,567.1285714285714,4491.3,93.22232142857143,567.1285714285714,4599.5,93.22232142857143,567.1285714285714,4701.7,93.22232142857143,567.1285714285714,4802.9,93.22232142857143,567.1285714285714,4904]","[1365.3,1365.3,1000,0,365.3,""smooth"",""down"",""down"",""good_move"",3679.8,2314.1,1953.9,1365.7,360.2,""smooth"",""down"",""down"",""good_move"",6633.6,2953.5,2642.9,3680.1,310.6,""smooth"",""down"",""down"",""good_move"",9700.2,3066.3,2757.3,6633.9,309,""smooth"",""left"",""left"",""good_move"",12990.5,3289.8,2956.6,9700.7,333.2,""smooth"",""left"",""left"",""good_move"",16559.9,3569.1,3167.2,12990.8,401.9,""smooth"",""left"",""left"",""good_move""]","",""
"4821","","<div style=""width:500px;"">
  <p>What determined the result of this run?</p>
  </div>","100","html-slider-response","30","620991","0.0-5.0-1.4","249","1","2025-07-30 08:36:49","1f75c3e559b7213887762d5229550c2b","41.150.35.210","Mozilla/5.0 (Windows NT 10.0; Win64; x64) AppleWebKit/537.36 (KHTML, like Gecko) Chrome/138.0.0.0 Safari/537.36","WebKit","Chrome","138.0.0.0","Windows","10.0","https://app.prolific.com/","en-ZA,en-GB;q=0.9,en-US;q=0.8,en;q=0.7","67f14975a8c12321ab2d0e61","6877631c9844ddd5501205fc","6889d98e06072073f3bec367","3","1","67f14975a8c12321ab2d0e61","3","1","2025-07-30T08:50:57.377Z","","","","","","","","","","","AttribQ","","50","","","","","","","","","","","","","","","","","","","","","","","","","","","","",""
"6919","","<div style=""width:500px;"">
  <p>How much control did you have over the ball?</p>
  </div>","100","html-slider-response","31","627912","0.0-5.0-2.4","249","1","2025-07-30 08:36:49","1f75c3e559b7213887762d5229550c2b","41.150.35.210","Mozilla/5.0 (Windows NT 10.0; Win64; x64) AppleWebKit/537.36 (KHTML, like Gecko) Chrome/138.0.0.0 Safari/537.36","WebKit","Chrome","138.0.0.0","Windows","10.0","https://app.prolific.com/","en-ZA,en-GB;q=0.9,en-US;q=0.8,en;q=0.7","67f14975a8c12321ab2d0e61","6877631c9844ddd5501205fc","6889d98e06072073f3bec367","3","1","67f14975a8c12321ab2d0e61","3","1","2025-07-30T08:51:04.298Z","","","","","","","","","","","ControlQ","","50","","","","","","","","","","","","","","","","","","","","","","","","","","","","",""
"7436","","<div style=""width:500px;"">
  <p>How would you describe your current emotional state?</p>
  </div>","10","html-slider-response","32","635351","0.0-5.0-3.4","249","1","2025-07-30 08:36:49","1f75c3e559b7213887762d5229550c2b","41.150.35.210","Mozilla/5.0 (Windows NT 10.0; Win64; x64) AppleWebKit/537.36 (KHTML, like Gecko) Chrome/138.0.0.0 Safari/537.36","WebKit","Chrome","138.0.0.0","Windows","10.0","https://app.prolific.com/","en-ZA,en-GB;q=0.9,en-US;q=0.8,en;q=0.7","67f14975a8c12321ab2d0e61","6877631c9844ddd5501205fc","6889d98e06072073f3bec367","3","1","67f14975a8c12321ab2d0e61","3","1","2025-07-30T08:51:11.737Z","","","","","","","","","","","StressQ","","50","","","","","","","","","","","","","","","","","","","","","","","","","","","","",""
"3679","","<div style=""width:500px;"">
  <p>What best describes how you currently feel?</p>
  </div>","86","html-slider-response","33","639048","0.0-5.0-4.4","249","1","2025-07-30 08:36:49","1f75c3e559b7213887762d5229550c2b","41.150.35.210","Mozilla/5.0 (Windows NT 10.0; Win64; x64) AppleWebKit/537.36 (KHTML, like Gecko) Chrome/138.0.0.0 Safari/537.36","WebKit","Chrome","138.0.0.0","Windows","10.0","https://app.prolific.com/","en-ZA,en-GB;q=0.9,en-US;q=0.8,en;q=0.7","67f14975a8c12321ab2d0e61","6877631c9844ddd5501205fc","6889d98e06072073f3bec367","3","1","67f14975a8c12321ab2d0e61","3","1","2025-07-30T08:51:15.434Z","","","","","","","","","","","MotivationQ","","50","","","","","","","","","","","","","","","","","","","","","","","","","","","","",""
"","","","","ctl-task-cpt","34","682731","0.0-5.0-0.5","249","1","2025-07-30 08:36:49","1f75c3e559b7213887762d5229550c2b","41.150.35.210","Mozilla/5.0 (Windows NT 10.0; Win64; x64) AppleWebKit/537.36 (KHTML, like Gecko) Chrome/138.0.0.0 Safari/537.36","WebKit","Chrome","138.0.0.0","Windows","10.0","https://app.prolific.com/","en-ZA,en-GB;q=0.9,en-US;q=0.8,en;q=0.7","67f14975a8c12321ab2d0e61","6877631c9844ddd5501205fc","6889d98e06072073f3bec367","3","1","67f14975a8c12321ab2d0e61","3","1","2025-07-30T08:51:59.117Z","","","","","","","","","","","","","","win-only","1","g1:NE,g2:SW","0.5","6","0","646153.9","1049.8","6050.9","40663.4","1","4","8","6","2","-8","-9","19","28","0.14393939393939395","1211.1","3000","-2310","[""down"",""left""]","{""num_key_presses"":12,""num_perfect"":5,""num_errors"":1,""num_randdir"":6,""num_randdir_good_moves"":3,""num_whilered"":0,""num_whileblue"":1,""num_blue"":1,""num_good_moves"":8}","[297.22232142857143,303.12857142857143,0.4,297.22232142857143,303.12857142857143,100.9,297.22232142857143,303.12857142857143,202.7,297.22232142857143,303.12857142857143,302.9,290.22232142857143,302.12857142857143,405.7,206.22232142857143,420.12857142857143,514,125.22232142857143,588.1285714285714,619.7,112.22232142857143,588.1285714285714,723.8,76.22232142857143,591.1285714285714,830.2,78.22232142857143,547.1285714285714,936,78.22232142857143,546.1285714285714,1040.8,78.22232142857143,546.1285714285714,1140.8,78.22232142857143,546.1285714285714,1243.9,78.22232142857143,546.1285714285714,1350.5,78.22232142857143,546.1285714285714,1451.8,78.22232142857143,546.1285714285714,1560.8,78.22232142857143,546.1285714285714,1661.2,78.22232142857143,546.1285714285714,1763.1,78.22232142857143,546.1285714285714,1866.7,78.22232142857143,546.1285714285714,1973.8,78.22232142857143,546.1285714285714,2076,78.22232142857143,546.1285714285714,2180.9,78.22232142857143,546.1285714285714,2283.7,78.22232142857143,546.1285714285714,2386,78.22232142857143,546.1285714285714,2488.8,78.22232142857143,546.1285714285714,2595.9,78.22232142857143,546.1285714285714,2697.8,78.22232142857143,546.1285714285714,2802,78.22232142857143,546.1285714285714,2911.2,78.22232142857143,546.1285714285714,3019.3,78.22232142857143,546.1285714285714,3127.7,78.22232142857143,546.1285714285714,3235.7,78.22232142857143,546.1285714285714,3343.4,78.22232142857143,546.1285714285714,3446.6,78.22232142857143,546.1285714285714,3546.7,78.22232142857143,546.1285714285714,3646.8,78.22232142857143,546.1285714285714,3752.9,78.22232142857143,546.1285714285714,3860.9,78.22232142857143,546.1285714285714,3961,78.22232142857143,546.1285714285714,4063.3,78.22232142857143,546.1285714285714,4166.1,78.22232142857143,546.1285714285714,4273.3,78.22232142857143,546.1285714285714,4383.5,78.22232142857143,546.1285714285714,4485,78.22232142857143,546.1285714285714,4586.2,78.22232142857143,546.1285714285714,4689,78.22232142857143,546.1285714285714,4791,78.22232142857143,546.1285714285714,4902.8]","[1350.2,1350.2,1000,0,350.2,""smooth"",""down"",""down"",""good_move"",4317.3,2966.1,2616.7,1351.2,349.4,""oops"",""down"",""up"",""bad_move"",7827.3,3509.5,3146.8,4317.8,362.8,""oops"",""down"",""down"",""good_move"",10601.3,2773.4,2457,7827.9,316.4,""smooth"",""down"",""down"",""good_move"",13372.4,2770.9,2413.3,10601.6,357.6,""smooth"",""down"",""down"",""good_move"",15424.1,2051.3,1686.2,13372.8,365.1,""oops"",""left"",""right"",""bad_move"",18458.5,3033.8,2676.8,15424.7,357,""oops"",""left"",""right"",""bad_move"",21014.6,2555.8,2206.5,18458.8,349.3,""smooth"",""left"",""left"",""good_move"",23349.5,2334.2,2093.8,21015.3,240.4,""while_blue"",""left"",""right"",""bad_move"",26019.9,2669.9,2335.9,23350.1,334,""smooth"",""left"",""left"",""good_move"",29325.7,3305.6,2985.4,26020.1,320.2,""oops"",""left"",""left"",""good_move"",31931.9,2605.4,2204.1,29326.5,401.3,""oops"",""left"",""left"",""good_move""]","",""
"30462","","<div style=""width:500px;"">
  <p>What determined the result of this run?</p>
  </div>","100","html-slider-response","35","713196","0.0-5.0-1.5","249","1","2025-07-30 08:36:49","1f75c3e559b7213887762d5229550c2b","41.150.35.210","Mozilla/5.0 (Windows NT 10.0; Win64; x64) AppleWebKit/537.36 (KHTML, like Gecko) Chrome/138.0.0.0 Safari/537.36","WebKit","Chrome","138.0.0.0","Windows","10.0","https://app.prolific.com/","en-ZA,en-GB;q=0.9,en-US;q=0.8,en;q=0.7","67f14975a8c12321ab2d0e61","6877631c9844ddd5501205fc","6889d98e06072073f3bec367","3","1","67f14975a8c12321ab2d0e61","3","1","2025-07-30T08:52:29.582Z","","","","","","","","","","","AttribQ","","50","","","","","","","","","","","","","","","","","","","","","","","","","","","","",""
"3714","","<div style=""width:500px;"">
  <p>How much control did you have over the ball?</p>
  </div>","78","html-slider-response","36","716911","0.0-5.0-2.5","249","1","2025-07-30 08:36:49","1f75c3e559b7213887762d5229550c2b","41.150.35.210","Mozilla/5.0 (Windows NT 10.0; Win64; x64) AppleWebKit/537.36 (KHTML, like Gecko) Chrome/138.0.0.0 Safari/537.36","WebKit","Chrome","138.0.0.0","Windows","10.0","https://app.prolific.com/","en-ZA,en-GB;q=0.9,en-US;q=0.8,en;q=0.7","67f14975a8c12321ab2d0e61","6877631c9844ddd5501205fc","6889d98e06072073f3bec367","3","1","67f14975a8c12321ab2d0e61","3","1","2025-07-30T08:52:33.297Z","","","","","","","","","","","ControlQ","","50","","","","","","","","","","","","","","","","","","","","","","","","","","","","",""
"3691","","<div style=""width:500px;"">
  <p>How would you describe your current emotional state?</p>
  </div>","22","html-slider-response","37","720603","0.0-5.0-3.5","249","1","2025-07-30 08:36:49","1f75c3e559b7213887762d5229550c2b","41.150.35.210","Mozilla/5.0 (Windows NT 10.0; Win64; x64) AppleWebKit/537.36 (KHTML, like Gecko) Chrome/138.0.0.0 Safari/537.36","WebKit","Chrome","138.0.0.0","Windows","10.0","https://app.prolific.com/","en-ZA,en-GB;q=0.9,en-US;q=0.8,en;q=0.7","67f14975a8c12321ab2d0e61","6877631c9844ddd5501205fc","6889d98e06072073f3bec367","3","1","67f14975a8c12321ab2d0e61","3","1","2025-07-30T08:52:36.990Z","","","","","","","","","","","StressQ","","50","","","","","","","","","","","","","","","","","","","","","","","","","","","","",""
"4036","","<div style=""width:500px;"">
  <p>What best describes how you currently feel?</p>
  </div>","99","html-slider-response","38","724641","0.0-5.0-4.5","249","1","2025-07-30 08:36:49","1f75c3e559b7213887762d5229550c2b","41.150.35.210","Mozilla/5.0 (Windows NT 10.0; Win64; x64) AppleWebKit/537.36 (KHTML, like Gecko) Chrome/138.0.0.0 Safari/537.36","WebKit","Chrome","138.0.0.0","Windows","10.0","https://app.prolific.com/","en-ZA,en-GB;q=0.9,en-US;q=0.8,en;q=0.7","67f14975a8c12321ab2d0e61","6877631c9844ddd5501205fc","6889d98e06072073f3bec367","3","1","67f14975a8c12321ab2d0e61","3","1","2025-07-30T08:52:41.027Z","","","","","","","","","","","MotivationQ","","50","","","","","","","","","","","","","","","","","","","","","","","","","","","","",""
"","","","","ctl-task-cpt","39","772323","0.0-5.0-0.6","249","1","2025-07-30 08:36:49","1f75c3e559b7213887762d5229550c2b","41.150.35.210","Mozilla/5.0 (Windows NT 10.0; Win64; x64) AppleWebKit/537.36 (KHTML, like Gecko) Chrome/138.0.0.0 Safari/537.36","WebKit","Chrome","138.0.0.0","Windows","10.0","https://app.prolific.com/","en-ZA,en-GB;q=0.9,en-US;q=0.8,en;q=0.7","67f14975a8c12321ab2d0e61","6877631c9844ddd5501205fc","6889d98e06072073f3bec367","3","1","67f14975a8c12321ab2d0e61","3","1","2025-07-30T08:53:28.709Z","","","","","","","","","","","","","","win-only","0","g1:NW,g2:SE","0.4","7","0","731748.9","5420.2","10421","44669.1","1","4","8","6","2","8","8","27","19","0.20454545454545456","1008.2","3000","140","[""down"",""right""]","{""num_key_presses"":10,""num_perfect"":4,""num_errors"":0,""num_randdir"":6,""num_randdir_good_moves"":4,""num_whilered"":0,""num_whileblue"":0,""num_blue"":2,""num_good_moves"":8}","[301.22232142857143,291.12857142857143,0.4,301.22232142857143,291.12857142857143,102.4,301.22232142857143,291.12857142857143,206.2,301.22232142857143,291.12857142857143,312.7,275.22232142857143,274.12857142857143,419.1,449.22232142857143,504.12857142857143,519.7,512.2223214285714,569.1285714285714,619.7,514.2223214285714,569.1285714285714,723,522.2223214285714,564.1285714285714,826.8,522.2223214285714,564.1285714285714,927.3,522.2223214285714,564.1285714285714,1030.4,522.2223214285714,564.1285714285714,1135.4,522.2223214285714,564.1285714285714,1246.1,522.2223214285714,564.1285714285714,1351.9,522.2223214285714,564.1285714285714,1457.3,522.2223214285714,564.1285714285714,1559.5,522.2223214285714,564.1285714285714,1660.4,522.2223214285714,564.1285714285714,1760.8,522.2223214285714,564.1285714285714,1866.5,522.2223214285714,564.1285714285714,1967.4,522.2223214285714,564.1285714285714,2075.7,522.2223214285714,564.1285714285714,2175.9,522.2223214285714,564.1285714285714,2278.8,522.2223214285714,564.1285714285714,2382.1,522.2223214285714,564.1285714285714,2483,522.2223214285714,564.1285714285714,2587.9,522.2223214285714,564.1285714285714,2690,522.2223214285714,564.1285714285714,2790.1,522.2223214285714,564.1285714285714,2893,522.2223214285714,564.1285714285714,2993.2,522.2223214285714,564.1285714285714,3094,522.2223214285714,564.1285714285714,3194,522.2223214285714,564.1285714285714,3303.1,522.2223214285714,564.1285714285714,3403.1,522.2223214285714,564.1285714285714,3508.7,522.2223214285714,564.1285714285714,3609.4,522.2223214285714,564.1285714285714,3711.1,522.2223214285714,564.1285714285714,3812.4,522.2223214285714,564.1285714285714,3917.1,522.2223214285714,564.1285714285714,4018.2,522.2223214285714,564.1285714285714,4122.6,522.2223214285714,564.1285714285714,4226.8,522.2223214285714,564.1285714285714,4334.8,522.2223214285714,564.1285714285714,4443.3,522.2223214285714,564.1285714285714,4548.7,522.2223214285714,564.1285714285714,4652.8,522.2223214285714,564.1285714285714,4757.8,522.2223214285714,564.1285714285714,4861.9,522.2223214285714,564.1285714285714,4965.3]","[1325.5,1325.5,1000,0,325.5,""smooth"",""right"",""right"",""good_move"",4274,2947.5,2600.7,1326.5,346.8,""oops"",""right"",""right"",""good_move"",7381.6,3106.6,2793.1,4275,313.5,""oops"",""right"",""left"",""bad_move"",13848.7,6466.7,2425.4,11058.6,364.7,""smooth"",""right"",""right"",""good_move"",16599.5,2750.6,2257,13849,493.5,""oops"",""right"",""left"",""bad_move"",19921.5,3321.8,2889.6,16599.7,432.2,""oops"",""right"",""down"",""good_move"",25034.1,5111.9,1349.8,23364.9,319.4,""smooth"",""right"",""right"",""good_move"",27413.4,2378.8,1859.3,25034.6,519.5,""smooth"",""down"",""down"",""good_move"",30992.6,3578.9,3233.6,27413.7,345.3,""oops"",""right"",""right"",""good_move"",34132.2,3139.3,2798.8,30992.9,340.5,""oops"",""down"",""down"",""good_move""]","",""
"4148","","<div style=""width:500px;"">
  <p>What determined the result of this run?</p>
  </div>","100","html-slider-response","40","776473","0.0-5.0-1.6","249","1","2025-07-30 08:36:49","1f75c3e559b7213887762d5229550c2b","41.150.35.210","Mozilla/5.0 (Windows NT 10.0; Win64; x64) AppleWebKit/537.36 (KHTML, like Gecko) Chrome/138.0.0.0 Safari/537.36","WebKit","Chrome","138.0.0.0","Windows","10.0","https://app.prolific.com/","en-ZA,en-GB;q=0.9,en-US;q=0.8,en;q=0.7","67f14975a8c12321ab2d0e61","6877631c9844ddd5501205fc","6889d98e06072073f3bec367","3","1","67f14975a8c12321ab2d0e61","3","1","2025-07-30T08:53:32.860Z","","","","","","","","","","","AttribQ","","50","","","","","","","","","","","","","","","","","","","","","","","","","","","","",""
"3498","","<div style=""width:500px;"">
  <p>How much control did you have over the ball?</p>
  </div>","88","html-slider-response","41","779973","0.0-5.0-2.6","249","1","2025-07-30 08:36:49","1f75c3e559b7213887762d5229550c2b","41.150.35.210","Mozilla/5.0 (Windows NT 10.0; Win64; x64) AppleWebKit/537.36 (KHTML, like Gecko) Chrome/138.0.0.0 Safari/537.36","WebKit","Chrome","138.0.0.0","Windows","10.0","https://app.prolific.com/","en-ZA,en-GB;q=0.9,en-US;q=0.8,en;q=0.7","67f14975a8c12321ab2d0e61","6877631c9844ddd5501205fc","6889d98e06072073f3bec367","3","1","67f14975a8c12321ab2d0e61","3","1","2025-07-30T08:53:36.359Z","","","","","","","","","","","ControlQ","","50","","","","","","","","","","","","","","","","","","","","","","","","","","","","",""
"7746","","<div style=""width:500px;"">
  <p>How would you describe your current emotional state?</p>
  </div>","19","html-slider-response","42","787720","0.0-5.0-3.6","249","1","2025-07-30 08:36:49","1f75c3e559b7213887762d5229550c2b","41.150.35.210","Mozilla/5.0 (Windows NT 10.0; Win64; x64) AppleWebKit/537.36 (KHTML, like Gecko) Chrome/138.0.0.0 Safari/537.36","WebKit","Chrome","138.0.0.0","Windows","10.0","https://app.prolific.com/","en-ZA,en-GB;q=0.9,en-US;q=0.8,en;q=0.7","67f14975a8c12321ab2d0e61","6877631c9844ddd5501205fc","6889d98e06072073f3bec367","3","1","67f14975a8c12321ab2d0e61","3","1","2025-07-30T08:53:44.106Z","","","","","","","","","","","StressQ","","50","","","","","","","","","","","","","","","","","","","","","","","","","","","","",""
"4931","","<div style=""width:500px;"">
  <p>What best describes how you currently feel?</p>
  </div>","83","html-slider-response","43","792654","0.0-5.0-4.6","249","1","2025-07-30 08:36:49","1f75c3e559b7213887762d5229550c2b","41.150.35.210","Mozilla/5.0 (Windows NT 10.0; Win64; x64) AppleWebKit/537.36 (KHTML, like Gecko) Chrome/138.0.0.0 Safari/537.36","WebKit","Chrome","138.0.0.0","Windows","10.0","https://app.prolific.com/","en-ZA,en-GB;q=0.9,en-US;q=0.8,en;q=0.7","67f14975a8c12321ab2d0e61","6877631c9844ddd5501205fc","6889d98e06072073f3bec367","3","1","67f14975a8c12321ab2d0e61","3","1","2025-07-30T08:53:49.040Z","","","","","","","","","","","MotivationQ","","50","","","","","","","","","","","","","","","","","","","","","","","","","","","","",""
"","","","","ctl-task-cpt","44","854802","0.0-5.0-0.7","249","1","2025-07-30 08:36:49","1f75c3e559b7213887762d5229550c2b","41.150.35.210","Mozilla/5.0 (Windows NT 10.0; Win64; x64) AppleWebKit/537.36 (KHTML, like Gecko) Chrome/138.0.0.0 Safari/537.36","WebKit","Chrome","138.0.0.0","Windows","10.0","https://app.prolific.com/","en-ZA,en-GB;q=0.9,en-US;q=0.8,en;q=0.7","67f14975a8c12321ab2d0e61","6877631c9844ddd5501205fc","6889d98e06072073f3bec367","3","1","67f14975a8c12321ab2d0e61","3","1","2025-07-30T08:54:51.188Z","","","","","","","","","","","","","","win-only","1","g1:NE,g2:SW","0.3","8","0","799760.7","1306.5","6309.7","59136","1","4","4","6","2","-4","-4","23","27","0.17424242424242425","1038.4","3000","-2155","[""down"",""left""]","{""num_key_presses"":11,""num_perfect"":3,""num_errors"":0,""num_randdir"":8,""num_randdir_good_moves"":5,""num_whilered"":0,""num_whileblue"":0,""num_blue"":6,""num_good_moves"":8}","[292.22232142857143,290.12857142857143,0.2,292.22232142857143,290.12857142857143,101.8,292.22232142857143,290.12857142857143,206.4,292.22232142857143,290.12857142857143,307.6,292.22232142857143,290.12857142857143,407.7,182.22232142857143,372.12857142857143,511.6,116.22232142857143,423.12857142857143,612.1,48.222321428571426,481.12857142857143,715,60.222321428571426,529.1285714285714,819.4,60.222321428571426,529.1285714285714,920.8,60.222321428571426,529.1285714285714,1027.8,60.222321428571426,529.1285714285714,1129.3,60.222321428571426,529.1285714285714,1233.1,60.222321428571426,529.1285714285714,1342.8,60.222321428571426,529.1285714285714,1443.9,60.222321428571426,529.1285714285714,1545.4,60.222321428571426,529.1285714285714,1650.7,60.222321428571426,529.1285714285714,1753.4,60.222321428571426,529.1285714285714,1859.4,60.222321428571426,529.1285714285714,1964,60.222321428571426,529.1285714285714,2064.7,60.222321428571426,529.1285714285714,2172,60.222321428571426,529.1285714285714,2275.8,60.222321428571426,529.1285714285714,2379.9,60.222321428571426,529.1285714285714,2484.5,60.222321428571426,529.1285714285714,2593.2,60.222321428571426,529.1285714285714,2695.9,60.222321428571426,529.1285714285714,2801,60.222321428571426,529.1285714285714,2908.3,60.222321428571426,529.1285714285714,3012.5,60.222321428571426,529.1285714285714,3117.4,60.222321428571426,529.1285714285714,3226.1,60.222321428571426,529.1285714285714,3327.8,60.222321428571426,529.1285714285714,3427.9,60.222321428571426,529.1285714285714,3534.3,60.222321428571426,529.1285714285714,3638.2,60.222321428571426,529.1285714285714,3739.6,60.222321428571426,529.1285714285714,3841.5,60.222321428571426,529.1285714285714,3946.9,60.222321428571426,529.1285714285714,4048.9,60.222321428571426,529.1285714285714,4156,60.222321428571426,529.1285714285714,4256.8,60.222321428571426,529.1285714285714,4360.7,60.222321428571426,529.1285714285714,4462.6,60.222321428571426,529.1285714285714,4568.5,60.222321428571426,529.1285714285714,4676.4,60.222321428571426,529.1285714285714,4782.8,60.222321428571426,529.1285714285714,4882.8,60.222321428571426,529.1285714285714,4986.6]","[1341.7,1341.7,1000,0,341.7,""smooth"",""down"",""down"",""good_move"",8340.9,6998.6,2920.2,5075.6,345.1,""oops"",""down"",""down"",""good_move"",11114.9,2773.6,2430.2,8341.3,343.4,""oops"",""down"",""up"",""bad_move"",13397.4,2281.9,1982.9,11115.5,299,""oops"",""down"",""up"",""bad_move"",16583.5,3185.9,2857.2,13397.6,328.7,""oops"",""down"",""left"",""good_move"",23166.9,6583,2594.8,20206.7,365.4,""smooth"",""down"",""down"",""good_move"",32839.7,9672.3,2622.3,29914.3,303.2,""oops"",""down"",""down"",""good_move"",38694.1,5853.9,2323.3,36020.5,350.3,""oops"",""down"",""left"",""good_move"",41674.8,2980.4,2487.7,38694.5,492.7,""smooth"",""down"",""down"",""good_move"",47660.3,5984.9,2927.4,44323,409.9,""oops"",""left"",""right"",""bad_move"",50506.6,2845.9,2342,47660.7,503.9,""oops"",""left"",""left"",""good_move""]","",""
"37724","","<div style=""width:500px;"">
  <p>What determined the result of this run?</p>
  </div>","81","html-slider-response","45","892528","0.0-5.0-1.7","249","1","2025-07-30 08:36:49","1f75c3e559b7213887762d5229550c2b","41.150.35.210","Mozilla/5.0 (Windows NT 10.0; Win64; x64) AppleWebKit/537.36 (KHTML, like Gecko) Chrome/138.0.0.0 Safari/537.36","WebKit","Chrome","138.0.0.0","Windows","10.0","https://app.prolific.com/","en-ZA,en-GB;q=0.9,en-US;q=0.8,en;q=0.7","67f14975a8c12321ab2d0e61","6877631c9844ddd5501205fc","6889d98e06072073f3bec367","3","1","67f14975a8c12321ab2d0e61","3","1","2025-07-30T08:55:28.914Z","","","","","","","","","","","AttribQ","","50","","","","","","","","","","","","","","","","","","","","","","","","","","","","",""
"2624","","<div style=""width:500px;"">
  <p>How much control did you have over the ball?</p>
  </div>","72","html-slider-response","46","895153","0.0-5.0-2.7","249","1","2025-07-30 08:36:49","1f75c3e559b7213887762d5229550c2b","41.150.35.210","Mozilla/5.0 (Windows NT 10.0; Win64; x64) AppleWebKit/537.36 (KHTML, like Gecko) Chrome/138.0.0.0 Safari/537.36","WebKit","Chrome","138.0.0.0","Windows","10.0","https://app.prolific.com/","en-ZA,en-GB;q=0.9,en-US;q=0.8,en;q=0.7","67f14975a8c12321ab2d0e61","6877631c9844ddd5501205fc","6889d98e06072073f3bec367","3","1","67f14975a8c12321ab2d0e61","3","1","2025-07-30T08:55:31.540Z","","","","","","","","","","","ControlQ","","50","","","","","","","","","","","","","","","","","","","","","","","","","","","","",""
"2852","","<div style=""width:500px;"">
  <p>How would you describe your current emotional state?</p>
  </div>","44","html-slider-response","47","898007","0.0-5.0-3.7","249","1","2025-07-30 08:36:49","1f75c3e559b7213887762d5229550c2b","41.150.35.210","Mozilla/5.0 (Windows NT 10.0; Win64; x64) AppleWebKit/537.36 (KHTML, like Gecko) Chrome/138.0.0.0 Safari/537.36","WebKit","Chrome","138.0.0.0","Windows","10.0","https://app.prolific.com/","en-ZA,en-GB;q=0.9,en-US;q=0.8,en;q=0.7","67f14975a8c12321ab2d0e61","6877631c9844ddd5501205fc","6889d98e06072073f3bec367","3","1","67f14975a8c12321ab2d0e61","3","1","2025-07-30T08:55:34.393Z","","","","","","","","","","","StressQ","","50","","","","","","","","","","","","","","","","","","","","","","","","","","","","",""
"4068","","<div style=""width:500px;"">
  <p>What best describes how you currently feel?</p>
  </div>","74","html-slider-response","48","902076","0.0-5.0-4.7","249","1","2025-07-30 08:36:49","1f75c3e559b7213887762d5229550c2b","41.150.35.210","Mozilla/5.0 (Windows NT 10.0; Win64; x64) AppleWebKit/537.36 (KHTML, like Gecko) Chrome/138.0.0.0 Safari/537.36","WebKit","Chrome","138.0.0.0","Windows","10.0","https://app.prolific.com/","en-ZA,en-GB;q=0.9,en-US;q=0.8,en;q=0.7","67f14975a8c12321ab2d0e61","6877631c9844ddd5501205fc","6889d98e06072073f3bec367","3","1","67f14975a8c12321ab2d0e61","3","1","2025-07-30T08:55:38.462Z","","","","","","","","","","","MotivationQ","","50","","","","","","","","","","","","","","","","","","","","","","","","","","","","",""
"","","","","ctl-task-cpt","49","956517","0.0-5.0-0.8","249","1","2025-07-30 08:36:49","1f75c3e559b7213887762d5229550c2b","41.150.35.210","Mozilla/5.0 (Windows NT 10.0; Win64; x64) AppleWebKit/537.36 (KHTML, like Gecko) Chrome/138.0.0.0 Safari/537.36","WebKit","Chrome","138.0.0.0","Windows","10.0","https://app.prolific.com/","en-ZA,en-GB;q=0.9,en-US;q=0.8,en;q=0.7","67f14975a8c12321ab2d0e61","6877631c9844ddd5501205fc","6889d98e06072073f3bec367","3","1","67f14975a8c12321ab2d0e61","3","1","2025-07-30T08:56:32.903Z","","","","","","","","","","","","","","win-only","3","g1:SW,g2:NE","0.2","9","0","909182.1","1727.1","6731.6","51412.4","1","4","4","6","2","-4","-4","19","23","0.14393939393939395","1323.1","3000","-2075","[""up"",""right""]","{""num_key_presses"":10,""num_perfect"":2,""num_errors"":0,""num_randdir"":8,""num_randdir_good_moves"":2,""num_whilered"":0,""num_whileblue"":0,""num_blue"":4,""num_good_moves"":4}","[293.22232142857143,290.12857142857143,0.3,293.22232142857143,290.12857142857143,103.6,293.22232142857143,290.12857142857143,207.5,293.22232142857143,290.12857142857143,311.3,258.22232142857143,287.12857142857143,413.4,179.22232142857143,416.12857142857143,514.5,238.22232142857143,339.12857142857143,621.3,334.22232142857143,191.12857142857143,723.5,426.22232142857143,93.12857142857143,828.5,462.22232142857143,87.12857142857143,932.7,525.2223214285714,79.12857142857143,1039.6,547.2223214285714,62.128571428571426,1142.2,547.2223214285714,62.128571428571426,1242.4,547.2223214285714,62.128571428571426,1349,547.2223214285714,62.128571428571426,1453.1,547.2223214285714,62.128571428571426,1554.8,547.2223214285714,62.128571428571426,1666.9,547.2223214285714,62.128571428571426,1773.3,547.2223214285714,62.128571428571426,1874.6,547.2223214285714,62.128571428571426,1979.9,547.2223214285714,62.128571428571426,2082.9,547.2223214285714,62.128571428571426,2185.9,547.2223214285714,62.128571428571426,2299.9,547.2223214285714,62.128571428571426,2400.5,547.2223214285714,62.128571428571426,2502.1,547.2223214285714,62.128571428571426,2603.7,547.2223214285714,62.128571428571426,2712.1,547.2223214285714,62.128571428571426,2816,547.2223214285714,62.128571428571426,2916.4,547.2223214285714,62.128571428571426,3021.7,547.2223214285714,62.128571428571426,3127.6,547.2223214285714,62.128571428571426,3230.2,547.2223214285714,62.128571428571426,3331.1,547.2223214285714,62.128571428571426,3434,547.2223214285714,62.128571428571426,3534,547.2223214285714,62.128571428571426,3641.4,547.2223214285714,62.128571428571426,3747.1,547.2223214285714,62.128571428571426,3850.9,547.2223214285714,62.128571428571426,3952.4,547.2223214285714,62.128571428571426,4055.1,547.2223214285714,62.128571428571426,4155.1,547.2223214285714,62.128571428571426,4257.6,547.2223214285714,62.128571428571426,4366.7,547.2223214285714,62.128571428571426,4469.5,547.2223214285714,62.128571428571426,4572.3,547.2223214285714,62.128571428571426,4680.1,547.2223214285714,62.128571428571426,4780.7,547.2223214285714,62.128571428571426,4882.9,547.2223214285714,62.128571428571426,4987]","[1352,1352,1000,0,352,""smooth"",""right"",""right"",""good_move"",4741.6,3389,3056.3,1352.6,332.7,""smooth"",""right"",""right"",""good_move"",11536.1,6794.2,2283.1,8862,391,""oops"",""right"",""left"",""bad_move"",14740.4,3203.4,2846.9,11537,356.5,""oops"",""right"",""down"",""bad_move"",17158.3,2417.1,1803.8,14741.2,613.3,""oops"",""right"",""left"",""bad_move"",23439,6280.4,2246.7,20810.6,381.7,""oops"",""right"",""down"",""bad_move"",26478.9,3039.5,2444.4,23439.4,595.1,""oops"",""right"",""left"",""bad_move"",29541.2,3061.7,2666.9,26479.5,394.8,""oops"",""right"",""up"",""good_move"",35860.1,6318.4,2957,32559.1,344,""oops"",""right"",""left"",""bad_move"",38545.2,2684.6,2187.8,35860.7,496.8,""oops"",""up"",""right"",""good_move""]","",""
"7733","","<div style=""width:500px;"">
  <p>What determined the result of this run?</p>
  </div>","89","html-slider-response","50","964252","0.0-5.0-1.8","249","1","2025-07-30 08:36:49","1f75c3e559b7213887762d5229550c2b","41.150.35.210","Mozilla/5.0 (Windows NT 10.0; Win64; x64) AppleWebKit/537.36 (KHTML, like Gecko) Chrome/138.0.0.0 Safari/537.36","WebKit","Chrome","138.0.0.0","Windows","10.0","https://app.prolific.com/","en-ZA,en-GB;q=0.9,en-US;q=0.8,en;q=0.7","67f14975a8c12321ab2d0e61","6877631c9844ddd5501205fc","6889d98e06072073f3bec367","3","1","67f14975a8c12321ab2d0e61","3","1","2025-07-30T08:56:40.639Z","","","","","","","","","","","AttribQ","","50","","","","","","","","","","","","","","","","","","","","","","","","","","","","",""
"2988","","<div style=""width:500px;"">
  <p>How much control did you have over the ball?</p>
  </div>","0","html-slider-response","51","967243","0.0-5.0-2.8","249","1","2025-07-30 08:36:49","1f75c3e559b7213887762d5229550c2b","41.150.35.210","Mozilla/5.0 (Windows NT 10.0; Win64; x64) AppleWebKit/537.36 (KHTML, like Gecko) Chrome/138.0.0.0 Safari/537.36","WebKit","Chrome","138.0.0.0","Windows","10.0","https://app.prolific.com/","en-ZA,en-GB;q=0.9,en-US;q=0.8,en;q=0.7","67f14975a8c12321ab2d0e61","6877631c9844ddd5501205fc","6889d98e06072073f3bec367","3","1","67f14975a8c12321ab2d0e61","3","1","2025-07-30T08:56:43.629Z","","","","","","","","","","","ControlQ","","50","","","","","","","","","","","","","","","","","","","","","","","","","","","","",""
"3422","","<div style=""width:500px;"">
  <p>How would you describe your current emotional state?</p>
  </div>","71","html-slider-response","52","970666","0.0-5.0-3.8","249","1","2025-07-30 08:36:49","1f75c3e559b7213887762d5229550c2b","41.150.35.210","Mozilla/5.0 (Windows NT 10.0; Win64; x64) AppleWebKit/537.36 (KHTML, like Gecko) Chrome/138.0.0.0 Safari/537.36","WebKit","Chrome","138.0.0.0","Windows","10.0","https://app.prolific.com/","en-ZA,en-GB;q=0.9,en-US;q=0.8,en;q=0.7","67f14975a8c12321ab2d0e61","6877631c9844ddd5501205fc","6889d98e06072073f3bec367","3","1","67f14975a8c12321ab2d0e61","3","1","2025-07-30T08:56:47.052Z","","","","","","","","","","","StressQ","","50","","","","","","","","","","","","","","","","","","","","","","","","","","","","",""
"3770","","<div style=""width:500px;"">
  <p>What best describes how you currently feel?</p>
  </div>","84","html-slider-response","53","974437","0.0-5.0-4.8","249","1","2025-07-30 08:36:49","1f75c3e559b7213887762d5229550c2b","41.150.35.210","Mozilla/5.0 (Windows NT 10.0; Win64; x64) AppleWebKit/537.36 (KHTML, like Gecko) Chrome/138.0.0.0 Safari/537.36","WebKit","Chrome","138.0.0.0","Windows","10.0","https://app.prolific.com/","en-ZA,en-GB;q=0.9,en-US;q=0.8,en;q=0.7","67f14975a8c12321ab2d0e61","6877631c9844ddd5501205fc","6889d98e06072073f3bec367","3","1","67f14975a8c12321ab2d0e61","3","1","2025-07-30T08:56:50.823Z","","","","","","","","","","","MotivationQ","","50","","","","","","","","","","","","","","","","","","","","","","","","","","","","",""
"","","","","ctl-task-cpt","54","1028997","0.0-5.0-0.9","249","1","2025-07-30 08:36:49","1f75c3e559b7213887762d5229550c2b","41.150.35.210","Mozilla/5.0 (Windows NT 10.0; Win64; x64) AppleWebKit/537.36 (KHTML, like Gecko) Chrome/138.0.0.0 Safari/537.36","WebKit","Chrome","138.0.0.0","Windows","10.0","https://app.prolific.com/","en-ZA,en-GB;q=0.9,en-US;q=0.8,en;q=0.7","67f14975a8c12321ab2d0e61","6877631c9844ddd5501205fc","6889d98e06072073f3bec367","3","1","67f14975a8c12321ab2d0e61","3","1","2025-07-30T08:57:45.384Z","","","","","","","","","","","","","","win-only","0","g1:NW,g2:SE","0.4","10","0","981542.8","960.9","5966.2","51544.2","1","4","8","6","2","-8","-9","10","19","0.07575757575757576","983.4","3000","-2025","[""down"",""right""]","{""num_key_presses"":12,""num_perfect"":4,""num_errors"":1,""num_randdir"":7,""num_randdir_good_moves"":2,""num_whilered"":0,""num_whileblue"":0,""num_blue"":3,""num_good_moves"":6}","[297.22232142857143,294.12857142857143,0.3,297.22232142857143,294.12857142857143,100.4,297.22232142857143,294.12857142857143,202,297.22232142857143,294.12857142857143,315.1,272.22232142857143,291.12857142857143,415.5,424.22232142857143,430.12857142857143,516.5,506.22232142857143,496.12857142857143,621.7,533.2223214285714,508.12857142857143,721.7,537.2223214285714,509.12857142857143,822.3,537.2223214285714,509.12857142857143,925.5,537.2223214285714,509.12857142857143,1026.3,537.2223214285714,509.12857142857143,1128.7,537.2223214285714,509.12857142857143,1230.1,537.2223214285714,509.12857142857143,1330.2,537.2223214285714,509.12857142857143,1433.9,537.2223214285714,509.12857142857143,1538.1,537.2223214285714,509.12857142857143,1640.5,537.2223214285714,509.12857142857143,1745.7,537.2223214285714,509.12857142857143,1854,537.2223214285714,509.12857142857143,1956.8,537.2223214285714,509.12857142857143,2062.9,537.2223214285714,509.12857142857143,2169.3,537.2223214285714,509.12857142857143,2272.2,537.2223214285714,509.12857142857143,2380.1,537.2223214285714,509.12857142857143,2480.5,537.2223214285714,509.12857142857143,2581.8,537.2223214285714,509.12857142857143,2685.3,537.2223214285714,509.12857142857143,2786.4,537.2223214285714,509.12857142857143,2888.8,537.2223214285714,509.12857142857143,2996.6,537.2223214285714,509.12857142857143,3096.6,537.2223214285714,509.12857142857143,3200.2,537.2223214285714,509.12857142857143,3303,537.2223214285714,509.12857142857143,3411.4,537.2223214285714,509.12857142857143,3523.3,537.2223214285714,509.12857142857143,3629.1,537.2223214285714,509.12857142857143,3731,537.2223214285714,509.12857142857143,3835.4,537.2223214285714,509.12857142857143,3938.5,537.2223214285714,509.12857142857143,4047.6,537.2223214285714,509.12857142857143,4152.6,537.2223214285714,509.12857142857143,4261.8,537.2223214285714,509.12857142857143,4370.3,537.2223214285714,509.12857142857143,4471.5,537.2223214285714,509.12857142857143,4573.2,537.2223214285714,509.12857142857143,4679.4,537.2223214285714,509.12857142857143,4781.2,537.2223214285714,509.12857142857143,4887.5,537.2223214285714,509.12857142857143,4994.9]","[1468,1468,1000,0,468,""smooth"",""right"",""right"",""good_move"",11575.5,10107,2459.7,8747.9,367.9,""oops"",""right"",""right"",""good_move"",14249.7,2673.8,2321.9,11575.9,351.9,""smooth"",""right"",""right"",""good_move"",20694.4,6444.5,2156.6,18167.2,370.6,""oops"",""down"",""up"",""bad_move"",23611,2916.1,2578,20694.9,338.1,""oops"",""down"",""left"",""bad_move"",26247,2635.3,2236.2,23611.7,399.1,""smooth"",""down"",""down"",""good_move"",28584.2,2336.8,1963.5,26247.4,373.3,""oops"",""down"",""left"",""bad_move"",30945.3,2360.8,1990.3,28584.5,370.5,""smooth"",""right"",""right"",""good_move"",33361.5,2415.7,2016.3,30945.9,399.4,""oops"",""right"",""left"",""bad_move"",35873.8,2511.9,3376.5,33361.9,-864.6,""error"",""-"",""-"",""no_move"",38849.1,2974.8,1552.1,36882.3,414.7,""oops"",""right"",""right"",""good_move"",42334.5,3485,3029.1,38849.5,455.9,""oops"",""right"",""left"",""bad_move""]","",""
"8678","","<div style=""width:500px;"">
  <p>What determined the result of this run?</p>
  </div>","72","html-slider-response","55","1037677","0.0-5.0-1.9","249","1","2025-07-30 08:36:49","1f75c3e559b7213887762d5229550c2b","41.150.35.210","Mozilla/5.0 (Windows NT 10.0; Win64; x64) AppleWebKit/537.36 (KHTML, like Gecko) Chrome/138.0.0.0 Safari/537.36","WebKit","Chrome","138.0.0.0","Windows","10.0","https://app.prolific.com/","en-ZA,en-GB;q=0.9,en-US;q=0.8,en;q=0.7","67f14975a8c12321ab2d0e61","6877631c9844ddd5501205fc","6889d98e06072073f3bec367","3","1","67f14975a8c12321ab2d0e61","3","1","2025-07-30T08:57:54.063Z","","","","","","","","","","","AttribQ","","50","","","","","","","","","","","","","","","","","","","","","","","","","","","","",""
"3651","","<div style=""width:500px;"">
  <p>How much control did you have over the ball?</p>
  </div>","3","html-slider-response","56","1041329","0.0-5.0-2.9","249","1","2025-07-30 08:36:49","1f75c3e559b7213887762d5229550c2b","41.150.35.210","Mozilla/5.0 (Windows NT 10.0; Win64; x64) AppleWebKit/537.36 (KHTML, like Gecko) Chrome/138.0.0.0 Safari/537.36","WebKit","Chrome","138.0.0.0","Windows","10.0","https://app.prolific.com/","en-ZA,en-GB;q=0.9,en-US;q=0.8,en;q=0.7","67f14975a8c12321ab2d0e61","6877631c9844ddd5501205fc","6889d98e06072073f3bec367","3","1","67f14975a8c12321ab2d0e61","3","1","2025-07-30T08:57:57.716Z","","","","","","","","","","","ControlQ","","50","","","","","","","","","","","","","","","","","","","","","","","","","","","","",""
"4832","","<div style=""width:500px;"">
  <p>How would you describe your current emotional state?</p>
  </div>","61","html-slider-response","57","1046163","0.0-5.0-3.9","249","1","2025-07-30 08:36:49","1f75c3e559b7213887762d5229550c2b","41.150.35.210","Mozilla/5.0 (Windows NT 10.0; Win64; x64) AppleWebKit/537.36 (KHTML, like Gecko) Chrome/138.0.0.0 Safari/537.36","WebKit","Chrome","138.0.0.0","Windows","10.0","https://app.prolific.com/","en-ZA,en-GB;q=0.9,en-US;q=0.8,en;q=0.7","67f14975a8c12321ab2d0e61","6877631c9844ddd5501205fc","6889d98e06072073f3bec367","3","1","67f14975a8c12321ab2d0e61","3","1","2025-07-30T08:58:02.549Z","","","","","","","","","","","StressQ","","50","","","","","","","","","","","","","","","","","","","","","","","","","","","","",""
"3888","","<div style=""width:500px;"">
  <p>What best describes how you currently feel?</p>
  </div>","77","html-slider-response","58","1050053","0.0-5.0-4.9","249","1","2025-07-30 08:36:49","1f75c3e559b7213887762d5229550c2b","41.150.35.210","Mozilla/5.0 (Windows NT 10.0; Win64; x64) AppleWebKit/537.36 (KHTML, like Gecko) Chrome/138.0.0.0 Safari/537.36","WebKit","Chrome","138.0.0.0","Windows","10.0","https://app.prolific.com/","en-ZA,en-GB;q=0.9,en-US;q=0.8,en;q=0.7","67f14975a8c12321ab2d0e61","6877631c9844ddd5501205fc","6889d98e06072073f3bec367","3","1","67f14975a8c12321ab2d0e61","3","1","2025-07-30T08:58:06.439Z","","","","","","","","","","","MotivationQ","","50","","","","","","","","","","","","","","","","","","","","","","","","","","","","",""
"","","","","ctl-task-cpt","59","1124153","0.0-5.0-0.10","249","1","2025-07-30 08:36:49","1f75c3e559b7213887762d5229550c2b","41.150.35.210","Mozilla/5.0 (Windows NT 10.0; Win64; x64) AppleWebKit/537.36 (KHTML, like Gecko) Chrome/138.0.0.0 Safari/537.36","WebKit","Chrome","138.0.0.0","Windows","10.0","https://app.prolific.com/","en-ZA,en-GB;q=0.9,en-US;q=0.8,en;q=0.7","67f14975a8c12321ab2d0e61","6877631c9844ddd5501205fc","6889d98e06072073f3bec367","3","1","67f14975a8c12321ab2d0e61","3","1","2025-07-30T08:59:20.540Z","","","","","","","","","","","","","","win-only","3","g1:SW,g2:NE","0.5","11","0","1057158.7","25747.9","30748.2","71081.8","1","4","4","6","2","4","4","14","10","0.10606060606060606","1374.7","3000","605","[""up"",""right""]","{""num_key_presses"":8,""num_perfect"":5,""num_errors"":0,""num_randdir"":3,""num_randdir_good_moves"":2,""num_whilered"":0,""num_whileblue"":0,""num_blue"":5,""num_good_moves"":7}","[291.22232142857143,299.12857142857143,0.4,291.22232142857143,299.12857142857143,108.4,291.22232142857143,299.12857142857143,212.6,291.22232142857143,299.12857142857143,313.4,291.22232142857143,299.12857142857143,424.2,178.22232142857143,389.12857142857143,529.3,230.22232142857143,337.12857142857143,641.9,377.22232142857143,77.12857142857143,743.2,451.22232142857143,-32.871428571428574,849.4,457.22232142857143,-27.871428571428574,957.2,479.22232142857143,4.128571428571426,1057.8,528.2223214285714,35.128571428571426,1158.8,531.2223214285714,37.128571428571426,1260.6,531.2223214285714,37.128571428571426,1362.8,531.2223214285714,37.128571428571426,1465.7,531.2223214285714,37.128571428571426,1573.3,531.2223214285714,37.128571428571426,1678.8,531.2223214285714,37.128571428571426,1792,531.2223214285714,37.128571428571426,1895.6,531.2223214285714,37.128571428571426,2002.8,531.2223214285714,37.128571428571426,2104.1,531.2223214285714,37.128571428571426,2205.4,531.2223214285714,37.128571428571426,2307.8,531.2223214285714,37.128571428571426,2413,531.2223214285714,37.128571428571426,2513.2,531.2223214285714,37.128571428571426,2613.9,531.2223214285714,37.128571428571426,2719.3,531.2223214285714,37.128571428571426,2827.3,531.2223214285714,37.128571428571426,2927.9,531.2223214285714,37.128571428571426,3030.1,531.2223214285714,37.128571428571426,3135.3,531.2223214285714,37.128571428571426,3235.3,531.2223214285714,37.128571428571426,3343.9,531.2223214285714,37.128571428571426,3445.7,531.2223214285714,37.128571428571426,3557.1,531.2223214285714,37.128571428571426,3658,531.2223214285714,37.128571428571426,3758.8,531.2223214285714,37.128571428571426,3858.9,531.2223214285714,37.128571428571426,3965.2,531.2223214285714,37.128571428571426,4066,531.2223214285714,37.128571428571426,4175.9,531.2223214285714,37.128571428571426,4278.9,531.2223214285714,37.128571428571426,4389.3,531.2223214285714,37.128571428571426,4493.6,531.2223214285714,37.128571428571426,4595.2,531.2223214285714,37.128571428571426,4704.7,531.2223214285714,37.128571428571426,4807.5,531.2223214285714,37.128571428571426,4908.4]","[1348,1348,1000,0,348,""smooth"",""right"",""right"",""good_move"",8032.9,6684.5,3173.3,4456.7,402.9,""smooth"",""right"",""right"",""good_move"",11010.2,2976.9,2437.7,8033.4,539.2,""smooth"",""right"",""right"",""good_move"",17171.2,6160.7,2473.7,14323.2,374.3,""smooth"",""up"",""up"",""good_move"",23391.4,6219.7,2627.8,20410.4,353.2,""smooth"",""up"",""up"",""good_move"",30656.4,7264.8,3090.9,27123.4,442.1,""oops"",""up"",""left"",""bad_move"",37749.2,7092.3,2877,34384.8,487.4,""oops"",""up"",""up"",""good_move"",40220.7,2471,2018.9,37749.7,452.1,""oops"",""right"",""right"",""good_move""]","",""
"5707","","<div style=""width:500px;"">
  <p>What determined the result of this run?</p>
  </div>","91","html-slider-response","60","1129863","0.0-5.0-1.10","249","1","2025-07-30 08:36:49","1f75c3e559b7213887762d5229550c2b","41.150.35.210","Mozilla/5.0 (Windows NT 10.0; Win64; x64) AppleWebKit/537.36 (KHTML, like Gecko) Chrome/138.0.0.0 Safari/537.36","WebKit","Chrome","138.0.0.0","Windows","10.0","https://app.prolific.com/","en-ZA,en-GB;q=0.9,en-US;q=0.8,en;q=0.7","67f14975a8c12321ab2d0e61","6877631c9844ddd5501205fc","6889d98e06072073f3bec367","3","1","67f14975a8c12321ab2d0e61","3","1","2025-07-30T08:59:26.249Z","","","","","","","","","","","AttribQ","","50","","","","","","","","","","","","","","","","","","","","","","","","","","","","",""
"5310","","<div style=""width:500px;"">
  <p>How much control did you have over the ball?</p>
  </div>","68","html-slider-response","61","1135174","0.0-5.0-2.10","249","1","2025-07-30 08:36:49","1f75c3e559b7213887762d5229550c2b","41.150.35.210","Mozilla/5.0 (Windows NT 10.0; Win64; x64) AppleWebKit/537.36 (KHTML, like Gecko) Chrome/138.0.0.0 Safari/537.36","WebKit","Chrome","138.0.0.0","Windows","10.0","https://app.prolific.com/","en-ZA,en-GB;q=0.9,en-US;q=0.8,en;q=0.7","67f14975a8c12321ab2d0e61","6877631c9844ddd5501205fc","6889d98e06072073f3bec367","3","1","67f14975a8c12321ab2d0e61","3","1","2025-07-30T08:59:31.560Z","","","","","","","","","","","ControlQ","","50","","","","","","","","","","","","","","","","","","","","","","","","","","","","",""
"3382","","<div style=""width:500px;"">
  <p>How would you describe your current emotional state?</p>
  </div>","35","html-slider-response","62","1138558","0.0-5.0-3.10","249","1","2025-07-30 08:36:49","1f75c3e559b7213887762d5229550c2b","41.150.35.210","Mozilla/5.0 (Windows NT 10.0; Win64; x64) AppleWebKit/537.36 (KHTML, like Gecko) Chrome/138.0.0.0 Safari/537.36","WebKit","Chrome","138.0.0.0","Windows","10.0","https://app.prolific.com/","en-ZA,en-GB;q=0.9,en-US;q=0.8,en;q=0.7","67f14975a8c12321ab2d0e61","6877631c9844ddd5501205fc","6889d98e06072073f3bec367","3","1","67f14975a8c12321ab2d0e61","3","1","2025-07-30T08:59:34.944Z","","","","","","","","","","","StressQ","","50","","","","","","","","","","","","","","","","","","","","","","","","","","","","",""
"2852","","<div style=""width:500px;"">
  <p>What best describes how you currently feel?</p>
  </div>","99","html-slider-response","63","1141411","0.0-5.0-4.10","249","1","2025-07-30 08:36:49","1f75c3e559b7213887762d5229550c2b","41.150.35.210","Mozilla/5.0 (Windows NT 10.0; Win64; x64) AppleWebKit/537.36 (KHTML, like Gecko) Chrome/138.0.0.0 Safari/537.36","WebKit","Chrome","138.0.0.0","Windows","10.0","https://app.prolific.com/","en-ZA,en-GB;q=0.9,en-US;q=0.8,en;q=0.7","67f14975a8c12321ab2d0e61","6877631c9844ddd5501205fc","6889d98e06072073f3bec367","3","1","67f14975a8c12321ab2d0e61","3","1","2025-07-30T08:59:37.797Z","","","","","","","","","","","MotivationQ","","50","","","","","","","","","","","","","","","","","","","","","","","","","","","","",""
"","","","","ctl-task-cpt","64","1170477","0.0-5.0-0.11","249","1","2025-07-30 08:36:49","1f75c3e559b7213887762d5229550c2b","41.150.35.210","Mozilla/5.0 (Windows NT 10.0; Win64; x64) AppleWebKit/537.36 (KHTML, like Gecko) Chrome/138.0.0.0 Safari/537.36","WebKit","Chrome","138.0.0.0","Windows","10.0","https://app.prolific.com/","en-ZA,en-GB;q=0.9,en-US;q=0.8,en;q=0.7","67f14975a8c12321ab2d0e61","6877631c9844ddd5501205fc","6889d98e06072073f3bec367","3","1","67f14975a8c12321ab2d0e61","3","1","2025-07-30T09:00:06.863Z","","","","","","","","","","","","","","win-only","2","g1:SE,g2:NW","0.6","12","0","1148516.7","1656.4","6661.1","26040.9","1","4","8","6","2","8","8","22","14","0.16666666666666666","1150.7","3000","1360","[""left"",""up""]","{""num_key_presses"":6,""num_perfect"":4,""num_errors"":0,""num_randdir"":2,""num_randdir_good_moves"":2,""num_whilered"":0,""num_whileblue"":0,""num_blue"":1,""num_good_moves"":6}","[295.22232142857143,297.12857142857143,0.5,295.22232142857143,297.12857142857143,105.1,295.22232142857143,297.12857142857143,210.5,295.22232142857143,297.12857142857143,311.5,295.22232142857143,297.12857142857143,417.2,-39.777678571428574,-16.871428571428574,521.7,-10.777678571428574,-42.871428571428574,622.2,-3.7776785714285737,-42.871428571428574,724.8,32.222321428571426,-2.8714285714285737,832.5,49.222321428571426,63.128571428571426,938,50.222321428571426,67.12857142857143,1038,50.222321428571426,67.12857142857143,1139,50.222321428571426,67.12857142857143,1239.6,50.222321428571426,67.12857142857143,1339.6,50.222321428571426,67.12857142857143,1441.4,50.222321428571426,67.12857142857143,1546.8,50.222321428571426,67.12857142857143,1650.6,50.222321428571426,67.12857142857143,1752.4,50.222321428571426,67.12857142857143,1856.5,50.222321428571426,67.12857142857143,1958.8,50.222321428571426,67.12857142857143,2060.1,50.222321428571426,67.12857142857143,2167,50.222321428571426,67.12857142857143,2274.4,50.222321428571426,67.12857142857143,2374.8,50.222321428571426,67.12857142857143,2476.7,50.222321428571426,67.12857142857143,2585.7,50.222321428571426,67.12857142857143,2692.1,50.222321428571426,67.12857142857143,2798.5,50.222321428571426,67.12857142857143,2907.8,50.222321428571426,67.12857142857143,3013.6,50.222321428571426,67.12857142857143,3115.4,50.222321428571426,67.12857142857143,3226.2,50.222321428571426,67.12857142857143,3338.3,50.222321428571426,67.12857142857143,3444.4,50.222321428571426,67.12857142857143,3545.3,50.222321428571426,67.12857142857143,3646.2,50.222321428571426,67.12857142857143,3751.9,50.222321428571426,67.12857142857143,3854.7,50.222321428571426,67.12857142857143,3956,50.222321428571426,67.12857142857143,4063.7,50.222321428571426,67.12857142857143,4168,50.222321428571426,67.12857142857143,4271.8,50.222321428571426,67.12857142857143,4373.9,50.222321428571426,67.12857142857143,4477.8,50.222321428571426,67.12857142857143,4579,50.222321428571426,67.12857142857143,4684.4,50.222321428571426,67.12857142857143,4787.3,50.222321428571426,67.12857142857143,4891,50.222321428571426,67.12857142857143,4993.9]","[4983.6,4983.6,2599.3,2013.3,371,""smooth"",""up"",""up"",""good_move"",8116.9,3132.7,2717.9,4984.2,414.8,""smooth"",""up"",""up"",""good_move"",10805,2687.9,2240.8,8117.1,447.1,""oops"",""up"",""up"",""good_move"",13717.3,2911.9,2536.6,10805.4,375.3,""oops"",""left"",""left"",""good_move"",17266.3,3548.5,3207.9,13717.8,340.6,""smooth"",""left"",""left"",""good_move"",19240.5,1974,1356.7,17266.5,617.3,""smooth"",""left"",""left"",""good_move""]","",""
"3454","","<div style=""width:500px;"">
  <p>What determined the result of this run?</p>
  </div>","89","html-slider-response","65","1173932","0.0-5.0-1.11","249","1","2025-07-30 08:36:49","1f75c3e559b7213887762d5229550c2b","41.150.35.210","Mozilla/5.0 (Windows NT 10.0; Win64; x64) AppleWebKit/537.36 (KHTML, like Gecko) Chrome/138.0.0.0 Safari/537.36","WebKit","Chrome","138.0.0.0","Windows","10.0","https://app.prolific.com/","en-ZA,en-GB;q=0.9,en-US;q=0.8,en;q=0.7","67f14975a8c12321ab2d0e61","6877631c9844ddd5501205fc","6889d98e06072073f3bec367","3","1","67f14975a8c12321ab2d0e61","3","1","2025-07-30T09:00:10.318Z","","","","","","","","","","","AttribQ","","50","","","","","","","","","","","","","","","","","","","","","","","","","","","","",""
"9277","","<div style=""width:500px;"">
  <p>How much control did you have over the ball?</p>
  </div>","94","html-slider-response","66","1183210","0.0-5.0-2.11","249","1","2025-07-30 08:36:49","1f75c3e559b7213887762d5229550c2b","41.150.35.210","Mozilla/5.0 (Windows NT 10.0; Win64; x64) AppleWebKit/537.36 (KHTML, like Gecko) Chrome/138.0.0.0 Safari/537.36","WebKit","Chrome","138.0.0.0","Windows","10.0","https://app.prolific.com/","en-ZA,en-GB;q=0.9,en-US;q=0.8,en;q=0.7","67f14975a8c12321ab2d0e61","6877631c9844ddd5501205fc","6889d98e06072073f3bec367","3","1","67f14975a8c12321ab2d0e61","3","1","2025-07-30T09:00:19.596Z","","","","","","","","","","","ControlQ","","50","","","","","","","","","","","","","","","","","","","","","","","","","","","","",""
"3366","","<div style=""width:500px;"">
  <p>How would you describe your current emotional state?</p>
  </div>","34","html-slider-response","67","1186578","0.0-5.0-3.11","249","1","2025-07-30 08:36:49","1f75c3e559b7213887762d5229550c2b","41.150.35.210","Mozilla/5.0 (Windows NT 10.0; Win64; x64) AppleWebKit/537.36 (KHTML, like Gecko) Chrome/138.0.0.0 Safari/537.36","WebKit","Chrome","138.0.0.0","Windows","10.0","https://app.prolific.com/","en-ZA,en-GB;q=0.9,en-US;q=0.8,en;q=0.7","67f14975a8c12321ab2d0e61","6877631c9844ddd5501205fc","6889d98e06072073f3bec367","3","1","67f14975a8c12321ab2d0e61","3","1","2025-07-30T09:00:22.964Z","","","","","","","","","","","StressQ","","50","","","","","","","","","","","","","","","","","","","","","","","","","","","","",""
"2651","","<div style=""width:500px;"">
  <p>What best describes how you currently feel?</p>
  </div>","79","html-slider-response","68","1189231","0.0-5.0-4.11","249","1","2025-07-30 08:36:49","1f75c3e559b7213887762d5229550c2b","41.150.35.210","Mozilla/5.0 (Windows NT 10.0; Win64; x64) AppleWebKit/537.36 (KHTML, like Gecko) Chrome/138.0.0.0 Safari/537.36","WebKit","Chrome","138.0.0.0","Windows","10.0","https://app.prolific.com/","en-ZA,en-GB;q=0.9,en-US;q=0.8,en;q=0.7","67f14975a8c12321ab2d0e61","6877631c9844ddd5501205fc","6889d98e06072073f3bec367","3","1","67f14975a8c12321ab2d0e61","3","1","2025-07-30T09:00:25.617Z","","","","","","","","","","","MotivationQ","","50","","","","","","","","","","","","","","","","","","","","","","","","","","","","",""
"","","","","ctl-task-cpt","69","1243421","0.0-5.0-0.12","249","1","2025-07-30 08:36:49","1f75c3e559b7213887762d5229550c2b","41.150.35.210","Mozilla/5.0 (Windows NT 10.0; Win64; x64) AppleWebKit/537.36 (KHTML, like Gecko) Chrome/138.0.0.0 Safari/537.36","WebKit","Chrome","138.0.0.0","Windows","10.0","https://app.prolific.com/","en-ZA,en-GB;q=0.9,en-US;q=0.8,en;q=0.7","67f14975a8c12321ab2d0e61","6877631c9844ddd5501205fc","6889d98e06072073f3bec367","3","1","67f14975a8c12321ab2d0e61","3","1","2025-07-30T09:01:19.807Z","","","","","","","","","","","","","","win-only","1","g1:NE,g2:SW","0.7","13","0","1196336.5","1216.3","6222","51176.9","1","4","8","6","2","-8","-9","13","22","0.09848484848484848","1094.4","3000","-1975","[""down"",""left""]","{""num_key_presses"":14,""num_perfect"":9,""num_errors"":1,""num_randdir"":4,""num_randdir_good_moves"":0,""num_whilered"":0,""num_whileblue"":0,""num_blue"":1,""num_good_moves"":9}","[299.22232142857143,304.12857142857143,0.4,299.22232142857143,304.12857142857143,104.8,299.22232142857143,304.12857142857143,205.7,299.22232142857143,304.12857142857143,311.3,290.22232142857143,311.12857142857143,412.4,222.22232142857143,378.12857142857143,518,158.22232142857143,472.12857142857143,626,121.22232142857143,497.12857142857143,732,88.22232142857143,518.1285714285714,837.8,86.22232142857143,518.1285714285714,937.8,86.22232142857143,518.1285714285714,1042.4,86.22232142857143,518.1285714285714,1165.4,86.22232142857143,518.1285714285714,1272.3,86.22232142857143,518.1285714285714,1372.9,86.22232142857143,518.1285714285714,1475.2,86.22232142857143,518.1285714285714,1582.7,86.22232142857143,518.1285714285714,1682.8,86.22232142857143,518.1285714285714,1791.5,86.22232142857143,518.1285714285714,1892.1,86.22232142857143,518.1285714285714,2001.6,86.22232142857143,518.1285714285714,2105.9,86.22232142857143,518.1285714285714,2206.8,86.22232142857143,518.1285714285714,2318,86.22232142857143,518.1285714285714,2424.3,86.22232142857143,518.1285714285714,2524.5,86.22232142857143,518.1285714285714,2626,86.22232142857143,518.1285714285714,2726.9,86.22232142857143,518.1285714285714,2838.2,86.22232142857143,518.1285714285714,2940.2,86.22232142857143,518.1285714285714,3043.7,86.22232142857143,518.1285714285714,3149.5,86.22232142857143,518.1285714285714,3250.5,86.22232142857143,518.1285714285714,3355.3,86.22232142857143,518.1285714285714,3456.7,86.22232142857143,518.1285714285714,3566.8,86.22232142857143,518.1285714285714,3668.5,86.22232142857143,518.1285714285714,3771.1,86.22232142857143,518.1285714285714,3871.7,86.22232142857143,518.1285714285714,3976.9,86.22232142857143,518.1285714285714,4088.6,86.22232142857143,518.1285714285714,4190.2,86.22232142857143,518.1285714285714,4291.7,86.22232142857143,518.1285714285714,4391.9,86.22232142857143,518.1285714285714,4493.6,86.22232142857143,518.1285714285714,4601.7,86.22232142857143,518.1285714285714,4702.4,86.22232142857143,518.1285714285714,4805.4,86.22232142857143,518.1285714285714,4912.7]","[1317.9,1317.9,1000,0,317.9,""smooth"",""down"",""down"",""good_move"",5106.8,3788.3,3445.2,1318.6,343.1,""smooth"",""down"",""down"",""good_move"",8595.1,3487.9,3122.9,5107.2,365,""smooth"",""down"",""down"",""good_move"",11146.1,2550.5,2159.8,8595.6,390.8,""oops"",""left"",""right"",""bad_move"",17618.3,6471.4,2573.5,14711,333.8,""smooth"",""left"",""left"",""good_move"",20238.5,2619.9,2207.2,17618.7,412.6,""smooth"",""left"",""left"",""good_move"",22770.1,2531.5,2170.9,20238.7,360.6,""smooth"",""left"",""left"",""good_move"",25513.2,2743,2369.8,22770.4,373.1,""oops"",""left"",""right"",""bad_move"",28443.7,2929.9,2617.3,25513.9,312.6,""oops"",""left"",""right"",""bad_move"",30782.8,2338.4,1872.7,28444.4,465.7,""smooth"",""left"",""left"",""good_move"",33601.1,2817.5,2469.4,30783.6,348.1,""oops"",""left"",""up"",""bad_move"",36716.2,3114.7,2799.9,33601.6,314.8,""smooth"",""left"",""left"",""good_move"",39441.9,2725.4,2384.6,36716.5,340.8,""smooth"",""left"",""left"",""good_move"",41367.9,1925.7,2413.3,39442.2,-487.6,""error"",""-"",""-"",""no_move""]","",""
"10565","","<div style=""width:500px;"">
  <p>What determined the result of this run?</p>
  </div>","73","html-slider-response","70","1253987","0.0-5.0-1.12","249","1","2025-07-30 08:36:49","1f75c3e559b7213887762d5229550c2b","41.150.35.210","Mozilla/5.0 (Windows NT 10.0; Win64; x64) AppleWebKit/537.36 (KHTML, like Gecko) Chrome/138.0.0.0 Safari/537.36","WebKit","Chrome","138.0.0.0","Windows","10.0","https://app.prolific.com/","en-ZA,en-GB;q=0.9,en-US;q=0.8,en;q=0.7","67f14975a8c12321ab2d0e61","6877631c9844ddd5501205fc","6889d98e06072073f3bec367","3","1","67f14975a8c12321ab2d0e61","3","1","2025-07-30T09:01:30.373Z","","","","","","","","","","","AttribQ","","50","","","","","","","","","","","","","","","","","","","","","","","","","","","","",""
"4772","","<div style=""width:500px;"">
  <p>How much control did you have over the ball?</p>
  </div>","31","html-slider-response","71","1258761","0.0-5.0-2.12","249","1","2025-07-30 08:36:49","1f75c3e559b7213887762d5229550c2b","41.150.35.210","Mozilla/5.0 (Windows NT 10.0; Win64; x64) AppleWebKit/537.36 (KHTML, like Gecko) Chrome/138.0.0.0 Safari/537.36","WebKit","Chrome","138.0.0.0","Windows","10.0","https://app.prolific.com/","en-ZA,en-GB;q=0.9,en-US;q=0.8,en;q=0.7","67f14975a8c12321ab2d0e61","6877631c9844ddd5501205fc","6889d98e06072073f3bec367","3","1","67f14975a8c12321ab2d0e61","3","1","2025-07-30T09:01:35.147Z","","","","","","","","","","","ControlQ","","50","","","","","","","","","","","","","","","","","","","","","","","","","","","","",""
"3432","","<div style=""width:500px;"">
  <p>How would you describe your current emotional state?</p>
  </div>","54","html-slider-response","72","1262195","0.0-5.0-3.12","249","1","2025-07-30 08:36:49","1f75c3e559b7213887762d5229550c2b","41.150.35.210","Mozilla/5.0 (Windows NT 10.0; Win64; x64) AppleWebKit/537.36 (KHTML, like Gecko) Chrome/138.0.0.0 Safari/537.36","WebKit","Chrome","138.0.0.0","Windows","10.0","https://app.prolific.com/","en-ZA,en-GB;q=0.9,en-US;q=0.8,en;q=0.7","67f14975a8c12321ab2d0e61","6877631c9844ddd5501205fc","6889d98e06072073f3bec367","3","1","67f14975a8c12321ab2d0e61","3","1","2025-07-30T09:01:38.581Z","","","","","","","","","","","StressQ","","50","","","","","","","","","","","","","","","","","","","","","","","","","","","","",""
"3294","","<div style=""width:500px;"">
  <p>What best describes how you currently feel?</p>
  </div>","94","html-slider-response","73","1265490","0.0-5.0-4.12","249","1","2025-07-30 08:36:49","1f75c3e559b7213887762d5229550c2b","41.150.35.210","Mozilla/5.0 (Windows NT 10.0; Win64; x64) AppleWebKit/537.36 (KHTML, like Gecko) Chrome/138.0.0.0 Safari/537.36","WebKit","Chrome","138.0.0.0","Windows","10.0","https://app.prolific.com/","en-ZA,en-GB;q=0.9,en-US;q=0.8,en;q=0.7","67f14975a8c12321ab2d0e61","6877631c9844ddd5501205fc","6889d98e06072073f3bec367","3","1","67f14975a8c12321ab2d0e61","3","1","2025-07-30T09:01:41.876Z","","","","","","","","","","","MotivationQ","","50","","","","","","","","","","","","","","","","","","","","","","","","","","","","",""
