"rt","response_timestamp","stimulus","response","trial_type","trial_index","time_elapsed","internal_node_id","run_id","condition","recorded_at","source_code_version","ip","user_agent","device","browser","browser_version","platform","platform_version","referer","accept_language","PROLIFIC_PID","STUDY_ID","SESSION_ID","WEEK","BATCH","prolific_id","week","batch","realtime","success","responses","item_order","radio_event_ids","radio_event_times","key_event_times","mouse_event_times","straightlining","zigzagging","honeypot","eventType","view_history","slider_start","which_type","canvas_config","goals_layout","control_level","trial_number","tutorial_trial_number","trial_start_time","phase1_start_time","phase2_start_time","phase3_start_time","goal_1_value","goal_1_distance","goal_2_value","goal_2_distance","goal_selected","outcome","outcome_total","participant_final_score","participant_initial_score","participant_final_score_prop","goal_choice_rt","allocated_time","allocated_time_remaining","goal_direction","counts","mouse_movements","key_presses","question_order","question_id"
"9794","1753257202972","<p style='font-size:40px;line-height:1.25'><strong>Welcome to the experiment!</strong></p><p style='font-size:1.1em;line-height:1.25'>Thank you for participanting in our experiment again! You will be asked to play the Dysfunctional Ball Game again. We will briefly recap the rules before we start.</p><p style='font-size:1.1em;line-height:1.25'>Press <strong>Next</strong> to continue.</p>","0","custom-html-button-response","0","9796","0.0-0.0","187","1","2025-07-23 07:53:11","1f75c3e559b7213887762d5229550c2b","188.146.154.183","Mozilla/5.0 (Windows NT 10.0; Win64; x64) AppleWebKit/537.36 (KHTML, like Gecko) Chrome/138.0.0.0 Safari/537.36","WebKit","Chrome","138.0.0.0","Windows","10.0","https://app.prolific.com/","pl-PL,pl;q=0.9,en-US;q=0.8,en;q=0.7","66a16e0b41e98cb469f12b0b","683dba2a8a9dda3513610c04","688094e2987cfa0441fc16f1","3","0","66a16e0b41e98cb469f12b0b","3","0","2025-07-23T07:53:22.973Z","","","","","","","","","","","","","","","","","","","","","","","","","","","","","","","","","","","","","","","","","",""
"3614","","","","fullscreen","1","14414","0.0-1.0","187","1","2025-07-23 07:53:11","1f75c3e559b7213887762d5229550c2b","188.146.154.183","Mozilla/5.0 (Windows NT 10.0; Win64; x64) AppleWebKit/537.36 (KHTML, like Gecko) Chrome/138.0.0.0 Safari/537.36","WebKit","Chrome","138.0.0.0","Windows","10.0","https://app.prolific.com/","pl-PL,pl;q=0.9,en-US;q=0.8,en;q=0.7","66a16e0b41e98cb469f12b0b","683dba2a8a9dda3513610c04","688094e2987cfa0441fc16f1","3","0","66a16e0b41e98cb469f12b0b","3","0","","true","","","","","","","","","","","","","","","","","","","","","","","","","","","","","","","","","","","","","","","","",""
"2109","1753257209699","<p style='font-size:1.1em;line-height:1.25'>In the following, we will ask you a few questions relating to your feelings in the last 24 hours.<br></p><p style='font-size:1.1em;line-height:1.25'>Press the <strong>Next</strong> button to continue.</p>","0","custom-html-button-response","2","16523","0.0-2.0-0.0","187","1","2025-07-23 07:53:11","1f75c3e559b7213887762d5229550c2b","188.146.154.183","Mozilla/5.0 (Windows NT 10.0; Win64; x64) AppleWebKit/537.36 (KHTML, like Gecko) Chrome/138.0.0.0 Safari/537.36","WebKit","Chrome","138.0.0.0","Windows","10.0","https://app.prolific.com/","pl-PL,pl;q=0.9,en-US;q=0.8,en;q=0.7","66a16e0b41e98cb469f12b0b","683dba2a8a9dda3513610c04","688094e2987cfa0441fc16f1","3","0","66a16e0b41e98cb469f12b0b","3","0","2025-07-23T07:53:29.700Z","","","","","","","","","","","","","","","","","","","","","","","","","","","","","","","","","","","","","","","","","",""
"60142","","","","survey-template","3","76668","0.0-2.0-1.0","187","1","2025-07-23 07:53:11","1f75c3e559b7213887762d5229550c2b","188.146.154.183","Mozilla/5.0 (Windows NT 10.0; Win64; x64) AppleWebKit/537.36 (KHTML, like Gecko) Chrome/138.0.0.0 Safari/537.36","WebKit","Chrome","138.0.0.0","Windows","10.0","https://app.prolific.com/","pl-PL,pl;q=0.9,en-US;q=0.8,en;q=0.7","66a16e0b41e98cb469f12b0b","683dba2a8a9dda3513610c04","688094e2987cfa0441fc16f1","3","0","66a16e0b41e98cb469f12b0b","3","0","2025-07-23T07:54:29.844Z","","{""Q01"":""2"",""Q02"":""0"",""Q03"":""2"",""Q04"":""5"",""Q05"":""1"",""Q06"":""1"",""Q07"":""2"",""Q08"":""1"",""Q09"":""5"",""Q10"":""5"",""Q11"":""5"",""Q12"":""1"",""Q13"":""5"",""Q14"":""1"",""Q15"":""5"",""Q16"":""5"",""Q17"":""4"",""Q18"":""2"",""Q19"":""5"",""Q20"":""3"",""Q21"":""3"",""Q22"":""2""}","[0,1,2,3,4,5,6,7,8,9,10,11,12,13,14,15,16,17,18,19,20,21]","[""Q01"",""Q02"",""Q03"",""Q03"",""Q04"",""Q05"",""Q06"",""Q07"",""Q13"",""Q12"",""Q11"",""Q10"",""Q09"",""Q08"",""Q15"",""Q14"",""Q16"",""Q17"",""Q18"",""Q19"",""Q20"",""Q21"",""Q22""]","[5853.5,6644.799999952316,7901.100000143051,8428.200000047684,10599.900000095367,14156.5,16271.299999952316,18010.200000047684,25365.299999952316,28765.200000047684,30136.5,31450.299999952316,33194,35201.700000047684,37145.60000014305,39270.90000009537,40977.200000047684,42905.299999952316,44201.799999952316,45831.60000014305,50692.700000047684,52590.200000047684,55513.40000009537]","[]","[0.10000014305114746,4817.900000095367,5484.299999952316,5853.5,6644.799999952316,7901.100000143051,8428.200000047684,10599.900000095367,12209.799999952316,13182.299999952316,14156.5,16271.299999952316,18010.200000047684,25365.299999952316,27459.400000095367,28765.200000047684,30136.5,31450.299999952316,33194,35201.700000047684,37145.60000014305,39270.90000009537,40977.200000047684,42905.299999952316,44201.799999952316,45831.60000014305,49688.200000047684,50692.700000047684,51941.299999952316,52590.200000047684,55076.299999952316,55513.40000009537,60139.60000014305]","0.36363636363636365","0.19047619047619047","0","drsp","","","","","","","","","","","","","","","","","","","","","","","","","","","","","","",""
"9857","","","","survey-template","4","86526","0.0-2.0-2.0","187","1","2025-07-23 07:53:11","1f75c3e559b7213887762d5229550c2b","188.146.154.183","Mozilla/5.0 (Windows NT 10.0; Win64; x64) AppleWebKit/537.36 (KHTML, like Gecko) Chrome/138.0.0.0 Safari/537.36","WebKit","Chrome","138.0.0.0","Windows","10.0","https://app.prolific.com/","pl-PL,pl;q=0.9,en-US;q=0.8,en;q=0.7","66a16e0b41e98cb469f12b0b","683dba2a8a9dda3513610c04","688094e2987cfa0441fc16f1","3","0","66a16e0b41e98cb469f12b0b","3","0","2025-07-23T07:54:39.702Z","","{""Q01"":""4"",""Q02"":""2"",""Q03"":""2""}","[0,1,2]","[""Q02"",""Q01"",""Q03""]","[4164.899999856949,5197.599999904633,8538.599999904633]","[]","[2385.399999856949,4164.899999856949,5197.599999904633,7705.599999904633,8538.599999904633,9856.5]","0.3333333333333333","1","0","stress","","","","","","","","","","","","","","","","","","","","","","","","","","","","","","",""
"1879","","","","instructions","5","88407","0.0-3.0-0.0","187","1","2025-07-23 07:53:11","1f75c3e559b7213887762d5229550c2b","188.146.154.183","Mozilla/5.0 (Windows NT 10.0; Win64; x64) AppleWebKit/537.36 (KHTML, like Gecko) Chrome/138.0.0.0 Safari/537.36","WebKit","Chrome","138.0.0.0","Windows","10.0","https://app.prolific.com/","pl-PL,pl;q=0.9,en-US;q=0.8,en;q=0.7","66a16e0b41e98cb469f12b0b","683dba2a8a9dda3513610c04","688094e2987cfa0441fc16f1","3","0","66a16e0b41e98cb469f12b0b","3","0","","","","","","","","","","","","","[{""page_index"":0,""viewing_time"":1879}]","","","","","","","","","","","","","","","","","","","","","","","","","","","","","",""
"2269","","<p>Before you start with this game please answer the following three questions yourself. </p>
  <p>Through this game, we measure several aspects of your cognitive performance, such as reaction times, multi-tasking capabilities </p>
  <p>and the ability to assess the situation you are in.</p>
  <p></p>
  <p><b>How good do you usually are in such tasks?</b></p>","19","html-slider-response","6","90677","0.0-4.0-0.0","187","1","2025-07-23 07:53:11","1f75c3e559b7213887762d5229550c2b","188.146.154.183","Mozilla/5.0 (Windows NT 10.0; Win64; x64) AppleWebKit/537.36 (KHTML, like Gecko) Chrome/138.0.0.0 Safari/537.36","WebKit","Chrome","138.0.0.0","Windows","10.0","https://app.prolific.com/","pl-PL,pl;q=0.9,en-US;q=0.8,en;q=0.7","66a16e0b41e98cb469f12b0b","683dba2a8a9dda3513610c04","688094e2987cfa0441fc16f1","3","0","66a16e0b41e98cb469f12b0b","3","0","2025-07-23T07:54:43.853Z","","","","","","","","","","","PreSkillQ","","50","","","","","","","","","","","","","","","","","","","","","","","","","","","","",""
"2146","","<div style=""width:500px;"">
  <p>How well do you think you will perform in this task compared to other participants?</p>
  </div>","20","html-slider-response","7","92823","0.0-4.0-1.0","187","1","2025-07-23 07:53:11","1f75c3e559b7213887762d5229550c2b","188.146.154.183","Mozilla/5.0 (Windows NT 10.0; Win64; x64) AppleWebKit/537.36 (KHTML, like Gecko) Chrome/138.0.0.0 Safari/537.36","WebKit","Chrome","138.0.0.0","Windows","10.0","https://app.prolific.com/","pl-PL,pl;q=0.9,en-US;q=0.8,en;q=0.7","66a16e0b41e98cb469f12b0b","683dba2a8a9dda3513610c04","688094e2987cfa0441fc16f1","3","0","66a16e0b41e98cb469f12b0b","3","0","2025-07-23T07:54:45.999Z","","","","","","","","","","","PrePerfQ","","50","","","","","","","","","","","","","","","","","","","","","","","","","","","","",""
"1650","","<div style=""width:500px;"">
  <p>What best describes how you currently feel?</p>
  </div>","25","html-slider-response","8","94474","0.0-4.0-2.0","187","1","2025-07-23 07:53:11","1f75c3e559b7213887762d5229550c2b","188.146.154.183","Mozilla/5.0 (Windows NT 10.0; Win64; x64) AppleWebKit/537.36 (KHTML, like Gecko) Chrome/138.0.0.0 Safari/537.36","WebKit","Chrome","138.0.0.0","Windows","10.0","https://app.prolific.com/","pl-PL,pl;q=0.9,en-US;q=0.8,en;q=0.7","66a16e0b41e98cb469f12b0b","683dba2a8a9dda3513610c04","688094e2987cfa0441fc16f1","3","0","66a16e0b41e98cb469f12b0b","3","0","2025-07-23T07:54:47.650Z","","","","","","","","","","","PreMotivationQ","","50","","","","","","","","","","","","","","","","","","","","","","","","","","","","",""
"","","","","ctl-task-cpt","9","112667","0.0-5.0-0.0","187","1","2025-07-23 07:53:11","1f75c3e559b7213887762d5229550c2b","188.146.154.183","Mozilla/5.0 (Windows NT 10.0; Win64; x64) AppleWebKit/537.36 (KHTML, like Gecko) Chrome/138.0.0.0 Safari/537.36","WebKit","Chrome","138.0.0.0","Windows","10.0","https://app.prolific.com/","pl-PL,pl;q=0.9,en-US;q=0.8,en;q=0.7","66a16e0b41e98cb469f12b0b","683dba2a8a9dda3513610c04","688094e2987cfa0441fc16f1","3","0","66a16e0b41e98cb469f12b0b","3","0","2025-07-23T07:55:05.843Z","","","","","","","","","","","","","","win-only","0","g1:NW,g2:SE","1","1","0","95802.3","840.2","5846.2","15186.9","1","4","8","6","1","1","1","1","0","0.007575757575757576","1351.8","3000","1705","[""left"",""up""]","{""num_key_presses"":4,""num_perfect"":4,""num_errors"":0,""num_randdir"":0,""num_randdir_good_moves"":0,""num_whilered"":0,""num_whileblue"":0,""num_blue"":0,""num_good_moves"":4}","[551.3881979861733,567.9318888354708,0.1,551.3881979861733,567.9318888354708,106.1,551.3881979861733,582.2318891454149,210.2,598.6881990113732,669.1318910289217,310.4,622.888199535894,712.0318919587542,411.8,665.7882004657265,767.031893150847,515.8,705.3882013240334,773.6318932938982,621.7,858.2882046380516,930.9318967032839,726.7,925.388206092405,1001.3318982291628,830.5,739.488202063131,798.9318938422609,931.8,275.28819200186695,318.231883423369,1035.4,247.78819140582053,281.9318826365877,1136.1,164.18818959383933,148.83187975172294,1241,105.88818833022086,104.83187879804862,1346.6,105.88818833022086,105.93187882189048,1451.7,442.48819562582935,182.93188049082053,1555.3,845.0882043519493,300.6318830418993,1656.2,947.3882065692421,310.531883256476,1761.8,947.3882065692421,310.531883256476,1866.1,947.3882065692421,310.531883256476,1971.2,947.3882065692421,310.531883256476,2075,947.3882065692421,310.531883256476,2175.2,947.3882065692421,310.531883256476,2276.5,947.3882065692421,310.531883256476,2380.2,947.3882065692421,310.531883256476,2480.2,947.3882065692421,310.531883256476,2581.1,947.3882065692421,310.531883256476,2681.6,947.3882065692421,310.531883256476,2785.3,947.3882065692421,310.531883256476,2885.5,947.3882065692421,310.531883256476,2991.5,947.3882065692421,310.531883256476,3095.9,947.3882065692421,310.531883256476,3200.4,947.3882065692421,310.531883256476,3300.9,947.3882065692421,310.531883256476,3405.3,947.3882065692421,310.531883256476,3510.3,947.3882065692421,310.531883256476,3615.2,947.3882065692421,310.531883256476,3716.4,947.3882065692421,310.531883256476,3821.2,947.3882065692421,310.531883256476,3926.1,947.3882065692421,310.531883256476,4030.2,947.3882065692421,310.531883256476,4130.3,947.3882065692421,310.531883256476,4230.3,947.3882065692421,310.531883256476,4331.1,947.3882065692421,310.531883256476,4435.5,947.3882065692421,310.531883256476,4536.1,947.3882065692421,310.531883256476,4640.3,947.3882065692421,310.531883256476,4741.7,947.3882065692421,310.531883256476,4845.2,947.3882065692421,310.531883256476,4946.1]","[1352.4,1352.4,1000,0,352.4,""smooth"",""up"",""up"",""good_move"",3927.2,2574.4,2259.7,1352.8,314.7,""smooth"",""up"",""up"",""good_move"",6261,2333.8,2010.7,3927.2,323.1,""smooth"",""left"",""left"",""good_move"",9253.9,2992.6,2664.6,6261.3,328,""smooth"",""left"",""left"",""good_move""]","",""
"3346","","<div style=""width:500px;"">
  <p>What determined the result of this run?</p>
  </div>","5","html-slider-response","10","116013","0.0-5.0-1.0","187","1","2025-07-23 07:53:11","1f75c3e559b7213887762d5229550c2b","188.146.154.183","Mozilla/5.0 (Windows NT 10.0; Win64; x64) AppleWebKit/537.36 (KHTML, like Gecko) Chrome/138.0.0.0 Safari/537.36","WebKit","Chrome","138.0.0.0","Windows","10.0","https://app.prolific.com/","pl-PL,pl;q=0.9,en-US;q=0.8,en;q=0.7","66a16e0b41e98cb469f12b0b","683dba2a8a9dda3513610c04","688094e2987cfa0441fc16f1","3","0","66a16e0b41e98cb469f12b0b","3","0","2025-07-23T07:55:09.189Z","","","","","","","","","","","AttribQ","","50","","","","","","","","","","","","","","","","","","","","","","","","","","","","",""
"2014","","<div style=""width:500px;"">
  <p>How much control did you have over the ball?</p>
  </div>","18","html-slider-response","11","118028","0.0-5.0-2.0","187","1","2025-07-23 07:53:11","1f75c3e559b7213887762d5229550c2b","188.146.154.183","Mozilla/5.0 (Windows NT 10.0; Win64; x64) AppleWebKit/537.36 (KHTML, like Gecko) Chrome/138.0.0.0 Safari/537.36","WebKit","Chrome","138.0.0.0","Windows","10.0","https://app.prolific.com/","pl-PL,pl;q=0.9,en-US;q=0.8,en;q=0.7","66a16e0b41e98cb469f12b0b","683dba2a8a9dda3513610c04","688094e2987cfa0441fc16f1","3","0","66a16e0b41e98cb469f12b0b","3","0","2025-07-23T07:55:11.204Z","","","","","","","","","","","ControlQ","","50","","","","","","","","","","","","","","","","","","","","","","","","","","","","",""
"2993","","<div style=""width:500px;"">
  <p>How would you describe your current emotional state?</p>
  </div>","71","html-slider-response","12","121021","0.0-5.0-3.0","187","1","2025-07-23 07:53:11","1f75c3e559b7213887762d5229550c2b","188.146.154.183","Mozilla/5.0 (Windows NT 10.0; Win64; x64) AppleWebKit/537.36 (KHTML, like Gecko) Chrome/138.0.0.0 Safari/537.36","WebKit","Chrome","138.0.0.0","Windows","10.0","https://app.prolific.com/","pl-PL,pl;q=0.9,en-US;q=0.8,en;q=0.7","66a16e0b41e98cb469f12b0b","683dba2a8a9dda3513610c04","688094e2987cfa0441fc16f1","3","0","66a16e0b41e98cb469f12b0b","3","0","2025-07-23T07:55:14.197Z","","","","","","","","","","","StressQ","","50","","","","","","","","","","","","","","","","","","","","","","","","","","","","",""
"1829","","<div style=""width:500px;"">
  <p>What best describes how you currently feel?</p>
  </div>","23","html-slider-response","13","122851","0.0-5.0-4.0","187","1","2025-07-23 07:53:11","1f75c3e559b7213887762d5229550c2b","188.146.154.183","Mozilla/5.0 (Windows NT 10.0; Win64; x64) AppleWebKit/537.36 (KHTML, like Gecko) Chrome/138.0.0.0 Safari/537.36","WebKit","Chrome","138.0.0.0","Windows","10.0","https://app.prolific.com/","pl-PL,pl;q=0.9,en-US;q=0.8,en;q=0.7","66a16e0b41e98cb469f12b0b","683dba2a8a9dda3513610c04","688094e2987cfa0441fc16f1","3","0","66a16e0b41e98cb469f12b0b","3","0","2025-07-23T07:55:16.027Z","","","","","","","","","","","MotivationQ","","50","","","","","","","","","","","","","","","","","","","","","","","","","","","","",""
"","","","","ctl-task-cpt","14","144998","0.0-5.0-0.1","187","1","2025-07-23 07:53:11","1f75c3e559b7213887762d5229550c2b","188.146.154.183","Mozilla/5.0 (Windows NT 10.0; Win64; x64) AppleWebKit/537.36 (KHTML, like Gecko) Chrome/138.0.0.0 Safari/537.36","WebKit","Chrome","138.0.0.0","Windows","10.0","https://app.prolific.com/","pl-PL,pl;q=0.9,en-US;q=0.8,en;q=0.7","66a16e0b41e98cb469f12b0b","683dba2a8a9dda3513610c04","688094e2987cfa0441fc16f1","3","0","66a16e0b41e98cb469f12b0b","3","0","2025-07-23T07:55:38.175Z","","","","","","","","","","","","","","win-only","0","g1:NW,g2:SE","0.9","2","0","124178.5","835.2","5836.5","19131","1","4","4","6","1","1","1","2","1","0.015151515151515152","739.7","3000","1605","[""left"",""up""]","{""num_key_presses"":4,""num_perfect"":4,""num_errors"":0,""num_randdir"":0,""num_randdir_good_moves"":0,""num_whilered"":0,""num_whileblue"":0,""num_blue"":1,""num_good_moves"":4}","[553.588198033857,551.4318884778429,0.1,553.588198033857,551.4318884778429,101.8,553.588198033857,552.5318885016848,205,551.3881979861733,551.4318884778429,305.1,479.8881964364525,481.031886951964,405.6,200.48819038062064,175.23188032392753,510.2,116.88818856863944,124.63187922720206,610.3,104.788188306379,120.23187913183463,710.6,104.788188306379,120.23187913183463,811.6,150.98818930773703,115.8318790364672,915.1,978.1882072368142,270.93188239816914,1016.3,1278.4882137456414,357.8318842816759,1121.1,1329.0882148423668,344.6318839955736,1225.1,1357.6882154622551,338.03188385252247,1326.1,1356.5882154384133,340.2318839002062,1430.7,1356.5882154384133,340.2318839002062,1531,1356.5882154384133,340.2318839002062,1631,1356.5882154384133,340.2318839002062,1736,1356.5882154384133,340.2318839002062,1841.4,1356.5882154384133,340.2318839002062,1945.3,1356.5882154384133,340.2318839002062,2045.5,1356.5882154384133,340.2318839002062,2147.4,1356.5882154384133,340.2318839002062,2250.1,1356.5882154384133,340.2318839002062,2350.1,1356.5882154384133,340.2318839002062,2450.2,1356.5882154384133,340.2318839002062,2550.9,1356.5882154384133,340.2318839002062,2651,1356.5882154384133,340.2318839002062,2755.4,1356.5882154384133,340.2318839002062,2855.9,1356.5882154384133,340.2318839002062,2960.9,1356.5882154384133,340.2318839002062,3061.2,1356.5882154384133,340.2318839002062,3166.2,1356.5882154384133,340.2318839002062,3270,1356.5882154384133,340.2318839002062,3371,1356.5882154384133,340.2318839002062,3471.3,1356.5882154384133,340.2318839002062,3575.1,1356.5882154384133,340.2318839002062,3676,1356.5882154384133,340.2318839002062,3781.2,1356.5882154384133,340.2318839002062,3885,1356.5882154384133,340.2318839002062,3985,1356.5882154384133,340.2318839002062,4085.1,1356.5882154384133,340.2318839002062,4185.1,1356.5882154384133,340.2318839002062,4291,1356.5882154384133,340.2318839002062,4391.6,1356.5882154384133,340.2318839002062,4495.1,1356.5882154384133,340.2318839002062,4596,1356.5882154384133,340.2318839002062,4701.1,1356.5882154384133,340.2318839002062,4805.1,1356.5882154384133,340.2318839002062,4905.9]","[1324.7,1324.7,1000,0,324.7,""smooth"",""up"",""up"",""good_move"",7816.5,6491.7,2780.1,4664.4,372,""smooth"",""up"",""up"",""good_move"",10897.3,3080.7,2725.8,7816.6,354.9,""smooth"",""left"",""left"",""good_move"",13206.7,2309.1,1942.4,10897.6,366.7,""smooth"",""left"",""left"",""good_move""]","",""
"1982","","<div style=""width:500px;"">
  <p>What determined the result of this run?</p>
  </div>","5","html-slider-response","15","146982","0.0-5.0-1.1","187","1","2025-07-23 07:53:11","1f75c3e559b7213887762d5229550c2b","188.146.154.183","Mozilla/5.0 (Windows NT 10.0; Win64; x64) AppleWebKit/537.36 (KHTML, like Gecko) Chrome/138.0.0.0 Safari/537.36","WebKit","Chrome","138.0.0.0","Windows","10.0","https://app.prolific.com/","pl-PL,pl;q=0.9,en-US;q=0.8,en;q=0.7","66a16e0b41e98cb469f12b0b","683dba2a8a9dda3513610c04","688094e2987cfa0441fc16f1","3","0","66a16e0b41e98cb469f12b0b","3","0","2025-07-23T07:55:40.158Z","","","","","","","","","","","AttribQ","","50","","","","","","","","","","","","","","","","","","","","","","","","","","","","",""
"1602","","<div style=""width:500px;"">
  <p>How much control did you have over the ball?</p>
  </div>","18","html-slider-response","16","148585","0.0-5.0-2.1","187","1","2025-07-23 07:53:11","1f75c3e559b7213887762d5229550c2b","188.146.154.183","Mozilla/5.0 (Windows NT 10.0; Win64; x64) AppleWebKit/537.36 (KHTML, like Gecko) Chrome/138.0.0.0 Safari/537.36","WebKit","Chrome","138.0.0.0","Windows","10.0","https://app.prolific.com/","pl-PL,pl;q=0.9,en-US;q=0.8,en;q=0.7","66a16e0b41e98cb469f12b0b","683dba2a8a9dda3513610c04","688094e2987cfa0441fc16f1","3","0","66a16e0b41e98cb469f12b0b","3","0","2025-07-23T07:55:41.761Z","","","","","","","","","","","ControlQ","","50","","","","","","","","","","","","","","","","","","","","","","","","","","","","",""
"1608","","<div style=""width:500px;"">
  <p>How would you describe your current emotional state?</p>
  </div>","63","html-slider-response","17","150193","0.0-5.0-3.1","187","1","2025-07-23 07:53:11","1f75c3e559b7213887762d5229550c2b","188.146.154.183","Mozilla/5.0 (Windows NT 10.0; Win64; x64) AppleWebKit/537.36 (KHTML, like Gecko) Chrome/138.0.0.0 Safari/537.36","WebKit","Chrome","138.0.0.0","Windows","10.0","https://app.prolific.com/","pl-PL,pl;q=0.9,en-US;q=0.8,en;q=0.7","66a16e0b41e98cb469f12b0b","683dba2a8a9dda3513610c04","688094e2987cfa0441fc16f1","3","0","66a16e0b41e98cb469f12b0b","3","0","2025-07-23T07:55:43.369Z","","","","","","","","","","","StressQ","","50","","","","","","","","","","","","","","","","","","","","","","","","","","","","",""
"1413","","<div style=""width:500px;"">
  <p>What best describes how you currently feel?</p>
  </div>","26","html-slider-response","18","151607","0.0-5.0-4.1","187","1","2025-07-23 07:53:11","1f75c3e559b7213887762d5229550c2b","188.146.154.183","Mozilla/5.0 (Windows NT 10.0; Win64; x64) AppleWebKit/537.36 (KHTML, like Gecko) Chrome/138.0.0.0 Safari/537.36","WebKit","Chrome","138.0.0.0","Windows","10.0","https://app.prolific.com/","pl-PL,pl;q=0.9,en-US;q=0.8,en;q=0.7","66a16e0b41e98cb469f12b0b","683dba2a8a9dda3513610c04","688094e2987cfa0441fc16f1","3","0","66a16e0b41e98cb469f12b0b","3","0","2025-07-23T07:55:44.783Z","","","","","","","","","","","MotivationQ","","50","","","","","","","","","","","","","","","","","","","","","","","","","","","","",""
"","","","","ctl-task-cpt","19","178538","0.0-5.0-0.2","187","1","2025-07-23 07:53:11","1f75c3e559b7213887762d5229550c2b","188.146.154.183","Mozilla/5.0 (Windows NT 10.0; Win64; x64) AppleWebKit/537.36 (KHTML, like Gecko) Chrome/138.0.0.0 Safari/537.36","WebKit","Chrome","138.0.0.0","Windows","10.0","https://app.prolific.com/","pl-PL,pl;q=0.9,en-US;q=0.8,en;q=0.7","66a16e0b41e98cb469f12b0b","683dba2a8a9dda3513610c04","688094e2987cfa0441fc16f1","3","0","66a16e0b41e98cb469f12b0b","3","0","2025-07-23T07:56:11.715Z","","","","","","","","","","","","","","win-only","3","g1:SW,g2:NE","0.8","3","0","152935.7","778","5780.9","23911.4","1","4","4","6","1","1","1","3","2","0.022727272727272728","1160.9","3000","1555","[""down"",""left""]","{""num_key_presses"":4,""num_perfect"":3,""num_errors"":0,""num_randdir"":1,""num_randdir_good_moves"":1,""num_whilered"":0,""num_whileblue"":0,""num_blue"":2,""num_good_moves"":4}","[554.6881980576989,554.7318885493685,0.1,554.6881980576989,554.7318885493685,102.4,554.6881980576989,554.7318885493685,202.4,550.2881979623314,554.7318885493685,302.5,482.08819648413623,602.0318895745684,403,471.08819624571765,614.1318898368288,503,446.8881957211968,723.0318921971727,603.3,-69.01181546063455,1273.0319041181017,708.7,-73.41181555600198,1273.0319041181017,813.5,-11.81181422085794,1130.0319010186602,918.2,21.188186494397797,1098.1319003272463,1018.4,84.98818787722556,1062.9318995643068,1122.4,84.98818787722556,1062.9318995643068,1223.5,777.988202897596,892.4318958688189,1328.5,2273.988235322523,398.53188516382465,1432.4,2273.988235322523,394.1318850684572,1533.5,2084.7882312217234,488.731887118857,1637.6,1983.5882290282723,519.531887786429,1742.4,1942.8882281461235,523.9318878817965,1842.7,1847.188226071882,541.5318882632662,1948.2,1802.0882250943657,548.1318884063173,2053.7,1727.2882234731194,566.8318888116289,2157.3,1668.988222209501,593.2318893838335,2261.7,1668.988222209501,593.2318893838335,2363.1,1668.988222209501,593.2318893838335,2465.8,1668.988222209501,593.2318893838335,2568,1668.988222209501,593.2318893838335,2668.2,1668.988222209501,593.2318893838335,2773.8,1668.988222209501,593.2318893838335,2877.9,1668.988222209501,593.2318893838335,2982.2,1668.988222209501,593.2318893838335,3082.2,1668.988222209501,593.2318893838335,3183.2,1668.988222209501,593.2318893838335,3283.2,1668.988222209501,593.2318893838335,3387.2,1668.988222209501,593.2318893838335,3487.7,1668.988222209501,593.2318893838335,3588.2,1668.988222209501,593.2318893838335,3692.6,1668.988222209501,593.2318893838335,3793.2,1668.988222209501,593.2318893838335,3897.4,1668.988222209501,593.2318893838335,3998,1668.988222209501,593.2318893838335,4098,1668.988222209501,593.2318893838335,4199,1668.988222209501,593.2318893838335,4302.5,1668.988222209501,593.2318893838335,4402.5,1668.988222209501,593.2318893838335,4502.5,1668.988222209501,593.2318893838335,4602.8,1668.988222209501,593.2318893838335,4708.9,1668.988222209501,593.2318893838335,4808.9,1668.988222209501,593.2318893838335,4908.9]","[1373.4,1373.4,1000,0,373.4,""smooth"",""down"",""down"",""good_move"",12111,10737.3,3072.1,8720.6,318.3,""smooth"",""down"",""down"",""good_move"",14726.6,2615.5,2249.8,12111.1,365.7,""oops"",""left"",""left"",""good_move"",18032.2,3305.3,2900.6,14726.9,404.7,""smooth"",""left"",""left"",""good_move""]","",""
"2460","","<div style=""width:500px;"">
  <p>What determined the result of this run?</p>
  </div>","15","html-slider-response","20","180999","0.0-5.0-1.2","187","1","2025-07-23 07:53:11","1f75c3e559b7213887762d5229550c2b","188.146.154.183","Mozilla/5.0 (Windows NT 10.0; Win64; x64) AppleWebKit/537.36 (KHTML, like Gecko) Chrome/138.0.0.0 Safari/537.36","WebKit","Chrome","138.0.0.0","Windows","10.0","https://app.prolific.com/","pl-PL,pl;q=0.9,en-US;q=0.8,en;q=0.7","66a16e0b41e98cb469f12b0b","683dba2a8a9dda3513610c04","688094e2987cfa0441fc16f1","3","0","66a16e0b41e98cb469f12b0b","3","0","2025-07-23T07:56:14.175Z","","","","","","","","","","","AttribQ","","50","","","","","","","","","","","","","","","","","","","","","","","","","","","","",""
"1636","","<div style=""width:500px;"">
  <p>How much control did you have over the ball?</p>
  </div>","19","html-slider-response","21","182635","0.0-5.0-2.2","187","1","2025-07-23 07:53:11","1f75c3e559b7213887762d5229550c2b","188.146.154.183","Mozilla/5.0 (Windows NT 10.0; Win64; x64) AppleWebKit/537.36 (KHTML, like Gecko) Chrome/138.0.0.0 Safari/537.36","WebKit","Chrome","138.0.0.0","Windows","10.0","https://app.prolific.com/","pl-PL,pl;q=0.9,en-US;q=0.8,en;q=0.7","66a16e0b41e98cb469f12b0b","683dba2a8a9dda3513610c04","688094e2987cfa0441fc16f1","3","0","66a16e0b41e98cb469f12b0b","3","0","2025-07-23T07:56:15.812Z","","","","","","","","","","","ControlQ","","50","","","","","","","","","","","","","","","","","","","","","","","","","","","","",""
"1970","","<div style=""width:500px;"">
  <p>How would you describe your current emotional state?</p>
  </div>","81","html-slider-response","22","184606","0.0-5.0-3.2","187","1","2025-07-23 07:53:11","1f75c3e559b7213887762d5229550c2b","188.146.154.183","Mozilla/5.0 (Windows NT 10.0; Win64; x64) AppleWebKit/537.36 (KHTML, like Gecko) Chrome/138.0.0.0 Safari/537.36","WebKit","Chrome","138.0.0.0","Windows","10.0","https://app.prolific.com/","pl-PL,pl;q=0.9,en-US;q=0.8,en;q=0.7","66a16e0b41e98cb469f12b0b","683dba2a8a9dda3513610c04","688094e2987cfa0441fc16f1","3","0","66a16e0b41e98cb469f12b0b","3","0","2025-07-23T07:56:17.782Z","","","","","","","","","","","StressQ","","50","","","","","","","","","","","","","","","","","","","","","","","","","","","","",""
"2012","","<div style=""width:500px;"">
  <p>What best describes how you currently feel?</p>
  </div>","27","html-slider-response","23","186618","0.0-5.0-4.2","187","1","2025-07-23 07:53:11","1f75c3e559b7213887762d5229550c2b","188.146.154.183","Mozilla/5.0 (Windows NT 10.0; Win64; x64) AppleWebKit/537.36 (KHTML, like Gecko) Chrome/138.0.0.0 Safari/537.36","WebKit","Chrome","138.0.0.0","Windows","10.0","https://app.prolific.com/","pl-PL,pl;q=0.9,en-US;q=0.8,en;q=0.7","66a16e0b41e98cb469f12b0b","683dba2a8a9dda3513610c04","688094e2987cfa0441fc16f1","3","0","66a16e0b41e98cb469f12b0b","3","0","2025-07-23T07:56:19.794Z","","","","","","","","","","","MotivationQ","","50","","","","","","","","","","","","","","","","","","","","","","","","","","","","",""
"","","","","ctl-task-cpt","24","208923","0.0-5.0-0.3","187","1","2025-07-23 07:53:11","1f75c3e559b7213887762d5229550c2b","188.146.154.183","Mozilla/5.0 (Windows NT 10.0; Win64; x64) AppleWebKit/537.36 (KHTML, like Gecko) Chrome/138.0.0.0 Safari/537.36","WebKit","Chrome","138.0.0.0","Windows","10.0","https://app.prolific.com/","pl-PL,pl;q=0.9,en-US;q=0.8,en;q=0.7","66a16e0b41e98cb469f12b0b","683dba2a8a9dda3513610c04","688094e2987cfa0441fc16f1","3","0","66a16e0b41e98cb469f12b0b","3","0","2025-07-23T07:56:42.099Z","","","","","","","","","","","","","","win-only","1","g1:NE,g2:SW","0.7","4","0","187946.1","737.2","5741.4","19286.5","1","4","8","6","1","1","1","4","3","0.030303030303030304","941.4","3000","1800","[""up"",""right""]","{""num_key_presses"":4,""num_perfect"":4,""num_errors"":0,""num_randdir"":0,""num_randdir_good_moves"":0,""num_whilered"":0,""num_whileblue"":0,""num_blue"":1,""num_good_moves"":4}","[551.3881979861733,561.3318886924196,0.1,551.3881979861733,561.3318886924196,104,551.3881979861733,561.3318886924196,204.5,649.2882001080986,476.63188685659657,309.3,649.2882001080986,476.63188685659657,409.8,845.0882043519493,276.4318825173784,514.5,974.8882071652886,124.63187922720206,619.2,1096.9882098117348,-4.0681235622953125,724.1,1077.1882093825814,25.63187708143485,824.4,1027.6882083096978,102.6318787503649,929.1,1027.6882083096978,102.6318787503649,1029.7,1241.0882129350182,246.7318818736483,1134,1608.4882208981987,281.9318826365877,1234.4,1709.6882230916497,258.8318821359087,1334.4,1708.5882230678078,258.8318821359087,1440.1,1708.5882230678078,259.93188215975056,1544.6,1708.5882230678078,259.93188215975056,1649.3,1708.5882230678078,259.93188215975056,1754.3,1708.5882230678078,259.93188215975056,1859,1708.5882230678078,259.93188215975056,1959.5,1708.5882230678078,259.93188215975056,2064.5,1708.5882230678078,259.93188215975056,2164.5,1708.5882230678078,259.93188215975056,2268.5,1708.5882230678078,259.93188215975056,2368.6,1708.5882230678078,259.93188215975056,2469.4,1708.5882230678078,259.93188215975056,2574,1708.5882230678078,259.93188215975056,2674.3,1708.5882230678078,259.93188215975056,2778.4,1708.5882230678078,259.93188215975056,2879.7,1708.5882230678078,259.93188215975056,2983.8,1708.5882230678078,259.93188215975056,3088.3,1708.5882230678078,259.93188215975056,3188.4,1708.5882230678078,259.93188215975056,3294.5,1708.5882230678078,259.93188215975056,3398.4,1708.5882230678078,259.93188215975056,3498.6,1708.5882230678078,259.93188215975056,3599.2,1708.5882230678078,259.93188215975056,3699.7,1708.5882230678078,259.93188215975056,3804.5,1708.5882230678078,259.93188215975056,3909.2,1708.5882230678078,259.93188215975056,4013.7,1708.5882230678078,259.93188215975056,4114.1,1708.5882230678078,259.93188215975056,4219.2,1708.5882230678078,259.93188215975056,4319.9,1708.5882230678078,259.93188215975056,4424.6,1708.5882230678078,259.93188215975056,4529.1,1708.5882230678078,259.93188215975056,4634.5,1708.5882230678078,259.93188215975056,4735.2,1708.5882230678078,259.93188215975056,4838.3,1708.5882230678078,259.93188215975056,4939.2]","[1324.4,1324.4,1000,0,324.4,""smooth"",""up"",""up"",""good_move"",3878.1,2553.5,2248.8,1324.6,304.7,""smooth"",""up"",""up"",""good_move"",10529.6,6651.4,2426.8,7809.7,293.1,""smooth"",""right"",""right"",""good_move"",13451,2921.1,2615.2,10529.9,305.9,""smooth"",""right"",""right"",""good_move""]","",""
"2486","","<div style=""width:500px;"">
  <p>What determined the result of this run?</p>
  </div>","17","html-slider-response","25","211409","0.0-5.0-1.3","187","1","2025-07-23 07:53:11","1f75c3e559b7213887762d5229550c2b","188.146.154.183","Mozilla/5.0 (Windows NT 10.0; Win64; x64) AppleWebKit/537.36 (KHTML, like Gecko) Chrome/138.0.0.0 Safari/537.36","WebKit","Chrome","138.0.0.0","Windows","10.0","https://app.prolific.com/","pl-PL,pl;q=0.9,en-US;q=0.8,en;q=0.7","66a16e0b41e98cb469f12b0b","683dba2a8a9dda3513610c04","688094e2987cfa0441fc16f1","3","0","66a16e0b41e98cb469f12b0b","3","0","2025-07-23T07:56:44.585Z","","","","","","","","","","","AttribQ","","50","","","","","","","","","","","","","","","","","","","","","","","","","","","","",""
"2498","","<div style=""width:500px;"">
  <p>How much control did you have over the ball?</p>
  </div>","13","html-slider-response","26","213908","0.0-5.0-2.3","187","1","2025-07-23 07:53:11","1f75c3e559b7213887762d5229550c2b","188.146.154.183","Mozilla/5.0 (Windows NT 10.0; Win64; x64) AppleWebKit/537.36 (KHTML, like Gecko) Chrome/138.0.0.0 Safari/537.36","WebKit","Chrome","138.0.0.0","Windows","10.0","https://app.prolific.com/","pl-PL,pl;q=0.9,en-US;q=0.8,en;q=0.7","66a16e0b41e98cb469f12b0b","683dba2a8a9dda3513610c04","688094e2987cfa0441fc16f1","3","0","66a16e0b41e98cb469f12b0b","3","0","2025-07-23T07:56:47.084Z","","","","","","","","","","","ControlQ","","50","","","","","","","","","","","","","","","","","","","","","","","","","","","","",""
"2585","","<div style=""width:500px;"">
  <p>How would you describe your current emotional state?</p>
  </div>","77","html-slider-response","27","216493","0.0-5.0-3.3","187","1","2025-07-23 07:53:11","1f75c3e559b7213887762d5229550c2b","188.146.154.183","Mozilla/5.0 (Windows NT 10.0; Win64; x64) AppleWebKit/537.36 (KHTML, like Gecko) Chrome/138.0.0.0 Safari/537.36","WebKit","Chrome","138.0.0.0","Windows","10.0","https://app.prolific.com/","pl-PL,pl;q=0.9,en-US;q=0.8,en;q=0.7","66a16e0b41e98cb469f12b0b","683dba2a8a9dda3513610c04","688094e2987cfa0441fc16f1","3","0","66a16e0b41e98cb469f12b0b","3","0","2025-07-23T07:56:49.670Z","","","","","","","","","","","StressQ","","50","","","","","","","","","","","","","","","","","","","","","","","","","","","","",""
"1923","","<div style=""width:500px;"">
  <p>What best describes how you currently feel?</p>
  </div>","27","html-slider-response","28","218417","0.0-5.0-4.3","187","1","2025-07-23 07:53:11","1f75c3e559b7213887762d5229550c2b","188.146.154.183","Mozilla/5.0 (Windows NT 10.0; Win64; x64) AppleWebKit/537.36 (KHTML, like Gecko) Chrome/138.0.0.0 Safari/537.36","WebKit","Chrome","138.0.0.0","Windows","10.0","https://app.prolific.com/","pl-PL,pl;q=0.9,en-US;q=0.8,en;q=0.7","66a16e0b41e98cb469f12b0b","683dba2a8a9dda3513610c04","688094e2987cfa0441fc16f1","3","0","66a16e0b41e98cb469f12b0b","3","0","2025-07-23T07:56:51.594Z","","","","","","","","","","","MotivationQ","","50","","","","","","","","","","","","","","","","","","","","","","","","","","","","",""
"","","","","ctl-task-cpt","29","236704","0.0-5.0-0.4","187","1","2025-07-23 07:53:11","1f75c3e559b7213887762d5229550c2b","188.146.154.183","Mozilla/5.0 (Windows NT 10.0; Win64; x64) AppleWebKit/537.36 (KHTML, like Gecko) Chrome/138.0.0.0 Safari/537.36","WebKit","Chrome","138.0.0.0","Windows","10.0","https://app.prolific.com/","pl-PL,pl;q=0.9,en-US;q=0.8,en;q=0.7","66a16e0b41e98cb469f12b0b","683dba2a8a9dda3513610c04","688094e2987cfa0441fc16f1","3","0","66a16e0b41e98cb469f12b0b","3","0","2025-07-23T07:57:09.880Z","","","","","","","","","","","","","","win-only","2","g1:SE,g2:NW","0.6","5","0","219746","827.1","5831.9","15266.8","1","4","8","6","1","1","1","5","4","0.03787878787878788","791.2","3000","1505","[""down"",""right""]","{""num_key_presses"":4,""num_perfect"":3,""num_errors"":0,""num_randdir"":1,""num_randdir_good_moves"":1,""num_whilered"":0,""num_whileblue"":0,""num_blue"":0,""num_good_moves"":4}","[553.588198033857,543.7318883109499,0.1,553.588198033857,543.7318883109499,109.8,567.8881983438012,537.1318881678988,213.8,584.388198701429,521.7318878341127,314,588.7881987967965,523.9318878817965,420.4,930.8882062116143,938.6318968701769,524.4,1048.588208762693,998.0318981576372,629.3,1052.9882088580605,1000.2318982053209,734.5,1043.0882086434838,1000.2318982053209,839.4,1058.4882089772698,976.0318976808001,939.5,1684.388222543287,720.831892149489,1039.7,1862.588226405668,654.8318907189775,1144.3,1862.588226405668,654.8318907189775,1249.1,1862.588226405668,654.8318907189775,1354,1864.7882264533516,653.7318906951357,1454.3,1864.7882264533516,653.7318906951357,1559.1,1864.7882264533516,653.7318906951357,1659.8,1864.7882264533516,653.7318906951357,1764.6,1864.7882264533516,653.7318906951357,1869.5,1864.7882264533516,653.7318906951357,1974.4,1864.7882264533516,653.7318906951357,2076.8,1864.7882264533516,653.7318906951357,2179.2,1864.7882264533516,653.7318906951357,2279.8,1864.7882264533516,653.7318906951357,2383.7,1864.7882264533516,653.7318906951357,2484.1,1864.7882264533516,653.7318906951357,2589.8,1864.7882264533516,653.7318906951357,2694.6,1864.7882264533516,653.7318906951357,2794.6,1864.7882264533516,653.7318906951357,2899,1864.7882264533516,653.7318906951357,2999.1,1864.7882264533516,653.7318906951357,3104.9,1864.7882264533516,653.7318906951357,3204.9,1864.7882264533516,653.7318906951357,3308.8,1864.7882264533516,653.7318906951357,3408.9,1864.7882264533516,653.7318906951357,3514.7,1864.7882264533516,653.7318906951357,3620,1864.7882264533516,653.7318906951357,3724.2,1864.7882264533516,653.7318906951357,3824.3,1864.7882264533516,653.7318906951357,3929.3,1864.7882264533516,653.7318906951357,4033.3,1864.7882264533516,653.7318906951357,4134.9,1864.7882264533516,653.7318906951357,4239.7,1864.7882264533516,653.7318906951357,4340.2,1864.7882264533516,653.7318906951357,4440.3,1864.7882264533516,653.7318906951357,4544.1,1864.7882264533516,653.7318906951357,4649.8,1864.7882264533516,653.7318906951357,4754.9,1864.7882264533516,653.7318906951357,4859,1864.7882264533516,653.7318906951357,4959.5]","[1494.8,1494.8,1000,0,494.8,""oops"",""down"",""down"",""good_move"",4067.4,2572.3,2192.7,1495.1,379.6,""smooth"",""right"",""right"",""good_move"",6937.8,2870.2,2511.6,4067.7,358.5,""smooth"",""right"",""right"",""good_move"",9341.7,2403.9,2038.6,6937.9,365.3,""smooth"",""down"",""down"",""good_move""]","",""
"2973","","<div style=""width:500px;"">
  <p>What determined the result of this run?</p>
  </div>","17","html-slider-response","30","239678","0.0-5.0-1.4","187","1","2025-07-23 07:53:11","1f75c3e559b7213887762d5229550c2b","188.146.154.183","Mozilla/5.0 (Windows NT 10.0; Win64; x64) AppleWebKit/537.36 (KHTML, like Gecko) Chrome/138.0.0.0 Safari/537.36","WebKit","Chrome","138.0.0.0","Windows","10.0","https://app.prolific.com/","pl-PL,pl;q=0.9,en-US;q=0.8,en;q=0.7","66a16e0b41e98cb469f12b0b","683dba2a8a9dda3513610c04","688094e2987cfa0441fc16f1","3","0","66a16e0b41e98cb469f12b0b","3","0","2025-07-23T07:57:12.854Z","","","","","","","","","","","AttribQ","","50","","","","","","","","","","","","","","","","","","","","","","","","","","","","",""
"1579","","<div style=""width:500px;"">
  <p>How much control did you have over the ball?</p>
  </div>","19","html-slider-response","31","241257","0.0-5.0-2.4","187","1","2025-07-23 07:53:11","1f75c3e559b7213887762d5229550c2b","188.146.154.183","Mozilla/5.0 (Windows NT 10.0; Win64; x64) AppleWebKit/537.36 (KHTML, like Gecko) Chrome/138.0.0.0 Safari/537.36","WebKit","Chrome","138.0.0.0","Windows","10.0","https://app.prolific.com/","pl-PL,pl;q=0.9,en-US;q=0.8,en;q=0.7","66a16e0b41e98cb469f12b0b","683dba2a8a9dda3513610c04","688094e2987cfa0441fc16f1","3","0","66a16e0b41e98cb469f12b0b","3","0","2025-07-23T07:57:14.433Z","","","","","","","","","","","ControlQ","","50","","","","","","","","","","","","","","","","","","","","","","","","","","","","",""
"1707","","<div style=""width:500px;"">
  <p>How would you describe your current emotional state?</p>
  </div>","83","html-slider-response","32","242965","0.0-5.0-3.4","187","1","2025-07-23 07:53:11","1f75c3e559b7213887762d5229550c2b","188.146.154.183","Mozilla/5.0 (Windows NT 10.0; Win64; x64) AppleWebKit/537.36 (KHTML, like Gecko) Chrome/138.0.0.0 Safari/537.36","WebKit","Chrome","138.0.0.0","Windows","10.0","https://app.prolific.com/","pl-PL,pl;q=0.9,en-US;q=0.8,en;q=0.7","66a16e0b41e98cb469f12b0b","683dba2a8a9dda3513610c04","688094e2987cfa0441fc16f1","3","0","66a16e0b41e98cb469f12b0b","3","0","2025-07-23T07:57:16.141Z","","","","","","","","","","","StressQ","","50","","","","","","","","","","","","","","","","","","","","","","","","","","","","",""
"1825","","<div style=""width:500px;"">
  <p>What best describes how you currently feel?</p>
  </div>","18","html-slider-response","33","244790","0.0-5.0-4.4","187","1","2025-07-23 07:53:11","1f75c3e559b7213887762d5229550c2b","188.146.154.183","Mozilla/5.0 (Windows NT 10.0; Win64; x64) AppleWebKit/537.36 (KHTML, like Gecko) Chrome/138.0.0.0 Safari/537.36","WebKit","Chrome","138.0.0.0","Windows","10.0","https://app.prolific.com/","pl-PL,pl;q=0.9,en-US;q=0.8,en;q=0.7","66a16e0b41e98cb469f12b0b","683dba2a8a9dda3513610c04","688094e2987cfa0441fc16f1","3","0","66a16e0b41e98cb469f12b0b","3","0","2025-07-23T07:57:17.966Z","","","","","","","","","","","MotivationQ","","50","","","","","","","","","","","","","","","","","","","","","","","","","","","","",""
"","","","","ctl-task-cpt","34","285589","0.0-5.0-0.5","187","1","2025-07-23 07:53:11","1f75c3e559b7213887762d5229550c2b","188.146.154.183","Mozilla/5.0 (Windows NT 10.0; Win64; x64) AppleWebKit/537.36 (KHTML, like Gecko) Chrome/138.0.0.0 Safari/537.36","WebKit","Chrome","138.0.0.0","Windows","10.0","https://app.prolific.com/","pl-PL,pl;q=0.9,en-US;q=0.8,en;q=0.7","66a16e0b41e98cb469f12b0b","683dba2a8a9dda3513610c04","688094e2987cfa0441fc16f1","3","0","66a16e0b41e98cb469f12b0b","3","0","2025-07-23T07:57:58.766Z","","","","","","","","","","","","","","win-only","0","g1:NW,g2:SE","0.5","6","0","246118.4","878.6","5881.7","37781.2","1","4","4","6","1","-1","-2","3","5","0.022727272727272728","699","3000","-2825","[""left"",""up""]","{""num_key_presses"":10,""num_perfect"":5,""num_errors"":1,""num_randdir"":4,""num_randdir_good_moves"":1,""num_whilered"":0,""num_whileblue"":1,""num_blue"":2,""num_good_moves"":6}","[556.8881981053826,554.7318885493685,0.2,556.8881981053826,554.7318885493685,101.9,556.8881981053826,554.7318885493685,204.1,556.8881981053826,554.7318885493685,307.6,318.1881929316994,358.93188430551777,408.7,210.38819059519736,212.6318811345507,511.8,139.98818906931845,127.93187929872764,614.1,120.18818864016501,114.73187901262534,718,168.58818968920676,133.43187941793693,822.2,648.1882000842568,242.33188177828086,922.7,1072.788209287214,276.4318825173784,1028.5,1494.0882184186455,335.83188380483875,1129.3,1899.988227216291,382.0318848061968,1231.6,1899.988227216291,382.0318848061968,1332.1,1535.888219324636,454.6318863797594,1437,1521.588219014692,455.73188640360127,1537.5,1521.588219014692,455.73188640360127,1643.4,1521.588219014692,455.73188640360127,1746.8,1520.48821899085,455.73188640360127,1853,1520.48821899085,455.73188640360127,1953.3,1520.48821899085,455.73188640360127,2058.2,1520.48821899085,455.73188640360127,2161,1520.48821899085,455.73188640360127,2262.4,1520.48821899085,455.73188640360127,2362.7,1520.48821899085,455.73188640360127,2467.6,1520.48821899085,455.73188640360127,2572,1520.48821899085,455.73188640360127,2675.2,1520.48821899085,455.73188640360127,2777.8,1520.48821899085,455.73188640360127,2882.5,1520.48821899085,455.73188640360127,2982.6,1520.48821899085,455.73188640360127,3083,1520.48821899085,455.73188640360127,3186.9,1520.48821899085,455.73188640360127,3288.1,1520.48821899085,455.73188640360127,3392.1,1520.48821899085,455.73188640360127,3492.5,1520.48821899085,455.73188640360127,3597,1520.48821899085,455.73188640360127,3699.2,1520.48821899085,455.73188640360127,3802.4,1520.48821899085,455.73188640360127,3907.4,1520.48821899085,455.73188640360127,4008,1520.48821899085,455.73188640360127,4112,1520.48821899085,455.73188640360127,4213.7,1520.48821899085,455.73188640360127,4316.7,1520.48821899085,455.73188640360127,4422.3,1520.48821899085,455.73188640360127,4523.1,1520.48821899085,455.73188640360127,4627.6,1520.48821899085,455.73188640360127,4732.3,1520.48821899085,455.73188640360127,4832.7,1520.48821899085,455.73188640360127,4932.8]","[1376.5,1376.5,1000,0,376.5,""smooth"",""up"",""up"",""good_move"",3651.6,2274.8,1932.5,1376.9,342.3,""smooth"",""up"",""up"",""good_move"",9810.8,6159,1904.2,7562.6,344,""smooth"",""left"",""left"",""good_move"",12208.9,2397.9,2030.9,9811,367,""oops"",""left"",""right"",""bad_move"",14304.7,2095.6,1782.4,12209.1,313.2,""oops"",""left"",""down"",""bad_move"",16737.5,2432.5,2104.1,14305,328.4,""smooth"",""left"",""left"",""good_move"",19467.5,2729.9,2432.9,16737.7,296.9,""oops"",""up"",""up"",""good_move"",22867.6,3399.9,3117.1,19467.7,282.8,""while_blue"",""left"",""right"",""bad_move"",26390,3522.1,3161,22867.9,361.1,""oops"",""left"",""down"",""bad_move"",29308.1,2917.8,2528.4,26390.3,389.4,""smooth"",""left"",""left"",""good_move""]","",""
"2378","","<div style=""width:500px;"">
  <p>What determined the result of this run?</p>
  </div>","13","html-slider-response","35","287968","0.0-5.0-1.5","187","1","2025-07-23 07:53:11","1f75c3e559b7213887762d5229550c2b","188.146.154.183","Mozilla/5.0 (Windows NT 10.0; Win64; x64) AppleWebKit/537.36 (KHTML, like Gecko) Chrome/138.0.0.0 Safari/537.36","WebKit","Chrome","138.0.0.0","Windows","10.0","https://app.prolific.com/","pl-PL,pl;q=0.9,en-US;q=0.8,en;q=0.7","66a16e0b41e98cb469f12b0b","683dba2a8a9dda3513610c04","688094e2987cfa0441fc16f1","3","0","66a16e0b41e98cb469f12b0b","3","0","2025-07-23T07:58:01.144Z","","","","","","","","","","","AttribQ","","50","","","","","","","","","","","","","","","","","","","","","","","","","","","","",""
"1568","","<div style=""width:500px;"">
  <p>How much control did you have over the ball?</p>
  </div>","24","html-slider-response","36","289537","0.0-5.0-2.5","187","1","2025-07-23 07:53:11","1f75c3e559b7213887762d5229550c2b","188.146.154.183","Mozilla/5.0 (Windows NT 10.0; Win64; x64) AppleWebKit/537.36 (KHTML, like Gecko) Chrome/138.0.0.0 Safari/537.36","WebKit","Chrome","138.0.0.0","Windows","10.0","https://app.prolific.com/","pl-PL,pl;q=0.9,en-US;q=0.8,en;q=0.7","66a16e0b41e98cb469f12b0b","683dba2a8a9dda3513610c04","688094e2987cfa0441fc16f1","3","0","66a16e0b41e98cb469f12b0b","3","0","2025-07-23T07:58:02.713Z","","","","","","","","","","","ControlQ","","50","","","","","","","","","","","","","","","","","","","","","","","","","","","","",""
"3315","","<div style=""width:500px;"">
  <p>How would you describe your current emotional state?</p>
  </div>","83","html-slider-response","37","292853","0.0-5.0-3.5","187","1","2025-07-23 07:53:11","1f75c3e559b7213887762d5229550c2b","188.146.154.183","Mozilla/5.0 (Windows NT 10.0; Win64; x64) AppleWebKit/537.36 (KHTML, like Gecko) Chrome/138.0.0.0 Safari/537.36","WebKit","Chrome","138.0.0.0","Windows","10.0","https://app.prolific.com/","pl-PL,pl;q=0.9,en-US;q=0.8,en;q=0.7","66a16e0b41e98cb469f12b0b","683dba2a8a9dda3513610c04","688094e2987cfa0441fc16f1","3","0","66a16e0b41e98cb469f12b0b","3","0","2025-07-23T07:58:06.029Z","","","","","","","","","","","StressQ","","50","","","","","","","","","","","","","","","","","","","","","","","","","","","","",""
"1772","","<div style=""width:500px;"">
  <p>What best describes how you currently feel?</p>
  </div>","32","html-slider-response","38","294626","0.0-5.0-4.5","187","1","2025-07-23 07:53:11","1f75c3e559b7213887762d5229550c2b","188.146.154.183","Mozilla/5.0 (Windows NT 10.0; Win64; x64) AppleWebKit/537.36 (KHTML, like Gecko) Chrome/138.0.0.0 Safari/537.36","WebKit","Chrome","138.0.0.0","Windows","10.0","https://app.prolific.com/","pl-PL,pl;q=0.9,en-US;q=0.8,en;q=0.7","66a16e0b41e98cb469f12b0b","683dba2a8a9dda3513610c04","688094e2987cfa0441fc16f1","3","0","66a16e0b41e98cb469f12b0b","3","0","2025-07-23T07:58:07.802Z","","","","","","","","","","","MotivationQ","","50","","","","","","","","","","","","","","","","","","","","","","","","","","","","",""
"","","","","ctl-task-cpt","39","326163","0.0-5.0-0.6","187","1","2025-07-23 07:53:11","1f75c3e559b7213887762d5229550c2b","188.146.154.183","Mozilla/5.0 (Windows NT 10.0; Win64; x64) AppleWebKit/537.36 (KHTML, like Gecko) Chrome/138.0.0.0 Safari/537.36","WebKit","Chrome","138.0.0.0","Windows","10.0","https://app.prolific.com/","pl-PL,pl;q=0.9,en-US;q=0.8,en;q=0.7","66a16e0b41e98cb469f12b0b","683dba2a8a9dda3513610c04","688094e2987cfa0441fc16f1","3","0","66a16e0b41e98cb469f12b0b","3","0","2025-07-23T07:58:39.339Z","","","","","","","","","","","","","","win-only","1","g1:NE,g2:SW","0.4","7","0","295954","831.2","5832.3","28518.1","1","4","4","6","2","-4","-4","0","3","0","995.2","3000","-2890","[""down"",""left""]","{""num_key_presses"":8,""num_perfect"":4,""num_errors"":0,""num_randdir"":4,""num_randdir_good_moves"":2,""num_whilered"":0,""num_whileblue"":0,""num_blue"":0,""num_good_moves"":6}","[559.0881981530663,553.6318885255266,0.1,559.0881981530663,553.6318885255266,101.2,559.0881981530663,553.6318885255266,206.5,559.0881981530663,553.6318885255266,308.3,516.1881972232338,628.431890146773,413.8,434.78819545893634,690.031891481917,518.4,325.8881930985924,765.9318931270052,620.6,141.0881890931603,950.7318971324373,726.3,119.08818861632315,972.7318976092745,830.8,105.88818833022086,988.1318979430605,932.5,105.88818833022086,988.1318979430605,1035.1,433.6881954350945,879.2318955827166,1139.4,1359.8882155099388,653.7318906951357,1241.6,1390.6882161775109,640.5318904090334,1341.9,1390.6882161775109,640.5318904090334,1446.5,1177.2882115521904,770.3318932223726,1549.2,1178.3882115760323,770.3318932223726,1650.8,1178.3882115760323,770.3318932223726,1751.1,1177.2882115521904,770.3318932223726,1851.5,1177.2882115521904,770.3318932223726,1958.9,1177.2882115521904,770.3318932223726,2061,1177.2882115521904,770.3318932223726,2161.7,1177.2882115521904,770.3318932223726,2263.6,1177.2882115521904,770.3318932223726,2367.5,1177.2882115521904,770.3318932223726,2471.2,1177.2882115521904,770.3318932223726,2576.1,1177.2882115521904,770.3318932223726,2676.6,1177.2882115521904,770.3318932223726,2781.1,1177.2882115521904,770.3318932223726,2881.3,1177.2882115521904,770.3318932223726,2984.8,1177.2882115521904,770.3318932223726,3084.8,1177.2882115521904,770.3318932223726,3186,1177.2882115521904,770.3318932223726,3289.6,1177.2882115521904,770.3318932223726,3390.3,1177.2882115521904,770.3318932223726,3491.7,1177.2882115521904,770.3318932223726,3596.9,1177.2882115521904,770.3318932223726,3700.2,1177.2882115521904,770.3318932223726,3802.8,1177.2882115521904,770.3318932223726,3906,1177.2882115521904,770.3318932223726,4010.9,1177.2882115521904,770.3318932223726,4111.2,1177.2882115521904,770.3318932223726,4215.6,1177.2882115521904,770.3318932223726,4316.6,1177.2882115521904,770.3318932223726,4417.1,1177.2882115521904,770.3318932223726,4519.5,1177.2882115521904,770.3318932223726,4621.1,1177.2882115521904,770.3318932223726,4726.6,1177.2882115521904,770.3318932223726,4831.2,1177.2882115521904,770.3318932223726,4935.4]","[1367.9,1367.9,1000,0,367.9,""smooth"",""down"",""down"",""good_move"",4250.9,2882.8,2544.8,1368.1,338,""smooth"",""left"",""left"",""good_move"",6271.9,2020.7,1683.3,4251.3,337.4,""smooth"",""left"",""left"",""good_move"",8902.4,2630.3,2301,6272.1,329.3,""oops"",""left"",""left"",""good_move"",11481.4,2578.9,2218.6,8902.5,360.3,""oops"",""down"",""down"",""good_move"",14019.3,2537.6,2176.1,11481.7,361.5,""oops"",""down"",""right"",""bad_move"",16949.9,2930.4,2570.5,14019.5,359.9,""oops"",""down"",""up"",""bad_move"",19647.6,2697.4,2368.4,16950.2,329,""smooth"",""left"",""left"",""good_move""]","",""
"14767","","<div style=""width:500px;"">
  <p>What determined the result of this run?</p>
  </div>","20","html-slider-response","40","340931","0.0-5.0-1.6","187","1","2025-07-23 07:53:11","1f75c3e559b7213887762d5229550c2b","188.146.154.183","Mozilla/5.0 (Windows NT 10.0; Win64; x64) AppleWebKit/537.36 (KHTML, like Gecko) Chrome/138.0.0.0 Safari/537.36","WebKit","Chrome","138.0.0.0","Windows","10.0","https://app.prolific.com/","pl-PL,pl;q=0.9,en-US;q=0.8,en;q=0.7","66a16e0b41e98cb469f12b0b","683dba2a8a9dda3513610c04","688094e2987cfa0441fc16f1","3","0","66a16e0b41e98cb469f12b0b","3","0","2025-07-23T07:58:54.107Z","","","","","","","","","","","AttribQ","","50","","","","","","","","","","","","","","","","","","","","","","","","","","","","",""
"1851","","<div style=""width:500px;"">
  <p>How much control did you have over the ball?</p>
  </div>","17","html-slider-response","41","342782","0.0-5.0-2.6","187","1","2025-07-23 07:53:11","1f75c3e559b7213887762d5229550c2b","188.146.154.183","Mozilla/5.0 (Windows NT 10.0; Win64; x64) AppleWebKit/537.36 (KHTML, like Gecko) Chrome/138.0.0.0 Safari/537.36","WebKit","Chrome","138.0.0.0","Windows","10.0","https://app.prolific.com/","pl-PL,pl;q=0.9,en-US;q=0.8,en;q=0.7","66a16e0b41e98cb469f12b0b","683dba2a8a9dda3513610c04","688094e2987cfa0441fc16f1","3","0","66a16e0b41e98cb469f12b0b","3","0","2025-07-23T07:58:55.958Z","","","","","","","","","","","ControlQ","","50","","","","","","","","","","","","","","","","","","","","","","","","","","","","",""
"2819","","<div style=""width:500px;"">
  <p>How would you describe your current emotional state?</p>
  </div>","95","html-slider-response","42","345602","0.0-5.0-3.6","187","1","2025-07-23 07:53:11","1f75c3e559b7213887762d5229550c2b","188.146.154.183","Mozilla/5.0 (Windows NT 10.0; Win64; x64) AppleWebKit/537.36 (KHTML, like Gecko) Chrome/138.0.0.0 Safari/537.36","WebKit","Chrome","138.0.0.0","Windows","10.0","https://app.prolific.com/","pl-PL,pl;q=0.9,en-US;q=0.8,en;q=0.7","66a16e0b41e98cb469f12b0b","683dba2a8a9dda3513610c04","688094e2987cfa0441fc16f1","3","0","66a16e0b41e98cb469f12b0b","3","0","2025-07-23T07:58:58.778Z","","","","","","","","","","","StressQ","","50","","","","","","","","","","","","","","","","","","","","","","","","","","","","",""
"3395","","<div style=""width:500px;"">
  <p>What best describes how you currently feel?</p>
  </div>","20","html-slider-response","43","348998","0.0-5.0-4.6","187","1","2025-07-23 07:53:11","1f75c3e559b7213887762d5229550c2b","188.146.154.183","Mozilla/5.0 (Windows NT 10.0; Win64; x64) AppleWebKit/537.36 (KHTML, like Gecko) Chrome/138.0.0.0 Safari/537.36","WebKit","Chrome","138.0.0.0","Windows","10.0","https://app.prolific.com/","pl-PL,pl;q=0.9,en-US;q=0.8,en;q=0.7","66a16e0b41e98cb469f12b0b","683dba2a8a9dda3513610c04","688094e2987cfa0441fc16f1","3","0","66a16e0b41e98cb469f12b0b","3","0","2025-07-23T07:59:02.174Z","","","","","","","","","","","MotivationQ","","50","","","","","","","","","","","","","","","","","","","","","","","","","","","","",""
"","","","","ctl-task-cpt","44","388476","0.0-5.0-0.7","187","1","2025-07-23 07:53:11","1f75c3e559b7213887762d5229550c2b","188.146.154.183","Mozilla/5.0 (Windows NT 10.0; Win64; x64) AppleWebKit/537.36 (KHTML, like Gecko) Chrome/138.0.0.0 Safari/537.36","WebKit","Chrome","138.0.0.0","Windows","10.0","https://app.prolific.com/","pl-PL,pl;q=0.9,en-US;q=0.8,en;q=0.7","66a16e0b41e98cb469f12b0b","683dba2a8a9dda3513610c04","688094e2987cfa0441fc16f1","3","0","66a16e0b41e98cb469f12b0b","3","0","2025-07-23T07:59:41.652Z","","","","","","","","","","","","","","win-only","0","g1:NW,g2:SE","0.3","8","0","350326.3","1156.7","6158.1","36457.4","1","4","8","6","2","-8","-8","0","0","0","1176.1","3000","-2890","[""down"",""right""]","{""num_key_presses"":8,""num_perfect"":3,""num_errors"":0,""num_randdir"":5,""num_randdir_good_moves"":1,""num_whilered"":0,""num_whileblue"":0,""num_blue"":2,""num_good_moves"":4}","[561.28819820075,556.9318885970522,0.1,561.28819820075,556.9318885970522,100.4,573.3881984630104,545.9318883586336,203.2,607.488199202108,525.0318879056383,308.9,684.4882008710381,683.4318913388659,410,784.5882030406472,825.3318944144655,515.9,950.6882066407677,924.3318965602327,617.9,1034.288208452749,970.5318975615908,720.2,980.3882072844979,956.2318972516466,823.1,980.3882072844979,955.1318972278048,923.9,996.8882076421257,972.7318976092745,1027.1,997.9882076659676,973.8318976331163,1129.9,997.9882076659676,973.8318976331163,1237.1,1001.2882077374932,972.7318976092745,1341.6,1964.8882286229607,839.6318947244097,1445.1,2007.7882295527932,795.6318937707354,1545.1,2007.7882295527932,795.6318937707354,1647,2007.7882295527932,795.6318937707354,1752.9,2008.888229576635,795.6318937707354,1856.8,2008.888229576635,795.6318937707354,1960.8,2008.888229576635,795.6318937707354,2061.4,2008.888229576635,795.6318937707354,2162,2008.888229576635,795.6318937707354,2265.2,2008.888229576635,795.6318937707354,2367.8,2008.888229576635,795.6318937707354,2472.4,2008.888229576635,795.6318937707354,2575.7,2008.888229576635,795.6318937707354,2680.4,2008.888229576635,795.6318937707354,2780.5,2008.888229576635,795.6318937707354,2880.6,2008.888229576635,795.6318937707354,2981.7,2008.888229576635,795.6318937707354,3082.4,2008.888229576635,795.6318937707354,3186.8,2008.888229576635,795.6318937707354,3292.2,2008.888229576635,795.6318937707354,3393.8,2008.888229576635,795.6318937707354,3497.8,2008.888229576635,795.6318937707354,3600,2008.888229576635,795.6318937707354,3701.2,2008.888229576635,795.6318937707354,3806.3,2008.888229576635,795.6318937707354,3907,2008.888229576635,795.6318937707354,4007.4,2008.888229576635,795.6318937707354,4108,2008.888229576635,795.6318937707354,4210.8,2008.888229576635,795.6318937707354,4312.2,2008.888229576635,795.6318937707354,4412.2,2008.888229576635,795.6318937707354,4515.2,2008.888229576635,795.6318937707354,4619.9,2008.888229576635,795.6318937707354,4722.4,2008.888229576635,795.6318937707354,4825.8,2008.888229576635,795.6318937707354,4928.3]","[1388.9,1388.9,1000,0,388.9,""oops"",""down"",""right"",""good_move"",4302.6,2913.5,2605.9,1389.1,307.6,""smooth"",""down"",""down"",""good_move"",7245.9,2943,2592.2,4303,350.8,""smooth"",""down"",""down"",""good_move"",16900.2,9654.1,2660.9,13804.3,435,""oops"",""down"",""left"",""bad_move"",20388.7,3488.3,2932.8,16900.4,555.5,""oops"",""down"",""up"",""bad_move"",22467.5,2078.4,1647.3,20389.1,431.1,""smooth"",""right"",""right"",""good_move"",24546.1,2078.4,1756.4,22467.7,322,""oops"",""right"",""up"",""bad_move"",27276.1,2729.9,2406.5,24546.2,323.4,""oops"",""right"",""left"",""bad_move""]","",""
"112447","","<div style=""width:500px;"">
  <p>What determined the result of this run?</p>
  </div>","11","html-slider-response","45","500924","0.0-5.0-1.7","187","1","2025-07-23 07:53:11","1f75c3e559b7213887762d5229550c2b","188.146.154.183","Mozilla/5.0 (Windows NT 10.0; Win64; x64) AppleWebKit/537.36 (KHTML, like Gecko) Chrome/138.0.0.0 Safari/537.36","WebKit","Chrome","138.0.0.0","Windows","10.0","https://app.prolific.com/","pl-PL,pl;q=0.9,en-US;q=0.8,en;q=0.7","66a16e0b41e98cb469f12b0b","683dba2a8a9dda3513610c04","688094e2987cfa0441fc16f1","3","0","66a16e0b41e98cb469f12b0b","3","0","2025-07-23T08:01:34.100Z","","","","","","","","","","","AttribQ","","50","","","","","","","","","","","","","","","","","","","","","","","","","","","","",""
"2404","","<div style=""width:500px;"">
  <p>How much control did you have over the ball?</p>
  </div>","19","html-slider-response","46","503329","0.0-5.0-2.7","187","1","2025-07-23 07:53:11","1f75c3e559b7213887762d5229550c2b","188.146.154.183","Mozilla/5.0 (Windows NT 10.0; Win64; x64) AppleWebKit/537.36 (KHTML, like Gecko) Chrome/138.0.0.0 Safari/537.36","WebKit","Chrome","138.0.0.0","Windows","10.0","https://app.prolific.com/","pl-PL,pl;q=0.9,en-US;q=0.8,en;q=0.7","66a16e0b41e98cb469f12b0b","683dba2a8a9dda3513610c04","688094e2987cfa0441fc16f1","3","0","66a16e0b41e98cb469f12b0b","3","0","2025-07-23T08:01:36.505Z","","","","","","","","","","","ControlQ","","50","","","","","","","","","","","","","","","","","","","","","","","","","","","","",""
"4360","","<div style=""width:500px;"">
  <p>How would you describe your current emotional state?</p>
  </div>","86","html-slider-response","47","507689","0.0-5.0-3.7","187","1","2025-07-23 07:53:11","1f75c3e559b7213887762d5229550c2b","188.146.154.183","Mozilla/5.0 (Windows NT 10.0; Win64; x64) AppleWebKit/537.36 (KHTML, like Gecko) Chrome/138.0.0.0 Safari/537.36","WebKit","Chrome","138.0.0.0","Windows","10.0","https://app.prolific.com/","pl-PL,pl;q=0.9,en-US;q=0.8,en;q=0.7","66a16e0b41e98cb469f12b0b","683dba2a8a9dda3513610c04","688094e2987cfa0441fc16f1","3","0","66a16e0b41e98cb469f12b0b","3","0","2025-07-23T08:01:40.866Z","","","","","","","","","","","StressQ","","50","","","","","","","","","","","","","","","","","","","","","","","","","","","","",""
"1458","","<div style=""width:500px;"">
  <p>What best describes how you currently feel?</p>
  </div>","8","html-slider-response","48","509148","0.0-5.0-4.7","187","1","2025-07-23 07:53:11","1f75c3e559b7213887762d5229550c2b","188.146.154.183","Mozilla/5.0 (Windows NT 10.0; Win64; x64) AppleWebKit/537.36 (KHTML, like Gecko) Chrome/138.0.0.0 Safari/537.36","WebKit","Chrome","138.0.0.0","Windows","10.0","https://app.prolific.com/","pl-PL,pl;q=0.9,en-US;q=0.8,en;q=0.7","66a16e0b41e98cb469f12b0b","683dba2a8a9dda3513610c04","688094e2987cfa0441fc16f1","3","0","66a16e0b41e98cb469f12b0b","3","0","2025-07-23T08:01:42.324Z","","","","","","","","","","","MotivationQ","","50","","","","","","","","","","","","","","","","","","","","","","","","","","","","",""
"","","","","ctl-task-cpt","49","545266","0.0-5.0-0.8","187","1","2025-07-23 07:53:11","1f75c3e559b7213887762d5229550c2b","188.146.154.183","Mozilla/5.0 (Windows NT 10.0; Win64; x64) AppleWebKit/537.36 (KHTML, like Gecko) Chrome/138.0.0.0 Safari/537.36","WebKit","Chrome","138.0.0.0","Windows","10.0","https://app.prolific.com/","pl-PL,pl;q=0.9,en-US;q=0.8,en;q=0.7","66a16e0b41e98cb469f12b0b","683dba2a8a9dda3513610c04","688094e2987cfa0441fc16f1","3","0","66a16e0b41e98cb469f12b0b","3","0","2025-07-23T08:02:18.442Z","","","","","","","","","","","","","","win-only","1","g1:NE,g2:SW","0.2","9","0","510476.6","980.3","5982.9","33096.3","1","4","4","6","2","4","4","4","0","0.030303030303030304","904.1","3000","1075","[""down"",""left""]","{""num_key_presses"":6,""num_perfect"":1,""num_errors"":0,""num_randdir"":5,""num_randdir_good_moves"":5,""num_whilered"":0,""num_whileblue"":0,""num_blue"":3,""num_good_moves"":6}","[557.9881981292244,570.1318888831545,0.1,557.9881981292244,570.1318888831545,104.2,550.2881979623314,558.031888620894,207.9,392.98819455294574,660.3318908381868,309.6,287.3881922641274,817.6318942475725,411.4,204.88819047598807,913.3318963218142,517.3,116.88818856863944,996.9318981337954,624.1,115.78818854479758,996.9318981337954,729.4,115.78818854479758,996.9318981337954,834.1,115.78818854479758,996.9318981337954,934.6,115.78818854479758,996.9318981337954,1040.9,16.788186399030366,936.4318968224932,1142.4,-65.71181538910898,873.7318954635073,1244.5,-66.81181541295084,874.8318954873491,1344.8,-66.81181541295084,874.8318954873491,1446.4,-66.81181541295084,874.8318954873491,1547.8,-66.81181541295084,874.8318954873491,1649.3,-66.81181541295084,874.8318954873491,1754.5,-66.81181541295084,874.8318954873491,1855.2,-66.81181541295084,874.8318954873491,1960,-66.81181541295084,874.8318954873491,2060.3,-66.81181541295084,874.8318954873491,2164,-66.81181541295084,874.8318954873491,2267.5,-66.81181541295084,874.8318954873491,2371.9,-66.81181541295084,874.8318954873491,2476.4,-66.81181541295084,874.8318954873491,2578.4,-66.81181541295084,874.8318954873491,2679.6,-66.81181541295084,874.8318954873491,2781.4,-66.81181541295084,874.8318954873491,2885,-66.81181541295084,874.8318954873491,2990,-66.81181541295084,874.8318954873491,3094.6,-66.81181541295084,874.8318954873491,3195.3,-66.81181541295084,874.8318954873491,3299.5,-66.81181541295084,874.8318954873491,3404.1,-66.81181541295084,874.8318954873491,3508.5,-66.81181541295084,874.8318954873491,3610.3,-66.81181541295084,874.8318954873491,3711.9,-66.81181541295084,874.8318954873491,3817.4,-66.81181541295084,874.8318954873491,3917.6,-66.81181541295084,874.8318954873491,4020,-66.81181541295084,874.8318954873491,4123.2,-66.81181541295084,874.8318954873491,4228.5,-66.81181541295084,874.8318954873491,4329.9,-66.81181541295084,874.8318954873491,4434.8,-66.81181541295084,874.8318954873491,4537.5,-66.81181541295084,874.8318954873491,4641.9,-66.81181541295084,874.8318954873491,4743.6,-66.81181541295084,874.8318954873491,4848.3,-66.81181541295084,874.8318954873491,4948.6]","[5021.4,5021.4,2655.9,2006.2,359.3,""oops"",""down"",""left"",""good_move"",7634.2,2612.5,2218.5,5021.7,394,""oops"",""down"",""down"",""good_move"",11365.5,3731,3333.2,7634.5,397.8,""oops"",""down"",""left"",""good_move"",17640.5,6274.8,2078.8,15077.3,484.4,""oops"",""down"",""down"",""good_move"",21039,3398.3,2992,17640.7,406.3,""oops"",""left"",""down"",""good_move"",26973.7,5934.5,2450.8,24115.2,407.7,""smooth"",""left"",""left"",""good_move""]","",""
"3496","","<div style=""width:500px;"">
  <p>What determined the result of this run?</p>
  </div>","10","html-slider-response","50","548762","0.0-5.0-1.8","187","1","2025-07-23 07:53:11","1f75c3e559b7213887762d5229550c2b","188.146.154.183","Mozilla/5.0 (Windows NT 10.0; Win64; x64) AppleWebKit/537.36 (KHTML, like Gecko) Chrome/138.0.0.0 Safari/537.36","WebKit","Chrome","138.0.0.0","Windows","10.0","https://app.prolific.com/","pl-PL,pl;q=0.9,en-US;q=0.8,en;q=0.7","66a16e0b41e98cb469f12b0b","683dba2a8a9dda3513610c04","688094e2987cfa0441fc16f1","3","0","66a16e0b41e98cb469f12b0b","3","0","2025-07-23T08:02:21.938Z","","","","","","","","","","","AttribQ","","50","","","","","","","","","","","","","","","","","","","","","","","","","","","","",""
"1663","","<div style=""width:500px;"">
  <p>How much control did you have over the ball?</p>
  </div>","11","html-slider-response","51","550426","0.0-5.0-2.8","187","1","2025-07-23 07:53:11","1f75c3e559b7213887762d5229550c2b","188.146.154.183","Mozilla/5.0 (Windows NT 10.0; Win64; x64) AppleWebKit/537.36 (KHTML, like Gecko) Chrome/138.0.0.0 Safari/537.36","WebKit","Chrome","138.0.0.0","Windows","10.0","https://app.prolific.com/","pl-PL,pl;q=0.9,en-US;q=0.8,en;q=0.7","66a16e0b41e98cb469f12b0b","683dba2a8a9dda3513610c04","688094e2987cfa0441fc16f1","3","0","66a16e0b41e98cb469f12b0b","3","0","2025-07-23T08:02:23.602Z","","","","","","","","","","","ControlQ","","50","","","","","","","","","","","","","","","","","","","","","","","","","","","","",""
"1650","","<div style=""width:500px;"">
  <p>How would you describe your current emotional state?</p>
  </div>","84","html-slider-response","52","552076","0.0-5.0-3.8","187","1","2025-07-23 07:53:11","1f75c3e559b7213887762d5229550c2b","188.146.154.183","Mozilla/5.0 (Windows NT 10.0; Win64; x64) AppleWebKit/537.36 (KHTML, like Gecko) Chrome/138.0.0.0 Safari/537.36","WebKit","Chrome","138.0.0.0","Windows","10.0","https://app.prolific.com/","pl-PL,pl;q=0.9,en-US;q=0.8,en;q=0.7","66a16e0b41e98cb469f12b0b","683dba2a8a9dda3513610c04","688094e2987cfa0441fc16f1","3","0","66a16e0b41e98cb469f12b0b","3","0","2025-07-23T08:02:25.252Z","","","","","","","","","","","StressQ","","50","","","","","","","","","","","","","","","","","","","","","","","","","","","","",""
"1745","","<div style=""width:500px;"">
  <p>What best describes how you currently feel?</p>
  </div>","12","html-slider-response","53","553822","0.0-5.0-4.8","187","1","2025-07-23 07:53:11","1f75c3e559b7213887762d5229550c2b","188.146.154.183","Mozilla/5.0 (Windows NT 10.0; Win64; x64) AppleWebKit/537.36 (KHTML, like Gecko) Chrome/138.0.0.0 Safari/537.36","WebKit","Chrome","138.0.0.0","Windows","10.0","https://app.prolific.com/","pl-PL,pl;q=0.9,en-US;q=0.8,en;q=0.7","66a16e0b41e98cb469f12b0b","683dba2a8a9dda3513610c04","688094e2987cfa0441fc16f1","3","0","66a16e0b41e98cb469f12b0b","3","0","2025-07-23T08:02:26.998Z","","","","","","","","","","","MotivationQ","","50","","","","","","","","","","","","","","","","","","","","","","","","","","","","",""
"","","","","ctl-task-cpt","54","606928","0.0-5.0-0.9","187","1","2025-07-23 07:53:11","1f75c3e559b7213887762d5229550c2b","188.146.154.183","Mozilla/5.0 (Windows NT 10.0; Win64; x64) AppleWebKit/537.36 (KHTML, like Gecko) Chrome/138.0.0.0 Safari/537.36","WebKit","Chrome","138.0.0.0","Windows","10.0","https://app.prolific.com/","pl-PL,pl;q=0.9,en-US;q=0.8,en;q=0.7","66a16e0b41e98cb469f12b0b","683dba2a8a9dda3513610c04","688094e2987cfa0441fc16f1","3","0","66a16e0b41e98cb469f12b0b","3","0","2025-07-23T08:03:20.104Z","","","","","","","","","","","","","","win-only","1","g1:NE,g2:SW","0.4","10","0","555149.9","848.2","5853.4","50078.7","1","4","8","6","2","8","8","12","4","0.09090909090909091","737.2","3000","25","[""down"",""left""]","{""num_key_presses"":12,""num_perfect"":5,""num_errors"":0,""num_randdir"":7,""num_randdir_good_moves"":4,""num_whilered"":0,""num_whileblue"":0,""num_blue"":3,""num_good_moves"":9}","[545.888197866964,570.1318888831545,0.2,545.888197866964,570.1318888831545,100,545.888197866964,570.1318888831545,200.7,116.88818856863944,782.4318934846331,301.4,-118.51181653351816,945.231897013228,406.4,-89.91181591362985,977.1318977046419,507.2,13.488186327504792,1039.8318990636278,608.2,78.38818773417441,1026.6318987775255,709.4,78.38818773417441,1026.6318987775255,812.3,-20.611814411592803,979.3318977523256,913.4,-208.7118184885505,930.9318967032839,1014,-209.81181851239236,930.9318967032839,1115,-210.91181853623422,932.0318967271257,1219.3,-210.91181853623422,932.0318967271257,1323.5,-210.91181853623422,932.0318967271257,1429.7,-210.91181853623422,932.0318967271257,1531,-210.91181853623422,932.0318967271257,1635.3,-210.91181853623422,932.0318967271257,1739.4,-210.91181853623422,932.0318967271257,1843.2,-210.91181853623422,932.0318967271257,1943.7,-210.91181853623422,932.0318967271257,2049.8,-210.91181853623422,932.0318967271257,2152.1,-210.91181853623422,932.0318967271257,2256.1,-210.91181853623422,932.0318967271257,2357.9,-210.91181853623422,932.0318967271257,2463.2,-210.91181853623422,932.0318967271257,2566.5,-210.91181853623422,932.0318967271257,2670.4,-210.91181853623422,932.0318967271257,2771.1,-210.91181853623422,932.0318967271257,2877.8,-210.91181853623422,932.0318967271257,2979.9,-210.91181853623422,932.0318967271257,3086.5,-210.91181853623422,932.0318967271257,3188,-210.91181853623422,932.0318967271257,3292.5,-210.91181853623422,932.0318967271257,3398.1,-210.91181853623422,932.0318967271257,3502.5,-210.91181853623422,932.0318967271257,3602.7,-210.91181853623422,932.0318967271257,3707.6,-210.91181853623422,932.0318967271257,3813.3,-210.91181853623422,932.0318967271257,3916.8,-210.91181853623422,932.0318967271257,4021.6,-210.91181853623422,932.0318967271257,4126.7,-210.91181853623422,932.0318967271257,4229,-210.91181853623422,932.0318967271257,4331,-210.91181853623422,932.0318967271257,4431.4,-210.91181853623422,932.0318967271257,4533.7,-210.91181853623422,932.0318967271257,4636.5,-210.91181853623422,932.0318967271257,4740.7,-210.91181853623422,932.0318967271257,4846.4,-210.91181853623422,932.0318967271257,4948.8]","[1427.1,1427.1,1000,0,427.2,""oops"",""down"",""up"",""bad_move"",4135.2,2707.8,2381.2,1427.5,326.5,""smooth"",""left"",""left"",""good_move"",15036.7,10901.4,3110.7,11316.2,609.8,""oops"",""left"",""left"",""good_move"",17631.2,2594.4,2249.2,15036.9,345.1,""oops"",""left"",""left"",""good_move"",20821.2,3189.8,2861.9,17631.4,327.9,""smooth"",""down"",""down"",""good_move"",23650,2828.6,2497.1,20821.4,331.5,""oops"",""down"",""right"",""bad_move"",26614.5,2964.3,2642.1,23650.2,322.2,""oops"",""down"",""down"",""good_move"",29072.9,2458.3,2091.6,26614.6,366.7,""smooth"",""down"",""down"",""good_move"",31963.2,2890.1,2578.7,29073.1,311.4,""smooth"",""left"",""left"",""good_move"",38453.2,6489.8,2261.4,35860,331.8,""oops"",""down"",""up"",""bad_move"",41598.4,3145,2868,38453.4,277,""oops"",""down"",""down"",""good_move"",44030.8,2432.1,2147.8,41598.7,284.3,""smooth"",""down"",""down"",""good_move""]","",""
"206072","","<div style=""width:500px;"">
  <p>What determined the result of this run?</p>
  </div>","11","html-slider-response","55","813001","0.0-5.0-1.9","187","1","2025-07-23 07:53:11","1f75c3e559b7213887762d5229550c2b","188.146.154.183","Mozilla/5.0 (Windows NT 10.0; Win64; x64) AppleWebKit/537.36 (KHTML, like Gecko) Chrome/138.0.0.0 Safari/537.36","WebKit","Chrome","138.0.0.0","Windows","10.0","https://app.prolific.com/","pl-PL,pl;q=0.9,en-US;q=0.8,en;q=0.7","66a16e0b41e98cb469f12b0b","683dba2a8a9dda3513610c04","688094e2987cfa0441fc16f1","3","0","66a16e0b41e98cb469f12b0b","3","0","2025-07-23T08:06:46.177Z","","","","","","","","","","","AttribQ","","50","","","","","","","","","","","","","","","","","","","","","","","","","","","","",""
"1838","","<div style=""width:500px;"">
  <p>How much control did you have over the ball?</p>
  </div>","10","html-slider-response","56","814840","0.0-5.0-2.9","187","1","2025-07-23 07:53:11","1f75c3e559b7213887762d5229550c2b","188.146.154.183","Mozilla/5.0 (Windows NT 10.0; Win64; x64) AppleWebKit/537.36 (KHTML, like Gecko) Chrome/138.0.0.0 Safari/537.36","WebKit","Chrome","138.0.0.0","Windows","10.0","https://app.prolific.com/","pl-PL,pl;q=0.9,en-US;q=0.8,en;q=0.7","66a16e0b41e98cb469f12b0b","683dba2a8a9dda3513610c04","688094e2987cfa0441fc16f1","3","0","66a16e0b41e98cb469f12b0b","3","0","2025-07-23T08:06:48.016Z","","","","","","","","","","","ControlQ","","50","","","","","","","","","","","","","","","","","","","","","","","","","","","","",""
"1748","","<div style=""width:500px;"">
  <p>How would you describe your current emotional state?</p>
  </div>","13","html-slider-response","57","816589","0.0-5.0-3.9","187","1","2025-07-23 07:53:11","1f75c3e559b7213887762d5229550c2b","188.146.154.183","Mozilla/5.0 (Windows NT 10.0; Win64; x64) AppleWebKit/537.36 (KHTML, like Gecko) Chrome/138.0.0.0 Safari/537.36","WebKit","Chrome","138.0.0.0","Windows","10.0","https://app.prolific.com/","pl-PL,pl;q=0.9,en-US;q=0.8,en;q=0.7","66a16e0b41e98cb469f12b0b","683dba2a8a9dda3513610c04","688094e2987cfa0441fc16f1","3","0","66a16e0b41e98cb469f12b0b","3","0","2025-07-23T08:06:49.765Z","","","","","","","","","","","StressQ","","50","","","","","","","","","","","","","","","","","","","","","","","","","","","","",""
"1320","","<div style=""width:500px;"">
  <p>What best describes how you currently feel?</p>
  </div>","14","html-slider-response","58","817910","0.0-5.0-4.9","187","1","2025-07-23 07:53:11","1f75c3e559b7213887762d5229550c2b","188.146.154.183","Mozilla/5.0 (Windows NT 10.0; Win64; x64) AppleWebKit/537.36 (KHTML, like Gecko) Chrome/138.0.0.0 Safari/537.36","WebKit","Chrome","138.0.0.0","Windows","10.0","https://app.prolific.com/","pl-PL,pl;q=0.9,en-US;q=0.8,en;q=0.7","66a16e0b41e98cb469f12b0b","683dba2a8a9dda3513610c04","688094e2987cfa0441fc16f1","3","0","66a16e0b41e98cb469f12b0b","3","0","2025-07-23T08:06:51.086Z","","","","","","","","","","","MotivationQ","","50","","","","","","","","","","","","","","","","","","","","","","","","","","","","",""
"","","","","ctl-task-cpt","59","867202","0.0-5.0-0.10","187","1","2025-07-23 07:53:11","1f75c3e559b7213887762d5229550c2b","188.146.154.183","Mozilla/5.0 (Windows NT 10.0; Win64; x64) AppleWebKit/537.36 (KHTML, like Gecko) Chrome/138.0.0.0 Safari/537.36","WebKit","Chrome","138.0.0.0","Windows","10.0","https://app.prolific.com/","pl-PL,pl;q=0.9,en-US;q=0.8,en;q=0.7","66a16e0b41e98cb469f12b0b","683dba2a8a9dda3513610c04","688094e2987cfa0441fc16f1","3","0","66a16e0b41e98cb469f12b0b","3","0","2025-07-23T08:07:40.378Z","","","","","","","","","","","","","","win-only","1","g1:NE,g2:SW","0.5","11","0","819238.7","814.5","5819.8","46271.4","1","4","4","6","2","4","4","16","12","0.12121212121212122","780","3000","1150","[""down"",""left""]","{""num_key_presses"":8,""num_perfect"":4,""num_errors"":0,""num_randdir"":4,""num_randdir_good_moves"":3,""num_whilered"":0,""num_whileblue"":0,""num_blue"":5,""num_good_moves"":7}","[553.588198033857,560.2318886685778,0.1,553.588198033857,560.2318886685778,100.5,553.588198033857,560.2318886685778,203.3,534.8881976285454,569.0318888593126,306.2,242.28819128661124,894.6318959165026,411.8,65.18818744807211,1084.931900041144,517.8,62.9881874003884,1087.1319000888277,622.4,100.38818821101157,1049.7318992782045,731.3,101.48818823485342,1046.431899206679,837.1,-41.5118148645881,974.9318976569582,942.4,-624.5118275007728,762.6318930554796,1050.5,-656.4118281921867,670.2318910527636,1155.2,-656.4118281921867,670.2318910527636,1255.4,-656.4118281921867,670.2318910527636,1364.2,-656.4118281921867,670.2318910527636,1465.5,-656.4118281921867,670.2318910527636,1572.2,-656.4118281921867,670.2318910527636,1676.3,-656.4118281921867,670.2318910527636,1780.8,-656.4118281921867,670.2318910527636,1881.6,-656.4118281921867,670.2318910527636,1984.9,-656.4118281921867,670.2318910527636,2088.3,-656.4118281921867,670.2318910527636,2192,-656.4118281921867,670.2318910527636,2298.4,-656.4118281921867,670.2318910527636,2405.6,-656.4118281921867,670.2318910527636,2512.7,-656.4118281921867,670.2318910527636,2620.1,-656.4118281921867,670.2318910527636,2724.3,-656.4118281921867,670.2318910527636,2827.7,-656.4118281921867,670.2318910527636,2929,-656.4118281921867,670.2318910527636,3032,-656.4118281921867,670.2318910527636,3137.5,-656.4118281921867,670.2318910527636,3242.9,-656.4118281921867,670.2318910527636,3347.9,-656.4118281921867,670.2318910527636,3449.5,-656.4118281921867,670.2318910527636,3556.1,-656.4118281921867,670.2318910527636,3657.8,-656.4118281921867,670.2318910527636,3763.4,-656.4118281921867,670.2318910527636,3867.1,-656.4118281921867,670.2318910527636,3973,-656.4118281921867,670.2318910527636,4077.9,-656.4118281921867,670.2318910527636,4181.5,-656.4118281921867,670.2318910527636,4284.3,-656.4118281921867,670.2318910527636,4389.8,-656.4118281921867,670.2318910527636,4495.1,-656.4118281921867,670.2318910527636,4598.3,-656.4118281921867,670.2318910527636,4705.5,-656.4118281921867,670.2318910527636,4807.6,-656.4118281921867,670.2318910527636,4914]","[1402,1402,1000,0,402,""smooth"",""down"",""down"",""good_move"",7858.1,6455.9,2232.9,5208.8,416.4,""smooth"",""left"",""left"",""good_move"",11525.6,3667.3,3271.8,7858.4,395.4,""oops"",""left"",""left"",""good_move"",21044.9,9519.1,2614.5,18088.1,342.3,""oops"",""left"",""up"",""bad_move"",27708.4,6663.3,2920.1,24410.5,377.8,""smooth"",""left"",""left"",""good_move"",30513.3,2804.7,2408.5,27708.6,396.2,""oops"",""down"",""down"",""good_move"",34011.7,3498.2,3159.4,30513.5,338.8,""oops"",""down"",""down"",""good_move"",40305.9,6293.8,2032.8,37902,371.1,""smooth"",""down"",""down"",""good_move""]","",""
"12842","","<div style=""width:500px;"">
  <p>What determined the result of this run?</p>
  </div>","8","html-slider-response","60","880045","0.0-5.0-1.10","187","1","2025-07-23 07:53:11","1f75c3e559b7213887762d5229550c2b","188.146.154.183","Mozilla/5.0 (Windows NT 10.0; Win64; x64) AppleWebKit/537.36 (KHTML, like Gecko) Chrome/138.0.0.0 Safari/537.36","WebKit","Chrome","138.0.0.0","Windows","10.0","https://app.prolific.com/","pl-PL,pl;q=0.9,en-US;q=0.8,en;q=0.7","66a16e0b41e98cb469f12b0b","683dba2a8a9dda3513610c04","688094e2987cfa0441fc16f1","3","0","66a16e0b41e98cb469f12b0b","3","0","2025-07-23T08:07:53.221Z","","","","","","","","","","","AttribQ","","50","","","","","","","","","","","","","","","","","","","","","","","","","","","","",""
"2669","","<div style=""width:500px;"">
  <p>How much control did you have over the ball?</p>
  </div>","10","html-slider-response","61","882714","0.0-5.0-2.10","187","1","2025-07-23 07:53:11","1f75c3e559b7213887762d5229550c2b","188.146.154.183","Mozilla/5.0 (Windows NT 10.0; Win64; x64) AppleWebKit/537.36 (KHTML, like Gecko) Chrome/138.0.0.0 Safari/537.36","WebKit","Chrome","138.0.0.0","Windows","10.0","https://app.prolific.com/","pl-PL,pl;q=0.9,en-US;q=0.8,en;q=0.7","66a16e0b41e98cb469f12b0b","683dba2a8a9dda3513610c04","688094e2987cfa0441fc16f1","3","0","66a16e0b41e98cb469f12b0b","3","0","2025-07-23T08:07:55.890Z","","","","","","","","","","","ControlQ","","50","","","","","","","","","","","","","","","","","","","","","","","","","","","","",""
"12856","","<div style=""width:500px;"">
  <p>How would you describe your current emotional state?</p>
  </div>","83","html-slider-response","62","895571","0.0-5.0-3.10","187","1","2025-07-23 07:53:11","1f75c3e559b7213887762d5229550c2b","188.146.154.183","Mozilla/5.0 (Windows NT 10.0; Win64; x64) AppleWebKit/537.36 (KHTML, like Gecko) Chrome/138.0.0.0 Safari/537.36","WebKit","Chrome","138.0.0.0","Windows","10.0","https://app.prolific.com/","pl-PL,pl;q=0.9,en-US;q=0.8,en;q=0.7","66a16e0b41e98cb469f12b0b","683dba2a8a9dda3513610c04","688094e2987cfa0441fc16f1","3","0","66a16e0b41e98cb469f12b0b","3","0","2025-07-23T08:08:08.747Z","","","","","","","","","","","StressQ","","50","","","","","","","","","","","","","","","","","","","","","","","","","","","","",""
"13668","","<div style=""width:500px;"">
  <p>What best describes how you currently feel?</p>
  </div>","11","html-slider-response","63","909240","0.0-5.0-4.10","187","1","2025-07-23 07:53:11","1f75c3e559b7213887762d5229550c2b","188.146.154.183","Mozilla/5.0 (Windows NT 10.0; Win64; x64) AppleWebKit/537.36 (KHTML, like Gecko) Chrome/138.0.0.0 Safari/537.36","WebKit","Chrome","138.0.0.0","Windows","10.0","https://app.prolific.com/","pl-PL,pl;q=0.9,en-US;q=0.8,en;q=0.7","66a16e0b41e98cb469f12b0b","683dba2a8a9dda3513610c04","688094e2987cfa0441fc16f1","3","0","66a16e0b41e98cb469f12b0b","3","0","2025-07-23T08:08:22.416Z","","","","","","","","","","","MotivationQ","","50","","","","","","","","","","","","","","","","","","","","","","","","","","","","",""
"","","","","ctl-task-cpt","64","963975","0.0-5.0-0.11","187","1","2025-07-23 07:53:11","1f75c3e559b7213887762d5229550c2b","188.146.154.183","Mozilla/5.0 (Windows NT 10.0; Win64; x64) AppleWebKit/537.36 (KHTML, like Gecko) Chrome/138.0.0.0 Safari/537.36","WebKit","Chrome","138.0.0.0","Windows","10.0","https://app.prolific.com/","pl-PL,pl;q=0.9,en-US;q=0.8,en;q=0.7","66a16e0b41e98cb469f12b0b","683dba2a8a9dda3513610c04","688094e2987cfa0441fc16f1","3","0","66a16e0b41e98cb469f12b0b","3","0","2025-07-23T08:09:17.151Z","","","","","","","","","","","","","","win-only","1","g1:NE,g2:SW","0.6","12","0","910568.3","757.3","5758.7","51710.2","1","4","8","6","2","8","8","24","16","0.18181818181818182","797.7","3000","575","[""down"",""left""]","{""num_key_presses"":12,""num_perfect"":8,""num_errors"":0,""num_randdir"":4,""num_randdir_good_moves"":1,""num_whilered"":0,""num_whileblue"":0,""num_blue"":3,""num_good_moves"":9}","[562.3881982245919,544.8318883347918,0.2,562.3881982245919,544.8318883347918,110.8,562.3881982245919,544.8318883347918,211.3,511.7881971278664,560.2318886685778,314.5,253.28819152502982,795.6318937707354,418.8,91.5881880202767,906.731896178763,520.9,86.08818790106741,929.831896679442,625.9,113.58818849711386,1039.8318990636278,733.7,113.58818849711386,1044.2318991589952,834.1,101.48818823485342,1026.6318987775255,940.7,-43.71181491227182,883.631895678084,1045.1,-47.01181498379739,882.5318956542421,1151.5,-47.01181498379739,882.5318956542421,1260.2,-47.01181498379739,882.5318956542421,1363.4,-47.01181498379739,882.5318956542421,1469.4,-47.01181498379739,882.5318956542421,1575.9,-47.01181498379739,882.5318956542421,1682.9,-47.01181498379739,882.5318956542421,1790.4,-47.01181498379739,882.5318956542421,1892.1,-47.01181498379739,882.5318956542421,2001.8,-47.01181498379739,882.5318956542421,2111.1,-47.01181498379739,882.5318956542421,2214.8,-47.01181498379739,882.5318956542421,2323.2,-47.01181498379739,882.5318956542421,2425.2,-47.01181498379739,882.5318956542421,2529.8,-47.01181498379739,882.5318956542421,2635.5,-47.01181498379739,882.5318956542421,2742.2,-47.01181498379739,882.5318956542421,2842.7,-47.01181498379739,882.5318956542421,2945.9,-47.01181498379739,882.5318956542421,3053.7,-47.01181498379739,882.5318956542421,3156.4,-47.01181498379739,882.5318956542421,3256.6,-47.01181498379739,882.5318956542421,3363.8,-47.01181498379739,882.5318956542421,3464.9,-47.01181498379739,882.5318956542421,3572.4,-47.01181498379739,882.5318956542421,3673.4,-47.01181498379739,882.5318956542421,3774,-47.01181498379739,882.5318956542421,3878.1,-47.01181498379739,882.5318956542421,3982.6,-47.01181498379739,882.5318956542421,4086.3,-47.01181498379739,882.5318956542421,4190.7,-47.01181498379739,882.5318956542421,4293.6,-47.01181498379739,882.5318956542421,4393.9,-47.01181498379739,882.5318956542421,4502,-47.01181498379739,882.5318956542421,4607.9,-47.01181498379739,882.5318956542421,4708.3,-47.01181498379739,882.5318956542421,4814.6,-47.01181498379739,882.5318956542421,4919.3]","[1341.4,1341.4,1000,0,341.4,""smooth"",""left"",""left"",""good_move"",4525,3183.4,2881,1341.6,302.4,""oops"",""left"",""up"",""bad_move"",8202.8,3677.5,3359.1,4525.3,318.4,""oops"",""left"",""left"",""good_move"",11095.9,2893,2554.2,8202.9,338.8,""smooth"",""left"",""left"",""good_move"",13942.4,2846.4,2513,11096,333.4,""smooth"",""down"",""down"",""good_move"",21489.9,7547.1,3167,18016.7,306.2,""oops"",""down"",""up"",""bad_move"",24211.8,2721.7,2329.6,21490.1,392.1,""smooth"",""down"",""down"",""good_move"",26736.2,2524.1,2184.8,24212.1,339.3,""smooth"",""down"",""down"",""good_move"",33130.4,6394,2224.7,30515.6,390.1,""oops"",""down"",""right"",""bad_move"",36225.9,3095.4,2749.2,33130.5,346.2,""smooth"",""down"",""down"",""good_move"",39090.1,2864,2529.3,36226.1,334.7,""smooth"",""left"",""left"",""good_move"",45805.5,6715,2509.4,42973.9,322.2,""smooth"",""down"",""down"",""good_move""]","",""
"2581","","<div style=""width:500px;"">
  <p>What determined the result of this run?</p>
  </div>","14","html-slider-response","65","966556","0.0-5.0-1.11","187","1","2025-07-23 07:53:11","1f75c3e559b7213887762d5229550c2b","188.146.154.183","Mozilla/5.0 (Windows NT 10.0; Win64; x64) AppleWebKit/537.36 (KHTML, like Gecko) Chrome/138.0.0.0 Safari/537.36","WebKit","Chrome","138.0.0.0","Windows","10.0","https://app.prolific.com/","pl-PL,pl;q=0.9,en-US;q=0.8,en;q=0.7","66a16e0b41e98cb469f12b0b","683dba2a8a9dda3513610c04","688094e2987cfa0441fc16f1","3","0","66a16e0b41e98cb469f12b0b","3","0","2025-07-23T08:09:19.732Z","","","","","","","","","","","AttribQ","","50","","","","","","","","","","","","","","","","","","","","","","","","","","","","",""
"2080","","<div style=""width:500px;"">
  <p>How much control did you have over the ball?</p>
  </div>","14","html-slider-response","66","968637","0.0-5.0-2.11","187","1","2025-07-23 07:53:11","1f75c3e559b7213887762d5229550c2b","188.146.154.183","Mozilla/5.0 (Windows NT 10.0; Win64; x64) AppleWebKit/537.36 (KHTML, like Gecko) Chrome/138.0.0.0 Safari/537.36","WebKit","Chrome","138.0.0.0","Windows","10.0","https://app.prolific.com/","pl-PL,pl;q=0.9,en-US;q=0.8,en;q=0.7","66a16e0b41e98cb469f12b0b","683dba2a8a9dda3513610c04","688094e2987cfa0441fc16f1","3","0","66a16e0b41e98cb469f12b0b","3","0","2025-07-23T08:09:21.813Z","","","","","","","","","","","ControlQ","","50","","","","","","","","","","","","","","","","","","","","","","","","","","","","",""
"1856","","<div style=""width:500px;"">
  <p>How would you describe your current emotional state?</p>
  </div>","86","html-slider-response","67","970494","0.0-5.0-3.11","187","1","2025-07-23 07:53:11","1f75c3e559b7213887762d5229550c2b","188.146.154.183","Mozilla/5.0 (Windows NT 10.0; Win64; x64) AppleWebKit/537.36 (KHTML, like Gecko) Chrome/138.0.0.0 Safari/537.36","WebKit","Chrome","138.0.0.0","Windows","10.0","https://app.prolific.com/","pl-PL,pl;q=0.9,en-US;q=0.8,en;q=0.7","66a16e0b41e98cb469f12b0b","683dba2a8a9dda3513610c04","688094e2987cfa0441fc16f1","3","0","66a16e0b41e98cb469f12b0b","3","0","2025-07-23T08:09:23.670Z","","","","","","","","","","","StressQ","","50","","","","","","","","","","","","","","","","","","","","","","","","","","","","",""
"1581","","<div style=""width:500px;"">
  <p>What best describes how you currently feel?</p>
  </div>","10","html-slider-response","68","972076","0.0-5.0-4.11","187","1","2025-07-23 07:53:11","1f75c3e559b7213887762d5229550c2b","188.146.154.183","Mozilla/5.0 (Windows NT 10.0; Win64; x64) AppleWebKit/537.36 (KHTML, like Gecko) Chrome/138.0.0.0 Safari/537.36","WebKit","Chrome","138.0.0.0","Windows","10.0","https://app.prolific.com/","pl-PL,pl;q=0.9,en-US;q=0.8,en;q=0.7","66a16e0b41e98cb469f12b0b","683dba2a8a9dda3513610c04","688094e2987cfa0441fc16f1","3","0","66a16e0b41e98cb469f12b0b","3","0","2025-07-23T08:09:25.252Z","","","","","","","","","","","MotivationQ","","50","","","","","","","","","","","","","","","","","","","","","","","","","","","","",""
"","","","","ctl-task-cpt","69","1014144","0.0-5.0-0.12","187","1","2025-07-23 07:53:11","1f75c3e559b7213887762d5229550c2b","188.146.154.183","Mozilla/5.0 (Windows NT 10.0; Win64; x64) AppleWebKit/537.36 (KHTML, like Gecko) Chrome/138.0.0.0 Safari/537.36","WebKit","Chrome","138.0.0.0","Windows","10.0","https://app.prolific.com/","pl-PL,pl;q=0.9,en-US;q=0.8,en;q=0.7","66a16e0b41e98cb469f12b0b","683dba2a8a9dda3513610c04","688094e2987cfa0441fc16f1","3","0","66a16e0b41e98cb469f12b0b","3","0","2025-07-23T08:10:07.321Z","","","","","","","","","","","","","","win-only","1","g1:NE,g2:SW","0.7","13","0","973403.8","1209.3","6218.9","39053.2","1","4","4","6","2","4","4","28","24","0.21212121212121213","716","3000","1520","[""down"",""left""]","{""num_key_presses"":8,""num_perfect"":5,""num_errors"":0,""num_randdir"":3,""num_randdir_good_moves"":2,""num_whilered"":0,""num_whileblue"":0,""num_blue"":3,""num_good_moves"":7}","[540.3881977477547,560.2318886685778,0.1,540.3881977477547,560.2318886685778,104.4,540.3881977477547,560.2318886685778,210.1,540.3881977477547,560.2318886685778,312.7,268.6881918588158,828.6318944859911,416.9,87.18818792490927,998.0318981576372,524.9,73.98818763880698,998.0318981576372,625.6,72.88818761496512,998.0318981576372,734,-8.511814149332366,999.1318981814791,842.7,-546.4118258080009,923.2318965363909,947.3,-546.4118258080009,922.131896512549,1055.7,-547.5118258318428,922.131896512549,1165.2,-548.6118258556846,922.131896512549,1268.9,-548.6118258556846,922.131896512549,1373.1,-548.6118258556846,922.131896512549,1482.4,-548.6118258556846,922.131896512549,1585.2,-548.6118258556846,922.131896512549,1687.7,-548.6118258556846,922.131896512549,1791,-548.6118258556846,922.131896512549,1899.5,-548.6118258556846,922.131896512549,2001.3,-548.6118258556846,922.131896512549,2110.6,-548.6118258556846,922.131896512549,2216.6,-548.6118258556846,922.131896512549,2326.9,-548.6118258556846,922.131896512549,2435.6,-548.6118258556846,922.131896512549,2545.6,-548.6118258556846,922.131896512549,2649.2,-548.6118258556846,922.131896512549,2757.4,-548.6118258556846,922.131896512549,2867,-548.6118258556846,922.131896512549,2968.8,-548.6118258556846,922.131896512549,3069.2,-548.6118258556846,922.131896512549,3178.8,-548.6118258556846,922.131896512549,3285.8,-548.6118258556846,922.131896512549,3387.9,-548.6118258556846,922.131896512549,3492,-548.6118258556846,922.131896512549,3594.1,-548.6118258556846,922.131896512549,3694.6,-548.6118258556846,922.131896512549,3797.7,-548.6118258556846,922.131896512549,3897.7,-548.6118258556846,922.131896512549,4003.3,-548.6118258556846,922.131896512549,4110.3,-548.6118258556846,922.131896512549,4212.2,-548.6118258556846,922.131896512549,4313.5,-548.6118258556846,922.131896512549,4420,-548.6118258556846,922.131896512549,4527.1,-548.6118258556846,922.131896512549,4634.3,-548.6118258556846,922.131896512549,4738.5,-548.6118258556846,922.131896512549,4847.4,-548.6118258556846,922.131896512549,4954.7]","[1402.8,1402.8,1000,0,402.8,""oops"",""left"",""left"",""good_move"",4900.2,3497.1,3140.6,1403.1,356.5,""smooth"",""left"",""left"",""good_move"",7741.4,2841,2526,4900.4,315,""smooth"",""left"",""left"",""good_move"",10686.5,2945,2636.7,7741.5,308.3,""oops"",""down"",""right"",""bad_move"",16834.1,6147.4,2364.4,14159.5,310.2,""smooth"",""down"",""down"",""good_move"",19775.2,2941,2620.6,16834.2,320.4,""smooth"",""down"",""down"",""good_move"",29911.3,10136,3020.2,26513.3,377.8,""smooth"",""left"",""left"",""good_move"",32663.7,2752.1,2392.8,29911.6,359.3,""oops"",""down"",""down"",""good_move""]","",""
"2209","","<div style=""width:500px;"">
  <p>What determined the result of this run?</p>
  </div>","14","html-slider-response","70","1016354","0.0-5.0-1.12","187","1","2025-07-23 07:53:11","1f75c3e559b7213887762d5229550c2b","188.146.154.183","Mozilla/5.0 (Windows NT 10.0; Win64; x64) AppleWebKit/537.36 (KHTML, like Gecko) Chrome/138.0.0.0 Safari/537.36","WebKit","Chrome","138.0.0.0","Windows","10.0","https://app.prolific.com/","pl-PL,pl;q=0.9,en-US;q=0.8,en;q=0.7","66a16e0b41e98cb469f12b0b","683dba2a8a9dda3513610c04","688094e2987cfa0441fc16f1","3","0","66a16e0b41e98cb469f12b0b","3","0","2025-07-23T08:10:09.530Z","","","","","","","","","","","AttribQ","","50","","","","","","","","","","","","","","","","","","","","","","","","","","","","",""
"2961","","<div style=""width:500px;"">
  <p>How much control did you have over the ball?</p>
  </div>","16","html-slider-response","71","1019316","0.0-5.0-2.12","187","1","2025-07-23 07:53:11","1f75c3e559b7213887762d5229550c2b","188.146.154.183","Mozilla/5.0 (Windows NT 10.0; Win64; x64) AppleWebKit/537.36 (KHTML, like Gecko) Chrome/138.0.0.0 Safari/537.36","WebKit","Chrome","138.0.0.0","Windows","10.0","https://app.prolific.com/","pl-PL,pl;q=0.9,en-US;q=0.8,en;q=0.7","66a16e0b41e98cb469f12b0b","683dba2a8a9dda3513610c04","688094e2987cfa0441fc16f1","3","0","66a16e0b41e98cb469f12b0b","3","0","2025-07-23T08:10:12.492Z","","","","","","","","","","","ControlQ","","50","","","","","","","","","","","","","","","","","","","","","","","","","","","","",""
"2073","","<div style=""width:500px;"">
  <p>How would you describe your current emotional state?</p>
  </div>","84","html-slider-response","72","1021390","0.0-5.0-3.12","187","1","2025-07-23 07:53:11","1f75c3e559b7213887762d5229550c2b","188.146.154.183","Mozilla/5.0 (Windows NT 10.0; Win64; x64) AppleWebKit/537.36 (KHTML, like Gecko) Chrome/138.0.0.0 Safari/537.36","WebKit","Chrome","138.0.0.0","Windows","10.0","https://app.prolific.com/","pl-PL,pl;q=0.9,en-US;q=0.8,en;q=0.7","66a16e0b41e98cb469f12b0b","683dba2a8a9dda3513610c04","688094e2987cfa0441fc16f1","3","0","66a16e0b41e98cb469f12b0b","3","0","2025-07-23T08:10:14.566Z","","","","","","","","","","","StressQ","","50","","","","","","","","","","","","","","","","","","","","","","","","","","","","",""
"3441","","<div style=""width:500px;"">
  <p>What best describes how you currently feel?</p>
  </div>","19","html-slider-response","73","1024832","0.0-5.0-4.12","187","1","2025-07-23 07:53:11","1f75c3e559b7213887762d5229550c2b","188.146.154.183","Mozilla/5.0 (Windows NT 10.0; Win64; x64) AppleWebKit/537.36 (KHTML, like Gecko) Chrome/138.0.0.0 Safari/537.36","WebKit","Chrome","138.0.0.0","Windows","10.0","https://app.prolific.com/","pl-PL,pl;q=0.9,en-US;q=0.8,en;q=0.7","66a16e0b41e98cb469f12b0b","683dba2a8a9dda3513610c04","688094e2987cfa0441fc16f1","3","0","66a16e0b41e98cb469f12b0b","3","0","2025-07-23T08:10:18.008Z","","","","","","","","","","","MotivationQ","","50","","","","","","","","","","","","","","","","","","","","","","","","","","","","",""
"","","","","ctl-task-cpt","74","1065097","0.0-5.0-0.13","187","1","2025-07-23 07:53:11","1f75c3e559b7213887762d5229550c2b","188.146.154.183","Mozilla/5.0 (Windows NT 10.0; Win64; x64) AppleWebKit/537.36 (KHTML, like Gecko) Chrome/138.0.0.0 Safari/537.36","WebKit","Chrome","138.0.0.0","Windows","10.0","https://app.prolific.com/","pl-PL,pl;q=0.9,en-US;q=0.8,en;q=0.7","66a16e0b41e98cb469f12b0b","683dba2a8a9dda3513610c04","688094e2987cfa0441fc16f1","3","0","66a16e0b41e98cb469f12b0b","3","0","2025-07-23T08:10:58.273Z","","","","","","","","","","","","","","win-only","0","g1:NW,g2:SE","0.8","14","0","1026160.7","1242.7","6251.7","37233.3","1","4","8","6","2","8","7","35","28","0.26515151515151514","900.8","3000","1720","[""down"",""right""]","{""num_key_presses"":8,""num_perfect"":5,""num_errors"":1,""num_randdir"":2,""num_randdir_good_moves"":1,""num_whilered"":0,""num_whileblue"":1,""num_blue"":4,""num_good_moves"":7}","[551.3881979861733,544.8318883347918,0.1,551.3881979861733,544.8318883347918,100.7,539.2881977239128,552.5318885016848,203.7,285.18819221644367,708.7318918872286,307.8,355.5881937423226,721.9318921733309,415.4,882.4882051625725,882.5318956542421,525.2,1153.0882110276696,1065.1318996119905,632.1,1113.4882101693627,1065.1318996119905,739.8,1043.0882086434838,1038.731899039786,842.8,1029.8882083573815,1033.2318989205767,953.7,1028.7882083335396,1033.2318989205767,1062.6,1028.7882083335396,1033.2318989205767,1163.1,1026.588208285856,1036.5318989921022,1268.9,1026.588208285856,1036.5318989921022,1376.6,1026.588208285856,1036.5318989921022,1484.3,1026.588208285856,1036.5318989921022,1586.3,1026.588208285856,1036.5318989921022,1691.2,1026.588208285856,1036.5318989921022,1794.1,1026.588208285856,1036.5318989921022,1895.3,1026.588208285856,1036.5318989921022,2003.2,1026.588208285856,1036.5318989921022,2106,1026.588208285856,1036.5318989921022,2214.5,1026.588208285856,1036.5318989921022,2319.5,1026.588208285856,1036.5318989921022,2422.9,1026.588208285856,1036.5318989921022,2527.7,1026.588208285856,1036.5318989921022,2630.3,1026.588208285856,1036.5318989921022,2731.6,1026.588208285856,1036.5318989921022,2832.2,1026.588208285856,1036.5318989921022,2938.1,1026.588208285856,1036.5318989921022,3044.3,1026.588208285856,1036.5318989921022,3148,1026.588208285856,1036.5318989921022,3252.7,1026.588208285856,1036.5318989921022,3354.9,1026.588208285856,1036.5318989921022,3456.8,1026.588208285856,1036.5318989921022,3564.3,1026.588208285856,1036.5318989921022,3670.3,1026.588208285856,1036.5318989921022,3776.2,1026.588208285856,1036.5318989921022,3883.5,1026.588208285856,1036.5318989921022,3987.3,1026.588208285856,1036.5318989921022,4087.6,1026.588208285856,1036.5318989921022,4194.7,1026.588208285856,1036.5318989921022,4301.2,1026.588208285856,1036.5318989921022,4406.4,1026.588208285856,1036.5318989921022,4515,1026.588208285856,1036.5318989921022,4617.1,1026.588208285856,1036.5318989921022,4719.7,1026.588208285856,1036.5318989921022,4826.7,1026.588208285856,1036.5318989921022,4933.6]","[1309.5,1309.5,1000,0,309.5,""oops"",""down"",""left"",""bad_move"",4149.8,2840,2487.8,1309.8,352.2,""smooth"",""down"",""down"",""good_move"",14374.1,10224,2018.1,11944.1,411.9,""smooth"",""down"",""down"",""good_move"",17010.3,2635.9,2238.2,14374.4,397.7,""smooth"",""down"",""down"",""good_move"",19148,2137.6,1760,17010.5,377.5,""smooth"",""right"",""right"",""good_move"",22276.4,3128.1,2810.6,19148.3,317.5,""oops"",""right"",""right"",""good_move"",28442.1,6165.5,2609.7,25513.8,318.6,""while_blue"",""right"",""right"",""good_move"",30801.7,2359.5,2007.7,28442.2,351.8,""smooth"",""right"",""right"",""good_move""]","",""
"2756","","<div style=""width:500px;"">
  <p>What determined the result of this run?</p>
