"rt","response_timestamp","stimulus","response","trial_type","trial_index","time_elapsed","internal_node_id","run_id","condition","recorded_at","source_code_version","ip","user_agent","device","browser","browser_version","platform","platform_version","referer","accept_language","PROLIFIC_PID","STUDY_ID","SESSION_ID","WEEK","BATCH","prolific_id","week","batch","realtime","success","responses","item_order","radio_event_ids","radio_event_times","key_event_times","mouse_event_times","straightlining","zigzagging","honeypot","eventType","view_history","slider_start","which_type","canvas_config","goals_layout","control_level","trial_number","tutorial_trial_number","trial_start_time","phase1_start_time","phase2_start_time","phase3_start_time","goal_1_value","goal_1_distance","goal_2_value","goal_2_distance","goal_selected","outcome","outcome_total","participant_final_score","participant_initial_score","participant_final_score_prop","goal_choice_rt","allocated_time","allocated_time_remaining","goal_direction","counts","mouse_movements","key_presses","question_order","question_id"
"2930","1753253168310","<p style='font-size:40px;line-height:1.25'><strong>Welcome to the experiment!</strong></p><p style='font-size:1.1em;line-height:1.25'>Thank you for participanting in our experiment again! You will be asked to play the Dysfunctional Ball Game again. We will briefly recap the rules before we start.</p><p style='font-size:1.1em;line-height:1.25'>Press <strong>Next</strong> to continue.</p>","0","custom-html-button-response","0","2933","0.0-0.0","162","1","2025-07-23 06:46:05","1f75c3e559b7213887762d5229550c2b","212.69.57.202","Mozilla/5.0 (X11; CrOS x86_64 14541.0.0) AppleWebKit/537.36 (KHTML, like Gecko) Chrome/137.0.0.0 Safari/537.36","WebKit","Chrome","137.0.0.0","ChromeOS","14541.0.0","https://app.prolific.com/","en-GB,en;q=0.9","5d9a55cb01556d0013fa8369","683dba2a8a9dda3513610c04","688085221de4a22cca34fb7b","3","0","5d9a55cb01556d0013fa8369","3","0","2025-07-23T06:46:08.312Z","","","","","","","","","","","","","","","","","","","","","","","","","","","","","","","","","","","","","","","","","",""
"2797","","","","fullscreen","1","6735","0.0-1.0","162","1","2025-07-23 06:46:05","1f75c3e559b7213887762d5229550c2b","212.69.57.202","Mozilla/5.0 (X11; CrOS x86_64 14541.0.0) AppleWebKit/537.36 (KHTML, like Gecko) Chrome/137.0.0.0 Safari/537.36","WebKit","Chrome","137.0.0.0","ChromeOS","14541.0.0","https://app.prolific.com/","en-GB,en;q=0.9","5d9a55cb01556d0013fa8369","683dba2a8a9dda3513610c04","688085221de4a22cca34fb7b","3","0","5d9a55cb01556d0013fa8369","3","0","","true","","","","","","","","","","","","","","","","","","","","","","","","","","","","","","","","","","","","","","","","",""
"2377","1753253174491","<p style='font-size:1.1em;line-height:1.25'>In the following, we will ask you a few questions relating to your feelings in the last 24 hours.<br></p><p style='font-size:1.1em;line-height:1.25'>Press the <strong>Next</strong> button to continue.</p>","0","custom-html-button-response","2","9114","0.0-2.0-0.0","162","1","2025-07-23 06:46:05","1f75c3e559b7213887762d5229550c2b","212.69.57.202","Mozilla/5.0 (X11; CrOS x86_64 14541.0.0) AppleWebKit/537.36 (KHTML, like Gecko) Chrome/137.0.0.0 Safari/537.36","WebKit","Chrome","137.0.0.0","ChromeOS","14541.0.0","https://app.prolific.com/","en-GB,en;q=0.9","5d9a55cb01556d0013fa8369","683dba2a8a9dda3513610c04","688085221de4a22cca34fb7b","3","0","5d9a55cb01556d0013fa8369","3","0","2025-07-23T06:46:14.492Z","","","","","","","","","","","","","","","","","","","","","","","","","","","","","","","","","","","","","","","","","",""
"107609","","","","survey-template","3","116737","0.0-2.0-1.0","162","1","2025-07-23 06:46:05","1f75c3e559b7213887762d5229550c2b","212.69.57.202","Mozilla/5.0 (X11; CrOS x86_64 14541.0.0) AppleWebKit/537.36 (KHTML, like Gecko) Chrome/137.0.0.0 Safari/537.36","WebKit","Chrome","137.0.0.0","ChromeOS","14541.0.0","https://app.prolific.com/","en-GB,en;q=0.9","5d9a55cb01556d0013fa8369","683dba2a8a9dda3513610c04","688085221de4a22cca34fb7b","3","0","5d9a55cb01556d0013fa8369","3","0","2025-07-23T06:48:02.115Z","","{""Q01"":""1"",""Q02"":""0"",""Q03"":""0"",""Q04"":""0"",""Q05"":""0"",""Q06"":""0"",""Q07"":""0"",""Q08"":""0"",""Q09"":""3"",""Q10"":""0"",""Q11"":""5"",""Q12"":""3"",""Q13"":""5"",""Q14"":""3"",""Q15"":""4"",""Q16"":""0"",""Q17"":""2"",""Q18"":""0"",""Q19"":""4"",""Q20"":""4"",""Q21"":""2"",""Q22"":""0""}","[0,1,2,3,4,5,6,7,8,9,10,11,12,13,14,15,16,17,18,19,20,21]","[""Q01"",""Q02"",""Q03"",""Q04"",""Q05"",""Q06"",""Q07"",""Q08"",""Q09"",""Q10"",""Q11"",""Q12"",""Q13"",""Q14"",""Q15"",""Q16"",""Q17"",""Q18"",""Q19"",""Q19"",""Q20"",""Q21"",""Q22""]","[43200.60000002384,45173.30000001192,46499.200000047684,49057.10000002384,50277.700000047684,51981.80000001192,53308.30000001192,54773.200000047684,56777,60299.5,63347.30000001192,68306,71072.5,76041.30000001192,80263,83556.40000003576,86169,88074.40000003576,91049.70000004768,95636.60000002384,100312.30000001192,103427.70000004768,105575.80000001192]","[]","[0.40000003576278687,43200.60000002384,45173.30000001192,46499.200000047684,47673.700000047684,49057.10000002384,50277.700000047684,51981.80000001192,53308.30000001192,54773.200000047684,56777,60299.5,63347.30000001192,68306,71072.5,76041.30000001192,80263,83556.40000003576,86169,88074.40000003576,91049.70000004768,95636.60000002384,100312.30000001192,103427.70000004768,105575.80000001192,107597]","0.5","0.14285714285714285","0","drsp","","","","","","","","","","","","","","","","","","","","","","","","","","","","","","",""
"9386.800000011921","","","","survey-template","4","126128","0.0-2.0-2.0","162","1","2025-07-23 06:46:05","1f75c3e559b7213887762d5229550c2b","212.69.57.202","Mozilla/5.0 (X11; CrOS x86_64 14541.0.0) AppleWebKit/537.36 (KHTML, like Gecko) Chrome/137.0.0.0 Safari/537.36","WebKit","Chrome","137.0.0.0","ChromeOS","14541.0.0","https://app.prolific.com/","en-GB,en;q=0.9","5d9a55cb01556d0013fa8369","683dba2a8a9dda3513610c04","688085221de4a22cca34fb7b","3","0","5d9a55cb01556d0013fa8369","3","0","2025-07-23T06:48:11.506Z","","{""Q01"":""0"",""Q02"":""5"",""Q03"":""4""}","[0,1,2]","[""Q01"",""Q02"",""Q03""]","[3392.900000035763,4935.800000011921,8275.400000035763]","[]","[3392.900000035763,4935.800000011921,8275.400000035763,9383]","0.6666666666666666","0","0","stress","","","","","","","","","","","","","","","","","","","","","","","","","","","","","","",""
"3161","","","","instructions","5","129292","0.0-3.0-0.0","162","1","2025-07-23 06:46:05","1f75c3e559b7213887762d5229550c2b","212.69.57.202","Mozilla/5.0 (X11; CrOS x86_64 14541.0.0) AppleWebKit/537.36 (KHTML, like Gecko) Chrome/137.0.0.0 Safari/537.36","WebKit","Chrome","137.0.0.0","ChromeOS","14541.0.0","https://app.prolific.com/","en-GB,en;q=0.9","5d9a55cb01556d0013fa8369","683dba2a8a9dda3513610c04","688085221de4a22cca34fb7b","3","0","5d9a55cb01556d0013fa8369","3","0","","","","","","","","","","","","","[{""page_index"":0,""viewing_time"":3160}]","","","","","","","","","","","","","","","","","","","","","","","","","","","","","",""
"4893","","<p>Before you start with this game please answer the following three questions yourself. </p>
  <p>Through this game, we measure several aspects of your cognitive performance, such as reaction times, multi-tasking capabilities </p>
  <p>and the ability to assess the situation you are in.</p>
  <p></p>
  <p><b>How good do you usually are in such tasks?</b></p>","31","html-slider-response","6","134187","0.0-4.0-0.0","162","1","2025-07-23 06:46:05","1f75c3e559b7213887762d5229550c2b","212.69.57.202","Mozilla/5.0 (X11; CrOS x86_64 14541.0.0) AppleWebKit/537.36 (KHTML, like Gecko) Chrome/137.0.0.0 Safari/537.36","WebKit","Chrome","137.0.0.0","ChromeOS","14541.0.0","https://app.prolific.com/","en-GB,en;q=0.9","5d9a55cb01556d0013fa8369","683dba2a8a9dda3513610c04","688085221de4a22cca34fb7b","3","0","5d9a55cb01556d0013fa8369","3","0","2025-07-23T06:48:19.566Z","","","","","","","","","","","PreSkillQ","","50","","","","","","","","","","","","","","","","","","","","","","","","","","","","",""
"3409","","<div style=""width:500px;"">
  <p>How well do you think you will perform in this task compared to other participants?</p>
  </div>","26","html-slider-response","7","137598","0.0-4.0-1.0","162","1","2025-07-23 06:46:05","1f75c3e559b7213887762d5229550c2b","212.69.57.202","Mozilla/5.0 (X11; CrOS x86_64 14541.0.0) AppleWebKit/537.36 (KHTML, like Gecko) Chrome/137.0.0.0 Safari/537.36","WebKit","Chrome","137.0.0.0","ChromeOS","14541.0.0","https://app.prolific.com/","en-GB,en;q=0.9","5d9a55cb01556d0013fa8369","683dba2a8a9dda3513610c04","688085221de4a22cca34fb7b","3","0","5d9a55cb01556d0013fa8369","3","0","2025-07-23T06:48:22.977Z","","","","","","","","","","","PrePerfQ","","50","","","","","","","","","","","","","","","","","","","","","","","","","","","","",""
"4991","","<div style=""width:500px;"">
  <p>What best describes how you currently feel?</p>
  </div>","21","html-slider-response","8","142592","0.0-4.0-2.0","162","1","2025-07-23 06:46:05","1f75c3e559b7213887762d5229550c2b","212.69.57.202","Mozilla/5.0 (X11; CrOS x86_64 14541.0.0) AppleWebKit/537.36 (KHTML, like Gecko) Chrome/137.0.0.0 Safari/537.36","WebKit","Chrome","137.0.0.0","ChromeOS","14541.0.0","https://app.prolific.com/","en-GB,en;q=0.9","5d9a55cb01556d0013fa8369","683dba2a8a9dda3513610c04","688085221de4a22cca34fb7b","3","0","5d9a55cb01556d0013fa8369","3","0","2025-07-23T06:48:27.970Z","","","","","","","","","","","PreMotivationQ","","50","","","","","","","","","","","","","","","","","","","","","","","","","","","","",""
"","","","","ctl-task-cpt","9","177876","0.0-5.0-0.0","162","1","2025-07-23 06:46:05","1f75c3e559b7213887762d5229550c2b","212.69.57.202","Mozilla/5.0 (X11; CrOS x86_64 14541.0.0) AppleWebKit/537.36 (KHTML, like Gecko) Chrome/137.0.0.0 Safari/537.36","WebKit","Chrome","137.0.0.0","ChromeOS","14541.0.0","https://app.prolific.com/","en-GB,en;q=0.9","5d9a55cb01556d0013fa8369","683dba2a8a9dda3513610c04","688085221de4a22cca34fb7b","3","0","5d9a55cb01556d0013fa8369","3","0","2025-07-23T06:49:03.254Z","","","","","","","","","","","","","","win-only","0","g1:NW,g2:SE","1","1","0","143716.9","1670","6671.3","32277","1","4","4","6","1","1","1","1","0","0.007575757575757576","2036.4","3000","1665","[""left"",""up""]","{""num_key_presses"":4,""num_perfect"":4,""num_errors"":0,""num_randdir"":0,""num_randdir_good_moves"":0,""num_whilered"":0,""num_whileblue"":0,""num_blue"":4,""num_good_moves"":4}","[425.3214133126395,406.57142761775424,0.4,425.3214133126395,406.57142761775424,100.9,425.3214133126395,406.57142761775424,205.7,425.3214133126395,406.57142761775424,307.4,425.3214133126395,406.57142761775424,414.1,425.3214133126395,406.57142761775424,515.6,599.0714133126395,475.32142761775424,638.6,900.3214133126395,725.3214276177542,744.4,897.8214133126395,739.0714276177542,849.8,570.3214133126395,579.0714276177542,950.8,282.8214133126395,242.82142761775424,1050.8,271.5714133126395,221.57142761775424,1155.7,271.5714133126395,221.57142761775424,1280.5,271.5714133126395,221.57142761775424,1380.6,84.0714133126395,130.32142761775424,1481.9,72.8214133126395,121.57142761775425,1606.4,45.32141331263951,80.32142761775425,1711,45.32141331263951,80.32142761775425,1811.3,45.32141331263951,80.32142761775425,1911.8,45.32141331263951,80.32142761775425,2057.6,45.32141331263951,80.32142761775425,2159.3,45.32141331263951,80.32142761775425,2274.2,-468.4285866873605,302.82142761775424,2394.8,-487.1785866873605,312.82142761775424,2496.4,-487.1785866873605,312.82142761775424,2602,-487.1785866873605,312.82142761775424,2702.1,-487.1785866873605,312.82142761775424,2819.9,-487.1785866873605,312.82142761775424,2921.2,-487.1785866873605,312.82142761775424,3021.3,-487.1785866873605,312.82142761775424,3126.8,-487.1785866873605,312.82142761775424,3230.2,-487.1785866873605,312.82142761775424,3331.1,-487.1785866873605,312.82142761775424,3435.6,-487.1785866873605,312.82142761775424,3535.7,-487.1785866873605,312.82142761775424,3640.1,-487.1785866873605,312.82142761775424,3750.4,-487.1785866873605,312.82142761775424,3850.7,-487.1785866873605,312.82142761775424,3950.7,-487.1785866873605,312.82142761775424,4055.9,-487.1785866873605,312.82142761775424,4167,-487.1785866873605,312.82142761775424,4271.7,-487.1785866873605,312.82142761775424,4375.6,-487.1785866873605,312.82142761775424,4476,-487.1785866873605,312.82142761775424,4580.6,-487.1785866873605,312.82142761775424,4680.6,-487.1785866873605,312.82142761775424,4781.9,-487.1785866873605,312.82142761775424,4897.6,-487.1785866873605,312.82142761775424,4998]","[4295,4295,1845.1,2014.3,435.6,""smooth"",""left"",""left"",""good_move"",11509.7,7214.2,2216.5,8869.2,424,""smooth"",""left"",""left"",""good_move"",22447.1,10935.4,2816.4,19199,431.7,""smooth"",""up"",""up"",""good_move"",25482.8,3033.4,2515.9,22449.4,517.5,""smooth"",""up"",""up"",""good_move""]","",""
"5521","","<div style=""width:500px;"">
  <p>What determined the result of this run?</p>
  </div>","81","html-slider-response","10","183399","0.0-5.0-1.0","162","1","2025-07-23 06:46:05","1f75c3e559b7213887762d5229550c2b","212.69.57.202","Mozilla/5.0 (X11; CrOS x86_64 14541.0.0) AppleWebKit/537.36 (KHTML, like Gecko) Chrome/137.0.0.0 Safari/537.36","WebKit","Chrome","137.0.0.0","ChromeOS","14541.0.0","https://app.prolific.com/","en-GB,en;q=0.9","5d9a55cb01556d0013fa8369","683dba2a8a9dda3513610c04","688085221de4a22cca34fb7b","3","0","5d9a55cb01556d0013fa8369","3","0","2025-07-23T06:49:08.777Z","","","","","","","","","","","AttribQ","","50","","","","","","","","","","","","","","","","","","","","","","","","","","","","",""
"2946","","<div style=""width:500px;"">
  <p>How much control did you have over the ball?</p>
  </div>","75","html-slider-response","11","186347","0.0-5.0-2.0","162","1","2025-07-23 06:46:05","1f75c3e559b7213887762d5229550c2b","212.69.57.202","Mozilla/5.0 (X11; CrOS x86_64 14541.0.0) AppleWebKit/537.36 (KHTML, like Gecko) Chrome/137.0.0.0 Safari/537.36","WebKit","Chrome","137.0.0.0","ChromeOS","14541.0.0","https://app.prolific.com/","en-GB,en;q=0.9","5d9a55cb01556d0013fa8369","683dba2a8a9dda3513610c04","688085221de4a22cca34fb7b","3","0","5d9a55cb01556d0013fa8369","3","0","2025-07-23T06:49:11.725Z","","","","","","","","","","","ControlQ","","50","","","","","","","","","","","","","","","","","","","","","","","","","","","","",""
"3239","","<div style=""width:500px;"">
  <p>How would you describe your current emotional state?</p>
  </div>","23","html-slider-response","12","189587","0.0-5.0-3.0","162","1","2025-07-23 06:46:05","1f75c3e559b7213887762d5229550c2b","212.69.57.202","Mozilla/5.0 (X11; CrOS x86_64 14541.0.0) AppleWebKit/537.36 (KHTML, like Gecko) Chrome/137.0.0.0 Safari/537.36","WebKit","Chrome","137.0.0.0","ChromeOS","14541.0.0","https://app.prolific.com/","en-GB,en;q=0.9","5d9a55cb01556d0013fa8369","683dba2a8a9dda3513610c04","688085221de4a22cca34fb7b","3","0","5d9a55cb01556d0013fa8369","3","0","2025-07-23T06:49:14.966Z","","","","","","","","","","","StressQ","","50","","","","","","","","","","","","","","","","","","","","","","","","","","","","",""
"3297","","<div style=""width:500px;"">
  <p>What best describes how you currently feel?</p>
  </div>","23","html-slider-response","13","192887","0.0-5.0-4.0","162","1","2025-07-23 06:46:05","1f75c3e559b7213887762d5229550c2b","212.69.57.202","Mozilla/5.0 (X11; CrOS x86_64 14541.0.0) AppleWebKit/537.36 (KHTML, like Gecko) Chrome/137.0.0.0 Safari/537.36","WebKit","Chrome","137.0.0.0","ChromeOS","14541.0.0","https://app.prolific.com/","en-GB,en;q=0.9","5d9a55cb01556d0013fa8369","683dba2a8a9dda3513610c04","688085221de4a22cca34fb7b","3","0","5d9a55cb01556d0013fa8369","3","0","2025-07-23T06:49:18.265Z","","","","","","","","","","","MotivationQ","","50","","","","","","","","","","","","","","","","","","","","","","","","","","","","",""
"","","","","ctl-task-cpt","14","228087","0.0-5.0-0.1","162","1","2025-07-23 06:46:05","1f75c3e559b7213887762d5229550c2b","212.69.57.202","Mozilla/5.0 (X11; CrOS x86_64 14541.0.0) AppleWebKit/537.36 (KHTML, like Gecko) Chrome/137.0.0.0 Safari/537.36","WebKit","Chrome","137.0.0.0","ChromeOS","14541.0.0","https://app.prolific.com/","en-GB,en;q=0.9","5d9a55cb01556d0013fa8369","683dba2a8a9dda3513610c04","688085221de4a22cca34fb7b","3","0","5d9a55cb01556d0013fa8369","3","0","2025-07-23T06:49:53.465Z","","","","","","","","","","","","","","win-only","3","g1:SW,g2:NE","0.9","2","0","194009","1711.4","6723.4","32182.2","1","4","8","6","2","8","8","9","1","0.06818181818181818","1954.4","3000","165","[""up"",""right""]","{""num_key_presses"":8,""num_perfect"":7,""num_errors"":0,""num_randdir"":1,""num_randdir_good_moves"":0,""num_whilered"":0,""num_whileblue"":0,""num_blue"":1,""num_good_moves"":7}","[419.0714133126395,424.07142761775424,0.4,419.0714133126395,424.07142761775424,104.2,419.0714133126395,424.07142761775424,204.2,419.0714133126395,424.07142761775424,306.7,419.0714133126395,424.07142761775424,412.2,419.0714133126395,424.07142761775424,513.5,419.0714133126395,424.07142761775424,636.2,737.8214133126395,149.07142761775424,739.2,836.5714133126395,59.07142761775425,839.3,846.5714133126395,50.32142761775425,946.9,834.0714133126395,74.07142761775425,1059.3,832.8214133126395,75.32142761775425,1164.1,832.8214133126395,75.32142761775425,1265,832.8214133126395,75.32142761775425,1368.1,832.8214133126395,75.32142761775425,1469.7,814.0714133126395,75.32142761775425,1569.7,790.3214133126395,76.57142761775425,1672.4,790.3214133126395,76.57142761775425,1778.4,790.3214133126395,76.57142761775425,1891.5,790.3214133126395,76.57142761775425,2010.2,790.3214133126395,76.57142761775425,2117.6,790.3214133126395,76.57142761775425,2220.1,1029.0714133126396,77.82142761775425,2361.8,1030.3214133126396,79.07142761775425,2467.5,1030.3214133126396,79.07142761775425,2596.6,1030.3214133126396,79.07142761775425,2700.5,1030.3214133126396,79.07142761775425,2801.6,1030.3214133126396,79.07142761775425,2910.9,1030.3214133126396,79.07142761775425,3011.5,1030.3214133126396,79.07142761775425,3121.3,1030.3214133126396,79.07142761775425,3234.4,1030.3214133126396,79.07142761775425,3334.6,1030.3214133126396,79.07142761775425,3454.1,1030.3214133126396,79.07142761775425,3557.2,1030.3214133126396,79.07142761775425,3659.4,1030.3214133126396,79.07142761775425,3764.2,1030.3214133126396,79.07142761775425,3869.3,1030.3214133126396,79.07142761775425,3974.3,1030.3214133126396,79.07142761775425,4083.2,1030.3214133126396,79.07142761775425,4185.4,1030.3214133126396,79.07142761775425,4289.3,1030.3214133126396,79.07142761775425,4396,1030.3214133126396,79.07142761775425,4497,1030.3214133126396,79.07142761775425,4599.4,1030.3214133126396,79.07142761775425,4715.1,1030.3214133126396,79.07142761775425,4827.7,1030.3214133126396,79.07142761775425,4929.4]","[1584.6,1584.6,1000,0,584.6,""smooth"",""up"",""up"",""good_move"",4143,2558,2092,1585,466,""oops"",""up"",""down"",""bad_move"",7376.9,3232.9,2729.9,4144,503,""smooth"",""up"",""up"",""good_move"",10032.4,2654.9,2200.6,7377.6,454.3,""smooth"",""up"",""up"",""good_move"",12122.2,2089.2,1597.9,10033,491.3,""smooth"",""up"",""up"",""good_move"",15517.5,3394.2,2959.2,12123.3,435,""smooth"",""right"",""right"",""good_move"",18939.2,3421.1,2990.9,15518.1,430.2,""smooth"",""right"",""right"",""good_move"",25320.8,6380.1,2680.8,22235,405,""smooth"",""right"",""right"",""good_move""]","",""
"7606","","<div style=""width:500px;"">
  <p>What determined the result of this run?</p>
  </div>","40","html-slider-response","15","235695","0.0-5.0-1.1","162","1","2025-07-23 06:46:05","1f75c3e559b7213887762d5229550c2b","212.69.57.202","Mozilla/5.0 (X11; CrOS x86_64 14541.0.0) AppleWebKit/537.36 (KHTML, like Gecko) Chrome/137.0.0.0 Safari/537.36","WebKit","Chrome","137.0.0.0","ChromeOS","14541.0.0","https://app.prolific.com/","en-GB,en;q=0.9","5d9a55cb01556d0013fa8369","683dba2a8a9dda3513610c04","688085221de4a22cca34fb7b","3","0","5d9a55cb01556d0013fa8369","3","0","2025-07-23T06:50:01.073Z","","","","","","","","","","","AttribQ","","50","","","","","","","","","","","","","","","","","","","","","","","","","","","","",""
"2823","","<div style=""width:500px;"">
  <p>How much control did you have over the ball?</p>
  </div>","30","html-slider-response","16","238520","0.0-5.0-2.1","162","1","2025-07-23 06:46:05","1f75c3e559b7213887762d5229550c2b","212.69.57.202","Mozilla/5.0 (X11; CrOS x86_64 14541.0.0) AppleWebKit/537.36 (KHTML, like Gecko) Chrome/137.0.0.0 Safari/537.36","WebKit","Chrome","137.0.0.0","ChromeOS","14541.0.0","https://app.prolific.com/","en-GB,en;q=0.9","5d9a55cb01556d0013fa8369","683dba2a8a9dda3513610c04","688085221de4a22cca34fb7b","3","0","5d9a55cb01556d0013fa8369","3","0","2025-07-23T06:50:03.898Z","","","","","","","","","","","ControlQ","","50","","","","","","","","","","","","","","","","","","","","","","","","","","","","",""
"3223","","<div style=""width:500px;"">
  <p>How would you describe your current emotional state?</p>
  </div>","26","html-slider-response","17","241744","0.0-5.0-3.1","162","1","2025-07-23 06:46:05","1f75c3e559b7213887762d5229550c2b","212.69.57.202","Mozilla/5.0 (X11; CrOS x86_64 14541.0.0) AppleWebKit/537.36 (KHTML, like Gecko) Chrome/137.0.0.0 Safari/537.36","WebKit","Chrome","137.0.0.0","ChromeOS","14541.0.0","https://app.prolific.com/","en-GB,en;q=0.9","5d9a55cb01556d0013fa8369","683dba2a8a9dda3513610c04","688085221de4a22cca34fb7b","3","0","5d9a55cb01556d0013fa8369","3","0","2025-07-23T06:50:07.122Z","","","","","","","","","","","StressQ","","50","","","","","","","","","","","","","","","","","","","","","","","","","","","","",""
"2210","","<div style=""width:500px;"">
  <p>What best describes how you currently feel?</p>
  </div>","21","html-slider-response","18","243955","0.0-5.0-4.1","162","1","2025-07-23 06:46:05","1f75c3e559b7213887762d5229550c2b","212.69.57.202","Mozilla/5.0 (X11; CrOS x86_64 14541.0.0) AppleWebKit/537.36 (KHTML, like Gecko) Chrome/137.0.0.0 Safari/537.36","WebKit","Chrome","137.0.0.0","ChromeOS","14541.0.0","https://app.prolific.com/","en-GB,en;q=0.9","5d9a55cb01556d0013fa8369","683dba2a8a9dda3513610c04","688085221de4a22cca34fb7b","3","0","5d9a55cb01556d0013fa8369","3","0","2025-07-23T06:50:09.334Z","","","","","","","","","","","MotivationQ","","50","","","","","","","","","","","","","","","","","","","","","","","","","","","","",""
"","","","","ctl-task-cpt","19","270090","0.0-5.0-0.2","162","1","2025-07-23 06:46:05","1f75c3e559b7213887762d5229550c2b","212.69.57.202","Mozilla/5.0 (X11; CrOS x86_64 14541.0.0) AppleWebKit/537.36 (KHTML, like Gecko) Chrome/137.0.0.0 Safari/537.36","WebKit","Chrome","137.0.0.0","ChromeOS","14541.0.0","https://app.prolific.com/","en-GB,en;q=0.9","5d9a55cb01556d0013fa8369","683dba2a8a9dda3513610c04","688085221de4a22cca34fb7b","3","0","5d9a55cb01556d0013fa8369","3","0","2025-07-23T06:50:35.468Z","","","","","","","","","","","","","","win-only","1","g1:NE,g2:SW","0.8","3","0","245079.8","1437.5","6441.3","23121","1","4","8","6","1","1","1","10","9","0.07575757575757576","1575.6","3000","1935","[""up"",""right""]","{""num_key_presses"":4,""num_perfect"":4,""num_errors"":0,""num_randdir"":0,""num_randdir_good_moves"":0,""num_whilered"":0,""num_whileblue"":0,""num_blue"":2,""num_good_moves"":4}","[412.8214133126395,411.57142761775424,0.4,412.8214133126395,411.57142761775424,109.2,412.8214133126395,411.57142761775424,216.5,412.8214133126395,411.57142761775424,326,412.8214133126395,411.57142761775424,450.6,412.8214133126395,411.57142761775424,556.5,412.8214133126395,411.57142761775424,658.4,625.3214133126395,336.57142761775424,790.5,789.0714133126395,281.57142761775424,897.6,804.0714133126395,262.82142761775424,1000.3,872.8214133126395,111.57142761775425,1111.6,817.8214133126395,82.82142761775425,1212.3,796.5714133126395,61.57142761775425,1336,796.5714133126395,61.57142761775425,1438.8,796.5714133126395,61.57142761775425,1570.1,796.5714133126395,61.57142761775425,1688.1,796.5714133126395,61.57142761775425,1789.1,981.5714133126395,96.57142761775425,1900.4,990.3214133126395,102.82142761775425,2003.5,990.3214133126395,102.82142761775425,2106.1,990.3214133126395,102.82142761775425,2211.4,990.3214133126395,102.82142761775425,2330.5,990.3214133126395,102.82142761775425,2432.2,990.3214133126395,102.82142761775425,2549.1,990.3214133126395,102.82142761775425,2653,990.3214133126395,102.82142761775425,2754,990.3214133126395,102.82142761775425,2855.2,990.3214133126395,102.82142761775425,2958.5,990.3214133126395,102.82142761775425,3065.2,990.3214133126395,102.82142761775425,3165.6,990.3214133126395,102.82142761775425,3268.4,990.3214133126395,102.82142761775425,3374.4,990.3214133126395,102.82142761775425,3484.1,990.3214133126395,102.82142761775425,3585.2,990.3214133126395,102.82142761775425,3688.3,990.3214133126395,102.82142761775425,3799.8,990.3214133126395,102.82142761775425,3903.6,990.3214133126395,102.82142761775425,4006.6,990.3214133126395,102.82142761775425,4110.2,990.3214133126395,102.82142761775425,4231.3,990.3214133126395,102.82142761775425,4342.4,990.3214133126395,102.82142761775425,4450.6,990.3214133126395,102.82142761775425,4561.1,990.3214133126395,102.82142761775425,4661.9,990.3214133126395,102.82142761775425,4763.3,990.3214133126395,102.82142761775425,4865.6,990.3214133126395,102.82142761775425,4968.4]","[1402.2,1402.2,1000,0,402.2,""smooth"",""up"",""up"",""good_move"",3702.6,2299.7,1937.8,1402.9,361.9,""smooth"",""up"",""up"",""good_move"",10200.8,6497.7,2469.6,7324.1,407.1,""smooth"",""right"",""right"",""good_move"",16557.3,6354.8,2205.1,13989.8,362.4,""smooth"",""right"",""right"",""good_move""]","",""
"4436","","<div style=""width:500px;"">
  <p>What determined the result of this run?</p>
  </div>","74","html-slider-response","20","274528","0.0-5.0-1.2","162","1","2025-07-23 06:46:05","1f75c3e559b7213887762d5229550c2b","212.69.57.202","Mozilla/5.0 (X11; CrOS x86_64 14541.0.0) AppleWebKit/537.36 (KHTML, like Gecko) Chrome/137.0.0.0 Safari/537.36","WebKit","Chrome","137.0.0.0","ChromeOS","14541.0.0","https://app.prolific.com/","en-GB,en;q=0.9","5d9a55cb01556d0013fa8369","683dba2a8a9dda3513610c04","688085221de4a22cca34fb7b","3","0","5d9a55cb01556d0013fa8369","3","0","2025-07-23T06:50:39.906Z","","","","","","","","","","","AttribQ","","50","","","","","","","","","","","","","","","","","","","","","","","","","","","","",""
"4290","","<div style=""width:500px;"">
  <p>How much control did you have over the ball?</p>
  </div>","78","html-slider-response","21","278820","0.0-5.0-2.2","162","1","2025-07-23 06:46:05","1f75c3e559b7213887762d5229550c2b","212.69.57.202","Mozilla/5.0 (X11; CrOS x86_64 14541.0.0) AppleWebKit/537.36 (KHTML, like Gecko) Chrome/137.0.0.0 Safari/537.36","WebKit","Chrome","137.0.0.0","ChromeOS","14541.0.0","https://app.prolific.com/","en-GB,en;q=0.9","5d9a55cb01556d0013fa8369","683dba2a8a9dda3513610c04","688085221de4a22cca34fb7b","3","0","5d9a55cb01556d0013fa8369","3","0","2025-07-23T06:50:44.199Z","","","","","","","","","","","ControlQ","","50","","","","","","","","","","","","","","","","","","","","","","","","","","","","",""
"2909","","<div style=""width:500px;"">
  <p>How would you describe your current emotional state?</p>
  </div>","27","html-slider-response","22","281731","0.0-5.0-3.2","162","1","2025-07-23 06:46:05","1f75c3e559b7213887762d5229550c2b","212.69.57.202","Mozilla/5.0 (X11; CrOS x86_64 14541.0.0) AppleWebKit/537.36 (KHTML, like Gecko) Chrome/137.0.0.0 Safari/537.36","WebKit","Chrome","137.0.0.0","ChromeOS","14541.0.0","https://app.prolific.com/","en-GB,en;q=0.9","5d9a55cb01556d0013fa8369","683dba2a8a9dda3513610c04","688085221de4a22cca34fb7b","3","0","5d9a55cb01556d0013fa8369","3","0","2025-07-23T06:50:47.110Z","","","","","","","","","","","StressQ","","50","","","","","","","","","","","","","","","","","","","","","","","","","","","","",""
"2839","","<div style=""width:500px;"">
  <p>What best describes how you currently feel?</p>
  </div>","25","html-slider-response","23","284573","0.0-5.0-4.2","162","1","2025-07-23 06:46:05","1f75c3e559b7213887762d5229550c2b","212.69.57.202","Mozilla/5.0 (X11; CrOS x86_64 14541.0.0) AppleWebKit/537.36 (KHTML, like Gecko) Chrome/137.0.0.0 Safari/537.36","WebKit","Chrome","137.0.0.0","ChromeOS","14541.0.0","https://app.prolific.com/","en-GB,en;q=0.9","5d9a55cb01556d0013fa8369","683dba2a8a9dda3513610c04","688085221de4a22cca34fb7b","3","0","5d9a55cb01556d0013fa8369","3","0","2025-07-23T06:50:49.951Z","","","","","","","","","","","MotivationQ","","50","","","","","","","","","","","","","","","","","","","","","","","","","","","","",""
"","","","","ctl-task-cpt","24","318983","0.0-5.0-0.3","162","1","2025-07-23 06:46:05","1f75c3e559b7213887762d5229550c2b","212.69.57.202","Mozilla/5.0 (X11; CrOS x86_64 14541.0.0) AppleWebKit/537.36 (KHTML, like Gecko) Chrome/137.0.0.0 Safari/537.36","WebKit","Chrome","137.0.0.0","ChromeOS","14541.0.0","https://app.prolific.com/","en-GB,en;q=0.9","5d9a55cb01556d0013fa8369","683dba2a8a9dda3513610c04","688085221de4a22cca34fb7b","3","0","5d9a55cb01556d0013fa8369","3","0","2025-07-23T06:51:24.361Z","","","","","","","","","","","","","","win-only","1","g1:NE,g2:SW","0.7","4","0","285697.1","1611.4","6619.8","31385.2","1","4","4","6","2","4","4","14","10","0.10606060606060606","1855.2","3000","1340","[""down"",""left""]","{""num_key_presses"":6,""num_perfect"":6,""num_errors"":0,""num_randdir"":0,""num_randdir_good_moves"":0,""num_whilered"":0,""num_whileblue"":0,""num_blue"":2,""num_good_moves"":6}","[412.8214133126395,412.82142761775424,0.4,412.8214133126395,412.82142761775424,107.8,412.8214133126395,412.82142761775424,215.8,412.8214133126395,412.82142761775424,343.2,412.8214133126395,412.82142761775424,461.5,412.8214133126395,412.82142761775424,575.1,412.8214133126395,412.82142761775424,703.1,412.8214133126395,412.82142761775424,806.3,412.8214133126395,412.82142761775424,914.8,412.8214133126395,412.82142761775424,1017.1,179.0714133126395,559.0714276177542,1120,146.5714133126395,595.3214276177542,1221.1,117.8214133126395,644.0714276177542,1334.9,71.5714133126395,767.8214276177542,1435.2,69.0714133126395,776.5714276177542,1548.2,69.0714133126395,776.5714276177542,1650.1,69.0714133126395,776.5714276177542,1753.8,69.0714133126395,776.5714276177542,1861.6,69.0714133126395,776.5714276177542,2004.4,69.0714133126395,776.5714276177542,2108,69.0714133126395,776.5714276177542,2212,-214.6785866873605,791.5714276177542,2315.5,-293.4285866873605,796.5714276177542,2416.1,-297.1785866873605,796.5714276177542,2524.1,-297.1785866873605,796.5714276177542,2625.8,-297.1785866873605,796.5714276177542,2757,-297.1785866873605,796.5714276177542,2859.1,-297.1785866873605,796.5714276177542,2959.4,-297.1785866873605,796.5714276177542,3063.7,-297.1785866873605,796.5714276177542,3185,-297.1785866873605,796.5714276177542,3306.6,-297.1785866873605,796.5714276177542,3411.9,-297.1785866873605,796.5714276177542,3517.3,-297.1785866873605,796.5714276177542,3636.9,-297.1785866873605,796.5714276177542,3738.8,-297.1785866873605,796.5714276177542,3842.6,-297.1785866873605,796.5714276177542,3944.4,-297.1785866873605,796.5714276177542,4046.4,-297.1785866873605,796.5714276177542,4149.4,-297.1785866873605,796.5714276177542,4253.2,-297.1785866873605,796.5714276177542,4355.7,-297.1785866873605,796.5714276177542,4459.9,-297.1785866873605,796.5714276177542,4565.9,-297.1785866873605,796.5714276177542,4670.2,-297.1785866873605,796.5714276177542,4781,-297.1785866873605,796.5714276177542,4890.6,-297.1785866873605,796.5714276177542,4990.9]","[1427.9,1428,1000,0,428,""smooth"",""down"",""down"",""good_move"",5488.2,4058.3,3592.5,1429.9,465.8,""smooth"",""down"",""down"",""good_move"",12918.6,7429.1,2750.2,9686.8,481.6,""smooth"",""down"",""down"",""good_move"",15446.9,2527.4,2074.3,12919.5,453.1,""smooth"",""left"",""left"",""good_move"",18388.8,2940.8,2397.9,15448,542.9,""smooth"",""left"",""left"",""good_move"",24622.8,6233.6,2432.6,21753.1,437.1,""smooth"",""left"",""left"",""good_move""]","",""
"7038","","<div style=""width:500px;"">
  <p>What determined the result of this run?</p>
  </div>","71","html-slider-response","25","326022","0.0-5.0-1.3","162","1","2025-07-23 06:46:05","1f75c3e559b7213887762d5229550c2b","212.69.57.202","Mozilla/5.0 (X11; CrOS x86_64 14541.0.0) AppleWebKit/537.36 (KHTML, like Gecko) Chrome/137.0.0.0 Safari/537.36","WebKit","Chrome","137.0.0.0","ChromeOS","14541.0.0","https://app.prolific.com/","en-GB,en;q=0.9","5d9a55cb01556d0013fa8369","683dba2a8a9dda3513610c04","688085221de4a22cca34fb7b","3","0","5d9a55cb01556d0013fa8369","3","0","2025-07-23T06:51:31.401Z","","","","","","","","","","","AttribQ","","50","","","","","","","","","","","","","","","","","","","","","","","","","","","","",""
"2820","","<div style=""width:500px;"">
  <p>How much control did you have over the ball?</p>
  </div>","68","html-slider-response","26","328845","0.0-5.0-2.3","162","1","2025-07-23 06:46:05","1f75c3e559b7213887762d5229550c2b","212.69.57.202","Mozilla/5.0 (X11; CrOS x86_64 14541.0.0) AppleWebKit/537.36 (KHTML, like Gecko) Chrome/137.0.0.0 Safari/537.36","WebKit","Chrome","137.0.0.0","ChromeOS","14541.0.0","https://app.prolific.com/","en-GB,en;q=0.9","5d9a55cb01556d0013fa8369","683dba2a8a9dda3513610c04","688085221de4a22cca34fb7b","3","0","5d9a55cb01556d0013fa8369","3","0","2025-07-23T06:51:34.223Z","","","","","","","","","","","ControlQ","","50","","","","","","","","","","","","","","","","","","","","","","","","","","","","",""
"4241","","<div style=""width:500px;"">
  <p>How would you describe your current emotional state?</p>
  </div>","25","html-slider-response","27","333088","0.0-5.0-3.3","162","1","2025-07-23 06:46:05","1f75c3e559b7213887762d5229550c2b","212.69.57.202","Mozilla/5.0 (X11; CrOS x86_64 14541.0.0) AppleWebKit/537.36 (KHTML, like Gecko) Chrome/137.0.0.0 Safari/537.36","WebKit","Chrome","137.0.0.0","ChromeOS","14541.0.0","https://app.prolific.com/","en-GB,en;q=0.9","5d9a55cb01556d0013fa8369","683dba2a8a9dda3513610c04","688085221de4a22cca34fb7b","3","0","5d9a55cb01556d0013fa8369","3","0","2025-07-23T06:51:38.466Z","","","","","","","","","","","StressQ","","50","","","","","","","","","","","","","","","","","","","","","","","","","","","","",""
"2875","","<div style=""width:500px;"">
  <p>What best describes how you currently feel?</p>
  </div>","27","html-slider-response","28","335965","0.0-5.0-4.3","162","1","2025-07-23 06:46:05","1f75c3e559b7213887762d5229550c2b","212.69.57.202","Mozilla/5.0 (X11; CrOS x86_64 14541.0.0) AppleWebKit/537.36 (KHTML, like Gecko) Chrome/137.0.0.0 Safari/537.36","WebKit","Chrome","137.0.0.0","ChromeOS","14541.0.0","https://app.prolific.com/","en-GB,en;q=0.9","5d9a55cb01556d0013fa8369","683dba2a8a9dda3513610c04","688085221de4a22cca34fb7b","3","0","5d9a55cb01556d0013fa8369","3","0","2025-07-23T06:51:41.344Z","","","","","","","","","","","MotivationQ","","50","","","","","","","","","","","","","","","","","","","","","","","","","","","","",""
"","","","","ctl-task-cpt","29","373565","0.0-5.0-0.4","162","1","2025-07-23 06:46:05","1f75c3e559b7213887762d5229550c2b","212.69.57.202","Mozilla/5.0 (X11; CrOS x86_64 14541.0.0) AppleWebKit/537.36 (KHTML, like Gecko) Chrome/137.0.0.0 Safari/537.36","WebKit","Chrome","137.0.0.0","ChromeOS","14541.0.0","https://app.prolific.com/","en-GB,en;q=0.9","5d9a55cb01556d0013fa8369","683dba2a8a9dda3513610c04","688085221de4a22cca34fb7b","3","0","5d9a55cb01556d0013fa8369","3","0","2025-07-23T06:52:18.944Z","","","","","","","","","","","","","","win-only","2","g1:SE,g2:NW","0.6","5","0","337091.9","1782.6","6790.2","34577.8","1","4","4","6","1","1","1","15","14","0.11363636363636363","2928.1","3000","1510","[""down"",""right""]","{""num_key_presses"":6,""num_perfect"":5,""num_errors"":0,""num_randdir"":1,""num_randdir_good_moves"":0,""num_whilered"":0,""num_whileblue"":0,""num_blue"":3,""num_good_moves"":5}","[414.0714133126395,420.32142761775424,0.3,414.0714133126395,420.32142761775424,104.7,414.0714133126395,420.32142761775424,207.4,414.0714133126395,420.32142761775424,313.1,414.0714133126395,420.32142761775424,413.4,414.0714133126395,420.32142761775424,516.6,414.0714133126395,420.32142761775424,653.1,414.0714133126395,420.32142761775424,759.3,414.0714133126395,420.32142761775424,885.7,414.0714133126395,420.32142761775424,1002.1,414.0714133126395,420.32142761775424,1112.4,414.0714133126395,420.32142761775424,1214.3,414.0714133126395,420.32142761775424,1320.5,414.0714133126395,420.32142761775424,1424.1,414.0714133126395,420.32142761775424,1534.9,554.0714133126395,531.5714276177542,1646.8,641.5714133126395,679.0714276177542,1773.3,652.8214133126395,692.8214276177542,1883.9,672.8214133126395,704.0714276177542,1984.1,897.8214133126395,796.5714276177542,2089.6,897.8214133126395,795.3214276177542,2197.6,897.8214133126395,795.3214276177542,2303.3,897.8214133126395,795.3214276177542,2412.2,724.0714133126395,724.0714276177542,2517.4,716.5714133126395,722.8214276177542,2624.6,716.5714133126395,722.8214276177542,2726.9,716.5714133126395,722.8214276177542,2830.1,716.5714133126395,722.8214276177542,2932.7,716.5714133126395,722.8214276177542,3045.1,716.5714133126395,722.8214276177542,3145.6,895.3214133126395,740.3214276177542,3251.3,951.5714133126395,745.3214276177542,3361.1,951.5714133126395,745.3214276177542,3463.4,951.5714133126395,745.3214276177542,3590.6,951.5714133126395,745.3214276177542,3693.3,951.5714133126395,745.3214276177542,3812,951.5714133126395,745.3214276177542,3918.5,951.5714133126395,745.3214276177542,4026.1,951.5714133126395,745.3214276177542,4128,951.5714133126395,745.3214276177542,4229.1,951.5714133126395,745.3214276177542,4332.8,951.5714133126395,745.3214276177542,4434.1,951.5714133126395,745.3214276177542,4537.3,951.5714133126395,745.3214276177542,4646.5,951.5714133126395,745.3214276177542,4760.1,951.5714133126395,745.3214276177542,4874.9,951.5714133126395,745.3214276177542,4977.8]","[5247.5,5247.5,2815.1,2016,416.4,""smooth"",""down"",""down"",""good_move"",11809.1,6561,1971.1,9388.8,449.2,""oops"",""down"",""left"",""bad_move"",14118.2,2308.1,1802.4,11810.1,505.7,""smooth"",""down"",""down"",""good_move"",17129.1,3010.2,2608.3,14118.9,401.9,""smooth"",""right"",""right"",""good_move"",20755.9,3625.3,3182.5,17130.7,442.8,""smooth"",""right"",""right"",""good_move"",27599.8,6843.4,2842.9,24402.5,354.4,""smooth"",""right"",""right"",""good_move""]","",""
"4312","","<div style=""width:500px;"">
  <p>What determined the result of this run?</p>
  </div>","44","html-slider-response","30","377879","0.0-5.0-1.4","162","1","2025-07-23 06:46:05","1f75c3e559b7213887762d5229550c2b","212.69.57.202","Mozilla/5.0 (X11; CrOS x86_64 14541.0.0) AppleWebKit/537.36 (KHTML, like Gecko) Chrome/137.0.0.0 Safari/537.36","WebKit","Chrome","137.0.0.0","ChromeOS","14541.0.0","https://app.prolific.com/","en-GB,en;q=0.9","5d9a55cb01556d0013fa8369","683dba2a8a9dda3513610c04","688085221de4a22cca34fb7b","3","0","5d9a55cb01556d0013fa8369","3","0","2025-07-23T06:52:23.257Z","","","","","","","","","","","AttribQ","","50","","","","","","","","","","","","","","","","","","","","","","","","","","","","",""
"3706","","<div style=""width:500px;"">
  <p>How much control did you have over the ball?</p>
  </div>","30","html-slider-response","31","381587","0.0-5.0-2.4","162","1","2025-07-23 06:46:05","1f75c3e559b7213887762d5229550c2b","212.69.57.202","Mozilla/5.0 (X11; CrOS x86_64 14541.0.0) AppleWebKit/537.36 (KHTML, like Gecko) Chrome/137.0.0.0 Safari/537.36","WebKit","Chrome","137.0.0.0","ChromeOS","14541.0.0","https://app.prolific.com/","en-GB,en;q=0.9","5d9a55cb01556d0013fa8369","683dba2a8a9dda3513610c04","688085221de4a22cca34fb7b","3","0","5d9a55cb01556d0013fa8369","3","0","2025-07-23T06:52:26.965Z","","","","","","","","","","","ControlQ","","50","","","","","","","","","","","","","","","","","","","","","","","","","","","","",""
"3018","","<div style=""width:500px;"">
  <p>How would you describe your current emotional state?</p>
  </div>","24","html-slider-response","32","384607","0.0-5.0-3.4","162","1","2025-07-23 06:46:05","1f75c3e559b7213887762d5229550c2b","212.69.57.202","Mozilla/5.0 (X11; CrOS x86_64 14541.0.0) AppleWebKit/537.36 (KHTML, like Gecko) Chrome/137.0.0.0 Safari/537.36","WebKit","Chrome","137.0.0.0","ChromeOS","14541.0.0","https://app.prolific.com/","en-GB,en;q=0.9","5d9a55cb01556d0013fa8369","683dba2a8a9dda3513610c04","688085221de4a22cca34fb7b","3","0","5d9a55cb01556d0013fa8369","3","0","2025-07-23T06:52:29.985Z","","","","","","","","","","","StressQ","","50","","","","","","","","","","","","","","","","","","","","","","","","","","","","",""
"2580","","<div style=""width:500px;"">
  <p>What best describes how you currently feel?</p>
  </div>","20","html-slider-response","33","387190","0.0-5.0-4.4","162","1","2025-07-23 06:46:05","1f75c3e559b7213887762d5229550c2b","212.69.57.202","Mozilla/5.0 (X11; CrOS x86_64 14541.0.0) AppleWebKit/537.36 (KHTML, like Gecko) Chrome/137.0.0.0 Safari/537.36","WebKit","Chrome","137.0.0.0","ChromeOS","14541.0.0","https://app.prolific.com/","en-GB,en;q=0.9","5d9a55cb01556d0013fa8369","683dba2a8a9dda3513610c04","688085221de4a22cca34fb7b","3","0","5d9a55cb01556d0013fa8369","3","0","2025-07-23T06:52:32.568Z","","","","","","","","","","","MotivationQ","","50","","","","","","","","","","","","","","","","","","","","","","","","","","","","",""
"","","","","ctl-task-cpt","34","429102","0.0-5.0-0.5","162","1","2025-07-23 06:46:05","1f75c3e559b7213887762d5229550c2b","212.69.57.202","Mozilla/5.0 (X11; CrOS x86_64 14541.0.0) AppleWebKit/537.36 (KHTML, like Gecko) Chrome/137.0.0.0 Safari/537.36","WebKit","Chrome","137.0.0.0","ChromeOS","14541.0.0","https://app.prolific.com/","en-GB,en;q=0.9","5d9a55cb01556d0013fa8369","683dba2a8a9dda3513610c04","688085221de4a22cca34fb7b","3","0","5d9a55cb01556d0013fa8369","3","0","2025-07-23T06:53:14.481Z","","","","","","","","","","","","","","win-only","2","g1:SE,g2:NW","0.5","6","0","388314.5","2166.8","7195.7","38894.8","1","4","8","6","1","1","1","16","15","0.12121212121212122","1924","3000","635","[""down"",""right""]","{""num_key_presses"":10,""num_perfect"":5,""num_errors"":0,""num_randdir"":5,""num_randdir_good_moves"":2,""num_whilered"":0,""num_whileblue"":0,""num_blue"":1,""num_good_moves"":7}","[419.0714133126395,412.82142761775424,0.3,419.0714133126395,412.82142761775424,107.5,419.0714133126395,412.82142761775424,214.5,419.0714133126395,412.82142761775424,322.3,419.0714133126395,412.82142761775424,425.9,419.0714133126395,412.82142761775424,526,419.0714133126395,412.82142761775424,631.6,419.0714133126395,412.82142761775424,741.7,419.0714133126395,412.82142761775424,842.7,419.0714133126395,412.82142761775424,945.1,576.5714133126395,521.5714276177542,1046.9,619.0714133126395,556.5714276177542,1155.9,666.5714133126395,599.0714276177542,1260.9,694.0714133126395,634.0714276177542,1370.5,717.8214133126395,715.3214276177542,1476.6,710.3214133126395,750.3214276177542,1577.6,707.8214133126395,751.5714276177542,1689.6,707.8214133126395,751.5714276177542,1832.2,707.8214133126395,751.5714276177542,1937.1,707.8214133126395,751.5714276177542,2045.9,707.8214133126395,751.5714276177542,2150.6,940.3214133126395,759.0714276177542,2250.7,1042.8214133126396,770.3214276177542,2350.7,1042.8214133126396,770.3214276177542,2451.6,1042.8214133126396,770.3214276177542,2552.7,1042.8214133126396,770.3214276177542,2658.8,1042.8214133126396,770.3214276177542,2760,1042.8214133126396,770.3214276177542,2865.3,1042.8214133126396,770.3214276177542,2972.6,1042.8214133126396,770.3214276177542,3074.9,1042.8214133126396,770.3214276177542,3176.8,1042.8214133126396,770.3214276177542,3284.2,1042.8214133126396,770.3214276177542,3388.5,1042.8214133126396,770.3214276177542,3504.5,1042.8214133126396,770.3214276177542,3609.8,1042.8214133126396,770.3214276177542,3732.6,1042.8214133126396,770.3214276177542,3836.7,1042.8214133126396,770.3214276177542,3937.3,1042.8214133126396,770.3214276177542,4039.9,1042.8214133126396,770.3214276177542,4141.6,1042.8214133126396,770.3214276177542,4242.4,1042.8214133126396,770.3214276177542,4353.7,1042.8214133126396,770.3214276177542,4461.5,1042.8214133126396,770.3214276177542,4567.9,1042.8214133126396,770.3214276177542,4675.6,1042.8214133126396,770.3214276177542,4786.4,1042.8214133126396,770.3214276177542,4891.5,1042.8214133126396,770.3214276177542,4995.4]","[4097.2,4097.2,1685.7,2004.6,406.9,""oops"",""down"",""down"",""good_move"",6601.3,2502.6,2100.7,4098.7,401.9,""oops"",""down"",""left"",""bad_move"",9932.5,3329.4,2857.1,6603.1,472.3,""oops"",""down"",""left"",""bad_move"",12834.1,2901,2260.2,9933.1,640.8,""smooth"",""down"",""down"",""good_move"",16300.8,3465.1,2971.6,12835.7,493.5,""smooth"",""right"",""right"",""good_move"",19769.9,3467.8,2935.9,16302.1,531.9,""smooth"",""right"",""right"",""good_move"",22748,2976.1,2553.3,19782.9,411.8,""smooth"",""right"",""right"",""good_move"",25473.4,2724.8,2260.9,22748.6,463.9,""oops"",""right"",""up"",""bad_move"",28282.4,2808.3,2382.7,25474.1,425.6,""oops"",""right"",""right"",""good_move"",31483.5,3199.8,2706.7,28283.7,493.1,""smooth"",""down"",""down"",""good_move""]","",""
"7106","","<div style=""width:500px;"">
  <p>What determined the result of this run?</p>
  </div>","36","html-slider-response","35","436211","0.0-5.0-1.5","162","1","2025-07-23 06:46:05","1f75c3e559b7213887762d5229550c2b","212.69.57.202","Mozilla/5.0 (X11; CrOS x86_64 14541.0.0) AppleWebKit/537.36 (KHTML, like Gecko) Chrome/137.0.0.0 Safari/537.36","WebKit","Chrome","137.0.0.0","ChromeOS","14541.0.0","https://app.prolific.com/","en-GB,en;q=0.9","5d9a55cb01556d0013fa8369","683dba2a8a9dda3513610c04","688085221de4a22cca34fb7b","3","0","5d9a55cb01556d0013fa8369","3","0","2025-07-23T06:53:21.589Z","","","","","","","","","","","AttribQ","","50","","","","","","","","","","","","","","","","","","","","","","","","","","","","",""
"3318","","<div style=""width:500px;"">
  <p>How much control did you have over the ball?</p>
  </div>","35","html-slider-response","36","439531","0.0-5.0-2.5","162","1","2025-07-23 06:46:05","1f75c3e559b7213887762d5229550c2b","212.69.57.202","Mozilla/5.0 (X11; CrOS x86_64 14541.0.0) AppleWebKit/537.36 (KHTML, like Gecko) Chrome/137.0.0.0 Safari/537.36","WebKit","Chrome","137.0.0.0","ChromeOS","14541.0.0","https://app.prolific.com/","en-GB,en;q=0.9","5d9a55cb01556d0013fa8369","683dba2a8a9dda3513610c04","688085221de4a22cca34fb7b","3","0","5d9a55cb01556d0013fa8369","3","0","2025-07-23T06:53:24.909Z","","","","","","","","","","","ControlQ","","50","","","","","","","","","","","","","","","","","","","","","","","","","","","","",""
"2381","","<div style=""width:500px;"">
  <p>How would you describe your current emotional state?</p>
  </div>","23","html-slider-response","37","441914","0.0-5.0-3.5","162","1","2025-07-23 06:46:05","1f75c3e559b7213887762d5229550c2b","212.69.57.202","Mozilla/5.0 (X11; CrOS x86_64 14541.0.0) AppleWebKit/537.36 (KHTML, like Gecko) Chrome/137.0.0.0 Safari/537.36","WebKit","Chrome","137.0.0.0","ChromeOS","14541.0.0","https://app.prolific.com/","en-GB,en;q=0.9","5d9a55cb01556d0013fa8369","683dba2a8a9dda3513610c04","688085221de4a22cca34fb7b","3","0","5d9a55cb01556d0013fa8369","3","0","2025-07-23T06:53:27.292Z","","","","","","","","","","","StressQ","","50","","","","","","","","","","","","","","","","","","","","","","","","","","","","",""
"2261","","<div style=""width:500px;"">
  <p>What best describes how you currently feel?</p>
  </div>","20","html-slider-response","38","444177","0.0-5.0-4.5","162","1","2025-07-23 06:46:05","1f75c3e559b7213887762d5229550c2b","212.69.57.202","Mozilla/5.0 (X11; CrOS x86_64 14541.0.0) AppleWebKit/537.36 (KHTML, like Gecko) Chrome/137.0.0.0 Safari/537.36","WebKit","Chrome","137.0.0.0","ChromeOS","14541.0.0","https://app.prolific.com/","en-GB,en;q=0.9","5d9a55cb01556d0013fa8369","683dba2a8a9dda3513610c04","688085221de4a22cca34fb7b","3","0","5d9a55cb01556d0013fa8369","3","0","2025-07-23T06:53:29.555Z","","","","","","","","","","","MotivationQ","","50","","","","","","","","","","","","","","","","","","","","","","","","","","","","",""
"","","","","ctl-task-cpt","39","495818","0.0-5.0-0.6","162","1","2025-07-23 06:46:05","1f75c3e559b7213887762d5229550c2b","212.69.57.202","Mozilla/5.0 (X11; CrOS x86_64 14541.0.0) AppleWebKit/537.36 (KHTML, like Gecko) Chrome/137.0.0.0 Safari/537.36","WebKit","Chrome","137.0.0.0","ChromeOS","14541.0.0","https://app.prolific.com/","en-GB,en;q=0.9","5d9a55cb01556d0013fa8369","683dba2a8a9dda3513610c04","688085221de4a22cca34fb7b","3","0","5d9a55cb01556d0013fa8369","3","0","2025-07-23T06:54:21.196Z","","","","","","","","","","","","","","win-only","0","g1:NW,g2:SE","0.4","7","0","445300.8","1581.5","6590.8","48622.3","1","4","8","6","1","1","0","16","16","0.12121212121212122","2400.2","3000","275","[""left"",""up""]","{""num_key_presses"":12,""num_perfect"":5,""num_errors"":1,""num_randdir"":6,""num_randdir_good_moves"":3,""num_whilered"":0,""num_whileblue"":1,""num_blue"":3,""num_good_moves"":8}","[406.5714133126395,415.32142761775424,0.4,406.5714133126395,415.32142761775424,102.3,406.5714133126395,415.32142761775424,203.9,406.5714133126395,415.32142761775424,304.7,406.5714133126395,415.32142761775424,408.9,406.5714133126395,415.32142761775424,526.8,406.5714133126395,415.32142761775424,628.2,406.5714133126395,415.32142761775424,742.2,406.5714133126395,415.32142761775424,843.3,406.5714133126395,415.32142761775424,943.5,406.5714133126395,415.32142761775424,1052.8,406.5714133126395,415.32142761775424,1160,406.5714133126395,415.32142761775424,1269.6,311.5714133126395,345.32142761775424,1375.6,185.3214133126395,185.32142761775424,1481.1,185.3214133126395,162.82142761775424,1582.3,179.0714133126395,124.07142761775425,1690.2,159.0714133126395,111.57142761775425,1790.9,135.3214133126395,99.07142761775425,1897.1,134.0714133126395,97.82142761775425,2002.1,134.0714133126395,97.82142761775425,2139.8,134.0714133126395,97.82142761775425,2246.2,134.0714133126395,97.82142761775425,2346.9,134.0714133126395,97.82142761775425,2454.2,134.0714133126395,97.82142761775425,2573.4,134.0714133126395,97.82142761775425,2676.3,525.3214133126395,82.82142761775425,2787.2,960.3214133126395,205.32142761775424,2891.1,977.8214133126395,226.57142761775424,2992.2,977.8214133126395,226.57142761775424,3103.8,977.8214133126395,226.57142761775424,3214.9,977.8214133126395,226.57142761775424,3317,977.8214133126395,226.57142761775424,3419.5,977.8214133126395,226.57142761775424,3532.6,977.8214133126395,226.57142761775424,3643.6,977.8214133126395,226.57142761775424,3774.3,977.8214133126395,226.57142761775424,3875.9,977.8214133126395,226.57142761775424,3982.6,977.8214133126395,226.57142761775424,4107,977.8214133126395,226.57142761775424,4222.7,977.8214133126395,226.57142761775424,4332.1,977.8214133126395,226.57142761775424,4432.4,977.8214133126395,226.57142761775424,4537.9,977.8214133126395,226.57142761775424,4639.5,977.8214133126395,226.57142761775424,4744.5,977.8214133126395,226.57142761775424,4846.1,977.8214133126395,226.57142761775424,4946.5]","[1415.1,1415.1,1000,0,415.1,""smooth"",""left"",""left"",""good_move"",4699.4,3283.4,2909,1416,374.4,""smooth"",""left"",""left"",""good_move"",7932.5,3232.7,2844.6,4699.8,388.1,""oops"",""up"",""down"",""bad_move"",10390.2,2444.7,1959.4,7945.5,485.3,""oops"",""up"",""up"",""good_move"",13455.6,3052.9,2612.9,10402.7,440,""oops"",""up"",""down"",""bad_move"",16454.9,2998.3,2619.1,13456.6,379.2,""oops"",""up"",""down"",""bad_move"",20293.2,3837.8,3514.2,16455.4,323.7,""while_blue"",""up"",""down"",""bad_move"",26420.8,6126.9,2241.9,23620.6,558.3,""oops"",""up"",""up"",""good_move"",33312.6,6891.4,2557.4,30176.6,578.6,""smooth"",""up"",""up"",""good_move"",36237,2923.9,2057.9,33313.1,866,""smooth"",""up"",""up"",""good_move"",39193.7,2955.4,2553.3,36238.3,402.2,""oops"",""up"",""up"",""good_move"",41865.8,2671.7,2318.9,39194.1,352.8,""smooth"",""up"",""up"",""good_move""]","",""
"5542","","<div style=""width:500px;"">
  <p>What determined the result of this run?</p>
  </div>","16","html-slider-response","40","501364","0.0-5.0-1.6","162","1","2025-07-23 06:46:05","1f75c3e559b7213887762d5229550c2b","212.69.57.202","Mozilla/5.0 (X11; CrOS x86_64 14541.0.0) AppleWebKit/537.36 (KHTML, like Gecko) Chrome/137.0.0.0 Safari/537.36","WebKit","Chrome","137.0.0.0","ChromeOS","14541.0.0","https://app.prolific.com/","en-GB,en;q=0.9","5d9a55cb01556d0013fa8369","683dba2a8a9dda3513610c04","688085221de4a22cca34fb7b","3","0","5d9a55cb01556d0013fa8369","3","0","2025-07-23T06:54:26.742Z","","","","","","","","","","","AttribQ","","50","","","","","","","","","","","","","","","","","","","","","","","","","","","","",""
"2799","","<div style=""width:500px;"">
  <p>How much control did you have over the ball?</p>
  </div>","13","html-slider-response","41","504164","0.0-5.0-2.6","162","1","2025-07-23 06:46:05","1f75c3e559b7213887762d5229550c2b","212.69.57.202","Mozilla/5.0 (X11; CrOS x86_64 14541.0.0) AppleWebKit/537.36 (KHTML, like Gecko) Chrome/137.0.0.0 Safari/537.36","WebKit","Chrome","137.0.0.0","ChromeOS","14541.0.0","https://app.prolific.com/","en-GB,en;q=0.9","5d9a55cb01556d0013fa8369","683dba2a8a9dda3513610c04","688085221de4a22cca34fb7b","3","0","5d9a55cb01556d0013fa8369","3","0","2025-07-23T06:54:29.543Z","","","","","","","","","","","ControlQ","","50","","","","","","","","","","","","","","","","","","","","","","","","","","","","",""
"3577","","<div style=""width:500px;"">
  <p>How would you describe your current emotional state?</p>
  </div>","19","html-slider-response","42","507743","0.0-5.0-3.6","162","1","2025-07-23 06:46:05","1f75c3e559b7213887762d5229550c2b","212.69.57.202","Mozilla/5.0 (X11; CrOS x86_64 14541.0.0) AppleWebKit/537.36 (KHTML, like Gecko) Chrome/137.0.0.0 Safari/537.36","WebKit","Chrome","137.0.0.0","ChromeOS","14541.0.0","https://app.prolific.com/","en-GB,en;q=0.9","5d9a55cb01556d0013fa8369","683dba2a8a9dda3513610c04","688085221de4a22cca34fb7b","3","0","5d9a55cb01556d0013fa8369","3","0","2025-07-23T06:54:33.122Z","","","","","","","","","","","StressQ","","50","","","","","","","","","","","","","","","","","","","","","","","","","","","","",""
"2549","","<div style=""width:500px;"">
  <p>What best describes how you currently feel?</p>
  </div>","7","html-slider-response","43","510295","0.0-5.0-4.6","162","1","2025-07-23 06:46:05","1f75c3e559b7213887762d5229550c2b","212.69.57.202","Mozilla/5.0 (X11; CrOS x86_64 14541.0.0) AppleWebKit/537.36 (KHTML, like Gecko) Chrome/137.0.0.0 Safari/537.36","WebKit","Chrome","137.0.0.0","ChromeOS","14541.0.0","https://app.prolific.com/","en-GB,en;q=0.9","5d9a55cb01556d0013fa8369","683dba2a8a9dda3513610c04","688085221de4a22cca34fb7b","3","0","5d9a55cb01556d0013fa8369","3","0","2025-07-23T06:54:35.673Z","","","","","","","","","","","MotivationQ","","50","","","","","","","","","","","","","","","","","","","","","","","","","","","","",""
"","","","","ctl-task-cpt","44","572019","0.0-5.0-0.7","162","1","2025-07-23 06:46:05","1f75c3e559b7213887762d5229550c2b","212.69.57.202","Mozilla/5.0 (X11; CrOS x86_64 14541.0.0) AppleWebKit/537.36 (KHTML, like Gecko) Chrome/137.0.0.0 Safari/537.36","WebKit","Chrome","137.0.0.0","ChromeOS","14541.0.0","https://app.prolific.com/","en-GB,en;q=0.9","5d9a55cb01556d0013fa8369","683dba2a8a9dda3513610c04","688085221de4a22cca34fb7b","3","0","5d9a55cb01556d0013fa8369","3","0","2025-07-23T06:55:37.397Z","","","","","","","","","","","","","","win-only","1","g1:NE,g2:SW","0.3","8","0","511419.9","1689.6","6699.6","58700.5","1","4","4","6","1","-1","-1","15","16","0.11363636363636363","1455.6","3000","-940","[""up"",""right""]","{""num_key_presses"":13,""num_perfect"":5,""num_errors"":0,""num_randdir"":8,""num_randdir_good_moves"":2,""num_whilered"":0,""num_whileblue"":0,""num_blue"":3,""num_good_moves"":7}","[414.0714133126395,417.82142761775424,0.4,414.0714133126395,417.82142761775424,104.9,414.0714133126395,417.82142761775424,206.3,414.0714133126395,417.82142761775424,310.8,414.0714133126395,417.82142761775424,416.5,414.0714133126395,417.82142761775424,527.1,414.0714133126395,417.82142761775424,635.9,414.0714133126395,417.82142761775424,739.2,414.0714133126395,417.82142761775424,846.3,627.8214133126395,221.57142761775424,952.5,726.5714133126395,135.32142761775424,1056.6,734.0714133126395,127.82142761775425,1164.4,734.0714133126395,127.82142761775425,1273.9,734.0714133126395,127.82142761775425,1383.7,734.0714133126395,127.82142761775425,1489.3,734.0714133126395,127.82142761775425,1592,734.0714133126395,127.82142761775425,1696.7,734.0714133126395,127.82142761775425,1797,1084.0714133126396,-25.928572382245747,1909.6,1086.5714133126396,-25.928572382245747,2085.9,1086.5714133126396,-25.928572382245747,2191.7,1086.5714133126396,-25.928572382245747,2295.8,1086.5714133126396,-25.928572382245747,2401.6,1086.5714133126396,-25.928572382245747,2503.7,1086.5714133126396,-25.928572382245747,2611.6,1086.5714133126396,-25.928572382245747,2717.9,1086.5714133126396,-25.928572382245747,2827.4,1086.5714133126396,-25.928572382245747,2935.8,1086.5714133126396,-25.928572382245747,3039,1086.5714133126396,-25.928572382245747,3145.9,1086.5714133126396,-25.928572382245747,3254,1086.5714133126396,-25.928572382245747,3356.6,1086.5714133126396,-25.928572382245747,3460.4,1086.5714133126396,-25.928572382245747,3565.4,1086.5714133126396,-25.928572382245747,3673.8,1086.5714133126396,-25.928572382245747,3778,1086.5714133126396,-25.928572382245747,3887.9,1086.5714133126396,-25.928572382245747,3990.1,1086.5714133126396,-25.928572382245747,4090.2,1086.5714133126396,-25.928572382245747,4190.5,1086.5714133126396,-25.928572382245747,4299.7,1086.5714133126396,-25.928572382245747,4405.6,1086.5714133126396,-25.928572382245747,4509.1,1086.5714133126396,-25.928572382245747,4610.1,1086.5714133126396,-25.928572382245747,4720.4,1086.5714133126396,-25.928572382245747,4827,1086.5714133126396,-25.928572382245747,4935.7]","[1444.7,1444.7,1000,0,444.7,""smooth"",""up"",""up"",""good_move"",4543.3,3098,2680.1,1445.3,417.9,""oops"",""up"",""down"",""bad_move"",7347.2,2803.2,2426.6,4544,376.6,""smooth"",""right"",""right"",""good_move"",17458.2,10110.6,2825.1,14256.9,376.3,""smooth"",""right"",""right"",""good_move"",20142.4,2683.5,2215.5,17458.9,468,""oops"",""up"",""left"",""bad_move"",27141.8,6998.6,2416,24252.7,473.2,""oops"",""up"",""down"",""bad_move"",31507,4364.3,3550.8,27142.7,813.5,""oops"",""right"",""up"",""good_move"",34640.7,3133.1,2629.1,31507.7,504,""oops"",""right"",""down"",""bad_move"",37633.7,2992.7,2257.7,34641.1,735,""oops"",""up"",""right"",""good_move"",40561.9,2927.5,2482.6,37634.4,444.9,""oops"",""up"",""down"",""bad_move"",43617.7,3055.3,2594.3,40562.4,461,""oops"",""up"",""down"",""bad_move"",46451.2,2832.9,2479.5,43618.3,353.4,""smooth"",""up"",""up"",""good_move"",49176.1,2724.5,2368.4,46451.6,356.1,""smooth"",""up"",""up"",""good_move""]","",""
"4693","","<div style=""width:500px;"">
  <p>What determined the result of this run?</p>
  </div>","2","html-slider-response","45","576715","0.0-5.0-1.7","162","1","2025-07-23 06:46:05","1f75c3e559b7213887762d5229550c2b","212.69.57.202","Mozilla/5.0 (X11; CrOS x86_64 14541.0.0) AppleWebKit/537.36 (KHTML, like Gecko) Chrome/137.0.0.0 Safari/537.36","WebKit","Chrome","137.0.0.0","ChromeOS","14541.0.0","https://app.prolific.com/","en-GB,en;q=0.9","5d9a55cb01556d0013fa8369","683dba2a8a9dda3513610c04","688085221de4a22cca34fb7b","3","0","5d9a55cb01556d0013fa8369","3","0","2025-07-23T06:55:42.093Z","","","","","","","","","","","AttribQ","","50","","","","","","","","","","","","","","","","","","","","","","","","","","","","",""
"4284","","<div style=""width:500px;"">
  <p>How much control did you have over the ball?</p>
  </div>","1","html-slider-response","46","581002","0.0-5.0-2.7","162","1","2025-07-23 06:46:05","1f75c3e559b7213887762d5229550c2b","212.69.57.202","Mozilla/5.0 (X11; CrOS x86_64 14541.0.0) AppleWebKit/537.36 (KHTML, like Gecko) Chrome/137.0.0.0 Safari/537.36","WebKit","Chrome","137.0.0.0","ChromeOS","14541.0.0","https://app.prolific.com/","en-GB,en;q=0.9","5d9a55cb01556d0013fa8369","683dba2a8a9dda3513610c04","688085221de4a22cca34fb7b","3","0","5d9a55cb01556d0013fa8369","3","0","2025-07-23T06:55:46.380Z","","","","","","","","","","","ControlQ","","50","","","","","","","","","","","","","","","","","","","","","","","","","","","","",""
"3057","","<div style=""width:500px;"">
  <p>How would you describe your current emotional state?</p>
  </div>","13","html-slider-response","47","584063","0.0-5.0-3.7","162","1","2025-07-23 06:46:05","1f75c3e559b7213887762d5229550c2b","212.69.57.202","Mozilla/5.0 (X11; CrOS x86_64 14541.0.0) AppleWebKit/537.36 (KHTML, like Gecko) Chrome/137.0.0.0 Safari/537.36","WebKit","Chrome","137.0.0.0","ChromeOS","14541.0.0","https://app.prolific.com/","en-GB,en;q=0.9","5d9a55cb01556d0013fa8369","683dba2a8a9dda3513610c04","688085221de4a22cca34fb7b","3","0","5d9a55cb01556d0013fa8369","3","0","2025-07-23T06:55:49.441Z","","","","","","","","","","","StressQ","","50","","","","","","","","","","","","","","","","","","","","","","","","","","","","",""
"2557","","<div style=""width:500px;"">
  <p>What best describes how you currently feel?</p>
  </div>","3","html-slider-response","48","586624","0.0-5.0-4.7","162","1","2025-07-23 06:46:05","1f75c3e559b7213887762d5229550c2b","212.69.57.202","Mozilla/5.0 (X11; CrOS x86_64 14541.0.0) AppleWebKit/537.36 (KHTML, like Gecko) Chrome/137.0.0.0 Safari/537.36","WebKit","Chrome","137.0.0.0","ChromeOS","14541.0.0","https://app.prolific.com/","en-GB,en;q=0.9","5d9a55cb01556d0013fa8369","683dba2a8a9dda3513610c04","688085221de4a22cca34fb7b","3","0","5d9a55cb01556d0013fa8369","3","0","2025-07-23T06:55:52.002Z","","","","","","","","","","","MotivationQ","","50","","","","","","","","","","","","","","","","","","","","","","","","","","","","",""
"","","","","ctl-task-cpt","49","634732","0.0-5.0-0.8","162","1","2025-07-23 06:46:05","1f75c3e559b7213887762d5229550c2b","212.69.57.202","Mozilla/5.0 (X11; CrOS x86_64 14541.0.0) AppleWebKit/537.36 (KHTML, like Gecko) Chrome/137.0.0.0 Safari/537.36","WebKit","Chrome","137.0.0.0","ChromeOS","14541.0.0","https://app.prolific.com/","en-GB,en;q=0.9","5d9a55cb01556d0013fa8369","683dba2a8a9dda3513610c04","688085221de4a22cca34fb7b","3","0","5d9a55cb01556d0013fa8369","3","0","2025-07-23T06:56:40.110Z","","","","","","","","","","","","","","win-only","3","g1:SW,g2:NE","0.2","9","0","587750","1609.8","6637.1","45090.8","1","4","8","6","1","1","1","16","15","0.12121212121212122","2152","3000","885","[""down"",""left""]","{""num_key_presses"":12,""num_perfect"":3,""num_errors"":0,""num_randdir"":9,""num_randdir_good_moves"":5,""num_whilered"":0,""num_whileblue"":0,""num_blue"":1,""num_good_moves"":8}","[411.5714133126395,415.32142761775424,0.3,411.5714133126395,415.32142761775424,102.2,411.5714133126395,415.32142761775424,207.8,411.5714133126395,415.32142761775424,314.1,411.5714133126395,415.32142761775424,421.6,411.5714133126395,415.32142761775424,529.7,411.5714133126395,415.32142761775424,638.1,411.5714133126395,415.32142761775424,744.4,411.5714133126395,415.32142761775424,851.2,411.5714133126395,415.32142761775424,956.5,235.3214133126395,546.5714276177542,1065.4,201.5714133126395,581.5714276177542,1178.5,182.8214133126395,606.5714276177542,1288.5,135.3214133126395,679.0714276177542,1396.4,135.3214133126395,679.0714276177542,1505.9,135.3214133126395,679.0714276177542,1611.8,112.8214133126395,710.3214276177542,1721.5,95.3214133126395,726.5714276177542,1842,94.0714133126395,727.8214276177542,1954.7,94.0714133126395,727.8214276177542,2064.5,94.0714133126395,727.8214276177542,2178.4,94.0714133126395,727.8214276177542,2288.5,94.0714133126395,727.8214276177542,2400.7,94.0714133126395,727.8214276177542,2513.1,244.0714133126395,741.5714276177542,2623.7,485.3214133126395,770.3214276177542,2738.8,492.8214133126395,772.8214276177542,2849,492.8214133126395,772.8214276177542,2958.1,492.8214133126395,772.8214276177542,3068.4,492.8214133126395,772.8214276177542,3179.1,492.8214133126395,772.8214276177542,3292.6,492.8214133126395,772.8214276177542,3403.4,492.8214133126395,772.8214276177542,3515.1,492.8214133126395,772.8214276177542,3629.4,492.8214133126395,772.8214276177542,3742.5,492.8214133126395,772.8214276177542,3855.3,492.8214133126395,772.8214276177542,3969.9,492.8214133126395,772.8214276177542,4085.6,492.8214133126395,772.8214276177542,4198.6,492.8214133126395,772.8214276177542,4310.9,492.8214133126395,772.8214276177542,4424.5,492.8214133126395,772.8214276177542,4539.5,492.8214133126395,772.8214276177542,4654.3,492.8214133126395,772.8214276177542,4770.4,492.8214133126395,772.8214276177542,4883.8,492.8214133126395,772.8214276177542,4998.2]","[1538.1,1538.1,1000,0,538.1,""oops"",""down"",""right"",""bad_move"",4970.5,3431.9,2998,1538.6,433.9,""oops"",""down"",""up"",""bad_move"",8552.6,3581.4,2993,4971.2,588.4,""oops"",""down"",""right"",""bad_move"",14705.6,6152.6,1838.7,12442.7,424.2,""oops"",""down"",""left"",""good_move"",17700,2993.9,2532.6,14706.2,461.3,""oops"",""down"",""right"",""bad_move"",20328.9,2628.3,2161.3,17700.7,467,""smooth"",""down"",""down"",""good_move"",23157,2827.4,2454.8,20329.6,372.6,""oops"",""down"",""left"",""good_move"",25654.5,2497,2149.5,23157.6,347.5,""oops"",""down"",""down"",""good_move"",29460.5,3805.4,3460,25655.1,345.4,""oops"",""down"",""down"",""good_move"",31728.6,2267.5,1875.7,29461.1,391.8,""smooth"",""left"",""left"",""good_move"",35137.9,3408.8,2819.5,31729.1,589.3,""oops"",""left"",""left"",""good_move"",38276.2,3137.6,2729.8,35138.6,407.8,""smooth"",""left"",""left"",""good_move""]","",""
"75701","","<div style=""width:500px;"">
  <p>What determined the result of this run?</p>
  </div>","0","html-slider-response","50","710435","0.0-5.0-1.8","162","1","2025-07-23 06:46:05","1f75c3e559b7213887762d5229550c2b","212.69.57.202","Mozilla/5.0 (X11; CrOS x86_64 14541.0.0) AppleWebKit/537.36 (KHTML, like Gecko) Chrome/137.0.0.0 Safari/537.36","WebKit","Chrome","137.0.0.0","ChromeOS","14541.0.0","https://app.prolific.com/","en-GB,en;q=0.9","5d9a55cb01556d0013fa8369","683dba2a8a9dda3513610c04","688085221de4a22cca34fb7b","3","0","5d9a55cb01556d0013fa8369","3","0","2025-07-23T06:57:55.813Z","","","","","","","","","","","AttribQ","","50","","","","","","","","","","","","","","","","","","","","","","","","","","","","",""
"3326","","<div style=""width:500px;"">
  <p>How much control did you have over the ball?</p>
  </div>","0","html-slider-response","51","713763","0.0-5.0-2.8","162","1","2025-07-23 06:46:05","1f75c3e559b7213887762d5229550c2b","212.69.57.202","Mozilla/5.0 (X11; CrOS x86_64 14541.0.0) AppleWebKit/537.36 (KHTML, like Gecko) Chrome/137.0.0.0 Safari/537.36","WebKit","Chrome","137.0.0.0","ChromeOS","14541.0.0","https://app.prolific.com/","en-GB,en;q=0.9","5d9a55cb01556d0013fa8369","683dba2a8a9dda3513610c04","688085221de4a22cca34fb7b","3","0","5d9a55cb01556d0013fa8369","3","0","2025-07-23T06:57:59.142Z","","","","","","","","","","","ControlQ","","50","","","","","","","","","","","","","","","","","","","","","","","","","","","","",""
"3168","","<div style=""width:500px;"">
  <p>How would you describe your current emotional state?</p>
  </div>","8","html-slider-response","52","716933","0.0-5.0-3.8","162","1","2025-07-23 06:46:05","1f75c3e559b7213887762d5229550c2b","212.69.57.202","Mozilla/5.0 (X11; CrOS x86_64 14541.0.0) AppleWebKit/537.36 (KHTML, like Gecko) Chrome/137.0.0.0 Safari/537.36","WebKit","Chrome","137.0.0.0","ChromeOS","14541.0.0","https://app.prolific.com/","en-GB,en;q=0.9","5d9a55cb01556d0013fa8369","683dba2a8a9dda3513610c04","688085221de4a22cca34fb7b","3","0","5d9a55cb01556d0013fa8369","3","0","2025-07-23T06:58:02.312Z","","","","","","","","","","","StressQ","","50","","","","","","","","","","","","","","","","","","","","","","","","","","","","",""
"3177","","<div style=""width:500px;"">
  <p>What best describes how you currently feel?</p>
  </div>","4","html-slider-response","53","720113","0.0-5.0-4.8","162","1","2025-07-23 06:46:05","1f75c3e559b7213887762d5229550c2b","212.69.57.202","Mozilla/5.0 (X11; CrOS x86_64 14541.0.0) AppleWebKit/537.36 (KHTML, like Gecko) Chrome/137.0.0.0 Safari/537.36","WebKit","Chrome","137.0.0.0","ChromeOS","14541.0.0","https://app.prolific.com/","en-GB,en;q=0.9","5d9a55cb01556d0013fa8369","683dba2a8a9dda3513610c04","688085221de4a22cca34fb7b","3","0","5d9a55cb01556d0013fa8369","3","0","2025-07-23T06:58:05.491Z","","","","","","","","","","","MotivationQ","","50","","","","","","","","","","","","","","","","","","","","","","","","","","","","",""
"","","","","ctl-task-cpt","54","790233","0.0-5.0-0.9","162","1","2025-07-23 06:46:05","1f75c3e559b7213887762d5229550c2b","212.69.57.202","Mozilla/5.0 (X11; CrOS x86_64 14541.0.0) AppleWebKit/537.36 (KHTML, like Gecko) Chrome/137.0.0.0 Safari/537.36","WebKit","Chrome","137.0.0.0","ChromeOS","14541.0.0","https://app.prolific.com/","en-GB,en;q=0.9","5d9a55cb01556d0013fa8369","683dba2a8a9dda3513610c04","688085221de4a22cca34fb7b","3","0","5d9a55cb01556d0013fa8369","3","0","2025-07-23T06:59:15.612Z","","","","","","","","","","","","","","win-only","0","g1:NW,g2:SE","0.4","10","0","721237.4","2099.1","7099.9","67095.8","1","4","4","6","1","-1","-1","15","16","0.11363636363636363","1674.1","3000","-1185","[""left"",""up""]","{""num_key_presses"":14,""num_perfect"":6,""num_errors"":0,""num_randdir"":8,""num_randdir_good_moves"":2,""num_whilered"":0,""num_whileblue"":0,""num_blue"":4,""num_good_moves"":8}","[421.5714133126395,407.82142761775424,0.4,421.5714133126395,407.82142761775424,104.6,421.5714133126395,407.82142761775424,214.2,421.5714133126395,407.82142761775424,324.6,421.5714133126395,407.82142761775424,436.5,421.5714133126395,407.82142761775424,543,421.5714133126395,407.82142761775424,651.4,421.5714133126395,407.82142761775424,754.3,235.3214133126395,271.57142761775424,859.9,134.0714133126395,152.82142761775424,962.4,132.8214133126395,150.32142761775424,1075.7,132.8214133126395,150.32142761775424,1183.9,116.5714133126395,132.82142761775424,1287.7,96.5714133126395,107.82142761775425,1399.7,96.5714133126395,107.82142761775425,1504.7,96.5714133126395,107.82142761775425,1619.5,96.5714133126395,107.82142761775425,1719.6,96.5714133126395,107.82142761775425,1819.6,96.5714133126395,107.82142761775425,1925.5,96.5714133126395,107.82142761775425,2027.9,96.5714133126395,107.82142761775425,2137.8,530.3214133126395,15.321427617754253,2246.3,697.8214133126395,29.071427617754253,2353.8,697.8214133126395,29.071427617754253,2462.3,697.8214133126395,29.071427617754253,2567.9,697.8214133126395,29.071427617754253,2674.6,697.8214133126395,29.071427617754253,2775,697.8214133126395,29.071427617754253,2882.6,697.8214133126395,29.071427617754253,2988.2,697.8214133126395,29.071427617754253,3090,697.8214133126395,29.071427617754253,3195.6,697.8214133126395,29.071427617754253,3302.4,697.8214133126395,29.071427617754253,3410.7,697.8214133126395,29.071427617754253,3510.8,697.8214133126395,29.071427617754253,3614.7,697.8214133126395,29.071427617754253,3721.1,697.8214133126395,29.071427617754253,3821.6,697.8214133126395,29.071427617754253,3929.2,697.8214133126395,29.071427617754253,4037.4,697.8214133126395,29.071427617754253,4147.4,697.8214133126395,29.071427617754253,4248.2,697.8214133126395,29.071427617754253,4351.6,697.8214133126395,29.071427617754253,4460.7,697.8214133126395,29.071427617754253,4568,697.8214133126395,29.071427617754253,4678.4,697.8214133126395,29.071427617754253,4790,697.8214133126395,29.071427617754253,4893.6]","[1412.6,1412.6,1000,0,412.6,""oops"",""left"",""right"",""bad_move"",4259,2845.8,2458.6,1413.2,387.2,""oops"",""left"",""right"",""bad_move"",8161.8,3902.1,3200.6,4259.8,701.4,""smooth"",""left"",""left"",""good_move"",10890.5,2727.8,2376.8,8162.7,351,""smooth"",""left"",""left"",""good_move"",14008.3,3117.5,2727,10890.8,390.5,""smooth"",""left"",""left"",""good_move"",16595.7,2587,2186.1,14008.7,400.9,""oops"",""left"",""right"",""bad_move"",23941.2,7344.7,3128.8,19739,1073.4,""oops"",""left"",""left"",""good_move"",26390,2448.5,1743.7,23941.5,704.8,""oops"",""left"",""left"",""good_move"",32170.4,5780,1252,30509.3,409.1,""smooth"",""up"",""up"",""good_move"",35619.1,3448,2991.7,32171.1,456.3,""oops"",""up"",""down"",""bad_move"",37997.3,2377.7,1954.4,35619.6,423.3,""oops"",""up"",""down"",""bad_move"",41153.1,3155.2,2668.5,37997.9,486.7,""smooth"",""up"",""up"",""good_move"",44059.4,2905.9,2507.8,41153.5,398.1,""oops"",""up"",""down"",""bad_move"",51449.4,7389.3,3258.2,47759.5,431.7,""smooth"",""up"",""up"",""good_move""]","",""
"5731","","<div style=""width:500px;"">
  <p>What determined the result of this run?</p>
  </div>","0","html-slider-response","55","795967","0.0-5.0-1.9","162","1","2025-07-23 06:46:05","1f75c3e559b7213887762d5229550c2b","212.69.57.202","Mozilla/5.0 (X11; CrOS x86_64 14541.0.0) AppleWebKit/537.36 (KHTML, like Gecko) Chrome/137.0.0.0 Safari/537.36","WebKit","Chrome","137.0.0.0","ChromeOS","14541.0.0","https://app.prolific.com/","en-GB,en;q=0.9","5d9a55cb01556d0013fa8369","683dba2a8a9dda3513610c04","688085221de4a22cca34fb7b","3","0","5d9a55cb01556d0013fa8369","3","0","2025-07-23T06:59:21.345Z","","","","","","","","","","","AttribQ","","50","","","","","","","","","","","","","","","","","","","","","","","","","","","","",""
"2689","","<div style=""width:500px;"">
  <p>How much control did you have over the ball?</p>
  </div>","0","html-slider-response","56","798659","0.0-5.0-2.9","162","1","2025-07-23 06:46:05","1f75c3e559b7213887762d5229550c2b","212.69.57.202","Mozilla/5.0 (X11; CrOS x86_64 14541.0.0) AppleWebKit/537.36 (KHTML, like Gecko) Chrome/137.0.0.0 Safari/537.36","WebKit","Chrome","137.0.0.0","ChromeOS","14541.0.0","https://app.prolific.com/","en-GB,en;q=0.9","5d9a55cb01556d0013fa8369","683dba2a8a9dda3513610c04","688085221de4a22cca34fb7b","3","0","5d9a55cb01556d0013fa8369","3","0","2025-07-23T06:59:24.037Z","","","","","","","","","","","ControlQ","","50","","","","","","","","","","","","","","","","","","","","","","","","","","","","",""
"2669","","<div style=""width:500px;"">
  <p>How would you describe your current emotional state?</p>
  </div>","7","html-slider-response","57","801331","0.0-5.0-3.9","162","1","2025-07-23 06:46:05","1f75c3e559b7213887762d5229550c2b","212.69.57.202","Mozilla/5.0 (X11; CrOS x86_64 14541.0.0) AppleWebKit/537.36 (KHTML, like Gecko) Chrome/137.0.0.0 Safari/537.36","WebKit","Chrome","137.0.0.0","ChromeOS","14541.0.0","https://app.prolific.com/","en-GB,en;q=0.9","5d9a55cb01556d0013fa8369","683dba2a8a9dda3513610c04","688085221de4a22cca34fb7b","3","0","5d9a55cb01556d0013fa8369","3","0","2025-07-23T06:59:26.709Z","","","","","","","","","","","StressQ","","50","","","","","","","","","","","","","","","","","","","","","","","","","","","","",""
"2520","","<div style=""width:500px;"">
  <p>What best describes how you currently feel?</p>
  </div>","0","html-slider-response","58","803853","0.0-5.0-4.9","162","1","2025-07-23 06:46:05","1f75c3e559b7213887762d5229550c2b","212.69.57.202","Mozilla/5.0 (X11; CrOS x86_64 14541.0.0) AppleWebKit/537.36 (KHTML, like Gecko) Chrome/137.0.0.0 Safari/537.36","WebKit","Chrome","137.0.0.0","ChromeOS","14541.0.0","https://app.prolific.com/","en-GB,en;q=0.9","5d9a55cb01556d0013fa8369","683dba2a8a9dda3513610c04","688085221de4a22cca34fb7b","3","0","5d9a55cb01556d0013fa8369","3","0","2025-07-23T06:59:29.231Z","","","","","","","","","","","MotivationQ","","50","","","","","","","","","","","","","","","","","","","","","","","","","","","","",""
"","","","","ctl-task-cpt","59","831385","0.0-5.0-0.10","162","1","2025-07-23 06:46:05","1f75c3e559b7213887762d5229550c2b","212.69.57.202","Mozilla/5.0 (X11; CrOS x86_64 14541.0.0) AppleWebKit/537.36 (KHTML, like Gecko) Chrome/137.0.0.0 Safari/537.36","WebKit","Chrome","137.0.0.0","ChromeOS","14541.0.0","https://app.prolific.com/","en-GB,en;q=0.9","5d9a55cb01556d0013fa8369","683dba2a8a9dda3513610c04","688085221de4a22cca34fb7b","3","0","5d9a55cb01556d0013fa8369","3","0","2025-07-23T06:59:56.763Z","","","","","","","","","","","","","","win-only","2","g1:SE,g2:NW","0.5","11","0","804977.7","1587.5","6598.3","24513.8","1","4","8","6","1","1","1","16","15","0.12121212121212122","1627.8","3000","1900","[""down"",""right""]","{""num_key_presses"":6,""num_perfect"":3,""num_errors"":0,""num_randdir"":3,""num_randdir_good_moves"":2,""num_whilered"":0,""num_whileblue"":0,""num_blue"":0,""num_good_moves"":5}","[412.8214133126395,422.82142761775424,0.9,412.8214133126395,422.82142761775424,111.9,412.8214133126395,422.82142761775424,214.2,412.8214133126395,422.82142761775424,315.6,412.8214133126395,422.82142761775424,424.6,412.8214133126395,422.82142761775424,544.4,412.8214133126395,422.82142761775424,647.2,412.8214133126395,422.82142761775424,750.2,642.8214133126395,600.3214276177542,855.3,670.3214133126395,644.0714276177542,962.6,671.5714133126395,647.8214276177542,1069,729.0714133126395,762.8214276177542,1176.3,736.5714133126395,770.3214276177542,1294.3,736.5714133126395,770.3214276177542,1400.6,736.5714133126395,770.3214276177542,1504.7,736.5714133126395,770.3214276177542,1611.7,736.5714133126395,770.3214276177542,1724.1,736.5714133126395,770.3214276177542,1827,736.5714133126395,770.3214276177542,1937.2,736.5714133126395,770.3214276177542,2043.9,736.5714133126395,770.3214276177542,2149.5,1027.8214133126396,657.8214276177542,2259.6,1375.3214133126396,584.0714276177542,2368.7,1375.3214133126396,590.3214276177542,2473,1375.3214133126396,590.3214276177542,2578.4,1375.3214133126396,590.3214276177542,2686.3,1375.3214133126396,590.3214276177542,2793.8,1375.3214133126396,590.3214276177542,2907,1375.3214133126396,590.3214276177542,3018.6,1375.3214133126396,590.3214276177542,3135.8,1375.3214133126396,590.3214276177542,3249.3,1375.3214133126396,590.3214276177542,3360,1375.3214133126396,590.3214276177542,3472.2,1375.3214133126396,590.3214276177542,3585.6,1375.3214133126396,590.3214276177542,3698.1,1375.3214133126396,590.3214276177542,3816.3,1375.3214133126396,590.3214276177542,3929.1,1375.3214133126396,590.3214276177542,4040.6,1375.3214133126396,590.3214276177542,4161.6,1375.3214133126396,590.3214276177542,4275,1375.3214133126396,590.3214276177542,4389,1375.3214133126396,590.3214276177542,4539.6,1375.3214133126396,590.3214276177542,4649.5,1375.3214133126396,590.3214276177542,4762.1,1375.3214133126396,590.3214276177542,4877.6,1375.3214133126396,590.3214276177542,4980.9]","[1405.9,1405.9,1000,0,405.9,""oops"",""down"",""down"",""good_move"",4749.3,3342.5,2838.9,1406.8,503.6,""smooth"",""down"",""down"",""good_move"",7802.8,3053,2689.4,4749.8,363.6,""oops"",""right"",""left"",""bad_move"",10887.7,3084.3,2258.2,7803.4,826.1,""smooth"",""right"",""right"",""good_move"",14332.8,3444.2,2971,10888.6,473.2,""oops"",""right"",""right"",""good_move"",17702.1,3368.8,2997,14333.3,371.8,""smooth"",""right"",""right"",""good_move""]","",""
"7101","","<div style=""width:500px;"">
  <p>What determined the result of this run?</p>
  </div>","0","html-slider-response","60","838487","0.0-5.0-1.10","162","1","2025-07-23 06:46:05","1f75c3e559b7213887762d5229550c2b","212.69.57.202","Mozilla/5.0 (X11; CrOS x86_64 14541.0.0) AppleWebKit/537.36 (KHTML, like Gecko) Chrome/137.0.0.0 Safari/537.36","WebKit","Chrome","137.0.0.0","ChromeOS","14541.0.0","https://app.prolific.com/","en-GB,en;q=0.9","5d9a55cb01556d0013fa8369","683dba2a8a9dda3513610c04","688085221de4a22cca34fb7b","3","0","5d9a55cb01556d0013fa8369","3","0","2025-07-23T07:00:03.866Z","","","","","","","","","","","AttribQ","","50","","","","","","","","","","","","","","","","","","","","","","","","","","","","",""
"2759","","<div style=""width:500px;"">
  <p>How much control did you have over the ball?</p>
  </div>","0","html-slider-response","61","841249","0.0-5.0-2.10","162","1","2025-07-23 06:46:05","1f75c3e559b7213887762d5229550c2b","212.69.57.202","Mozilla/5.0 (X11; CrOS x86_64 14541.0.0) AppleWebKit/537.36 (KHTML, like Gecko) Chrome/137.0.0.0 Safari/537.36","WebKit","Chrome","137.0.0.0","ChromeOS","14541.0.0","https://app.prolific.com/","en-GB,en;q=0.9","5d9a55cb01556d0013fa8369","683dba2a8a9dda3513610c04","688085221de4a22cca34fb7b","3","0","5d9a55cb01556d0013fa8369","3","0","2025-07-23T07:00:06.627Z","","","","","","","","","","","ControlQ","","50","","","","","","","","","","","","","","","","","","","","","","","","","","","","",""
"3078","","<div style=""width:500px;"">
  <p>How would you describe your current emotional state?</p>
  </div>","7","html-slider-response","62","844330","0.0-5.0-3.10","162","1","2025-07-23 06:46:05","1f75c3e559b7213887762d5229550c2b","212.69.57.202","Mozilla/5.0 (X11; CrOS x86_64 14541.0.0) AppleWebKit/537.36 (KHTML, like Gecko) Chrome/137.0.0.0 Safari/537.36","WebKit","Chrome","137.0.0.0","ChromeOS","14541.0.0","https://app.prolific.com/","en-GB,en;q=0.9","5d9a55cb01556d0013fa8369","683dba2a8a9dda3513610c04","688085221de4a22cca34fb7b","3","0","5d9a55cb01556d0013fa8369","3","0","2025-07-23T07:00:09.708Z","","","","","","","","","","","StressQ","","50","","","","","","","","","","","","","","","","","","","","","","","","","","","","",""
"2700","","<div style=""width:500px;"">
  <p>What best describes how you currently feel?</p>
  </div>","0","html-slider-response","63","847031","0.0-5.0-4.10","162","1","2025-07-23 06:46:05","1f75c3e559b7213887762d5229550c2b","212.69.57.202","Mozilla/5.0 (X11; CrOS x86_64 14541.0.0) AppleWebKit/537.36 (KHTML, like Gecko) Chrome/137.0.0.0 Safari/537.36","WebKit","Chrome","137.0.0.0","ChromeOS","14541.0.0","https://app.prolific.com/","en-GB,en;q=0.9","5d9a55cb01556d0013fa8369","683dba2a8a9dda3513610c04","688085221de4a22cca34fb7b","3","0","5d9a55cb01556d0013fa8369","3","0","2025-07-23T07:00:12.410Z","","","","","","","","","","","MotivationQ","","50","","","","","","","","","","","","","","","","","","","","","","","","","","","","",""
"","","","","ctl-task-cpt","64","870797","0.0-5.0-0.11","162","1","2025-07-23 06:46:05","1f75c3e559b7213887762d5229550c2b","212.69.57.202","Mozilla/5.0 (X11; CrOS x86_64 14541.0.0) AppleWebKit/537.36 (KHTML, like Gecko) Chrome/137.0.0.0 Safari/537.36","WebKit","Chrome","137.0.0.0","ChromeOS","14541.0.0","https://app.prolific.com/","en-GB,en;q=0.9","5d9a55cb01556d0013fa8369","683dba2a8a9dda3513610c04","688085221de4a22cca34fb7b","3","0","5d9a55cb01556d0013fa8369","3","0","2025-07-23T07:00:36.175Z","","","","","","","","","","","","","","win-only","1","g1:NE,g2:SW","0.6","12","0","848155.6","1726.5","6734.8","20740.7","1","4","4","6","1","1","1","17","16","0.12878787878787878","1435.2","3000","2455","[""up"",""right""]","{""num_key_presses"":4,""num_perfect"":2,""num_errors"":0,""num_randdir"":2,""num_randdir_good_moves"":2,""num_whilered"":0,""num_whileblue"":0,""num_blue"":1,""num_good_moves"":4}","[425.3214133126395,417.82142761775424,0.5,425.3214133126395,417.82142761775424,116,425.3214133126395,417.82142761775424,222.1,425.3214133126395,417.82142761775424,338.4,425.3214133126395,417.82142761775424,438.4,425.3214133126395,417.82142761775424,546.1,425.3214133126395,417.82142761775424,646.5,566.5714133126395,256.57142761775424,762.4,601.5714133126395,205.32142761775424,868.5,657.8214133126395,174.07142761775424,983.2,746.5714133126395,99.07142761775425,1094.2,755.3214133126395,89.07142761775425,1202.8,755.3214133126395,89.07142761775425,1306.9,755.3214133126395,89.07142761775425,1408,755.3214133126395,89.07142761775425,1513.6,755.3214133126395,89.07142761775425,1623.9,836.5714133126395,61.57142761775425,1738.5,1210.3214133126396,41.57142761775425,1839.2,1210.3214133126396,41.57142761775425,1942.6,1210.3214133126396,41.57142761775425,2056.8,1210.3214133126396,41.57142761775425,2170.3,1210.3214133126396,41.57142761775425,2281.9,1210.3214133126396,41.57142761775425,2393.2,1210.3214133126396,41.57142761775425,2506.6,1210.3214133126396,41.57142761775425,2618.2,1210.3214133126396,41.57142761775425,2725.4,1210.3214133126396,41.57142761775425,2828,1210.3214133126396,41.57142761775425,2935.6,1210.3214133126396,41.57142761775425,3060.9,1210.3214133126396,41.57142761775425,3176.2,1210.3214133126396,41.57142761775425,3282.5,1210.3214133126396,41.57142761775425,3393.9,1210.3214133126396,41.57142761775425,3497.2,1210.3214133126396,41.57142761775425,3610.5,1210.3214133126396,41.57142761775425,3713.7,1210.3214133126396,41.57142761775425,3819.9,1210.3214133126396,41.57142761775425,3926.1,1210.3214133126396,41.57142761775425,4030.5,1210.3214133126396,41.57142761775425,4140.9,1210.3214133126396,41.57142761775425,4254.6,1210.3214133126396,41.57142761775425,4364.9,1210.3214133126396,41.57142761775425,4481.3,1210.3214133126396,41.57142761775425,4585.4,1210.3214133126396,41.57142761775425,4696.6,1210.3214133126396,41.57142761775425,4807.1,1210.3214133126396,41.57142761775425,4914.8]","[5089.9,5089.9,2621.8,2020.3,447.8,""smooth"",""up"",""up"",""good_move"",8322.9,3232.1,2410.9,5090.8,821.2,""oops"",""up"",""up"",""good_move"",11362.3,3038.1,2599.5,8324.2,438.6,""oops"",""right"",""right"",""good_move"",13729.1,2366.1,1990.9,11363,375.2,""smooth"",""right"",""right"",""good_move""]","",""
"4373","","<div style=""width:500px;"">
  <p>What determined the result of this run?</p>
  </div>","0","html-slider-response","65","875172","0.0-5.0-1.11","162","1","2025-07-23 06:46:05","1f75c3e559b7213887762d5229550c2b","212.69.57.202","Mozilla/5.0 (X11; CrOS x86_64 14541.0.0) AppleWebKit/537.36 (KHTML, like Gecko) Chrome/137.0.0.0 Safari/537.36","WebKit","Chrome","137.0.0.0","ChromeOS","14541.0.0","https://app.prolific.com/","en-GB,en;q=0.9","5d9a55cb01556d0013fa8369","683dba2a8a9dda3513610c04","688085221de4a22cca34fb7b","3","0","5d9a55cb01556d0013fa8369","3","0","2025-07-23T07:00:40.550Z","","","","","","","","","","","AttribQ","","50","","","","","","","","","","","","","","","","","","","","","","","","","","","","",""
"2766","","<div style=""width:500px;"">
  <p>How much control did you have over the ball?</p>
  </div>","0","html-slider-response","66","877941","0.0-5.0-2.11","162","1","2025-07-23 06:46:05","1f75c3e559b7213887762d5229550c2b","212.69.57.202","Mozilla/5.0 (X11; CrOS x86_64 14541.0.0) AppleWebKit/537.36 (KHTML, like Gecko) Chrome/137.0.0.0 Safari/537.36","WebKit","Chrome","137.0.0.0","ChromeOS","14541.0.0","https://app.prolific.com/","en-GB,en;q=0.9","5d9a55cb01556d0013fa8369","683dba2a8a9dda3513610c04","688085221de4a22cca34fb7b","3","0","5d9a55cb01556d0013fa8369","3","0","2025-07-23T07:00:43.319Z","","","","","","","","","","","ControlQ","","50","","","","","","","","","","","","","","","","","","","","","","","","","","","","",""
"2680","","<div style=""width:500px;"">
  <p>How would you describe your current emotional state?</p>
  </div>","5","html-slider-response","67","880622","0.0-5.0-3.11","162","1","2025-07-23 06:46:05","1f75c3e559b7213887762d5229550c2b","212.69.57.202","Mozilla/5.0 (X11; CrOS x86_64 14541.0.0) AppleWebKit/537.36 (KHTML, like Gecko) Chrome/137.0.0.0 Safari/537.36","WebKit","Chrome","137.0.0.0","ChromeOS","14541.0.0","https://app.prolific.com/","en-GB,en;q=0.9","5d9a55cb01556d0013fa8369","683dba2a8a9dda3513610c04","688085221de4a22cca34fb7b","3","0","5d9a55cb01556d0013fa8369","3","0","2025-07-23T07:00:46.001Z","","","","","","","","","","","StressQ","","50","","","","","","","","","","","","","","","","","","","","","","","","","","","","",""
"3146","","<div style=""width:500px;"">
  <p>What best describes how you currently feel?</p>
  </div>","0","html-slider-response","68","883770","0.0-5.0-4.11","162","1","2025-07-23 06:46:05","1f75c3e559b7213887762d5229550c2b","212.69.57.202","Mozilla/5.0 (X11; CrOS x86_64 14541.0.0) AppleWebKit/537.36 (KHTML, like Gecko) Chrome/137.0.0.0 Safari/537.36","WebKit","Chrome","137.0.0.0","ChromeOS","14541.0.0","https://app.prolific.com/","en-GB,en;q=0.9","5d9a55cb01556d0013fa8369","683dba2a8a9dda3513610c04","688085221de4a22cca34fb7b","3","0","5d9a55cb01556d0013fa8369","3","0","2025-07-23T07:00:49.149Z","","","","","","","","","","","MotivationQ","","50","","","","","","","","","","","","","","","","","","","","","","","","","","","","",""
"","","","","ctl-task-cpt","69","917468","0.0-5.0-0.12","162","1","2025-07-23 06:46:05","1f75c3e559b7213887762d5229550c2b","212.69.57.202","Mozilla/5.0 (X11; CrOS x86_64 14541.0.0) AppleWebKit/537.36 (KHTML, like Gecko) Chrome/137.0.0.0 Safari/537.36","WebKit","Chrome","137.0.0.0","ChromeOS","14541.0.0","https://app.prolific.com/","en-GB,en;q=0.9","5d9a55cb01556d0013fa8369","683dba2a8a9dda3513610c04","688085221de4a22cca34fb7b","3","0","5d9a55cb01556d0013fa8369","3","0","2025-07-23T07:01:22.846Z","","","","","","","","","","","","","","win-only","2","g1:SE,g2:NW","0.7","13","0","884894.5","1551","6564.2","30668.7","1","4","4","6","1","1","1","18","17","0.13636363636363635","1554.9","3000","1920","[""down"",""right""]","{""num_key_presses"":6,""num_perfect"":4,""num_errors"":0,""num_randdir"":2,""num_randdir_good_moves"":1,""num_whilered"":0,""num_whileblue"":0,""num_blue"":2,""num_good_moves"":5}","[412.8214133126395,410.32142761775424,0.3,412.8214133126395,410.32142761775424,111.6,412.8214133126395,410.32142761775424,225,412.8214133126395,410.32142761775424,326.4,412.8214133126395,410.32142761775424,430.2,412.8214133126395,410.32142761775424,545.6,412.8214133126395,410.32142761775424,659.4,625.3214133126395,597.8214276177542,773.9,667.8214133126395,657.8214276177542,888.6,675.3214133126395,675.3214276177542,1003.6,689.0714133126395,695.3214276177542,1105.7,717.8214133126395,720.3214276177542,1208.8,721.5714133126395,725.3214276177542,1316.2,721.5714133126395,725.3214276177542,1426.4,721.5714133126395,725.3214276177542,1531.1,721.5714133126395,725.3214276177542,1635.4,721.5714133126395,725.3214276177542,1736.9,794.0714133126395,707.8214276177542,1847.6,1117.8214133126396,711.5714276177542,1952,1122.8214133126396,711.5714276177542,2057.9,1122.8214133126396,711.5714276177542,2172.9,1122.8214133126396,711.5714276177542,2285.2,1122.8214133126396,711.5714276177542,2404,1122.8214133126396,711.5714276177542,2508.3,1122.8214133126396,711.5714276177542,2612,1122.8214133126396,711.5714276177542,2715.2,1122.8214133126396,711.5714276177542,2828.7,1122.8214133126396,711.5714276177542,2929.3,1122.8214133126396,711.5714276177542,3042.5,1122.8214133126396,711.5714276177542,3143.8,1122.8214133126396,711.5714276177542,3249.8,1122.8214133126396,711.5714276177542,3358.8,1122.8214133126396,711.5714276177542,3461.5,1122.8214133126396,711.5714276177542,3566,1122.8214133126396,711.5714276177542,3667,1122.8214133126396,711.5714276177542,3778.2,1122.8214133126396,711.5714276177542,3881.2,1122.8214133126396,711.5714276177542,3988.1,1122.8214133126396,711.5714276177542,4093.8,1122.8214133126396,711.5714276177542,4199.7,1122.8214133126396,711.5714276177542,4300.4,1122.8214133126396,711.5714276177542,4400.6,1122.8214133126396,711.5714276177542,4511.6,1122.8214133126396,711.5714276177542,4617.4,1122.8214133126396,711.5714276177542,4732.4,1122.8214133126396,711.5714276177542,4840,1122.8214133126396,711.5714276177542,4942.2]","[1931,1931,1000,0,931,""smooth"",""down"",""down"",""good_move"",7840,5908.2,2513.7,4945.4,380.9,""oops"",""down"",""down"",""good_move"",14263.2,6422.8,3053.4,10836.9,372.9,""oops"",""right"",""up"",""bad_move"",17099.4,2835.5,2215.5,14263.9,620,""smooth"",""right"",""right"",""good_move"",20165.6,3065.5,2477.4,17100.1,588.1,""smooth"",""right"",""right"",""good_move"",23790.8,3624.7,2967,20166.1,657.8,""smooth"",""down"",""down"",""good_move""]","",""
"4783","","<div style=""width:500px;"">
  <p>What determined the result of this run?</p>
  </div>","1","html-slider-response","70","922254","0.0-5.0-1.12","162","1","2025-07-23 06:46:05","1f75c3e559b7213887762d5229550c2b","212.69.57.202","Mozilla/5.0 (X11; CrOS x86_64 14541.0.0) AppleWebKit/537.36 (KHTML, like Gecko) Chrome/137.0.0.0 Safari/537.36","WebKit","Chrome","137.0.0.0","ChromeOS","14541.0.0","https://app.prolific.com/","en-GB,en;q=0.9","5d9a55cb01556d0013fa8369","683dba2a8a9dda3513610c04","688085221de4a22cca34fb7b","3","0","5d9a55cb01556d0013fa8369","3","0","2025-07-23T07:01:27.632Z","","","","","","","","","","","AttribQ","","50","","","","","","","","","","","","","","","","","","","","","","","","","","","","",""
"2690","","<div style=""width:500px;"">
  <p>How much control did you have over the ball?</p>
  </div>","0","html-slider-response","71","924945","0.0-5.0-2.12","162","1","2025-07-23 06:46:05","1f75c3e559b7213887762d5229550c2b","212.69.57.202","Mozilla/5.0 (X11; CrOS x86_64 14541.0.0) AppleWebKit/537.36 (KHTML, like Gecko) Chrome/137.0.0.0 Safari/537.36","WebKit","Chrome","137.0.0.0","ChromeOS","14541.0.0","https://app.prolific.com/","en-GB,en;q=0.9","5d9a55cb01556d0013fa8369","683dba2a8a9dda3513610c04","688085221de4a22cca34fb7b","3","0","5d9a55cb01556d0013fa8369","3","0","2025-07-23T07:01:30.324Z","","","","","","","","","","","ControlQ","","50","","","","","","","","","","","","","","","","","","","","","","","","","","","","",""
"3268","","<div style=""width:500px;"">
  <p>How would you describe your current emotional state?</p>
  </div>","5","html-slider-response","72","928215","0.0-5.0-3.12","162","1","2025-07-23 06:46:05","1f75c3e559b7213887762d5229550c2b","212.69.57.202","Mozilla/5.0 (X11; CrOS x86_64 14541.0.0) AppleWebKit/537.36 (KHTML, like Gecko) Chrome/137.0.0.0 Safari/537.36","WebKit","Chrome","137.0.0.0","ChromeOS","14541.0.0","https://app.prolific.com/","en-GB,en;q=0.9","5d9a55cb01556d0013fa8369","683dba2a8a9dda3513610c04","688085221de4a22cca34fb7b","3","0","5d9a55cb01556d0013fa8369","3","0","2025-07-23T07:01:33.593Z","","","","","","","","","","","StressQ","","50","","","","","","","","","","","","","","","","","","","","","","","","","","","","",""
"2898","","<div style=""width:500px;"">
  <p>What best describes how you currently feel?</p>
  </div>","0","html-slider-response","73","931115","0.0-5.0-4.12","162","1","2025-07-23 06:46:05","1f75c3e559b7213887762d5229550c2b","212.69.57.202","Mozilla/5.0 (X11; CrOS x86_64 14541.0.0) AppleWebKit/537.36 (KHTML, like Gecko) Chrome/137.0.0.0 Safari/537.36","WebKit","Chrome","137.0.0.0","ChromeOS","14541.0.0","https://app.prolific.com/","en-GB,en;q=0.9","5d9a55cb01556d0013fa8369","683dba2a8a9dda3513610c04","688085221de4a22cca34fb7b","3","0","5d9a55cb01556d0013fa8369","3","0","2025-07-23T07:01:36.494Z","","","","","","","","","","","MotivationQ","","50","","","","","","","","","","","","","","","","","","","","","","","","","","","","",""
"","","","","ctl-task-cpt","74","966648","0.0-5.0-0.13","162","1","2025-07-23 06:46:05","1f75c3e559b7213887762d5229550c2b","212.69.57.202","Mozilla/5.0 (X11; CrOS x86_64 14541.0.0) AppleWebKit/537.36 (KHTML, like Gecko) Chrome/137.0.0.0 Safari/537.36","WebKit","Chrome","137.0.0.0","ChromeOS","14541.0.0","https://app.prolific.com/","en-GB,en;q=0.9","5d9a55cb01556d0013fa8369","683dba2a8a9dda3513610c04","688085221de4a22cca34fb7b","3","0","5d9a55cb01556d0013fa8369","3","0","2025-07-23T07:02:12.026Z","","","","","","","","","","","","","","win-only","0","g1:NW,g2:SE","0.8","14","0","932240.2","1738","6745.7","32502.2","1","4","8","6","1","1","1","19","18","0.14393939393939395","2832.6","3000","2260","[""left"",""up""]","{""num_key_presses"":6,""num_perfect"":5,""num_errors"":0,""num_randdir"":1,""num_randdir_good_moves"":0,""num_whilered"":0,""num_whileblue"":0,""num_blue"":2,""num_good_moves"":5}","[411.5714133126395,412.82142761775424,0.5,411.5714133126395,412.82142761775424,114.5,411.5714133126395,412.82142761775424,218.1,411.5714133126395,412.82142761775424,327.1,411.5714133126395,412.82142761775424,439.4,411.5714133126395,412.82142761775424,548.1,411.5714133126395,412.82142761775424,649.5,411.5714133126395,412.82142761775424,758.1,184.0714133126395,211.57142761775424,877.7,179.0714133126395,204.07142761775424,987.4,179.0714133126395,204.07142761775424,1098.1,179.0714133126395,204.07142761775424,1204.7,145.3214133126395,181.57142761775424,1307.4,131.5714133126395,161.57142761775424,1410.5,124.0714133126395,139.07142761775424,1519.5,124.0714133126395,139.07142761775424,1628.3,124.0714133126395,139.07142761775424,1739.3,124.0714133126395,139.07142761775424,1845.4,124.0714133126395,139.07142761775424,1955.2,124.0714133126395,139.07142761775424,2064.5,124.0714133126395,139.07142761775424,2165.8,124.0714133126395,139.07142761775424,2271.9,124.0714133126395,139.07142761775424,2383.8,94.0714133126395,72.82142761775425,2484.3,89.0714133126395,60.32142761775425,2592.5,89.0714133126395,60.32142761775425,2697.5,89.0714133126395,60.32142761775425,2807.6,89.0714133126395,60.32142761775425,2908.2,89.0714133126395,60.32142761775425,3014.7,67.8214133126395,66.57142761775425,3117.1,-289.6785866873605,142.82142761775424,3222.7,-292.1785866873605,144.07142761775424,3324.4,-292.1785866873605,144.07142761775424,3429.3,-292.1785866873605,144.07142761775424,3539,-292.1785866873605,144.07142761775424,3646.4,-292.1785866873605,144.07142761775424,3748.7,-292.1785866873605,144.07142761775424,3861.7,-292.1785866873605,144.07142761775424,3970.3,-292.1785866873605,144.07142761775424,4073.1,-292.1785866873605,144.07142761775424,4175.5,-292.1785866873605,144.07142761775424,4290.9,-292.1785866873605,144.07142761775424,4391.5,-292.1785866873605,144.07142761775424,4503.7,-292.1785866873605,144.07142761775424,4618,-292.1785866873605,144.07142761775424,4720.5,-292.1785866873605,144.07142761775424,4830.3,-292.1785866873605,144.07142761775424,4945.3]","[5367.4,5367.4,2830.4,2015.9,521.1,""smooth"",""left"",""left"",""good_move"",8470,3102,2125.2,5368,976.8,""oops"",""left"",""right"",""bad_move"",11945.5,3474.7,3098.8,8470.8,375.9,""smooth"",""left"",""left"",""good_move"",18634.3,6688.3,2168.4,15937.6,528.3,""smooth"",""left"",""left"",""good_move"",22148.1,3513.5,2408.6,18634.6,1104.9,""smooth"",""up"",""up"",""good_move"",25448.9,3299.8,2888.2,22149.1,411.6,""smooth"",""up"",""up"",""good_move""]","",""
"4433","","<div style=""width:500px;"">
  <p>What determined the result of this run?</p>
  </div>","1","html-slider-response","75","971084","0.0-5.0-1.13","162","1","2025-07-23 06:46:05","1f75c3e559b7213887762d5229550c2b","212.69.57.202","Mozilla/5.0 (X11; CrOS x86_64 14541.0.0) AppleWebKit/537.36 (KHTML, like Gecko) Chrome/137.0.0.0 Safari/537.36","WebKit","Chrome","137.0.0.0","ChromeOS","14541.0.0","https://app.prolific.com/","en-GB,en;q=0.9","5d9a55cb01556d0013fa8369","683dba2a8a9dda3513610c04","688085221de4a22cca34fb7b","3","0","5d9a55cb01556d0013fa8369","3","0","2025-07-23T07:02:16.462Z","","","","","","","","","","","AttribQ","","50","","","","","","","","","","","","","","","","","","","","","","","","","","","","",""
"3268","","<div style=""width:500px;"">
  <p>How much control did you have over the ball?</p>
  </div>","0","html-slider-response","76","974354","0.0-5.0-2.13","162","1","2025-07-23 06:46:05","1f75c3e559b7213887762d5229550c2b","212.69.57.202","Mozilla/5.0 (X11; CrOS x86_64 14541.0.0) AppleWebKit/537.36 (KHTML, like Gecko) Chrome/137.0.0.0 Safari/537.36","WebKit","Chrome","137.0.0.0","ChromeOS","14541.0.0","https://app.prolific.com/","en-GB,en;q=0.9","5d9a55cb01556d0013fa8369","683dba2a8a9dda3513610c04","688085221de4a22cca34fb7b","3","0","5d9a55cb01556d0013fa8369","3","0","2025-07-23T07:02:19.732Z","","","","","","","","","","","ControlQ","","50","","","","","","","","","","","","","","","","","","","","","","","","","","","","",""
"2836","","<div style=""width:500px;"">
  <p>How would you describe your current emotional state?</p>
