"rt","response_timestamp","stimulus","response","trial_type","trial_index","time_elapsed","internal_node_id","run_id","condition","recorded_at","source_code_version","ip","user_agent","device","browser","browser_version","platform","platform_version","referer","accept_language","PROLIFIC_PID","STUDY_ID","SESSION_ID","WEEK","BATCH","prolific_id","week","batch","realtime","success","responses","item_order","radio_event_ids","radio_event_times","key_event_times","mouse_event_times","straightlining","zigzagging","honeypot","eventType","view_history","slider_start","which_type","canvas_config","goals_layout","control_level","trial_number","tutorial_trial_number","trial_start_time","phase1_start_time","phase2_start_time","phase3_start_time","goal_1_value","goal_1_distance","goal_2_value","goal_2_distance","goal_selected","outcome","outcome_total","participant_final_score","participant_initial_score","participant_final_score_prop","goal_choice_rt","allocated_time","allocated_time_remaining","goal_direction","counts","mouse_movements","key_presses","question_order","question_id"
"2160","1753864644256","<p style='font-size:40px;line-height:1.25'><strong>Welcome to the experiment!</strong></p><p style='font-size:1.1em;line-height:1.25'>Thank you for participanting in our experiment again! You will be asked to play the Dysfunctional Ball Game again. We will briefly recap the rules before we start.</p><p style='font-size:1.1em;line-height:1.25'>Press <strong>Next</strong> to continue.</p>","0","custom-html-button-response","0","2162","0.0-0.0","252","1","2025-07-30 08:37:19","1f75c3e559b7213887762d5229550c2b","122.133.157.125","Mozilla/5.0 (Macintosh; Intel Mac OS X 10_15_7) AppleWebKit/537.36 (KHTML, like Gecko) Chrome/138.0.0.0 Safari/537.36","Macintosh","Chrome","138.0.0.0","OS X","10_15_7","https://app.prolific.com/","en-US,en;q=0.9","65cb0f21257c8a98f470bb5d","6877631c9844ddd5501205fc","6889d9b1341611b1de254383","3","1","65cb0f21257c8a98f470bb5d","3","1","2025-07-30T08:37:24.256Z","","","","","","","","","","","","","","","","","","","","","","","","","","","","","","","","","","","","","","","","","",""
"3428","","","","fullscreen","1","6593","0.0-1.0","252","1","2025-07-30 08:37:19","1f75c3e559b7213887762d5229550c2b","122.133.157.125","Mozilla/5.0 (Macintosh; Intel Mac OS X 10_15_7) AppleWebKit/537.36 (KHTML, like Gecko) Chrome/138.0.0.0 Safari/537.36","Macintosh","Chrome","138.0.0.0","OS X","10_15_7","https://app.prolific.com/","en-US,en;q=0.9","65cb0f21257c8a98f470bb5d","6877631c9844ddd5501205fc","6889d9b1341611b1de254383","3","1","65cb0f21257c8a98f470bb5d","3","1","","true","","","","","","","","","","","","","","","","","","","","","","","","","","","","","","","","","","","","","","","","",""
"1837","1753864650525","<p style='font-size:1.1em;line-height:1.25'>In the following, we will ask you a few questions relating to your feelings in the last 24 hours.<br></p><p style='font-size:1.1em;line-height:1.25'>Press the <strong>Next</strong> button to continue.</p>","0","custom-html-button-response","2","8431","0.0-2.0-0.0","252","1","2025-07-30 08:37:19","1f75c3e559b7213887762d5229550c2b","122.133.157.125","Mozilla/5.0 (Macintosh; Intel Mac OS X 10_15_7) AppleWebKit/537.36 (KHTML, like Gecko) Chrome/138.0.0.0 Safari/537.36","Macintosh","Chrome","138.0.0.0","OS X","10_15_7","https://app.prolific.com/","en-US,en;q=0.9","65cb0f21257c8a98f470bb5d","6877631c9844ddd5501205fc","6889d9b1341611b1de254383","3","1","65cb0f21257c8a98f470bb5d","3","1","2025-07-30T08:37:30.525Z","","","","","","","","","","","","","","","","","","","","","","","","","","","","","","","","","","","","","","","","","",""
"83065","","","","survey-template","3","91501","0.0-2.0-1.0","252","1","2025-07-30 08:37:19","1f75c3e559b7213887762d5229550c2b","122.133.157.125","Mozilla/5.0 (Macintosh; Intel Mac OS X 10_15_7) AppleWebKit/537.36 (KHTML, like Gecko) Chrome/138.0.0.0 Safari/537.36","Macintosh","Chrome","138.0.0.0","OS X","10_15_7","https://app.prolific.com/","en-US,en;q=0.9","65cb0f21257c8a98f470bb5d","6877631c9844ddd5501205fc","6889d9b1341611b1de254383","3","1","65cb0f21257c8a98f470bb5d","3","1","2025-07-30T08:38:53.595Z","","{""Q01"":""1"",""Q02"":""0"",""Q03"":""0"",""Q04"":""2"",""Q05"":""1"",""Q06"":""2"",""Q07"":""2"",""Q08"":""1"",""Q09"":""0"",""Q10"":""1"",""Q11"":""2"",""Q12"":""0"",""Q13"":""5"",""Q14"":""2"",""Q15"":""3"",""Q16"":""0"",""Q17"":""2"",""Q18"":""1"",""Q19"":""0"",""Q20"":""0"",""Q21"":""0"",""Q22"":""0""}","[0,1,2,3,4,5,6,7,8,9,10,11,12,13,14,15,16,17,18,19,20,21]","[""Q01"",""Q02"",""Q03"",""Q04"",""Q05"",""Q06"",""Q07"",""Q08"",""Q09"",""Q10"",""Q11"",""Q12"",""Q13"",""Q14"",""Q15"",""Q15"",""Q16"",""Q17"",""Q19"",""Q20"",""Q21"",""Q22"",""Q18""]","[7210.39999999851,9393.30000000447,15370,17044.20000000298,19630.30000000447,23402.89999999851,26984.60000000149,29661.10000000149,31966.30000000447,35808.80000000447,40969.20000000298,45926.30000000447,48235.60000000149,50446.80000000447,54410.39999999851,55550,60188.89999999851,61736.20000000298,70587.60000000149,72707.89999999851,74131.30000000447,76582.39999999851,81860.5]","[]","[0.10000000149011612,7210.39999999851,9393.30000000447,15370,17044.20000000298,19630.30000000447,23402.89999999851,26984.60000000149,29661.10000000149,31966.30000000447,35808.80000000447,40969.20000000298,45926.30000000447,48235.60000000149,50446.80000000447,54410.39999999851,55550,58202.5,60188.89999999851,61736.20000000298,66262.5,70587.60000000149,72707.89999999851,74131.30000000447,75819.5,76582.39999999851,77575.10000000149,81860.5,83059.5]","0.4090909090909091","0.5238095238095238","0","drsp","","","","","","","","","","","","","","","","","","","","","","","","","","","","","","",""
"12533.5","","","","survey-template","4","104037","0.0-2.0-2.0","252","1","2025-07-30 08:37:19","1f75c3e559b7213887762d5229550c2b","122.133.157.125","Mozilla/5.0 (Macintosh; Intel Mac OS X 10_15_7) AppleWebKit/537.36 (KHTML, like Gecko) Chrome/138.0.0.0 Safari/537.36","Macintosh","Chrome","138.0.0.0","OS X","10_15_7","https://app.prolific.com/","en-US,en;q=0.9","65cb0f21257c8a98f470bb5d","6877631c9844ddd5501205fc","6889d9b1341611b1de254383","3","1","65cb0f21257c8a98f470bb5d","3","1","2025-07-30T08:39:06.131Z","","{""Q01"":""2"",""Q02"":""4"",""Q03"":""2""}","[0,1,2]","[""Q01"",""Q02"",""Q03""]","[4914.29999999702,7542.79999999702,11732.89999999851]","[]","[4105.29999999702,4914.29999999702,7542.79999999702,11732.89999999851,12532.59999999404]","0.6666666666666666","1","0","stress","","","","","","","","","","","","","","","","","","","","","","","","","","","","","","",""
"22391","","","","instructions","5","126429","0.0-3.0-0.0","252","1","2025-07-30 08:37:19","1f75c3e559b7213887762d5229550c2b","122.133.157.125","Mozilla/5.0 (Macintosh; Intel Mac OS X 10_15_7) AppleWebKit/537.36 (KHTML, like Gecko) Chrome/138.0.0.0 Safari/537.36","Macintosh","Chrome","138.0.0.0","OS X","10_15_7","https://app.prolific.com/","en-US,en;q=0.9","65cb0f21257c8a98f470bb5d","6877631c9844ddd5501205fc","6889d9b1341611b1de254383","3","1","65cb0f21257c8a98f470bb5d","3","1","","","","","","","","","","","","","[{""page_index"":0,""viewing_time"":22391}]","","","","","","","","","","","","","","","","","","","","","","","","","","","","","",""
"4987","","<p>Before you start with this game please answer the following three questions yourself. </p>
  <p>Through this game, we measure several aspects of your cognitive performance, such as reaction times, multi-tasking capabilities </p>
  <p>and the ability to assess the situation you are in.</p>
  <p></p>
  <p><b>How good do you usually are in such tasks?</b></p>","62","html-slider-response","6","131419","0.0-4.0-0.0","252","1","2025-07-30 08:37:19","1f75c3e559b7213887762d5229550c2b","122.133.157.125","Mozilla/5.0 (Macintosh; Intel Mac OS X 10_15_7) AppleWebKit/537.36 (KHTML, like Gecko) Chrome/138.0.0.0 Safari/537.36","Macintosh","Chrome","138.0.0.0","OS X","10_15_7","https://app.prolific.com/","en-US,en;q=0.9","65cb0f21257c8a98f470bb5d","6877631c9844ddd5501205fc","6889d9b1341611b1de254383","3","1","65cb0f21257c8a98f470bb5d","3","1","2025-07-30T08:39:33.513Z","","","","","","","","","","","PreSkillQ","","50","","","","","","","","","","","","","","","","","","","","","","","","","","","","",""
"3791","","<div style=""width:500px;"">
  <p>How well do you think you will perform in this task compared to other participants?</p>
  </div>","57","html-slider-response","7","135211","0.0-4.0-1.0","252","1","2025-07-30 08:37:19","1f75c3e559b7213887762d5229550c2b","122.133.157.125","Mozilla/5.0 (Macintosh; Intel Mac OS X 10_15_7) AppleWebKit/537.36 (KHTML, like Gecko) Chrome/138.0.0.0 Safari/537.36","Macintosh","Chrome","138.0.0.0","OS X","10_15_7","https://app.prolific.com/","en-US,en;q=0.9","65cb0f21257c8a98f470bb5d","6877631c9844ddd5501205fc","6889d9b1341611b1de254383","3","1","65cb0f21257c8a98f470bb5d","3","1","2025-07-30T08:39:37.306Z","","","","","","","","","","","PrePerfQ","","50","","","","","","","","","","","","","","","","","","","","","","","","","","","","",""
"6072","","<div style=""width:500px;"">
  <p>What best describes how you currently feel?</p>
  </div>","77","html-slider-response","8","141285","0.0-4.0-2.0","252","1","2025-07-30 08:37:19","1f75c3e559b7213887762d5229550c2b","122.133.157.125","Mozilla/5.0 (Macintosh; Intel Mac OS X 10_15_7) AppleWebKit/537.36 (KHTML, like Gecko) Chrome/138.0.0.0 Safari/537.36","Macintosh","Chrome","138.0.0.0","OS X","10_15_7","https://app.prolific.com/","en-US,en;q=0.9","65cb0f21257c8a98f470bb5d","6877631c9844ddd5501205fc","6889d9b1341611b1de254383","3","1","65cb0f21257c8a98f470bb5d","3","1","2025-07-30T08:39:43.379Z","","","","","","","","","","","PreMotivationQ","","50","","","","","","","","","","","","","","","","","","","","","","","","","","","","",""
"","","","","ctl-task-cpt","9","176635","0.0-5.0-0.0","252","1","2025-07-30 08:37:19","1f75c3e559b7213887762d5229550c2b","122.133.157.125","Mozilla/5.0 (Macintosh; Intel Mac OS X 10_15_7) AppleWebKit/537.36 (KHTML, like Gecko) Chrome/138.0.0.0 Safari/537.36","Macintosh","Chrome","138.0.0.0","OS X","10_15_7","https://app.prolific.com/","en-US,en;q=0.9","65cb0f21257c8a98f470bb5d","6877631c9844ddd5501205fc","6889d9b1341611b1de254383","3","1","65cb0f21257c8a98f470bb5d","3","1","2025-07-30T08:40:18.729Z","","","","","","","","","","","","","","win-only","2","g1:SE,g2:NW","1","1","0","144766.8","1160.8","6162.4","32342.7","1","4","8","6","2","8","6","6","0","0.045454545454545456","3646","3000","1155","[""left"",""up""]","{""num_key_presses"":8,""num_perfect"":6,""num_errors"":2,""num_randdir"":0,""num_randdir_good_moves"":0,""num_whilered"":0,""num_whileblue"":2,""num_blue"":3,""num_good_moves"":7}","[818.6508928571428,837.4477678571428,0.1,818.6508928571428,837.4477678571428,100.4,818.6508928571428,837.4477678571428,201.2,818.6508928571428,837.4477678571428,305.7,818.6508928571428,837.4477678571428,410.2,818.6508928571428,837.4477678571428,510.3,818.6508928571428,837.4477678571428,615.4,818.6508928571428,837.4477678571428,715.5,818.6508928571428,837.4477678571428,820.8,818.6508928571428,837.4477678571428,925.9,700.6508928571428,761.4477678571428,1029.5,296.6508928571428,323.4477678571428,1135.1,292.6508928571428,315.4477678571428,1235.6,248.65089285714285,301.4477678571428,1340.9,260.6508928571428,315.4477678571428,1444.7,328.6508928571428,401.4477678571428,1545,328.6508928571428,401.4477678571428,1650,328.6508928571428,401.4477678571428,1751,328.6508928571428,401.4477678571428,1855.6,328.6508928571428,401.4477678571428,1955.6,328.6508928571428,401.4477678571428,2060.6,328.6508928571428,401.4477678571428,2160.7,328.6508928571428,401.4477678571428,2265.1,328.6508928571428,401.4477678571428,2365.1,328.6508928571428,401.4477678571428,2465.5,328.6508928571428,401.4477678571428,2570.1,328.6508928571428,401.4477678571428,2670.8,328.6508928571428,401.4477678571428,2771.1,328.6508928571428,401.4477678571428,2875.7,328.6508928571428,401.4477678571428,2975.9,328.6508928571428,401.4477678571428,3079.6,328.6508928571428,401.4477678571428,3179.9,326.6508928571428,399.4477678571428,3284.9,198.65089285714285,247.44776785714285,3386.1,176.65089285714285,127.44776785714285,3490.5,176.65089285714285,125.44776785714285,3590.9,176.65089285714285,125.44776785714285,3694.7,176.65089285714285,125.44776785714285,3796.4,176.65089285714285,125.44776785714285,3900.3,176.65089285714285,125.44776785714285,4000.4,176.65089285714285,125.44776785714285,4100.4,336.6508928571428,447.4477678571428,4200.4,408.6508928571428,603.4477678571428,4300.4,408.6508928571428,603.4477678571428,4400.8,408.6508928571428,603.4477678571428,4505.8,408.6508928571428,603.4477678571428,4605.8,408.6508928571428,603.4477678571428,4705.8,408.6508928571428,603.4477678571428,4805.8,408.6508928571428,603.4477678571428,4905.9]","[1271.6,1271.5,1000,0.1,271.5,""smooth"",""left"",""left"",""good_move"",4101.1,2829.5,2552.2,1271.6,277.3,""while_blue"",""up"",""right"",""bad_move"",11242,7140.4,2122.3,8764.2,355.5,""smooth"",""left"",""left"",""good_move"",14211.7,2969.5,2650.5,11242.2,319,""smooth"",""up"",""up"",""good_move"",17290.8,3078.8,2763,14212,315.8,""smooth"",""left"",""left"",""good_move"",19983.5,2692.6,2333.4,17290.9,359.2,""while_blue"",""up"",""up"",""good_move"",23176.4,3192.6,2849.7,19983.8,342.9,""smooth"",""left"",""left"",""good_move"",26082.7,2906,2622.7,23176.7,283.3,""smooth"",""up"",""up"",""good_move""]","",""
"3404","","<div style=""width:500px;"">
  <p>What determined the result of this run?</p>
  </div>","100","html-slider-response","10","180041","0.0-5.0-1.0","252","1","2025-07-30 08:37:19","1f75c3e559b7213887762d5229550c2b","122.133.157.125","Mozilla/5.0 (Macintosh; Intel Mac OS X 10_15_7) AppleWebKit/537.36 (KHTML, like Gecko) Chrome/138.0.0.0 Safari/537.36","Macintosh","Chrome","138.0.0.0","OS X","10_15_7","https://app.prolific.com/","en-US,en;q=0.9","65cb0f21257c8a98f470bb5d","6877631c9844ddd5501205fc","6889d9b1341611b1de254383","3","1","65cb0f21257c8a98f470bb5d","3","1","2025-07-30T08:40:22.135Z","","","","","","","","","","","AttribQ","","50","","","","","","","","","","","","","","","","","","","","","","","","","","","","",""
"3477","","<div style=""width:500px;"">
  <p>How much control did you have over the ball?</p>
  </div>","100","html-slider-response","11","183519","0.0-5.0-2.0","252","1","2025-07-30 08:37:19","1f75c3e559b7213887762d5229550c2b","122.133.157.125","Mozilla/5.0 (Macintosh; Intel Mac OS X 10_15_7) AppleWebKit/537.36 (KHTML, like Gecko) Chrome/138.0.0.0 Safari/537.36","Macintosh","Chrome","138.0.0.0","OS X","10_15_7","https://app.prolific.com/","en-US,en;q=0.9","65cb0f21257c8a98f470bb5d","6877631c9844ddd5501205fc","6889d9b1341611b1de254383","3","1","65cb0f21257c8a98f470bb5d","3","1","2025-07-30T08:40:25.614Z","","","","","","","","","","","ControlQ","","50","","","","","","","","","","","","","","","","","","","","","","","","","","","","",""
"5580","","<div style=""width:500px;"">
  <p>How would you describe your current emotional state?</p>
  </div>","22","html-slider-response","12","189101","0.0-5.0-3.0","252","1","2025-07-30 08:37:19","1f75c3e559b7213887762d5229550c2b","122.133.157.125","Mozilla/5.0 (Macintosh; Intel Mac OS X 10_15_7) AppleWebKit/537.36 (KHTML, like Gecko) Chrome/138.0.0.0 Safari/537.36","Macintosh","Chrome","138.0.0.0","OS X","10_15_7","https://app.prolific.com/","en-US,en;q=0.9","65cb0f21257c8a98f470bb5d","6877631c9844ddd5501205fc","6889d9b1341611b1de254383","3","1","65cb0f21257c8a98f470bb5d","3","1","2025-07-30T08:40:31.195Z","","","","","","","","","","","StressQ","","50","","","","","","","","","","","","","","","","","","","","","","","","","","","","",""
"3610","","<div style=""width:500px;"">
  <p>What best describes how you currently feel?</p>
  </div>","58","html-slider-response","13","192712","0.0-5.0-4.0","252","1","2025-07-30 08:37:19","1f75c3e559b7213887762d5229550c2b","122.133.157.125","Mozilla/5.0 (Macintosh; Intel Mac OS X 10_15_7) AppleWebKit/537.36 (KHTML, like Gecko) Chrome/138.0.0.0 Safari/537.36","Macintosh","Chrome","138.0.0.0","OS X","10_15_7","https://app.prolific.com/","en-US,en;q=0.9","65cb0f21257c8a98f470bb5d","6877631c9844ddd5501205fc","6889d9b1341611b1de254383","3","1","65cb0f21257c8a98f470bb5d","3","1","2025-07-30T08:40:34.806Z","","","","","","","","","","","MotivationQ","","50","","","","","","","","","","","","","","","","","","","","","","","","","","","","",""
"","","","","ctl-task-cpt","14","230215","0.0-5.0-0.1","252","1","2025-07-30 08:37:19","1f75c3e559b7213887762d5229550c2b","122.133.157.125","Mozilla/5.0 (Macintosh; Intel Mac OS X 10_15_7) AppleWebKit/537.36 (KHTML, like Gecko) Chrome/138.0.0.0 Safari/537.36","Macintosh","Chrome","138.0.0.0","OS X","10_15_7","https://app.prolific.com/","en-US,en;q=0.9","65cb0f21257c8a98f470bb5d","6877631c9844ddd5501205fc","6889d9b1341611b1de254383","3","1","65cb0f21257c8a98f470bb5d","3","1","2025-07-30T08:41:12.309Z","","","","","","","","","","","","","","win-only","1","g1:NE,g2:SW","0.9","2","0","196192","1012.4","6012.7","34498.3","1","4","4","6","2","4","2","8","6","0.06060606060606061","1187.2","3000","525","[""down"",""left""]","{""num_key_presses"":10,""num_perfect"":7,""num_errors"":2,""num_randdir"":1,""num_randdir_good_moves"":0,""num_whilered"":0,""num_whileblue"":2,""num_blue"":2,""num_good_moves"":8}","[842.6508928571428,827.4477678571428,0.1,842.6508928571428,827.4477678571428,105.2,842.6508928571428,827.4477678571428,205.5,842.6508928571428,827.4477678571428,308.9,842.6508928571428,827.4477678571428,409.8,842.6508928571428,827.4477678571428,514,842.6508928571428,827.4477678571428,615.3,360.6508928571428,1409.447767857143,715.4,242.65089285714285,1527.447767857143,819.7,228.65089285714285,1499.447767857143,923.7,236.65089285714285,1441.447767857143,1024,236.65089285714285,1441.447767857143,1129.1,236.65089285714285,1441.447767857143,1230.2,236.65089285714285,1441.447767857143,1334.4,236.65089285714285,1441.447767857143,1439.3,960.6508928571428,1103.447767857143,1543.9,1934.650892857143,993.4477678571428,1650.3,1994.650892857143,991.4477678571428,1753.6,2000.650892857143,991.4477678571428,1855.1,2000.650892857143,997.4477678571428,1955.5,2000.650892857143,997.4477678571428,2060,2000.650892857143,997.4477678571428,2164.1,2000.650892857143,997.4477678571428,2264.3,2000.650892857143,997.4477678571428,2369.4,2000.650892857143,997.4477678571428,2470.5,2000.650892857143,997.4477678571428,2570.9,2000.650892857143,997.4477678571428,2675.8,2000.650892857143,997.4477678571428,2778.9,2000.650892857143,997.4477678571428,2878.9,2000.650892857143,997.4477678571428,2979.5,2000.650892857143,997.4477678571428,3080.1,2000.650892857143,997.4477678571428,3185.2,2000.650892857143,997.4477678571428,3285.2,2000.650892857143,997.4477678571428,3385.2,2000.650892857143,997.4477678571428,3485.4,2000.650892857143,997.4477678571428,3588.3,2000.650892857143,997.4477678571428,3690,2000.650892857143,997.4477678571428,3794.3,2000.650892857143,997.4477678571428,3895.5,2000.650892857143,997.4477678571428,3999.5,2000.650892857143,997.4477678571428,4104.2,2000.650892857143,997.4477678571428,4204.3,2000.650892857143,997.4477678571428,4304.6,2000.650892857143,997.4477678571428,4405.1,2000.650892857143,997.4477678571428,4510.1,2000.650892857143,997.4477678571428,4614.9,2000.650892857143,997.4477678571428,4718.8,2000.650892857143,997.4477678571428,4825.5,2000.650892857143,997.4477678571428,4925.5]","[1315.7,1315.7,1000,0,315.7,""smooth"",""left"",""left"",""good_move"",4637.9,3322,3045.4,1315.9,276.6,""smooth"",""down"",""down"",""good_move"",7082.4,2444.2,2110,4638.2,334.2,""smooth"",""left"",""left"",""good_move"",10637,3554.5,3280,7082.6,274.5,""oops"",""down"",""up"",""bad_move"",13566.7,2929.1,2627.4,10637.6,301.7,""while_blue"",""down"",""up"",""bad_move"",16319.6,2752.6,2272.8,13567,479.8,""smooth"",""down"",""down"",""good_move"",19489.6,3169.9,2874.8,16319.7,295.1,""smooth"",""down"",""down"",""good_move"",22670.9,3181.2,2902.6,19489.7,278.6,""smooth"",""down"",""down"",""good_move"",26033,3361.8,3113.9,22671.2,248,""while_blue"",""down"",""down"",""good_move"",28389.3,2356.1,2053.6,26033.2,302.5,""smooth"",""left"",""left"",""good_move""]","",""
"3857","","<div style=""width:500px;"">
  <p>What determined the result of this run?</p>
  </div>","74","html-slider-response","15","234073","0.0-5.0-1.1","252","1","2025-07-30 08:37:19","1f75c3e559b7213887762d5229550c2b","122.133.157.125","Mozilla/5.0 (Macintosh; Intel Mac OS X 10_15_7) AppleWebKit/537.36 (KHTML, like Gecko) Chrome/138.0.0.0 Safari/537.36","Macintosh","Chrome","138.0.0.0","OS X","10_15_7","https://app.prolific.com/","en-US,en;q=0.9","65cb0f21257c8a98f470bb5d","6877631c9844ddd5501205fc","6889d9b1341611b1de254383","3","1","65cb0f21257c8a98f470bb5d","3","1","2025-07-30T08:41:16.167Z","","","","","","","","","","","AttribQ","","50","","","","","","","","","","","","","","","","","","","","","","","","","","","","",""
"1883","","<div style=""width:500px;"">
  <p>How much control did you have over the ball?</p>
  </div>","69","html-slider-response","16","235957","0.0-5.0-2.1","252","1","2025-07-30 08:37:19","1f75c3e559b7213887762d5229550c2b","122.133.157.125","Mozilla/5.0 (Macintosh; Intel Mac OS X 10_15_7) AppleWebKit/537.36 (KHTML, like Gecko) Chrome/138.0.0.0 Safari/537.36","Macintosh","Chrome","138.0.0.0","OS X","10_15_7","https://app.prolific.com/","en-US,en;q=0.9","65cb0f21257c8a98f470bb5d","6877631c9844ddd5501205fc","6889d9b1341611b1de254383","3","1","65cb0f21257c8a98f470bb5d","3","1","2025-07-30T08:41:18.051Z","","","","","","","","","","","ControlQ","","50","","","","","","","","","","","","","","","","","","","","","","","","","","","","",""
"3169","","<div style=""width:500px;"">
  <p>How would you describe your current emotional state?</p>
  </div>","27","html-slider-response","17","239127","0.0-5.0-3.1","252","1","2025-07-30 08:37:19","1f75c3e559b7213887762d5229550c2b","122.133.157.125","Mozilla/5.0 (Macintosh; Intel Mac OS X 10_15_7) AppleWebKit/537.36 (KHTML, like Gecko) Chrome/138.0.0.0 Safari/537.36","Macintosh","Chrome","138.0.0.0","OS X","10_15_7","https://app.prolific.com/","en-US,en;q=0.9","65cb0f21257c8a98f470bb5d","6877631c9844ddd5501205fc","6889d9b1341611b1de254383","3","1","65cb0f21257c8a98f470bb5d","3","1","2025-07-30T08:41:21.221Z","","","","","","","","","","","StressQ","","50","","","","","","","","","","","","","","","","","","","","","","","","","","","","",""
"2030","","<div style=""width:500px;"">
  <p>What best describes how you currently feel?</p>
  </div>","62","html-slider-response","18","241157","0.0-5.0-4.1","252","1","2025-07-30 08:37:19","1f75c3e559b7213887762d5229550c2b","122.133.157.125","Mozilla/5.0 (Macintosh; Intel Mac OS X 10_15_7) AppleWebKit/537.36 (KHTML, like Gecko) Chrome/138.0.0.0 Safari/537.36","Macintosh","Chrome","138.0.0.0","OS X","10_15_7","https://app.prolific.com/","en-US,en;q=0.9","65cb0f21257c8a98f470bb5d","6877631c9844ddd5501205fc","6889d9b1341611b1de254383","3","1","65cb0f21257c8a98f470bb5d","3","1","2025-07-30T08:41:23.251Z","","","","","","","","","","","MotivationQ","","50","","","","","","","","","","","","","","","","","","","","","","","","","","","","",""
"","","","","ctl-task-cpt","19","274453","0.0-5.0-0.2","252","1","2025-07-30 08:37:19","1f75c3e559b7213887762d5229550c2b","122.133.157.125","Mozilla/5.0 (Macintosh; Intel Mac OS X 10_15_7) AppleWebKit/537.36 (KHTML, like Gecko) Chrome/138.0.0.0 Safari/537.36","Macintosh","Chrome","138.0.0.0","OS X","10_15_7","https://app.prolific.com/","en-US,en;q=0.9","65cb0f21257c8a98f470bb5d","6877631c9844ddd5501205fc","6889d9b1341611b1de254383","3","1","65cb0f21257c8a98f470bb5d","3","1","2025-07-30T08:41:56.547Z","","","","","","","","","","","","","","win-only","1","g1:NE,g2:SW","0.8","3","0","244638.3","1057.4","6061.1","30286.1","1","4","4","6","2","4","4","12","8","0.09090909090909091","1213.6","3000","670","[""down"",""left""]","{""num_key_presses"":8,""num_perfect"":6,""num_errors"":0,""num_randdir"":2,""num_randdir_good_moves"":1,""num_whilered"":0,""num_whileblue"":0,""num_blue"":1,""num_good_moves"":7}","[826.6508928571428,841.4477678571428,0.2,826.6508928571428,841.4477678571428,104.3,826.6508928571428,841.4477678571428,207.7,826.6508928571428,841.4477678571428,308.2,826.6508928571428,841.4477678571428,408.4,826.6508928571428,841.4477678571428,509.1,922.6508928571428,741.4477678571428,614.4,580.6508928571428,1161.447767857143,714.5,330.6508928571428,1383.447767857143,818.4,286.6508928571428,1411.447767857143,923.7,232.65089285714285,1457.447767857143,1026.2,232.65089285714285,1457.447767857143,1129.3,232.65089285714285,1457.447767857143,1233.6,232.65089285714285,1457.447767857143,1334.1,366.6508928571428,1351.447767857143,1438.5,1756.650892857143,807.4477678571428,1538.7,2088.650892857143,777.4477678571428,1644,2064.650892857143,777.4477678571428,1744,2006.650892857143,799.4477678571428,1844.8,2006.650892857143,799.4477678571428,1945.2,2006.650892857143,799.4477678571428,2047.8,2006.650892857143,799.4477678571428,2148.6,2006.650892857143,799.4477678571428,2253.9,2006.650892857143,799.4477678571428,2354.4,2006.650892857143,799.4477678571428,2460.6,2006.650892857143,799.4477678571428,2560.7,2006.650892857143,799.4477678571428,2663.9,2006.650892857143,799.4477678571428,2767.7,2006.650892857143,799.4477678571428,2868.2,2006.650892857143,799.4477678571428,2970.4,2006.650892857143,799.4477678571428,3075.8,2006.650892857143,799.4477678571428,3180,2006.650892857143,799.4477678571428,3283.8,2006.650892857143,799.4477678571428,3383.8,2006.650892857143,799.4477678571428,3489.6,2006.650892857143,799.4477678571428,3594,2006.650892857143,799.4477678571428,3694.5,2006.650892857143,799.4477678571428,3799.4,2006.650892857143,799.4477678571428,3899.5,2006.650892857143,799.4477678571428,4003.4,2006.650892857143,799.4477678571428,4104,2006.650892857143,799.4477678571428,4207.5,2006.650892857143,799.4477678571428,4311,2006.650892857143,799.4477678571428,4414.5,2006.650892857143,799.4477678571428,4519.4,2006.650892857143,799.4477678571428,4624,2006.650892857143,799.4477678571428,4724.1,2006.650892857143,799.4477678571428,4831.1,2006.650892857143,799.4477678571428,4931.5]","[1304.4,1304.4,1000,0,304.4,""smooth"",""left"",""left"",""good_move"",4155,2850.3,2556.4,1304.7,293.9,""oops"",""down"",""down"",""good_move"",6657.3,2502.1,2179,4155.2,323.1,""smooth"",""left"",""left"",""good_move"",9375.6,2718.2,2438.9,6657.4,279.3,""oops"",""down"",""up"",""bad_move"",11957.4,2581.6,2269.4,9375.8,312.2,""smooth"",""down"",""down"",""good_move"",14840.2,2882.6,2588.2,11957.6,294.4,""smooth"",""down"",""down"",""good_move"",21240.6,6400.1,2467.6,18475,298,""smooth"",""down"",""down"",""good_move"",24130,2889.1,2592.9,21240.9,296.2,""smooth"",""left"",""left"",""good_move""]","",""
"2942","","<div style=""width:500px;"">
  <p>What determined the result of this run?</p>
  </div>","71","html-slider-response","20","277396","0.0-5.0-1.2","252","1","2025-07-30 08:37:19","1f75c3e559b7213887762d5229550c2b","122.133.157.125","Mozilla/5.0 (Macintosh; Intel Mac OS X 10_15_7) AppleWebKit/537.36 (KHTML, like Gecko) Chrome/138.0.0.0 Safari/537.36","Macintosh","Chrome","138.0.0.0","OS X","10_15_7","https://app.prolific.com/","en-US,en;q=0.9","65cb0f21257c8a98f470bb5d","6877631c9844ddd5501205fc","6889d9b1341611b1de254383","3","1","65cb0f21257c8a98f470bb5d","3","1","2025-07-30T08:41:59.490Z","","","","","","","","","","","AttribQ","","50","","","","","","","","","","","","","","","","","","","","","","","","","","","","",""
"2339","","<div style=""width:500px;"">
  <p>How much control did you have over the ball?</p>
  </div>","73","html-slider-response","21","279735","0.0-5.0-2.2","252","1","2025-07-30 08:37:19","1f75c3e559b7213887762d5229550c2b","122.133.157.125","Mozilla/5.0 (Macintosh; Intel Mac OS X 10_15_7) AppleWebKit/537.36 (KHTML, like Gecko) Chrome/138.0.0.0 Safari/537.36","Macintosh","Chrome","138.0.0.0","OS X","10_15_7","https://app.prolific.com/","en-US,en;q=0.9","65cb0f21257c8a98f470bb5d","6877631c9844ddd5501205fc","6889d9b1341611b1de254383","3","1","65cb0f21257c8a98f470bb5d","3","1","2025-07-30T08:42:01.829Z","","","","","","","","","","","ControlQ","","50","","","","","","","","","","","","","","","","","","","","","","","","","","","","",""
"2545","","<div style=""width:500px;"">
  <p>How would you describe your current emotional state?</p>
  </div>","24","html-slider-response","22","282281","0.0-5.0-3.2","252","1","2025-07-30 08:37:19","1f75c3e559b7213887762d5229550c2b","122.133.157.125","Mozilla/5.0 (Macintosh; Intel Mac OS X 10_15_7) AppleWebKit/537.36 (KHTML, like Gecko) Chrome/138.0.0.0 Safari/537.36","Macintosh","Chrome","138.0.0.0","OS X","10_15_7","https://app.prolific.com/","en-US,en;q=0.9","65cb0f21257c8a98f470bb5d","6877631c9844ddd5501205fc","6889d9b1341611b1de254383","3","1","65cb0f21257c8a98f470bb5d","3","1","2025-07-30T08:42:04.375Z","","","","","","","","","","","StressQ","","50","","","","","","","","","","","","","","","","","","","","","","","","","","","","",""
"1780","","<div style=""width:500px;"">
  <p>What best describes how you currently feel?</p>
  </div>","66","html-slider-response","23","284061","0.0-5.0-4.2","252","1","2025-07-30 08:37:19","1f75c3e559b7213887762d5229550c2b","122.133.157.125","Mozilla/5.0 (Macintosh; Intel Mac OS X 10_15_7) AppleWebKit/537.36 (KHTML, like Gecko) Chrome/138.0.0.0 Safari/537.36","Macintosh","Chrome","138.0.0.0","OS X","10_15_7","https://app.prolific.com/","en-US,en;q=0.9","65cb0f21257c8a98f470bb5d","6877631c9844ddd5501205fc","6889d9b1341611b1de254383","3","1","65cb0f21257c8a98f470bb5d","3","1","2025-07-30T08:42:06.155Z","","","","","","","","","","","MotivationQ","","50","","","","","","","","","","","","","","","","","","","","","","","","","","","","",""
"","","","","ctl-task-cpt","24","329924","0.0-5.0-0.3","252","1","2025-07-30 08:37:19","1f75c3e559b7213887762d5229550c2b","122.133.157.125","Mozilla/5.0 (Macintosh; Intel Mac OS X 10_15_7) AppleWebKit/537.36 (KHTML, like Gecko) Chrome/138.0.0.0 Safari/537.36","Macintosh","Chrome","138.0.0.0","OS X","10_15_7","https://app.prolific.com/","en-US,en;q=0.9","65cb0f21257c8a98f470bb5d","6877631c9844ddd5501205fc","6889d9b1341611b1de254383","3","1","65cb0f21257c8a98f470bb5d","3","1","2025-07-30T08:42:52.018Z","","","","","","","","","","","","","","win-only","1","g1:NE,g2:SW","0.7","4","0","287542.7","1186.1","6190.8","42857.4","1","4","8","6","2","8","8","20","12","0.15151515151515152","961.7","3000","440","[""down"",""left""]","{""num_key_presses"":8,""num_perfect"":7,""num_errors"":0,""num_randdir"":1,""num_randdir_good_moves"":0,""num_whilered"":0,""num_whileblue"":0,""num_blue"":4,""num_good_moves"":7}","[812.6508928571428,835.4477678571428,0.2,812.6508928571428,835.4477678571428,100.1,812.6508928571428,835.4477678571428,200.6,812.6508928571428,835.4477678571428,304.6,812.6508928571428,835.4477678571428,405.5,652.6508928571428,1099.447767857143,509.2,276.6508928571428,1447.447767857143,609.8,192.65089285714285,1479.447767857143,711.1,192.65089285714285,1475.447767857143,815.4,192.65089285714285,1475.447767857143,916.1,192.65089285714285,1475.447767857143,1020.5,192.65089285714285,1475.447767857143,1125.2,360.6508928571428,1347.447767857143,1230.7,1750.650892857143,799.4477678571428,1331,2072.650892857143,735.4477678571428,1436.4,2150.650892857143,751.4477678571428,1540.9,2184.650892857143,753.4477678571428,1643.3,2184.650892857143,753.4477678571428,1744.5,2184.650892857143,753.4477678571428,1845.1,2184.650892857143,753.4477678571428,1950,2184.650892857143,753.4477678571428,2051.3,2184.650892857143,753.4477678571428,2155.8,2184.650892857143,753.4477678571428,2262.5,2184.650892857143,753.4477678571428,2364.6,2184.650892857143,753.4477678571428,2464.6,2184.650892857143,753.4477678571428,2565,2184.650892857143,753.4477678571428,2667.9,2184.650892857143,753.4477678571428,2771.1,2184.650892857143,753.4477678571428,2871.1,2184.650892857143,753.4477678571428,2975.8,2184.650892857143,753.4477678571428,3079.6,2184.650892857143,753.4477678571428,3180.1,2184.650892857143,753.4477678571428,3285.1,2184.650892857143,753.4477678571428,3385.3,2184.650892857143,753.4477678571428,3485.8,2184.650892857143,753.4477678571428,3586.2,2184.650892857143,753.4477678571428,3689.3,2184.650892857143,753.4477678571428,3790.1,2184.650892857143,753.4477678571428,3896,2184.650892857143,753.4477678571428,4000.1,2184.650892857143,753.4477678571428,4100.9,2184.650892857143,753.4477678571428,4201,2184.650892857143,753.4477678571428,4304.2,2184.650892857143,753.4477678571428,4404.7,2184.650892857143,753.4477678571428,4505.1,2184.650892857143,753.4477678571428,4606.6,2184.650892857143,753.4477678571428,4713.4,2184.650892857143,753.4477678571428,4815.6,2184.650892857143,753.4477678571428,4919.8]","[1335.2,1335.2,1000,0,335.2,""smooth"",""left"",""left"",""good_move"",4269.5,2933.9,2636.6,1335.6,297.3,""smooth"",""down"",""down"",""good_move"",6789.5,2519.9,2214.4,4269.6,305.5,""smooth"",""left"",""left"",""good_move"",13516.5,6727,2311.6,10901.4,303.5,""smooth"",""down"",""down"",""good_move"",16600.5,3083.9,2769.5,13516.6,314.4,""smooth"",""left"",""left"",""good_move"",26969.3,10368.7,2343.9,24151.6,473.8,""oops"",""down"",""right"",""bad_move"",30224.4,3254.8,2930.7,26969.6,324.1,""smooth"",""left"",""left"",""good_move"",36559.9,6335.3,2482.6,33725.5,351.8,""smooth"",""down"",""down"",""good_move""]","",""
"5641","","<div style=""width:500px;"">
  <p>What determined the result of this run?</p>
  </div>","92","html-slider-response","25","335565","0.0-5.0-1.3","252","1","2025-07-30 08:37:19","1f75c3e559b7213887762d5229550c2b","122.133.157.125","Mozilla/5.0 (Macintosh; Intel Mac OS X 10_15_7) AppleWebKit/537.36 (KHTML, like Gecko) Chrome/138.0.0.0 Safari/537.36","Macintosh","Chrome","138.0.0.0","OS X","10_15_7","https://app.prolific.com/","en-US,en;q=0.9","65cb0f21257c8a98f470bb5d","6877631c9844ddd5501205fc","6889d9b1341611b1de254383","3","1","65cb0f21257c8a98f470bb5d","3","1","2025-07-30T08:42:57.659Z","","","","","","","","","","","AttribQ","","50","","","","","","","","","","","","","","","","","","","","","","","","","","","","",""
"2700","","<div style=""width:500px;"">
  <p>How much control did you have over the ball?</p>
  </div>","66","html-slider-response","26","338266","0.0-5.0-2.3","252","1","2025-07-30 08:37:19","1f75c3e559b7213887762d5229550c2b","122.133.157.125","Mozilla/5.0 (Macintosh; Intel Mac OS X 10_15_7) AppleWebKit/537.36 (KHTML, like Gecko) Chrome/138.0.0.0 Safari/537.36","Macintosh","Chrome","138.0.0.0","OS X","10_15_7","https://app.prolific.com/","en-US,en;q=0.9","65cb0f21257c8a98f470bb5d","6877631c9844ddd5501205fc","6889d9b1341611b1de254383","3","1","65cb0f21257c8a98f470bb5d","3","1","2025-07-30T08:43:00.360Z","","","","","","","","","","","ControlQ","","50","","","","","","","","","","","","","","","","","","","","","","","","","","","","",""
"12618","","<div style=""width:500px;"">
  <p>How would you describe your current emotional state?</p>
  </div>","28","html-slider-response","27","350884","0.0-5.0-3.3","252","1","2025-07-30 08:37:19","1f75c3e559b7213887762d5229550c2b","122.133.157.125","Mozilla/5.0 (Macintosh; Intel Mac OS X 10_15_7) AppleWebKit/537.36 (KHTML, like Gecko) Chrome/138.0.0.0 Safari/537.36","Macintosh","Chrome","138.0.0.0","OS X","10_15_7","https://app.prolific.com/","en-US,en;q=0.9","65cb0f21257c8a98f470bb5d","6877631c9844ddd5501205fc","6889d9b1341611b1de254383","3","1","65cb0f21257c8a98f470bb5d","3","1","2025-07-30T08:43:12.978Z","","","","","","","","","","","StressQ","","50","","","","","","","","","","","","","","","","","","","","","","","","","","","","",""
"1965","","<div style=""width:500px;"">
  <p>What best describes how you currently feel?</p>
  </div>","74","html-slider-response","28","352850","0.0-5.0-4.3","252","1","2025-07-30 08:37:19","1f75c3e559b7213887762d5229550c2b","122.133.157.125","Mozilla/5.0 (Macintosh; Intel Mac OS X 10_15_7) AppleWebKit/537.36 (KHTML, like Gecko) Chrome/138.0.0.0 Safari/537.36","Macintosh","Chrome","138.0.0.0","OS X","10_15_7","https://app.prolific.com/","en-US,en;q=0.9","65cb0f21257c8a98f470bb5d","6877631c9844ddd5501205fc","6889d9b1341611b1de254383","3","1","65cb0f21257c8a98f470bb5d","3","1","2025-07-30T08:43:14.944Z","","","","","","","","","","","MotivationQ","","50","","","","","","","","","","","","","","","","","","","","","","","","","","","","",""
"","","","","ctl-task-cpt","29","384672","0.0-5.0-0.4","252","1","2025-07-30 08:37:19","1f75c3e559b7213887762d5229550c2b","122.133.157.125","Mozilla/5.0 (Macintosh; Intel Mac OS X 10_15_7) AppleWebKit/537.36 (KHTML, like Gecko) Chrome/138.0.0.0 Safari/537.36","Macintosh","Chrome","138.0.0.0","OS X","10_15_7","https://app.prolific.com/","en-US,en;q=0.9","65cb0f21257c8a98f470bb5d","6877631c9844ddd5501205fc","6889d9b1341611b1de254383","3","1","65cb0f21257c8a98f470bb5d","3","1","2025-07-30T08:43:46.766Z","","","","","","","","","","","","","","win-only","3","g1:SW,g2:NE","0.6","5","0","356331.1","846.7","5851.4","28810.9","1","4","8","6","2","8","8","28","20","0.21212121212121213","1214.1","3000","1025","[""up"",""right""]","{""num_key_presses"":6,""num_perfect"":5,""num_errors"":0,""num_randdir"":1,""num_randdir_good_moves"":1,""num_whilered"":0,""num_whileblue"":0,""num_blue"":2,""num_good_moves"":6}","[812.6508928571428,825.4477678571428,0.1,812.6508928571428,825.4477678571428,103.9,812.6508928571428,825.4477678571428,208.8,812.6508928571428,825.4477678571428,311.3,1044.650892857143,567.4477678571428,416.5,1578.650892857143,33.44776785714285,519.2,1600.650892857143,19.44776785714285,619.3,1596.650892857143,25.44776785714285,724.3,1586.650892857143,39.44776785714285,824.4,1586.650892857143,39.44776785714285,928.6,1586.650892857143,39.44776785714285,1029.2,1586.650892857143,39.44776785714285,1131.4,1586.650892857143,39.44776785714285,1234.2,1586.650892857143,39.44776785714285,1334.2,1586.650892857143,39.44776785714285,1435.6,1586.650892857143,39.44776785714285,1539.5,1822.650892857143,261.4477678571428,1643.4,1894.650892857143,459.4477678571428,1743.9,1894.650892857143,459.4477678571428,1849.2,1894.650892857143,459.4477678571428,1949.7,1894.650892857143,459.4477678571428,2049.7,1894.650892857143,459.4477678571428,2153.4,1894.650892857143,459.4477678571428,2254,1894.650892857143,459.4477678571428,2354.5,1894.650892857143,459.4477678571428,2459.3,1894.650892857143,459.4477678571428,2559.4,1894.650892857143,459.4477678571428,2663.8,1894.650892857143,459.4477678571428,2764.2,1894.650892857143,459.4477678571428,2867.5,1894.650892857143,459.4477678571428,2967.6,1894.650892857143,459.4477678571428,3069.4,1894.650892857143,459.4477678571428,3174.4,1894.650892857143,459.4477678571428,3274.6,1894.650892857143,459.4477678571428,3377.9,1894.650892857143,459.4477678571428,3479.8,1894.650892857143,459.4477678571428,3584,1894.650892857143,459.4477678571428,3684.7,1894.650892857143,459.4477678571428,3784.7,1894.650892857143,459.4477678571428,3889.5,1894.650892857143,459.4477678571428,3993.7,1894.650892857143,459.4477678571428,4098.4,1894.650892857143,459.4477678571428,4199.2,1894.650892857143,459.4477678571428,4299.8,1894.650892857143,459.4477678571428,4404,1894.650892857143,459.4477678571428,4504.1,1894.650892857143,459.4477678571428,4606.1,1894.650892857143,459.4477678571428,4709.1,1894.650892857143,459.4477678571428,4814.4,1894.650892857143,459.4477678571428,4914.7]","[4913.4,4913.4,2552.6,2004.8,356,""smooth"",""right"",""right"",""good_move"",10288,5374.4,1923,8069.2,295.9,""smooth"",""up"",""up"",""good_move"",13273.6,2985.5,2610.8,10288.1,374.7,""smooth"",""right"",""right"",""good_move"",16270,2996.3,2696,13273.7,300.3,""smooth"",""up"",""up"",""good_move"",19784,3513.8,3107.9,16270.2,405.9,""oops"",""right"",""up"",""good_move"",22870.9,3086.8,2761.7,19784.1,325.1,""smooth"",""right"",""right"",""good_move""]","",""
"2380","","<div style=""width:500px;"">
  <p>What determined the result of this run?</p>
  </div>","69","html-slider-response","30","387053","0.0-5.0-1.4","252","1","2025-07-30 08:37:19","1f75c3e559b7213887762d5229550c2b","122.133.157.125","Mozilla/5.0 (Macintosh; Intel Mac OS X 10_15_7) AppleWebKit/537.36 (KHTML, like Gecko) Chrome/138.0.0.0 Safari/537.36","Macintosh","Chrome","138.0.0.0","OS X","10_15_7","https://app.prolific.com/","en-US,en;q=0.9","65cb0f21257c8a98f470bb5d","6877631c9844ddd5501205fc","6889d9b1341611b1de254383","3","1","65cb0f21257c8a98f470bb5d","3","1","2025-07-30T08:43:49.147Z","","","","","","","","","","","AttribQ","","50","","","","","","","","","","","","","","","","","","","","","","","","","","","","",""
"3258","","<div style=""width:500px;"">
  <p>How much control did you have over the ball?</p>
  </div>","79","html-slider-response","31","390312","0.0-5.0-2.4","252","1","2025-07-30 08:37:19","1f75c3e559b7213887762d5229550c2b","122.133.157.125","Mozilla/5.0 (Macintosh; Intel Mac OS X 10_15_7) AppleWebKit/537.36 (KHTML, like Gecko) Chrome/138.0.0.0 Safari/537.36","Macintosh","Chrome","138.0.0.0","OS X","10_15_7","https://app.prolific.com/","en-US,en;q=0.9","65cb0f21257c8a98f470bb5d","6877631c9844ddd5501205fc","6889d9b1341611b1de254383","3","1","65cb0f21257c8a98f470bb5d","3","1","2025-07-30T08:43:52.406Z","","","","","","","","","","","ControlQ","","50","","","","","","","","","","","","","","","","","","","","","","","","","","","","",""
"2449","","<div style=""width:500px;"">
  <p>How would you describe your current emotional state?</p>
  </div>","28","html-slider-response","32","392762","0.0-5.0-3.4","252","1","2025-07-30 08:37:19","1f75c3e559b7213887762d5229550c2b","122.133.157.125","Mozilla/5.0 (Macintosh; Intel Mac OS X 10_15_7) AppleWebKit/537.36 (KHTML, like Gecko) Chrome/138.0.0.0 Safari/537.36","Macintosh","Chrome","138.0.0.0","OS X","10_15_7","https://app.prolific.com/","en-US,en;q=0.9","65cb0f21257c8a98f470bb5d","6877631c9844ddd5501205fc","6889d9b1341611b1de254383","3","1","65cb0f21257c8a98f470bb5d","3","1","2025-07-30T08:43:54.856Z","","","","","","","","","","","StressQ","","50","","","","","","","","","","","","","","","","","","","","","","","","","","","","",""
"2142","","<div style=""width:500px;"">
  <p>What best describes how you currently feel?</p>
  </div>","74","html-slider-response","33","394905","0.0-5.0-4.4","252","1","2025-07-30 08:37:19","1f75c3e559b7213887762d5229550c2b","122.133.157.125","Mozilla/5.0 (Macintosh; Intel Mac OS X 10_15_7) AppleWebKit/537.36 (KHTML, like Gecko) Chrome/138.0.0.0 Safari/537.36","Macintosh","Chrome","138.0.0.0","OS X","10_15_7","https://app.prolific.com/","en-US,en;q=0.9","65cb0f21257c8a98f470bb5d","6877631c9844ddd5501205fc","6889d9b1341611b1de254383","3","1","65cb0f21257c8a98f470bb5d","3","1","2025-07-30T08:43:56.999Z","","","","","","","","","","","MotivationQ","","50","","","","","","","","","","","","","","","","","","","","","","","","","","","","",""
"","","","","ctl-task-cpt","34","444685","0.0-5.0-0.5","252","1","2025-07-30 08:37:19","1f75c3e559b7213887762d5229550c2b","122.133.157.125","Mozilla/5.0 (Macintosh; Intel Mac OS X 10_15_7) AppleWebKit/537.36 (KHTML, like Gecko) Chrome/138.0.0.0 Safari/537.36","Macintosh","Chrome","138.0.0.0","OS X","10_15_7","https://app.prolific.com/","en-US,en;q=0.9","65cb0f21257c8a98f470bb5d","6877631c9844ddd5501205fc","6889d9b1341611b1de254383","3","1","65cb0f21257c8a98f470bb5d","3","1","2025-07-30T08:44:46.779Z","","","","","","","","","","","","","","win-only","2","g1:SE,g2:NW","0.5","6","0","398386.4","872.4","5875.6","46770.6","1","4","4","6","2","-4","-6","22","28","0.16666666666666666","1448.2","3000","-2715","[""left"",""up""]","{""num_key_presses"":13,""num_perfect"":6,""num_errors"":2,""num_randdir"":5,""num_randdir_good_moves"":1,""num_whilered"":0,""num_whileblue"":2,""num_blue"":2,""num_good_moves"":7}","[812.6508928571428,831.4477678571428,0.1,812.6508928571428,831.4477678571428,103.8,812.6508928571428,831.4477678571428,209.2,1344.650892857143,777.4477678571428,318.4,1622.650892857143,823.4477678571428,418.8,1636.650892857143,847.4477678571428,518.8,1644.650892857143,857.4477678571428,623.6,1028.650892857143,619.4477678571428,723.8,698.6508928571428,501.4477678571428,827.2,698.6508928571428,501.4477678571428,932.2,548.6508928571428,361.4477678571428,1039.6,152.65089285714285,103.44776785714285,1149.6,146.65089285714285,99.44776785714285,1252.9,148.65089285714285,107.44776785714285,1353.1,148.65089285714285,107.44776785714285,1454,148.65089285714285,107.44776785714285,1554,166.65089285714285,107.44776785714285,1654.3,1402.650892857143,655.4477678571428,1754.6,1760.650892857143,881.4477678571428,1860.1,1782.650892857143,905.4477678571428,1960.6,1782.650892857143,905.4477678571428,2061.3,1782.650892857143,905.4477678571428,2163.4,1782.650892857143,905.4477678571428,2268.9,1782.650892857143,905.4477678571428,2369.1,1782.650892857143,905.4477678571428,2473.3,1782.650892857143,905.4477678571428,2579.2,1782.650892857143,905.4477678571428,2684,1782.650892857143,905.4477678571428,2788.4,1782.650892857143,905.4477678571428,2889.4,1782.650892857143,905.4477678571428,2993.1,1782.650892857143,905.4477678571428,3095.3,1782.650892857143,905.4477678571428,3196.5,1782.650892857143,905.4477678571428,3297.6,1782.650892857143,905.4477678571428,3398.6,1782.650892857143,905.4477678571428,3499.5,1782.650892857143,905.4477678571428,3604.2,1782.650892857143,905.4477678571428,3707.9,1782.650892857143,905.4477678571428,3808.7,1782.650892857143,905.4477678571428,3911.7,1782.650892857143,905.4477678571428,4019.6,1782.650892857143,905.4477678571428,4123.7,1782.650892857143,905.4477678571428,4223.8,1782.650892857143,905.4477678571428,4329.6,1782.650892857143,905.4477678571428,4433.3,1782.650892857143,905.4477678571428,4533.5,1782.650892857143,905.4477678571428,4634.4,1782.650892857143,905.4477678571428,4738.7,1782.650892857143,905.4477678571428,4838.7,1782.650892857143,905.4477678571428,4945]","[1342.4,1342.4,1000,0,342.4,""oops"",""left"",""up"",""good_move"",4043.9,2701.3,2437,1342.6,264.3,""smooth"",""left"",""left"",""good_move"",6496.4,2452.3,2149.6,4044.1,302.7,""smooth"",""up"",""up"",""good_move"",9037.7,2541.2,2273,6496.6,268.2,""oops"",""left"",""down"",""bad_move"",12882.8,3844.7,3571.9,9038.1,272.8,""oops"",""up"",""right"",""bad_move"",16325.7,3442.8,3163.7,12882.9,279.1,""smooth"",""up"",""up"",""good_move"",19460,3134.2,2864.7,16325.8,269.5,""while_blue"",""left"",""right"",""bad_move"",22657.1,3197,2889.6,19460.1,307.4,""oops"",""left"",""right"",""bad_move"",26821,4163.8,3843.6,22657.2,320.2,""smooth"",""left"",""left"",""good_move"",29663.7,2842.5,2516.1,26821.2,326.4,""oops"",""left"",""down"",""bad_move"",33063.7,3399.9,3129.7,29663.8,270.2,""while_blue"",""left"",""down"",""bad_move"",35631.1,2567.3,2208.5,33063.8,358.8,""smooth"",""left"",""left"",""good_move"",38571.5,2940.4,2642.9,35631.2,297.5,""smooth"",""up"",""up"",""good_move""]","",""
"3114","","<div style=""width:500px;"">
  <p>What determined the result of this run?</p>
  </div>","28","html-slider-response","35","447799","0.0-5.0-1.5","252","1","2025-07-30 08:37:19","1f75c3e559b7213887762d5229550c2b","122.133.157.125","Mozilla/5.0 (Macintosh; Intel Mac OS X 10_15_7) AppleWebKit/537.36 (KHTML, like Gecko) Chrome/138.0.0.0 Safari/537.36","Macintosh","Chrome","138.0.0.0","OS X","10_15_7","https://app.prolific.com/","en-US,en;q=0.9","65cb0f21257c8a98f470bb5d","6877631c9844ddd5501205fc","6889d9b1341611b1de254383","3","1","65cb0f21257c8a98f470bb5d","3","1","2025-07-30T08:44:49.893Z","","","","","","","","","","","AttribQ","","50","","","","","","","","","","","","","","","","","","","","","","","","","","","","",""
"4174","","<div style=""width:500px;"">
  <p>How much control did you have over the ball?</p>
  </div>","10","html-slider-response","36","451973","0.0-5.0-2.5","252","1","2025-07-30 08:37:19","1f75c3e559b7213887762d5229550c2b","122.133.157.125","Mozilla/5.0 (Macintosh; Intel Mac OS X 10_15_7) AppleWebKit/537.36 (KHTML, like Gecko) Chrome/138.0.0.0 Safari/537.36","Macintosh","Chrome","138.0.0.0","OS X","10_15_7","https://app.prolific.com/","en-US,en;q=0.9","65cb0f21257c8a98f470bb5d","6877631c9844ddd5501205fc","6889d9b1341611b1de254383","3","1","65cb0f21257c8a98f470bb5d","3","1","2025-07-30T08:44:54.067Z","","","","","","","","","","","ControlQ","","50","","","","","","","","","","","","","","","","","","","","","","","","","","","","",""
"7925","","<div style=""width:500px;"">
  <p>How would you describe your current emotional state?</p>
  </div>","56","html-slider-response","37","459899","0.0-5.0-3.5","252","1","2025-07-30 08:37:19","1f75c3e559b7213887762d5229550c2b","122.133.157.125","Mozilla/5.0 (Macintosh; Intel Mac OS X 10_15_7) AppleWebKit/537.36 (KHTML, like Gecko) Chrome/138.0.0.0 Safari/537.36","Macintosh","Chrome","138.0.0.0","OS X","10_15_7","https://app.prolific.com/","en-US,en;q=0.9","65cb0f21257c8a98f470bb5d","6877631c9844ddd5501205fc","6889d9b1341611b1de254383","3","1","65cb0f21257c8a98f470bb5d","3","1","2025-07-30T08:45:01.993Z","","","","","","","","","","","StressQ","","50","","","","","","","","","","","","","","","","","","","","","","","","","","","","",""
"3105","","<div style=""width:500px;"">
  <p>What best describes how you currently feel?</p>
  </div>","62","html-slider-response","38","463004","0.0-5.0-4.5","252","1","2025-07-30 08:37:19","1f75c3e559b7213887762d5229550c2b","122.133.157.125","Mozilla/5.0 (Macintosh; Intel Mac OS X 10_15_7) AppleWebKit/537.36 (KHTML, like Gecko) Chrome/138.0.0.0 Safari/537.36","Macintosh","Chrome","138.0.0.0","OS X","10_15_7","https://app.prolific.com/","en-US,en;q=0.9","65cb0f21257c8a98f470bb5d","6877631c9844ddd5501205fc","6889d9b1341611b1de254383","3","1","65cb0f21257c8a98f470bb5d","3","1","2025-07-30T08:45:05.098Z","","","","","","","","","","","MotivationQ","","50","","","","","","","","","","","","","","","","","","","","","","","","","","","","",""
"","","","","ctl-task-cpt","39","512687","0.0-5.0-0.6","252","1","2025-07-30 08:37:19","1f75c3e559b7213887762d5229550c2b","122.133.157.125","Mozilla/5.0 (Macintosh; Intel Mac OS X 10_15_7) AppleWebKit/537.36 (KHTML, like Gecko) Chrome/138.0.0.0 Safari/537.36","Macintosh","Chrome","138.0.0.0","OS X","10_15_7","https://app.prolific.com/","en-US,en;q=0.9","65cb0f21257c8a98f470bb5d","6877631c9844ddd5501205fc","6889d9b1341611b1de254383","3","1","65cb0f21257c8a98f470bb5d","3","1","2025-07-30T08:45:54.781Z","","","","","","","","","","","","","","win-only","3","g1:SW,g2:NE","0.4","7","0","466486.1","807.7","5811.1","46674","1","4","4","6","2","-4","-4","18","22","0.13636363636363635","930.5","3000","-2650","[""up"",""right""]","{""num_key_presses"":10,""num_perfect"":4,""num_errors"":0,""num_randdir"":6,""num_randdir_good_moves"":2,""num_whilered"":0,""num_whileblue"":0,""num_blue"":3,""num_good_moves"":6}","[826.6508928571428,815.4477678571428,0.1,826.6508928571428,815.4477678571428,105.8,826.6508928571428,815.4477678571428,208.4,826.6508928571428,815.4477678571428,316,828.6508928571428,803.4477678571428,418,1286.650892857143,319.4477678571428,518.7,1372.650892857143,231.44776785714285,618.8,1442.650892857143,167.44776785714285,719.7,1538.650892857143,137.44776785714285,824.8,1538.650892857143,137.44776785714285,925,1538.650892857143,137.44776785714285,1026.2,1538.650892857143,137.44776785714285,1128.7,1648.650892857143,355.4477678571428,1230.2,1780.650892857143,745.4477678571428,1333.5,1784.650892857143,771.4477678571428,1438.6,1784.650892857143,771.4477678571428,1538.8,1784.650892857143,771.4477678571428,1643,1784.650892857143,771.4477678571428,1743.6,1784.650892857143,771.4477678571428,1848.9,1784.650892857143,771.4477678571428,1951.1,1784.650892857143,771.4477678571428,2053.9,1784.650892857143,771.4477678571428,2155.9,1784.650892857143,771.4477678571428,2262,1784.650892857143,771.4477678571428,2363.3,1784.650892857143,771.4477678571428,2463.6,1784.650892857143,771.4477678571428,2571.7,1784.650892857143,771.4477678571428,2674.7,1784.650892857143,771.4477678571428,2779.4,1784.650892857143,771.4477678571428,2879.7,1784.650892857143,771.4477678571428,2983.1,1784.650892857143,771.4477678571428,3083.4,1784.650892857143,771.4477678571428,3187,1784.650892857143,771.4477678571428,3289.4,1784.650892857143,771.4477678571428,3389.6,1784.650892857143,771.4477678571428,3489.6,1784.650892857143,771.4477678571428,3593.9,1784.650892857143,771.4477678571428,3698.2,1784.650892857143,771.4477678571428,3799.4,1784.650892857143,771.4477678571428,3904.5,1784.650892857143,771.4477678571428,4005.5,1784.650892857143,771.4477678571428,4115.6,1784.650892857143,771.4477678571428,4218.5,1784.650892857143,771.4477678571428,4322.8,1784.650892857143,771.4477678571428,4425.6,1784.650892857143,771.4477678571428,4530.2,1784.650892857143,771.4477678571428,4634.1,1784.650892857143,771.4477678571428,4734.9,1784.650892857143,771.4477678571428,4838.4,1784.650892857143,771.4477678571428,4945.4]","[1346.1,1346.1,1000,0,346.1,""oops"",""right"",""right"",""good_move"",4091.7,2745.4,2422.6,1346.4,322.7,""smooth"",""up"",""up"",""good_move"",11508.1,7416.2,3125.8,8089.9,292.4,""smooth"",""right"",""right"",""good_move"",14231,2722.7,2390.8,11508.3,331.9,""oops"",""up"",""right"",""good_move"",17603.5,3372.4,3107.8,14231.1,264.6,""smooth"",""up"",""up"",""good_move"",20355.5,2751.6,2475.1,17603.9,276.5,""oops"",""up"",""left"",""bad_move"",26361.5,6005.7,2282.4,23770.3,308.8,""oops"",""right"",""left"",""bad_move"",32087.3,5725.7,2599.6,29150.1,337.6,""oops"",""up"",""left"",""bad_move"",34712,2624.6,2211.3,32087.4,413.3,""smooth"",""up"",""up"",""good_move"",38025.6,3313.4,3008.3,34712.2,305.1,""oops"",""right"",""down"",""bad_move""]","",""
"3247","","<div style=""width:500px;"">
  <p>What determined the result of this run?</p>
  </div>","2","html-slider-response","40","515935","0.0-5.0-1.6","252","1","2025-07-30 08:37:19","1f75c3e559b7213887762d5229550c2b","122.133.157.125","Mozilla/5.0 (Macintosh; Intel Mac OS X 10_15_7) AppleWebKit/537.36 (KHTML, like Gecko) Chrome/138.0.0.0 Safari/537.36","Macintosh","Chrome","138.0.0.0","OS X","10_15_7","https://app.prolific.com/","en-US,en;q=0.9","65cb0f21257c8a98f470bb5d","6877631c9844ddd5501205fc","6889d9b1341611b1de254383","3","1","65cb0f21257c8a98f470bb5d","3","1","2025-07-30T08:45:58.029Z","","","","","","","","","","","AttribQ","","50","","","","","","","","","","","","","","","","","","","","","","","","","","","","",""
"4634","","<div style=""width:500px;"">
  <p>How much control did you have over the ball?</p>
  </div>","25","html-slider-response","41","520569","0.0-5.0-2.6","252","1","2025-07-30 08:37:19","1f75c3e559b7213887762d5229550c2b","122.133.157.125","Mozilla/5.0 (Macintosh; Intel Mac OS X 10_15_7) AppleWebKit/537.36 (KHTML, like Gecko) Chrome/138.0.0.0 Safari/537.36","Macintosh","Chrome","138.0.0.0","OS X","10_15_7","https://app.prolific.com/","en-US,en;q=0.9","65cb0f21257c8a98f470bb5d","6877631c9844ddd5501205fc","6889d9b1341611b1de254383","3","1","65cb0f21257c8a98f470bb5d","3","1","2025-07-30T08:46:02.663Z","","","","","","","","","","","ControlQ","","50","","","","","","","","","","","","","","","","","","","","","","","","","","","","",""
"2563","","<div style=""width:500px;"">
  <p>How would you describe your current emotional state?</p>
  </div>","59","html-slider-response","42","523132","0.0-5.0-3.6","252","1","2025-07-30 08:37:19","1f75c3e559b7213887762d5229550c2b","122.133.157.125","Mozilla/5.0 (Macintosh; Intel Mac OS X 10_15_7) AppleWebKit/537.36 (KHTML, like Gecko) Chrome/138.0.0.0 Safari/537.36","Macintosh","Chrome","138.0.0.0","OS X","10_15_7","https://app.prolific.com/","en-US,en;q=0.9","65cb0f21257c8a98f470bb5d","6877631c9844ddd5501205fc","6889d9b1341611b1de254383","3","1","65cb0f21257c8a98f470bb5d","3","1","2025-07-30T08:46:05.227Z","","","","","","","","","","","StressQ","","50","","","","","","","","","","","","","","","","","","","","","","","","","","","","",""
"2605","","<div style=""width:500px;"">
  <p>What best describes how you currently feel?</p>
  </div>","57","html-slider-response","43","525737","0.0-5.0-4.6","252","1","2025-07-30 08:37:19","1f75c3e559b7213887762d5229550c2b","122.133.157.125","Mozilla/5.0 (Macintosh; Intel Mac OS X 10_15_7) AppleWebKit/537.36 (KHTML, like Gecko) Chrome/138.0.0.0 Safari/537.36","Macintosh","Chrome","138.0.0.0","OS X","10_15_7","https://app.prolific.com/","en-US,en;q=0.9","65cb0f21257c8a98f470bb5d","6877631c9844ddd5501205fc","6889d9b1341611b1de254383","3","1","65cb0f21257c8a98f470bb5d","3","1","2025-07-30T08:46:07.832Z","","","","","","","","","","","MotivationQ","","50","","","","","","","","","","","","","","","","","","","","","","","","","","","","",""
"","","","","ctl-task-cpt","44","573527","0.0-5.0-0.7","252","1","2025-07-30 08:37:19","1f75c3e559b7213887762d5229550c2b","122.133.157.125","Mozilla/5.0 (Macintosh; Intel Mac OS X 10_15_7) AppleWebKit/537.36 (KHTML, like Gecko) Chrome/138.0.0.0 Safari/537.36","Macintosh","Chrome","138.0.0.0","OS X","10_15_7","https://app.prolific.com/","en-US,en;q=0.9","65cb0f21257c8a98f470bb5d","6877631c9844ddd5501205fc","6889d9b1341611b1de254383","3","1","65cb0f21257c8a98f470bb5d","3","1","2025-07-30T08:46:55.621Z","","","","","","","","","","","","","","win-only","2","g1:SE,g2:NW","0.3","8","0","529220.2","993.3","5994.3","44780.8","1","4","8","6","2","-8","-8","10","18","0.07575757575757576","1334.1","3000","-2650","[""left"",""up""]","{""num_key_presses"":10,""num_perfect"":3,""num_errors"":0,""num_randdir"":7,""num_randdir_good_moves"":2,""num_whilered"":0,""num_whileblue"":0,""num_blue"":3,""num_good_moves"":5}","[834.6508928571428,829.4477678571428,0.1,834.6508928571428,829.4477678571428,103.4,834.6508928571428,829.4477678571428,204.3,1054.650892857143,795.4477678571428,305.5,1840.650892857143,973.4477678571428,408.9,1646.650892857143,935.4477678571428,512.4,696.6508928571428,331.4477678571428,616.6,662.6508928571428,309.4477678571428,717.6,662.6508928571428,309.4477678571428,819.9,222.65089285714285,75.44776785714285,922.8,128.65089285714285,29.44776785714285,1027.8,182.65089285714285,103.44776785714285,1127.8,210.65089285714285,149.44776785714285,1228.7,210.65089285714285,149.44776785714285,1331.7,210.65089285714285,149.44776785714285,1435.6,230.65089285714285,149.44776785714285,1537,1484.650892857143,479.4477678571428,1641.4,1630.650892857143,605.4477678571428,1744.2,1660.650892857143,637.4477678571428,1845.3,1660.650892857143,637.4477678571428,1949.1,1660.650892857143,637.4477678571428,2054.4,1846.650892857143,635.4477678571428,2157.4,1956.650892857143,661.4477678571428,2258.7,1958.650892857143,663.4477678571428,2360.2,1958.650892857143,663.4477678571428,2465.8,1958.650892857143,663.4477678571428,2565.8,1958.650892857143,663.4477678571428,2668.3,1958.650892857143,663.4477678571428,2769.7,1958.650892857143,663.4477678571428,2876.1,1958.650892857143,663.4477678571428,2977.3,1958.650892857143,663.4477678571428,3077.6,1958.650892857143,663.4477678571428,3180.6,1958.650892857143,663.4477678571428,3285.8,1958.650892857143,663.4477678571428,3390,1958.650892857143,663.4477678571428,3494.8,1958.650892857143,663.4477678571428,3597.5,1958.650892857143,663.4477678571428,3703,1958.650892857143,663.4477678571428,3804,1958.650892857143,663.4477678571428,3904.1,1958.650892857143,663.4477678571428,4005.4,1958.650892857143,663.4477678571428,4109,1958.650892857143,663.4477678571428,4209.5,1958.650892857143,663.4477678571428,4312,1958.650892857143,663.4477678571428,4417.3,1958.650892857143,663.4477678571428,4517.9,1958.650892857143,663.4477678571428,4620.7,1958.650892857143,663.4477678571428,4722.9,1958.650892857143,663.4477678571428,4823.8,1958.650892857143,663.4477678571428,4927]","[4459.8,4459.8,2092.5,2002,365.3,""oops"",""left"",""down"",""bad_move"",7588.5,3128.6,2783.8,4459.9,344.8,""oops"",""left"",""down"",""bad_move"",11030.9,3442.2,3127.1,7588.8,315,""smooth"",""left"",""left"",""good_move"",13624.2,2593.2,2286.9,11031,306.3,""smooth"",""up"",""up"",""good_move"",16368.3,2744,2448.2,13624.4,295.7,""smooth"",""left"",""left"",""good_move"",21824.9,5456.4,1928.1,19572.5,324.3,""oops"",""up"",""down"",""bad_move"",24089.5,2264.3,1947.8,21825.2,316.5,""oops"",""left"",""right"",""bad_move"",26843.5,2753.6,2481,24089.9,272.6,""oops"",""up"",""right"",""bad_move"",33135.6,6292,1560.3,31266.4,308.9,""oops"",""up"",""left"",""good_move"",35958,2822.3,2515.8,33135.7,306.5,""oops"",""up"",""up"",""good_move""]","",""
"2722","","<div style=""width:500px;"">
  <p>What determined the result of this run?</p>
  </div>","0","html-slider-response","45","576250","0.0-5.0-1.7","252","1","2025-07-30 08:37:19","1f75c3e559b7213887762d5229550c2b","122.133.157.125","Mozilla/5.0 (Macintosh; Intel Mac OS X 10_15_7) AppleWebKit/537.36 (KHTML, like Gecko) Chrome/138.0.0.0 Safari/537.36","Macintosh","Chrome","138.0.0.0","OS X","10_15_7","https://app.prolific.com/","en-US,en;q=0.9","65cb0f21257c8a98f470bb5d","6877631c9844ddd5501205fc","6889d9b1341611b1de254383","3","1","65cb0f21257c8a98f470bb5d","3","1","2025-07-30T08:46:58.344Z","","","","","","","","","","","AttribQ","","50","","","","","","","","","","","","","","","","","","","","","","","","","","","","",""
"2345","","<div style=""width:500px;"">
  <p>How much control did you have over the ball?</p>
  </div>","0","html-slider-response","46","578596","0.0-5.0-2.7","252","1","2025-07-30 08:37:19","1f75c3e559b7213887762d5229550c2b","122.133.157.125","Mozilla/5.0 (Macintosh; Intel Mac OS X 10_15_7) AppleWebKit/537.36 (KHTML, like Gecko) Chrome/138.0.0.0 Safari/537.36","Macintosh","Chrome","138.0.0.0","OS X","10_15_7","https://app.prolific.com/","en-US,en;q=0.9","65cb0f21257c8a98f470bb5d","6877631c9844ddd5501205fc","6889d9b1341611b1de254383","3","1","65cb0f21257c8a98f470bb5d","3","1","2025-07-30T08:47:00.690Z","","","","","","","","","","","ControlQ","","50","","","","","","","","","","","","","","","","","","","","","","","","","","","","",""
"4165","","<div style=""width:500px;"">
  <p>How would you describe your current emotional state?</p>
  </div>","71","html-slider-response","47","582761","0.0-5.0-3.7","252","1","2025-07-30 08:37:19","1f75c3e559b7213887762d5229550c2b","122.133.157.125","Mozilla/5.0 (Macintosh; Intel Mac OS X 10_15_7) AppleWebKit/537.36 (KHTML, like Gecko) Chrome/138.0.0.0 Safari/537.36","Macintosh","Chrome","138.0.0.0","OS X","10_15_7","https://app.prolific.com/","en-US,en;q=0.9","65cb0f21257c8a98f470bb5d","6877631c9844ddd5501205fc","6889d9b1341611b1de254383","3","1","65cb0f21257c8a98f470bb5d","3","1","2025-07-30T08:47:04.855Z","","","","","","","","","","","StressQ","","50","","","","","","","","","","","","","","","","","","","","","","","","","","","","",""
"4083","","<div style=""width:500px;"">
  <p>What best describes how you currently feel?</p>
  </div>","42","html-slider-response","48","586845","0.0-5.0-4.7","252","1","2025-07-30 08:37:19","1f75c3e559b7213887762d5229550c2b","122.133.157.125","Mozilla/5.0 (Macintosh; Intel Mac OS X 10_15_7) AppleWebKit/537.36 (KHTML, like Gecko) Chrome/138.0.0.0 Safari/537.36","Macintosh","Chrome","138.0.0.0","OS X","10_15_7","https://app.prolific.com/","en-US,en;q=0.9","65cb0f21257c8a98f470bb5d","6877631c9844ddd5501205fc","6889d9b1341611b1de254383","3","1","65cb0f21257c8a98f470bb5d","3","1","2025-07-30T08:47:08.939Z","","","","","","","","","","","MotivationQ","","50","","","","","","","","","","","","","","","","","","","","","","","","","","","","",""
"","","","","ctl-task-cpt","49","632345","0.0-5.0-0.8","252","1","2025-07-30 08:37:19","1f75c3e559b7213887762d5229550c2b","122.133.157.125","Mozilla/5.0 (Macintosh; Intel Mac OS X 10_15_7) AppleWebKit/537.36 (KHTML, like Gecko) Chrome/138.0.0.0 Safari/537.36","Macintosh","Chrome","138.0.0.0","OS X","10_15_7","https://app.prolific.com/","en-US,en;q=0.9","65cb0f21257c8a98f470bb5d","6877631c9844ddd5501205fc","6889d9b1341611b1de254383","3","1","65cb0f21257c8a98f470bb5d","3","1","2025-07-30T08:47:54.439Z","","","","","","","","","","","","","","win-only","0","g1:NW,g2:SE","0.2","9","0","590327.9","971.5","5975.2","42485.2","1","4","4","6","2","4","3","13","10","0.09848484848484848","1219","3000","410","[""down"",""right""]","{""num_key_presses"":12,""num_perfect"":3,""num_errors"":1,""num_randdir"":8,""num_randdir_good_moves"":5,""num_whilered"":0,""num_whileblue"":1,""num_blue"":2,""num_good_moves"":9}","[830.6508928571428,821.4477678571428,0.1,830.6508928571428,821.4477678571428,107.4,830.6508928571428,821.4477678571428,208.8,830.6508928571428,821.4477678571428,314.5,830.6508928571428,821.4477678571428,418.4,828.6508928571428,821.4477678571428,523.3,800.6508928571428,749.4477678571428,627.4,1348.650892857143,1441.447767857143,728.8,1542.650892857143,1651.447767857143,829.6,1542.650892857143,1637.447767857143,933.8,1530.650892857143,1557.447767857143,1037.9,1528.650892857143,1549.447767857143,1140.1,1528.650892857143,1549.447767857143,1248.4,1528.650892857143,1549.447767857143,1353.4,1528.650892857143,1549.447767857143,1458,1904.650892857143,1145.447767857143,1559.2,1936.650892857143,1121.447767857143,1666.5,1936.650892857143,1121.447767857143,1767,1936.650892857143,1121.447767857143,1867.8,1936.650892857143,1121.447767857143,1969.3,1936.650892857143,1121.447767857143,2076.1,1936.650892857143,1121.447767857143,2179.5,1936.650892857143,1121.447767857143,2284.4,1936.650892857143,1121.447767857143,2389.4,1936.650892857143,1121.447767857143,2497.3,1936.650892857143,1121.447767857143,2597.7,1936.650892857143,1121.447767857143,2699.3,1936.650892857143,1121.447767857143,2807.9,1936.650892857143,1121.447767857143,2913.2,1936.650892857143,1121.447767857143,3014.6,1936.650892857143,1121.447767857143,3118.6,1936.650892857143,1121.447767857143,3218.7,1936.650892857143,1121.447767857143,3321.7,1936.650892857143,1121.447767857143,3424.3,1936.650892857143,1121.447767857143,3524.7,1936.650892857143,1121.447767857143,3629.8,1936.650892857143,1121.447767857143,3732,1936.650892857143,1121.447767857143,3833.3,1936.650892857143,1121.447767857143,3934.3,1936.650892857143,1121.447767857143,4034.6,1936.650892857143,1121.447767857143,4139.1,1936.650892857143,1121.447767857143,4249.2,1936.650892857143,1121.447767857143,4355.5,1936.650892857143,1121.447767857143,4456.1,1936.650892857143,1121.447767857143,4558.7,1936.650892857143,1121.447767857143,4659,1936.650892857143,1121.447767857143,4759,1936.650892857143,1121.447767857143,4864.2,1936.650892857143,1121.447767857143,4966.9]","[1351.5,1351.5,1000,0,351.5,""oops"",""right"",""up"",""bad_move"",4332.2,2980.5,2673.6,1351.7,306.9,""oops"",""right"",""right"",""good_move"",6848.6,2516.3,2246.3,4332.3,270,""oops"",""down"",""up"",""bad_move"",10555.9,3707.1,3459.3,6848.8,247.8,""while_blue"",""right"",""right"",""good_move"",13489.9,2933.9,2613.9,10556,320,""oops"",""down"",""right"",""good_move"",17063.2,3573.1,3280.9,13490.1,292.2,""oops"",""down"",""left"",""bad_move"",19582,2518.5,2202.5,17063.5,316,""oops"",""down"",""right"",""good_move"",22303.1,2720.9,2429.5,19582.2,291.4,""oops"",""down"",""down"",""good_move"",25522.6,3219.2,2907.1,22303.4,312.1,""oops"",""down"",""down"",""good_move"",31036.1,5513.4,2294.7,28419.8,321.6,""smooth"",""down"",""down"",""good_move"",33922.1,2885.8,2539.4,31036.3,346.4,""smooth"",""down"",""down"",""good_move"",36382.5,2460.3,2169.7,33922.2,290.6,""smooth"",""down"",""down"",""good_move""]","",""
"3121","","<div style=""width:500px;"">
  <p>What determined the result of this run?</p>
  </div>","35","html-slider-response","50","635466","0.0-5.0-1.8","252","1","2025-07-30 08:37:19","1f75c3e559b7213887762d5229550c2b","122.133.157.125","Mozilla/5.0 (Macintosh; Intel Mac OS X 10_15_7) AppleWebKit/537.36 (KHTML, like Gecko) Chrome/138.0.0.0 Safari/537.36","Macintosh","Chrome","138.0.0.0","OS X","10_15_7","https://app.prolific.com/","en-US,en;q=0.9","65cb0f21257c8a98f470bb5d","6877631c9844ddd5501205fc","6889d9b1341611b1de254383","3","1","65cb0f21257c8a98f470bb5d","3","1","2025-07-30T08:47:57.560Z","","","","","","","","","","","AttribQ","","50","","","","","","","","","","","","","","","","","","","","","","","","","","","","",""
"1981","","<div style=""width:500px;"">
  <p>How much control did you have over the ball?</p>
  </div>","30","html-slider-response","51","637448","0.0-5.0-2.8","252","1","2025-07-30 08:37:19","1f75c3e559b7213887762d5229550c2b","122.133.157.125","Mozilla/5.0 (Macintosh; Intel Mac OS X 10_15_7) AppleWebKit/537.36 (KHTML, like Gecko) Chrome/138.0.0.0 Safari/537.36","Macintosh","Chrome","138.0.0.0","OS X","10_15_7","https://app.prolific.com/","en-US,en;q=0.9","65cb0f21257c8a98f470bb5d","6877631c9844ddd5501205fc","6889d9b1341611b1de254383","3","1","65cb0f21257c8a98f470bb5d","3","1","2025-07-30T08:47:59.542Z","","","","","","","","","","","ControlQ","","50","","","","","","","","","","","","","","","","","","","","","","","","","","","","",""
"3138","","<div style=""width:500px;"">
  <p>How would you describe your current emotional state?</p>
  </div>","60","html-slider-response","52","640586","0.0-5.0-3.8","252","1","2025-07-30 08:37:19","1f75c3e559b7213887762d5229550c2b","122.133.157.125","Mozilla/5.0 (Macintosh; Intel Mac OS X 10_15_7) AppleWebKit/537.36 (KHTML, like Gecko) Chrome/138.0.0.0 Safari/537.36","Macintosh","Chrome","138.0.0.0","OS X","10_15_7","https://app.prolific.com/","en-US,en;q=0.9","65cb0f21257c8a98f470bb5d","6877631c9844ddd5501205fc","6889d9b1341611b1de254383","3","1","65cb0f21257c8a98f470bb5d","3","1","2025-07-30T08:48:02.680Z","","","","","","","","","","","StressQ","","50","","","","","","","","","","","","","","","","","","","","","","","","","","","","",""
"2077","","<div style=""width:500px;"">
  <p>What best describes how you currently feel?</p>
  </div>","42","html-slider-response","53","642664","0.0-5.0-4.8","252","1","2025-07-30 08:37:19","1f75c3e559b7213887762d5229550c2b","122.133.157.125","Mozilla/5.0 (Macintosh; Intel Mac OS X 10_15_7) AppleWebKit/537.36 (KHTML, like Gecko) Chrome/138.0.0.0 Safari/537.36","Macintosh","Chrome","138.0.0.0","OS X","10_15_7","https://app.prolific.com/","en-US,en;q=0.9","65cb0f21257c8a98f470bb5d","6877631c9844ddd5501205fc","6889d9b1341611b1de254383","3","1","65cb0f21257c8a98f470bb5d","3","1","2025-07-30T08:48:04.758Z","","","","","","","","","","","MotivationQ","","50","","","","","","","","","","","","","","","","","","","","","","","","","","","","",""
"","","","","ctl-task-cpt","54","686979","0.0-5.0-0.9","252","1","2025-07-30 08:37:19","1f75c3e559b7213887762d5229550c2b","122.133.157.125","Mozilla/5.0 (Macintosh; Intel Mac OS X 10_15_7) AppleWebKit/537.36 (KHTML, like Gecko) Chrome/138.0.0.0 Safari/537.36","Macintosh","Chrome","138.0.0.0","OS X","10_15_7","https://app.prolific.com/","en-US,en;q=0.9","65cb0f21257c8a98f470bb5d","6877631c9844ddd5501205fc","6889d9b1341611b1de254383","3","1","65cb0f21257c8a98f470bb5d","3","1","2025-07-30T08:48:49.073Z","","","","","","","","","","","","","","win-only","3","g1:SW,g2:NE","0.4","10","0","646147.3","1114.6","6122.2","41301.7","1","4","8","6","2","8","8","21","13","0.1590909090909091","928.3","3000","440","[""up"",""right""]","{""num_key_presses"":10,""num_perfect"":4,""num_errors"":0,""num_randdir"":6,""num_randdir_good_moves"":4,""num_whilered"":0,""num_whileblue"":0,""num_blue"":3,""num_good_moves"":8}","[828.6508928571428,811.4477678571428,0.1,828.6508928571428,811.4477678571428,101,828.6508928571428,811.4477678571428,206.2,828.6508928571428,811.4477678571428,311.2,1228.650892857143,419.4477678571428,411.4,1642.650892857143,145.44776785714285,524.8,1644.650892857143,129.44776785714285,631.1,1466.650892857143,195.44776785714285,736.1,1462.650892857143,197.44776785714285,840.5,1462.650892857143,197.44776785714285,944.3,1462.650892857143,197.44776785714285,1050.1,1504.650892857143,197.44776785714285,1156,2024.650892857143,509.4477678571428,1265.3,2014.650892857143,563.4477678571428,1366.1,2014.650892857143,563.4477678571428,1466.2,2014.650892857143,563.4477678571428,1566.5,2014.650892857143,563.4477678571428,1667,2014.650892857143,563.4477678571428,1770.8,2014.650892857143,563.4477678571428,1876.9,2014.650892857143,563.4477678571428,1979.2,2014.650892857143,563.4477678571428,2080.7,2014.650892857143,563.4477678571428,2180.8,2014.650892857143,563.4477678571428,2285.6,2014.650892857143,563.4477678571428,2389,2014.650892857143,563.4477678571428,2490,2014.650892857143,563.4477678571428,2594.4,2014.650892857143,563.4477678571428,2694.9,2014.650892857143,563.4477678571428,2796.2,2014.650892857143,563.4477678571428,2900,2014.650892857143,563.4477678571428,3004.3,2014.650892857143,563.4477678571428,3109.4,2014.650892857143,563.4477678571428,3210.2,2014.650892857143,563.4477678571428,3311.2,2014.650892857143,563.4477678571428,3412.6,2014.650892857143,563.4477678571428,3519.7,2014.650892857143,563.4477678571428,3622,2014.650892857143,563.4477678571428,3724.5,2014.650892857143,563.4477678571428,3825.4,2014.650892857143,563.4477678571428,3928.5,2014.650892857143,563.4477678571428,4031.3,2014.650892857143,563.4477678571428,4132.5,2014.650892857143,563.4477678571428,4233.3,2014.650892857143,563.4477678571428,4333.6,2014.650892857143,563.4477678571428,4434.3,2014.650892857143,563.4477678571428,4536,2014.650892857143,563.4477678571428,4645.2,2014.650892857143,563.4477678571428,4746.2,2014.650892857143,563.4477678571428,4850.2,2014.650892857143,563.4477678571428,4955.3]","[7649.7,7649.7,2284.1,4978.2,387.4,""oops"",""right"",""right"",""good_move"",10542.3,2892.4,2532.7,7649.9,359.7,""smooth"",""up"",""up"",""good_move"",13359.3,2816.8,2545.4,10542.5,271.4,""oops"",""right"",""up"",""good_move"",19040.7,5681.3,1487,17178.3,375.4,""oops"",""right"",""right"",""good_move"",21172.2,2131.3,1783.2,19040.9,348.1,""oops"",""up"",""down"",""bad_move"",23887.7,2715.3,2429.9,21172.5,285.4,""smooth"",""up"",""up"",""good_move"",26919.6,3031.6,2733.9,23888,297.7,""oops"",""right"",""down"",""bad_move"",30088.5,3168.8,2877.6,26919.7,291.2,""smooth"",""up"",""up"",""good_move"",32039.3,1950.6,1546.8,30088.7,403.8,""smooth"",""up"",""up"",""good_move"",35049.4,3009.8,2737.9,32039.6,271.9,""oops"",""right"",""right"",""good_move""]","",""
"2759","","<div style=""width:500px;"">
  <p>What determined the result of this run?</p>
  </div>","50","html-slider-response","55","689738","0.0-5.0-1.9","252","1","2025-07-30 08:37:19","1f75c3e559b7213887762d5229550c2b","122.133.157.125","Mozilla/5.0 (Macintosh; Intel Mac OS X 10_15_7) AppleWebKit/537.36 (KHTML, like Gecko) Chrome/138.0.0.0 Safari/537.36","Macintosh","Chrome","138.0.0.0","OS X","10_15_7","https://app.prolific.com/","en-US,en;q=0.9","65cb0f21257c8a98f470bb5d","6877631c9844ddd5501205fc","6889d9b1341611b1de254383","3","1","65cb0f21257c8a98f470bb5d","3","1","2025-07-30T08:48:51.832Z","","","","","","","","","","","AttribQ","","50","","","","","","","","","","","","","","","","","","","","","","","","","","","","",""
"3282","","<div style=""width:500px;"">
  <p>How much control did you have over the ball?</p>
  </div>","39","html-slider-response","56","693021","0.0-5.0-2.9","252","1","2025-07-30 08:37:19","1f75c3e559b7213887762d5229550c2b","122.133.157.125","Mozilla/5.0 (Macintosh; Intel Mac OS X 10_15_7) AppleWebKit/537.36 (KHTML, like Gecko) Chrome/138.0.0.0 Safari/537.36","Macintosh","Chrome","138.0.0.0","OS X","10_15_7","https://app.prolific.com/","en-US,en;q=0.9","65cb0f21257c8a98f470bb5d","6877631c9844ddd5501205fc","6889d9b1341611b1de254383","3","1","65cb0f21257c8a98f470bb5d","3","1","2025-07-30T08:48:55.115Z","","","","","","","","","","","ControlQ","","50","","","","","","","","","","","","","","","","","","","","","","","","","","","","",""
"4238","","<div style=""width:500px;"">
  <p>How would you describe your current emotional state?</p>
  </div>","50","html-slider-response","57","697259","0.0-5.0-3.9","252","1","2025-07-30 08:37:19","1f75c3e559b7213887762d5229550c2b","122.133.157.125","Mozilla/5.0 (Macintosh; Intel Mac OS X 10_15_7) AppleWebKit/537.36 (KHTML, like Gecko) Chrome/138.0.0.0 Safari/537.36","Macintosh","Chrome","138.0.0.0","OS X","10_15_7","https://app.prolific.com/","en-US,en;q=0.9","65cb0f21257c8a98f470bb5d","6877631c9844ddd5501205fc","6889d9b1341611b1de254383","3","1","65cb0f21257c8a98f470bb5d","3","1","2025-07-30T08:48:59.353Z","","","","","","","","","","","StressQ","","50","","","","","","","","","","","","","","","","","","","","","","","","","","","","",""
"2232","","<div style=""width:500px;"">
  <p>What best describes how you currently feel?</p>
  </div>","55","html-slider-response","58","699492","0.0-5.0-4.9","252","1","2025-07-30 08:37:19","1f75c3e559b7213887762d5229550c2b","122.133.157.125","Mozilla/5.0 (Macintosh; Intel Mac OS X 10_15_7) AppleWebKit/537.36 (KHTML, like Gecko) Chrome/138.0.0.0 Safari/537.36","Macintosh","Chrome","138.0.0.0","OS X","10_15_7","https://app.prolific.com/","en-US,en;q=0.9","65cb0f21257c8a98f470bb5d","6877631c9844ddd5501205fc","6889d9b1341611b1de254383","3","1","65cb0f21257c8a98f470bb5d","3","1","2025-07-30T08:49:01.586Z","","","","","","","","","","","MotivationQ","","50","","","","","","","","","","","","","","","","","","","","","","","","","","","","",""
"","","","","ctl-task-cpt","59","735174","0.0-5.0-0.10","252","1","2025-07-30 08:37:19","1f75c3e559b7213887762d5229550c2b","122.133.157.125","Mozilla/5.0 (Macintosh; Intel Mac OS X 10_15_7) AppleWebKit/537.36 (KHTML, like Gecko) Chrome/138.0.0.0 Safari/537.36","Macintosh","Chrome","138.0.0.0","OS X","10_15_7","https://app.prolific.com/","en-US,en;q=0.9","65cb0f21257c8a98f470bb5d","6877631c9844ddd5501205fc","6889d9b1341611b1de254383","3","1","65cb0f21257c8a98f470bb5d","3","1","2025-07-30T08:49:37.268Z","","","","","","","","","","","","","","win-only","3","g1:SW,g2:NE","0.5","11","0","702975.6","903.5","5906","32673.7","1","4","4","6","2","4","4","25","21","0.1893939393939394","843.2","3000","885","[""up"",""right""]","{""num_key_presses"":8,""num_perfect"":5,""num_errors"":0,""num_randdir"":3,""num_randdir_good_moves"":2,""num_whilered"":0,""num_whileblue"":0,""num_blue"":2,""num_good_moves"":7}","[828.6508928571428,837.4477678571428,0,828.6508928571428,837.4477678571428,102.1,828.6508928571428,837.4477678571428,202.5,828.6508928571428,837.4477678571428,303.3,1424.650892857143,125.44776785714285,405.3,1620.650892857143,-44.55223214285715,512,1592.650892857143,21.44776785714285,616.4,1508.650892857143,179.44776785714285,716.6,1508.650892857143,179.44776785714285,817,1508.650892857143,179.44776785714285,917.5,1508.650892857143,179.44776785714285,1025.6,1712.650892857143,239.44776785714285,1126.8,1964.650892857143,577.4477678571428,1227.9,1964.650892857143,577.4477678571428,1331.8,1964.650892857143,577.4477678571428,1432.7,1964.650892857143,577.4477678571428,1536.7,1964.650892857143,577.4477678571428,1637.3,1964.650892857143,577.4477678571428,1740.2,1964.650892857143,577.4477678571428,1840.5,1964.650892857143,577.4477678571428,1941.6,1964.650892857143,577.4477678571428,2041.8,1964.650892857143,577.4477678571428,2147.1,1964.650892857143,577.4477678571428,2250.6,1964.650892857143,577.4477678571428,2352.6,1964.650892857143,577.4477678571428,2453.1,1964.650892857143,577.4477678571428,2556.8,1964.650892857143,577.4477678571428,2661.7,1964.650892857143,577.4477678571428,2762,1964.650892857143,577.4477678571428,2867.8,1964.650892857143,577.4477678571428,2968,1964.650892857143,577.4477678571428,3071.4,1964.650892857143,577.4477678571428,3172.3,1964.650892857143,577.4477678571428,3276.6,1964.650892857143,577.4477678571428,3379.8,1964.650892857143,577.4477678571428,3485.9,1964.650892857143,577.4477678571428,3588.4,1964.650892857143,577.4477678571428,3695.1,1964.650892857143,577.4477678571428,3797.3,1964.650892857143,577.4477678571428,3902.3,1964.650892857143,577.4477678571428,4002.3,1964.650892857143,577.4477678571428,4110.1,1964.650892857143,577.4477678571428,4213.4,1964.650892857143,577.4477678571428,4315.4,1964.650892857143,577.4477678571428,4417,1964.650892857143,577.4477678571428,4522.2,1964.650892857143,577.4477678571428,4622.7,1964.650892857143,577.4477678571428,4730.5,1964.650892857143,577.4477678571428,4831.9,1964.650892857143,577.4477678571428,4932.3]","[1310.7,1310.7,1000,0,310.7,""oops"",""right"",""down"",""bad_move"",3884.1,2573.2,2282.9,1310.9,290.4,""smooth"",""right"",""right"",""good_move"",6622.9,2738.6,2436.4,3884.3,302.2,""oops"",""up"",""right"",""good_move"",9544.7,2921.7,2611.6,6623,310.1,""smooth"",""up"",""up"",""good_move"",13093.2,3548.5,3147.6,9544.8,400.9,""oops"",""up"",""right"",""good_move"",15475.7,2382.2,2009.7,13093.5,372.5,""smooth"",""up"",""up"",""good_move"",20343.7,4867.8,1782.5,18253,308.2,""smooth"",""up"",""up"",""good_move"",26656.9,6313.1,2604,23759.4,293.5,""smooth"",""up"",""up"",""good_move""]","",""
"2254","","<div style=""width:500px;"">
  <p>What determined the result of this run?</p>
  </div>","56","html-slider-response","60","737429","0.0-5.0-1.10","252","1","2025-07-30 08:37:19","1f75c3e559b7213887762d5229550c2b","122.133.157.125","Mozilla/5.0 (Macintosh; Intel Mac OS X 10_15_7) AppleWebKit/537.36 (KHTML, like Gecko) Chrome/138.0.0.0 Safari/537.36","Macintosh","Chrome","138.0.0.0","OS X","10_15_7","https://app.prolific.com/","en-US,en;q=0.9","65cb0f21257c8a98f470bb5d","6877631c9844ddd5501205fc","6889d9b1341611b1de254383","3","1","65cb0f21257c8a98f470bb5d","3","1","2025-07-30T08:49:39.523Z","","","","","","","","","","","AttribQ","","50","","","","","","","","","","","","","","","","","","","","","","","","","","","","",""
"4723","","<div style=""width:500px;"">
  <p>How much control did you have over the ball?</p>
  </div>","44","html-slider-response","61","742152","0.0-5.0-2.10","252","1","2025-07-30 08:37:19","1f75c3e559b7213887762d5229550c2b","122.133.157.125","Mozilla/5.0 (Macintosh; Intel Mac OS X 10_15_7) AppleWebKit/537.36 (KHTML, like Gecko) Chrome/138.0.0.0 Safari/537.36","Macintosh","Chrome","138.0.0.0","OS X","10_15_7","https://app.prolific.com/","en-US,en;q=0.9","65cb0f21257c8a98f470bb5d","6877631c9844ddd5501205fc","6889d9b1341611b1de254383","3","1","65cb0f21257c8a98f470bb5d","3","1","2025-07-30T08:49:44.246Z","","","","","","","","","","","ControlQ","","50","","","","","","","","","","","","","","","","","","","","","","","","","","","","",""
"2813","","<div style=""width:500px;"">
  <p>How would you describe your current emotional state?</p>
  </div>","45","html-slider-response","62","744965","0.0-5.0-3.10","252","1","2025-07-30 08:37:19","1f75c3e559b7213887762d5229550c2b","122.133.157.125","Mozilla/5.0 (Macintosh; Intel Mac OS X 10_15_7) AppleWebKit/537.36 (KHTML, like Gecko) Chrome/138.0.0.0 Safari/537.36","Macintosh","Chrome","138.0.0.0","OS X","10_15_7","https://app.prolific.com/","en-US,en;q=0.9","65cb0f21257c8a98f470bb5d","6877631c9844ddd5501205fc","6889d9b1341611b1de254383","3","1","65cb0f21257c8a98f470bb5d","3","1","2025-07-30T08:49:47.060Z","","","","","","","","","","","StressQ","","50","","","","","","","","","","","","","","","","","","","","","","","","","","","","",""
"2078","","<div style=""width:500px;"">
  <p>What best describes how you currently feel?</p>
  </div>","60","html-slider-response","63","747044","0.0-5.0-4.10","252","1","2025-07-30 08:37:19","1f75c3e559b7213887762d5229550c2b","122.133.157.125","Mozilla/5.0 (Macintosh; Intel Mac OS X 10_15_7) AppleWebKit/537.36 (KHTML, like Gecko) Chrome/138.0.0.0 Safari/537.36","Macintosh","Chrome","138.0.0.0","OS X","10_15_7","https://app.prolific.com/","en-US,en;q=0.9","65cb0f21257c8a98f470bb5d","6877631c9844ddd5501205fc","6889d9b1341611b1de254383","3","1","65cb0f21257c8a98f470bb5d","3","1","2025-07-30T08:49:49.138Z","","","","","","","","","","","MotivationQ","","50","","","","","","","","","","","","","","","","","","","","","","","","","","","","",""
"","","","","ctl-task-cpt","64","793979","0.0-5.0-0.11","252","1","2025-07-30 08:37:19","1f75c3e559b7213887762d5229550c2b","122.133.157.125","Mozilla/5.0 (Macintosh; Intel Mac OS X 10_15_7) AppleWebKit/537.36 (KHTML, like Gecko) Chrome/138.0.0.0 Safari/537.36","Macintosh","Chrome","138.0.0.0","OS X","10_15_7","https://app.prolific.com/","en-US,en;q=0.9","65cb0f21257c8a98f470bb5d","6877631c9844ddd5501205fc","6889d9b1341611b1de254383","3","1","65cb0f21257c8a98f470bb5d","3","1","2025-07-30T08:50:36.073Z","","","","","","","","","","","","","","win-only","1","g1:NE,g2:SW","0.6","12","0","750528.3","904.9","5910.2","43920.1","1","4","8","6","2","8","8","33","25","0.25","1333","3000","610","[""down"",""left""]","{""num_key_presses"":10,""num_perfect"":6,""num_errors"":0,""num_randdir"":4,""num_randdir_good_moves"":2,""num_whilered"":0,""num_whileblue"":0,""num_blue"":3,""num_good_moves"":8}","[828.6508928571428,817.4477678571428,0.2,828.6508928571428,817.4477678571428,106.3,828.6508928571428,817.4477678571428,206.9,828.6508928571428,817.4477678571428,307.2,838.6508928571428,785.4477678571428,410.8,1168.650892857143,431.4477678571428,516.3,1026.650892857143,645.4477678571428,616.9,328.6508928571428,1213.447767857143,720.6,200.65089285714285,1405.447767857143,821.9,174.65089285714285,1485.447767857143,925.6,172.65089285714285,1485.447767857143,1025.8,172.65089285714285,1485.447767857143,1126,172.65089285714285,1485.447767857143,1234.6,172.65089285714285,1485.447767857143,1346.5,172.65089285714285,1485.447767857143,1451.3,172.65089285714285,1485.447767857143,1556.3,172.65089285714285,1485.447767857143,1661.3,1498.650892857143,965.4477678571428,1766.4,1804.650892857143,967.4477678571428,1875.7,1808.650892857143,969.4477678571428,1982,1824.650892857143,973.4477678571428,2086.5,1830.650892857143,979.4477678571428,2190.9,1830.650892857143,979.4477678571428,2295.5,1830.650892857143,979.4477678571428,2400.7,1830.650892857143,979.4477678571428,2502.7,1830.650892857143,979.4477678571428,2612.3,1830.650892857143,979.4477678571428,2712.5,1830.650892857143,979.4477678571428,2815.5,1830.650892857143,979.4477678571428,2916.1,1830.650892857143,979.4477678571428,3022.3,1830.650892857143,979.4477678571428,3129.7,1830.650892857143,979.4477678571428,3235.1,1830.650892857143,979.4477678571428,3337,1830.650892857143,979.4477678571428,3440.9,1830.650892857143,979.4477678571428,3540.9,1830.650892857143,979.4477678571428,3644,1830.650892857143,979.4477678571428,3744,1830.650892857143,979.4477678571428,3851.5,1830.650892857143,979.4477678571428,3956.6,1830.650892857143,979.4477678571428,4059.4,1830.650892857143,979.4477678571428,4160.3,1830.650892857143,979.4477678571428,4265.1,1830.650892857143,979.4477678571428,4367,1830.650892857143,979.4477678571428,4468.2,1830.650892857143,979.4477678571428,4576.1,1830.650892857143,979.4477678571428,4680.9,1830.650892857143,979.4477678571428,4786,1830.650892857143,979.4477678571428,4886.7,1830.650892857143,979.4477678571428,4986.8]","[1311,1311,1000,0,311,""oops"",""left"",""left"",""good_move"",4115.7,2804.5,2519.3,1311.2,285.2,""smooth"",""down"",""down"",""good_move"",6517.9,2402,2056.2,4115.9,345.8,""smooth"",""left"",""left"",""good_move"",13034.1,6515.9,2705.8,9834.8,493.5,""oops"",""down"",""up"",""bad_move"",15731,2696.7,2404.8,13034.4,291.8,""oops"",""down"",""down"",""good_move"",19215,3484,3060.2,15731.1,423.8,""oops"",""down"",""right"",""bad_move"",21584.8,2369.4,2078.8,19215.4,290.6,""smooth"",""down"",""down"",""good_move"",24279.9,2694.9,2423.4,21585,271.5,""smooth"",""left"",""left"",""good_move"",34594.8,10314.7,2743.7,31392.3,458.8,""smooth"",""down"",""down"",""good_move"",37915.4,3320.4,2934,34595,386.4,""smooth"",""left"",""left"",""good_move""]","",""
"2197","","<div style=""width:500px;"">
  <p>What determined the result of this run?</p>
  </div>","75","html-slider-response","65","796176","0.0-5.0-1.11","252","1","2025-07-30 08:37:19","1f75c3e559b7213887762d5229550c2b","122.133.157.125","Mozilla/5.0 (Macintosh; Intel Mac OS X 10_15_7) AppleWebKit/537.36 (KHTML, like Gecko) Chrome/138.0.0.0 Safari/537.36","Macintosh","Chrome","138.0.0.0","OS X","10_15_7","https://app.prolific.com/","en-US,en;q=0.9","65cb0f21257c8a98f470bb5d","6877631c9844ddd5501205fc","6889d9b1341611b1de254383","3","1","65cb0f21257c8a98f470bb5d","3","1","2025-07-30T08:50:38.270Z","","","","","","","","","","","AttribQ","","50","","","","","","","","","","","","","","","","","","","","","","","","","","","","",""
"3170","","<div style=""width:500px;"">
  <p>How much control did you have over the ball?</p>
  </div>","50","html-slider-response","66","799347","0.0-5.0-2.11","252","1","2025-07-30 08:37:19","1f75c3e559b7213887762d5229550c2b","122.133.157.125","Mozilla/5.0 (Macintosh; Intel Mac OS X 10_15_7) AppleWebKit/537.36 (KHTML, like Gecko) Chrome/138.0.0.0 Safari/537.36","Macintosh","Chrome","138.0.0.0","OS X","10_15_7","https://app.prolific.com/","en-US,en;q=0.9","65cb0f21257c8a98f470bb5d","6877631c9844ddd5501205fc","6889d9b1341611b1de254383","3","1","65cb0f21257c8a98f470bb5d","3","1","2025-07-30T08:50:41.441Z","","","","","","","","","","","ControlQ","","50","","","","","","","","","","","","","","","","","","","","","","","","","","","","",""
"3065","","<div style=""width:500px;"">
  <p>How would you describe your current emotional state?</p>
  </div>","43","html-slider-response","67","802412","0.0-5.0-3.11","252","1","2025-07-30 08:37:19","1f75c3e559b7213887762d5229550c2b","122.133.157.125","Mozilla/5.0 (Macintosh; Intel Mac OS X 10_15_7) AppleWebKit/537.36 (KHTML, like Gecko) Chrome/138.0.0.0 Safari/537.36","Macintosh","Chrome","138.0.0.0","OS X","10_15_7","https://app.prolific.com/","en-US,en;q=0.9","65cb0f21257c8a98f470bb5d","6877631c9844ddd5501205fc","6889d9b1341611b1de254383","3","1","65cb0f21257c8a98f470bb5d","3","1","2025-07-30T08:50:44.506Z","","","","","","","","","","","StressQ","","50","","","","","","","","","","","","","","","","","","","","","","","","","","","","",""
"2813","","<div style=""width:500px;"">
  <p>What best describes how you currently feel?</p>
  </div>","61","html-slider-response","68","805225","0.0-5.0-4.11","252","1","2025-07-30 08:37:19","1f75c3e559b7213887762d5229550c2b","122.133.157.125","Mozilla/5.0 (Macintosh; Intel Mac OS X 10_15_7) AppleWebKit/537.36 (KHTML, like Gecko) Chrome/138.0.0.0 Safari/537.36","Macintosh","Chrome","138.0.0.0","OS X","10_15_7","https://app.prolific.com/","en-US,en;q=0.9","65cb0f21257c8a98f470bb5d","6877631c9844ddd5501205fc","6889d9b1341611b1de254383","3","1","65cb0f21257c8a98f470bb5d","3","1","2025-07-30T08:50:47.319Z","","","","","","","","","","","MotivationQ","","50","","","","","","","","","","","","","","","","","","","","","","","","","","","","",""
"","","","","ctl-task-cpt","69","836063","0.0-5.0-0.12","252","1","2025-07-30 08:37:19","1f75c3e559b7213887762d5229550c2b","122.133.157.125","Mozilla/5.0 (Macintosh; Intel Mac OS X 10_15_7) AppleWebKit/537.36 (KHTML, like Gecko) Chrome/138.0.0.0 Safari/537.36","Macintosh","Chrome","138.0.0.0","OS X","10_15_7","https://app.prolific.com/","en-US,en;q=0.9","65cb0f21257c8a98f470bb5d","6877631c9844ddd5501205fc","6889d9b1341611b1de254383","3","1","65cb0f21257c8a98f470bb5d","3","1","2025-07-30T08:51:18.157Z","","","","","","","","","","","","","","win-only","1","g1:NE,g2:SW","0.7","13","0","808709.9","906.1","5910.9","27820.5","1","4","4","6","2","4","4","37","33","0.2803030303030303","985.5","3000","1800","[""down"",""left""]","{""num_key_presses"":6,""num_perfect"":4,""num_errors"":0,""num_randdir"":2,""num_randdir_good_moves"":2,""num_whilered"":0,""num_whileblue"":0,""num_blue"":2,""num_good_moves"":6}","[822.6508928571428,827.4477678571428,0.2,822.6508928571428,827.4477678571428,104.8,822.6508928571428,827.4477678571428,205.1,822.6508928571428,827.4477678571428,311.9,822.6508928571428,827.4477678571428,419.8,452.6508928571428,1119.447767857143,525.1,236.65089285714285,1463.447767857143,625.3,236.65089285714285,1463.447767857143,729.9,236.65089285714285,1463.447767857143,832.8,236.65089285714285,1463.447767857143,936.5,236.65089285714285,1463.447767857143,1040.5,236.65089285714285,1463.447767857143,1144.9,524.6508928571428,1283.447767857143,1249.5,1514.650892857143,939.4477678571428,1350.1,1780.650892857143,959.4477678571428,1453.3,1790.650892857143,961.4477678571428,1560.6,1880.650892857143,961.4477678571428,1672.7,1892.650892857143,963.4477678571428,1775.2,1892.650892857143,963.4477678571428,1879.7,1892.650892857143,963.4477678571428,1984.8,1892.650892857143,963.4477678571428,2085.3,1892.650892857143,963.4477678571428,2189.3,1892.650892857143,963.4477678571428,2290.9,1892.650892857143,963.4477678571428,2394.9,1892.650892857143,963.4477678571428,2500.2,1892.650892857143,963.4477678571428,2604.6,1892.650892857143,963.4477678571428,2705.8,1892.650892857143,963.4477678571428,2811.6,1892.650892857143,963.4477678571428,2919.3,1892.650892857143,963.4477678571428,3019.5,1892.650892857143,963.4477678571428,3124.1,1892.650892857143,963.4477678571428,3225.2,1892.650892857143,963.4477678571428,3325.4,1892.650892857143,963.4477678571428,3427.8,1892.650892857143,963.4477678571428,3529.8,1892.650892857143,963.4477678571428,3634.8,1892.650892857143,963.4477678571428,3735,1892.650892857143,963.4477678571428,3839.6,1892.650892857143,963.4477678571428,3945.9,1892.650892857143,963.4477678571428,4046,1892.650892857143,963.4477678571428,4156.3,1892.650892857143,963.4477678571428,4257.6,1892.650892857143,963.4477678571428,4360,1892.650892857143,963.4477678571428,4465.1,1892.650892857143,963.4477678571428,4572.2,1892.650892857143,963.4477678571428,4680.4,1892.650892857143,963.4477678571428,4783.7,1892.650892857143,963.4477678571428,4884.7,1892.650892857143,963.4477678571428,4989.5]","[4924.3,4924.4,2600.8,2010,313.6,""smooth"",""left"",""left"",""good_move"",8071.5,3147,2800.6,4924.5,346.4,""smooth"",""down"",""down"",""good_move"",10530.6,2458.9,2142.9,8071.7,316,""oops"",""left"",""left"",""good_move"",15965.5,5434.8,2162.6,13480.5,322.4,""smooth"",""down"",""down"",""good_move"",19045.3,3079.7,2797.5,15965.6,282.2,""oops"",""left"",""down"",""good_move"",21804.7,2759.3,2459.2,19045.4,300.1,""smooth"",""left"",""left"",""good_move""]","",""
"2457","","<div style=""width:500px;"">
  <p>What determined the result of this run?</p>
  </div>","64","html-slider-response","70","838521","0.0-5.0-1.12","252","1","2025-07-30 08:37:19","1f75c3e559b7213887762d5229550c2b","122.133.157.125","Mozilla/5.0 (Macintosh; Intel Mac OS X 10_15_7) AppleWebKit/537.36 (KHTML, like Gecko) Chrome/138.0.0.0 Safari/537.36","Macintosh","Chrome","138.0.0.0","OS X","10_15_7","https://app.prolific.com/","en-US,en;q=0.9","65cb0f21257c8a98f470bb5d","6877631c9844ddd5501205fc","6889d9b1341611b1de254383","3","1","65cb0f21257c8a98f470bb5d","3","1","2025-07-30T08:51:20.615Z","","","","","","","","","","","AttribQ","","50","","","","","","","","","","","","","","","","","","","","","","","","","","","","",""
"3437","","<div style=""width:500px;"">
  <p>How much control did you have over the ball?</p>
  </div>","51","html-slider-response","71","841958","0.0-5.0-2.12","252","1","2025-07-30 08:37:19","1f75c3e559b7213887762d5229550c2b","122.133.157.125","Mozilla/5.0 (Macintosh; Intel Mac OS X 10_15_7) AppleWebKit/537.36 (KHTML, like Gecko) Chrome/138.0.0.0 Safari/537.36","Macintosh","Chrome","138.0.0.0","OS X","10_15_7","https://app.prolific.com/","en-US,en;q=0.9","65cb0f21257c8a98f470bb5d","6877631c9844ddd5501205fc","6889d9b1341611b1de254383","3","1","65cb0f21257c8a98f470bb5d","3","1","2025-07-30T08:51:24.052Z","","","","","","","","","","","ControlQ","","50","","","","","","","","","","","","","","","","","","","","","","","","","","","","",""
"2806","","<div style=""width:500px;"">
  <p>How would you describe your current emotional state?</p>
  </div>","42","html-slider-response","72","844765","0.0-5.0-3.12","252","1","2025-07-30 08:37:19","1f75c3e559b7213887762d5229550c2b","122.133.157.125","Mozilla/5.0 (Macintosh; Intel Mac OS X 10_15_7) AppleWebKit/537.36 (KHTML, like Gecko) Chrome/138.0.0.0 Safari/537.36","Macintosh","Chrome","138.0.0.0","OS X","10_15_7","https://app.prolific.com/","en-US,en;q=0.9","65cb0f21257c8a98f470bb5d","6877631c9844ddd5501205fc","6889d9b1341611b1de254383","3","1","65cb0f21257c8a98f470bb5d","3","1","2025-07-30T08:51:26.859Z","","","","","","","","","","","StressQ","","50","","","","","","","","","","","","","","","","","","","","","","","","","","","","",""
"1974","","<div style=""width:500px;"">
  <p>What best describes how you currently feel?</p>
  </div>","67","html-slider-response","73","846739","0.0-5.0-4.12","252","1","2025-07-30 08:37:19","1f75c3e559b7213887762d5229550c2b","122.133.157.125","Mozilla/5.0 (Macintosh; Intel Mac OS X 10_15_7) AppleWebKit/537.36 (KHTML, like Gecko) Chrome/138.0.0.0 Safari/537.36","Macintosh","Chrome","138.0.0.0","OS X","10_15_7","https://app.prolific.com/","en-US,en;q=0.9","65cb0f21257c8a98f470bb5d","6877631c9844ddd5501205fc","6889d9b1341611b1de254383","3","1","65cb0f21257c8a98f470bb5d","3","1","2025-07-30T08:51:28.833Z","","","","","","","","","","","MotivationQ","","50","","","","","","","","","","","","","","","","","","","","","","","","","","","","",""
