"rt","response_timestamp","stimulus","response","trial_type","trial_index","time_elapsed","internal_node_id","run_id","condition","recorded_at","source_code_version","ip","user_agent","device","browser","browser_version","platform","platform_version","referer","accept_language","PROLIFIC_PID","STUDY_ID","SESSION_ID","WEEK","BATCH","prolific_id","week","batch","realtime","success","responses","item_order","radio_event_ids","radio_event_times","key_event_times","mouse_event_times","straightlining","zigzagging","honeypot","eventType","view_history","slider_start","which_type","canvas_config","goals_layout","control_level","trial_number","tutorial_trial_number","trial_start_time","phase1_start_time","phase2_start_time","phase3_start_time","goal_1_value","goal_1_distance","goal_2_value","goal_2_distance","goal_selected","outcome","outcome_total","participant_final_score","participant_initial_score","participant_final_score_prop","goal_choice_rt","allocated_time","allocated_time_remaining","goal_direction","counts","mouse_movements","key_presses","question_order","question_id"
"7207","1753301785569","<p style='font-size:40px;line-height:1.25'><strong>Welcome to the experiment!</strong></p><p style='font-size:1.1em;line-height:1.25'>Thank you for participanting in our experiment again! You will be asked to play the Dysfunctional Ball Game again. We will briefly recap the rules before we start.</p><p style='font-size:1.1em;line-height:1.25'>Press <strong>Next</strong> to continue.</p>","0","custom-html-button-response","0","7209","0.0-0.0","234","1","2025-07-23 20:14:38","1f75c3e559b7213887762d5229550c2b","216.120.189.168","Mozilla/5.0 (Windows NT 10.0; Win64; x64) AppleWebKit/537.36 (KHTML, like Gecko) Chrome/138.0.0.0 Safari/537.36","WebKit","Chrome","138.0.0.0","Windows","10.0","https://app.prolific.com/","en-US,en;q=0.9","674eae0026291e33be89b46f","683dba2a8a9dda3513610c04","688142860eb7ec76336958a3","3","0","674eae0026291e33be89b46f","3","0","2025-07-23T20:16:25.570Z","","","","","","","","","","","","","","","","","","","","","","","","","","","","","","","","","","","","","","","","","",""
"4020","","","","fullscreen","1","12292","0.0-1.0","234","1","2025-07-23 20:14:38","1f75c3e559b7213887762d5229550c2b","216.120.189.168","Mozilla/5.0 (Windows NT 10.0; Win64; x64) AppleWebKit/537.36 (KHTML, like Gecko) Chrome/138.0.0.0 Safari/537.36","WebKit","Chrome","138.0.0.0","Windows","10.0","https://app.prolific.com/","en-US,en;q=0.9","674eae0026291e33be89b46f","683dba2a8a9dda3513610c04","688142860eb7ec76336958a3","3","0","674eae0026291e33be89b46f","3","0","","true","","","","","","","","","","","","","","","","","","","","","","","","","","","","","","","","","","","","","","","","",""
"34192","1753301824846","<p style='font-size:1.1em;line-height:1.25'>In the following, we will ask you a few questions relating to your feelings in the last 24 hours.<br></p><p style='font-size:1.1em;line-height:1.25'>Press the <strong>Next</strong> button to continue.</p>","0","custom-html-button-response","2","46485","0.0-2.0-0.0","234","1","2025-07-23 20:14:38","1f75c3e559b7213887762d5229550c2b","216.120.189.168","Mozilla/5.0 (Windows NT 10.0; Win64; x64) AppleWebKit/537.36 (KHTML, like Gecko) Chrome/138.0.0.0 Safari/537.36","WebKit","Chrome","138.0.0.0","Windows","10.0","https://app.prolific.com/","en-US,en;q=0.9","674eae0026291e33be89b46f","683dba2a8a9dda3513610c04","688142860eb7ec76336958a3","3","0","674eae0026291e33be89b46f","3","0","2025-07-23T20:17:04.846Z","","","","","","","","","","","","","","","","","","","","","","","","","","","","","","","","","","","","","","","","","",""
"133768.90000000002","","","","survey-template","3","180299","0.0-2.0-1.0","234","1","2025-07-23 20:14:38","1f75c3e559b7213887762d5229550c2b","216.120.189.168","Mozilla/5.0 (Windows NT 10.0; Win64; x64) AppleWebKit/537.36 (KHTML, like Gecko) Chrome/138.0.0.0 Safari/537.36","WebKit","Chrome","138.0.0.0","Windows","10.0","https://app.prolific.com/","en-US,en;q=0.9","674eae0026291e33be89b46f","683dba2a8a9dda3513610c04","688142860eb7ec76336958a3","3","0","674eae0026291e33be89b46f","3","0","2025-07-23T20:19:18.660Z","","{""Q01"":""1"",""Q02"":""0"",""Q03"":""0"",""Q04"":""0"",""Q05"":""1"",""Q06"":""0"",""Q07"":""0"",""Q08"":""1"",""Q09"":""0"",""Q10"":""1"",""Q11"":""0"",""Q12"":""0"",""Q13"":""5"",""Q14"":""1"",""Q15"":""0"",""Q16"":""0"",""Q17"":""0"",""Q18"":""0"",""Q19"":""0"",""Q20"":""0"",""Q21"":""0"",""Q22"":""1""}","[0,1,2,3,4,5,6,7,8,9,10,11,12,13,14,15,16,17,18,19,20,21]","[""Q01"",""Q02"",""Q03"",""Q04"",""Q05"",""Q06"",""Q07"",""Q08"",""Q09"",""Q10"",""Q11"",""Q12"",""Q13"",""Q14"",""Q15"",""Q16"",""Q17"",""Q18"",""Q19"",""Q20"",""Q21"",""Q22""]","[5520.300000000047,6961.5,8969.400000000023,11480,13542,17154,18944.300000000047,20982.800000000047,24431.400000000023,30096.099999999977,55556.09999999998,67049.69999999995,70490.19999999995,75682,88861.69999999995,95122.19999999995,96578.40000000002,101614.19999999995,103520.19999999995,122656,127288.69999999995,130519.59999999998]","[]","[0.09999999997671694,5520.300000000047,6961.5,8969.400000000023,11480,13542,16006.699999999953,17154,18944.300000000047,20982.800000000047,24431.400000000023,30096.099999999977,55556.09999999998,67049.69999999995,70490.19999999995,75682,88861.69999999995,95122.19999999995,96578.40000000002,101614.19999999995,103520.19999999995,122656,127288.69999999995,130519.59999999998,133749.59999999998]","0.6818181818181818","0.47619047619047616","0","drsp","","","","","","","","","","","","","","","","","","","","","","","","","","","","","","",""
"23506.400000000023","","","","survey-template","4","203810","0.0-2.0-2.0","234","1","2025-07-23 20:14:38","1f75c3e559b7213887762d5229550c2b","216.120.189.168","Mozilla/5.0 (Windows NT 10.0; Win64; x64) AppleWebKit/537.36 (KHTML, like Gecko) Chrome/138.0.0.0 Safari/537.36","WebKit","Chrome","138.0.0.0","Windows","10.0","https://app.prolific.com/","en-US,en;q=0.9","674eae0026291e33be89b46f","683dba2a8a9dda3513610c04","688142860eb7ec76336958a3","3","0","674eae0026291e33be89b46f","3","0","2025-07-23T20:19:42.171Z","","{""Q01"":""1"",""Q02"":""5"",""Q03"":""1""}","[0,1,2]","[""Q01"",""Q02"",""Q03""]","[3998.29999999993,6934.599999999977,12674.79999999993]","[]","[3998.29999999993,6934.599999999977,12674.79999999993,23505.5]","0.6666666666666666","1","0","stress","","","","","","","","","","","","","","","","","","","","","","","","","","","","","","",""
"18365","","","","instructions","5","222177","0.0-3.0-0.0","234","1","2025-07-23 20:14:38","1f75c3e559b7213887762d5229550c2b","216.120.189.168","Mozilla/5.0 (Windows NT 10.0; Win64; x64) AppleWebKit/537.36 (KHTML, like Gecko) Chrome/138.0.0.0 Safari/537.36","WebKit","Chrome","138.0.0.0","Windows","10.0","https://app.prolific.com/","en-US,en;q=0.9","674eae0026291e33be89b46f","683dba2a8a9dda3513610c04","688142860eb7ec76336958a3","3","0","674eae0026291e33be89b46f","3","0","","","","","","","","","","","","","[{""page_index"":0,""viewing_time"":18365}]","","","","","","","","","","","","","","","","","","","","","","","","","","","","","",""
"3069","","<p>Before you start with this game please answer the following three questions yourself. </p>
  <p>Through this game, we measure several aspects of your cognitive performance, such as reaction times, multi-tasking capabilities </p>
  <p>and the ability to assess the situation you are in.</p>
  <p></p>
  <p><b>How good do you usually are in such tasks?</b></p>","68","html-slider-response","6","225393","0.0-4.0-0.0","234","1","2025-07-23 20:14:38","1f75c3e559b7213887762d5229550c2b","216.120.189.168","Mozilla/5.0 (Windows NT 10.0; Win64; x64) AppleWebKit/537.36 (KHTML, like Gecko) Chrome/138.0.0.0 Safari/537.36","WebKit","Chrome","138.0.0.0","Windows","10.0","https://app.prolific.com/","en-US,en;q=0.9","674eae0026291e33be89b46f","683dba2a8a9dda3513610c04","688142860eb7ec76336958a3","3","0","674eae0026291e33be89b46f","3","0","2025-07-23T20:20:03.754Z","","","","","","","","","","","PreSkillQ","","50","","","","","","","","","","","","","","","","","","","","","","","","","","","","",""
"3175","","<div style=""width:500px;"">
  <p>How well do you think you will perform in this task compared to other participants?</p>
  </div>","67","html-slider-response","7","228570","0.0-4.0-1.0","234","1","2025-07-23 20:14:38","1f75c3e559b7213887762d5229550c2b","216.120.189.168","Mozilla/5.0 (Windows NT 10.0; Win64; x64) AppleWebKit/537.36 (KHTML, like Gecko) Chrome/138.0.0.0 Safari/537.36","WebKit","Chrome","138.0.0.0","Windows","10.0","https://app.prolific.com/","en-US,en;q=0.9","674eae0026291e33be89b46f","683dba2a8a9dda3513610c04","688142860eb7ec76336958a3","3","0","674eae0026291e33be89b46f","3","0","2025-07-23T20:20:06.931Z","","","","","","","","","","","PrePerfQ","","50","","","","","","","","","","","","","","","","","","","","","","","","","","","","",""
"3556","","<div style=""width:500px;"">
  <p>What best describes how you currently feel?</p>
  </div>","69","html-slider-response","8","232127","0.0-4.0-2.0","234","1","2025-07-23 20:14:38","1f75c3e559b7213887762d5229550c2b","216.120.189.168","Mozilla/5.0 (Windows NT 10.0; Win64; x64) AppleWebKit/537.36 (KHTML, like Gecko) Chrome/138.0.0.0 Safari/537.36","WebKit","Chrome","138.0.0.0","Windows","10.0","https://app.prolific.com/","en-US,en;q=0.9","674eae0026291e33be89b46f","683dba2a8a9dda3513610c04","688142860eb7ec76336958a3","3","0","674eae0026291e33be89b46f","3","0","2025-07-23T20:20:10.488Z","","","","","","","","","","","PreMotivationQ","","50","","","","","","","","","","","","","","","","","","","","","","","","","","","","",""
"","","","","ctl-task-cpt","9","273408","0.0-5.0-0.0","234","1","2025-07-23 20:14:38","1f75c3e559b7213887762d5229550c2b","216.120.189.168","Mozilla/5.0 (Windows NT 10.0; Win64; x64) AppleWebKit/537.36 (KHTML, like Gecko) Chrome/138.0.0.0 Safari/537.36","WebKit","Chrome","138.0.0.0","Windows","10.0","https://app.prolific.com/","en-US,en;q=0.9","674eae0026291e33be89b46f","683dba2a8a9dda3513610c04","688142860eb7ec76336958a3","3","0","674eae0026291e33be89b46f","3","0","2025-07-23T20:20:51.770Z","","","","","","","","","","","","","","win-only","0","g1:NW,g2:SE","1","1","0","236821.5","6971.5","11972.4","38137.4","1","4","4","6","1","1","0","0","0","0","3292.1","3000","1500","[""left"",""up""]","{""num_key_presses"":5,""num_perfect"":4,""num_errors"":1,""num_randdir"":0,""num_randdir_good_moves"":0,""num_whilered"":0,""num_whileblue"":0,""num_blue"":3,""num_good_moves"":4}","[291.22232142857143,295.12857142857143,0.2,291.22232142857143,295.12857142857143,107.8,291.22232142857143,295.12857142857143,208.3,291.22232142857143,295.12857142857143,308.7,291.22232142857143,295.12857142857143,409.7,291.22232142857143,295.12857142857143,509.8,291.22232142857143,295.12857142857143,614,291.22232142857143,295.12857142857143,714.3,291.22232142857143,295.12857142857143,824.5,291.22232142857143,295.12857142857143,924.5,291.22232142857143,295.12857142857143,1024.5,291.22232142857143,295.12857142857143,1124.8,291.22232142857143,295.12857142857143,1224.9,291.22232142857143,295.12857142857143,1329.4,291.22232142857143,295.12857142857143,1430.6,291.22232142857143,295.12857142857143,1535.4,291.22232142857143,295.12857142857143,1641.3,291.22232142857143,295.12857142857143,1744.2,291.22232142857143,295.12857142857143,1845.2,291.22232142857143,295.12857142857143,1949.8,291.22232142857143,295.12857142857143,2049.9,291.22232142857143,295.12857142857143,2157.7,291.22232142857143,295.12857142857143,2259.7,291.22232142857143,295.12857142857143,2364.4,291.22232142857143,295.12857142857143,2558.9,250.22232142857143,296.12857142857143,2660.3,96.22232142857143,108.12857142857143,2764.4,39.222321428571426,63.128571428571426,2865.8,19.222321428571426,59.128571428571426,2970.2,17.222321428571426,57.128571428571426,3198.3,17.222321428571426,57.128571428571426,3307.9,17.222321428571426,57.128571428571426,3408.9,17.222321428571426,57.128571428571426,3509.7,17.222321428571426,57.128571428571426,3610.2,17.222321428571426,57.128571428571426,3714.9,17.222321428571426,57.128571428571426,3820.3,17.222321428571426,57.128571428571426,3924.8,17.222321428571426,57.128571428571426,4030,17.222321428571426,57.128571428571426,4134.6,17.222321428571426,57.128571428571426,4239.9,17.222321428571426,57.128571428571426,4340.2,17.222321428571426,57.128571428571426,4444.5,17.222321428571426,57.128571428571426,4549.8,17.222321428571426,57.128571428571426,4650,17.222321428571426,57.128571428571426,4755.2,17.222321428571426,57.128571428571426,4859.6,17.222321428571426,57.128571428571426,4960]","[714.6,714.5,1000,0.1,-285.5,""error"",""-"",""-"",""no_move"",5572.6,4857.8,2533.4,1718,1321.2,""smooth"",""up"",""up"",""good_move"",9358.3,3785.2,3308.1,5573.2,477,""smooth"",""left"",""left"",""good_move"",15747.4,6388.8,2047.5,13199.3,500.6,""smooth"",""up"",""up"",""good_move"",26073.4,10325.7,2542.9,23043.1,487.4,""smooth"",""left"",""left"",""good_move""]","",""
"8230","","<div style=""width:500px;"">
  <p>What determined the result of this run?</p>
  </div>","70","html-slider-response","10","281640","0.0-5.0-1.0","234","1","2025-07-23 20:14:38","1f75c3e559b7213887762d5229550c2b","216.120.189.168","Mozilla/5.0 (Windows NT 10.0; Win64; x64) AppleWebKit/537.36 (KHTML, like Gecko) Chrome/138.0.0.0 Safari/537.36","WebKit","Chrome","138.0.0.0","Windows","10.0","https://app.prolific.com/","en-US,en;q=0.9","674eae0026291e33be89b46f","683dba2a8a9dda3513610c04","688142860eb7ec76336958a3","3","0","674eae0026291e33be89b46f","3","0","2025-07-23T20:21:00.001Z","","","","","","","","","","","AttribQ","","50","","","","","","","","","","","","","","","","","","","","","","","","","","","","",""
"4901","","<div style=""width:500px;"">
  <p>How much control did you have over the ball?</p>
  </div>","66","html-slider-response","11","286542","0.0-5.0-2.0","234","1","2025-07-23 20:14:38","1f75c3e559b7213887762d5229550c2b","216.120.189.168","Mozilla/5.0 (Windows NT 10.0; Win64; x64) AppleWebKit/537.36 (KHTML, like Gecko) Chrome/138.0.0.0 Safari/537.36","WebKit","Chrome","138.0.0.0","Windows","10.0","https://app.prolific.com/","en-US,en;q=0.9","674eae0026291e33be89b46f","683dba2a8a9dda3513610c04","688142860eb7ec76336958a3","3","0","674eae0026291e33be89b46f","3","0","2025-07-23T20:21:04.904Z","","","","","","","","","","","ControlQ","","50","","","","","","","","","","","","","","","","","","","","","","","","","","","","",""
"2727","","<div style=""width:500px;"">
  <p>How would you describe your current emotional state?</p>
  </div>","62","html-slider-response","12","289271","0.0-5.0-3.0","234","1","2025-07-23 20:14:38","1f75c3e559b7213887762d5229550c2b","216.120.189.168","Mozilla/5.0 (Windows NT 10.0; Win64; x64) AppleWebKit/537.36 (KHTML, like Gecko) Chrome/138.0.0.0 Safari/537.36","WebKit","Chrome","138.0.0.0","Windows","10.0","https://app.prolific.com/","en-US,en;q=0.9","674eae0026291e33be89b46f","683dba2a8a9dda3513610c04","688142860eb7ec76336958a3","3","0","674eae0026291e33be89b46f","3","0","2025-07-23T20:21:07.632Z","","","","","","","","","","","StressQ","","50","","","","","","","","","","","","","","","","","","","","","","","","","","","","",""
"2507","","<div style=""width:500px;"">
  <p>What best describes how you currently feel?</p>
  </div>","61","html-slider-response","13","291779","0.0-5.0-4.0","234","1","2025-07-23 20:14:38","1f75c3e559b7213887762d5229550c2b","216.120.189.168","Mozilla/5.0 (Windows NT 10.0; Win64; x64) AppleWebKit/537.36 (KHTML, like Gecko) Chrome/138.0.0.0 Safari/537.36","WebKit","Chrome","138.0.0.0","Windows","10.0","https://app.prolific.com/","en-US,en;q=0.9","674eae0026291e33be89b46f","683dba2a8a9dda3513610c04","688142860eb7ec76336958a3","3","0","674eae0026291e33be89b46f","3","0","2025-07-23T20:21:10.140Z","","","","","","","","","","","MotivationQ","","50","","","","","","","","","","","","","","","","","","","","","","","","","","","","",""
"","","","","ctl-task-cpt","14","326037","0.0-5.0-0.1","234","1","2025-07-23 20:14:38","1f75c3e559b7213887762d5229550c2b","216.120.189.168","Mozilla/5.0 (Windows NT 10.0; Win64; x64) AppleWebKit/537.36 (KHTML, like Gecko) Chrome/138.0.0.0 Safari/537.36","WebKit","Chrome","138.0.0.0","Windows","10.0","https://app.prolific.com/","en-US,en;q=0.9","674eae0026291e33be89b46f","683dba2a8a9dda3513610c04","688142860eb7ec76336958a3","3","0","674eae0026291e33be89b46f","3","0","2025-07-23T20:21:44.399Z","","","","","","","","","","","","","","win-only","2","g1:SE,g2:NW","0.9","2","0","296334.9","1743.4","6746.7","31241.2","1","4","8","6","1","1","1","1","0","0.007575757575757576","2074.9","3000","525","[""down"",""right""]","{""num_key_presses"":6,""num_perfect"":5,""num_errors"":0,""num_randdir"":1,""num_randdir_good_moves"":0,""num_whilered"":0,""num_whileblue"":0,""num_blue"":2,""num_good_moves"":5}","[298.22232142857143,298.12857142857143,0.2,298.22232142857143,298.12857142857143,102.1,298.22232142857143,298.12857142857143,202.3,298.22232142857143,298.12857142857143,302.5,298.22232142857143,298.12857142857143,403.1,298.22232142857143,298.12857142857143,503.6,298.22232142857143,298.12857142857143,608.2,298.22232142857143,298.12857142857143,712.7,298.22232142857143,298.12857142857143,812.9,304.22232142857143,307.12857142857143,913.2,367.22232142857143,404.12857142857143,1018.4,367.22232142857143,405.12857142857143,1123.1,367.22232142857143,405.12857142857143,1227.6,382.22232142857143,413.12857142857143,1328.2,511.22232142857143,509.12857142857143,1433.1,534.2223214285714,530.1285714285714,1533.5,538.2223214285714,534.1285714285714,1638.3,544.2223214285714,541.1285714285714,1738.6,544.2223214285714,541.1285714285714,1843.1,544.2223214285714,541.1285714285714,1947.1,544.2223214285714,541.1285714285714,2047.6,544.2223214285714,541.1285714285714,2148,544.2223214285714,541.1285714285714,2252.5,544.2223214285714,541.1285714285714,2353.3,544.2223214285714,541.1285714285714,2457.2,544.2223214285714,541.1285714285714,2558.8,544.2223214285714,541.1285714285714,2663.2,544.2223214285714,541.1285714285714,2767,544.2223214285714,541.1285714285714,2867,544.2223214285714,541.1285714285714,2967.1,544.2223214285714,541.1285714285714,3067.4,544.2223214285714,541.1285714285714,3168,544.2223214285714,541.1285714285714,3273.2,544.2223214285714,541.1285714285714,3373.2,544.2223214285714,541.1285714285714,3473.9,544.2223214285714,541.1285714285714,3577.5,544.2223214285714,541.1285714285714,3682.4,544.2223214285714,541.1285714285714,3782.5,544.2223214285714,541.1285714285714,3887.2,544.2223214285714,541.1285714285714,3987.3,544.2223214285714,541.1285714285714,4087.6,544.2223214285714,541.1285714285714,4192.8,544.2223214285714,541.1285714285714,4292.9,544.2223214285714,541.1285714285714,4397.5,544.2223214285714,541.1285714285714,4497.6,544.2223214285714,541.1285714285714,4602.4,544.2223214285714,541.1285714285714,4703.1,544.2223214285714,541.1285714285714,4807.1,544.2223214285714,541.1285714285714,4907.8]","[5208.5,5208.5,2770.4,2004.3,433.8,""smooth"",""down"",""down"",""good_move"",8146.6,2937.7,2587,5208.9,350.7,""oops"",""down"",""up"",""bad_move"",12199.8,4051.4,3583.3,8148.4,468.1,""smooth"",""down"",""down"",""good_move"",17946,5745.9,2239.2,15159.2,547.6,""smooth"",""down"",""down"",""good_move"",21139.3,3192.8,2835,17946.5,357.8,""smooth"",""right"",""right"",""good_move"",24402.7,3262.9,2902.8,21139.8,360.1,""smooth"",""right"",""right"",""good_move""]","",""
"5327","","<div style=""width:500px;"">
  <p>What determined the result of this run?</p>
  </div>","59","html-slider-response","15","331367","0.0-5.0-1.1","234","1","2025-07-23 20:14:38","1f75c3e559b7213887762d5229550c2b","216.120.189.168","Mozilla/5.0 (Windows NT 10.0; Win64; x64) AppleWebKit/537.36 (KHTML, like Gecko) Chrome/138.0.0.0 Safari/537.36","WebKit","Chrome","138.0.0.0","Windows","10.0","https://app.prolific.com/","en-US,en;q=0.9","674eae0026291e33be89b46f","683dba2a8a9dda3513610c04","688142860eb7ec76336958a3","3","0","674eae0026291e33be89b46f","3","0","2025-07-23T20:21:49.728Z","","","","","","","","","","","AttribQ","","50","","","","","","","","","","","","","","","","","","","","","","","","","","","","",""
"2556","","<div style=""width:500px;"">
  <p>How much control did you have over the ball?</p>
  </div>","59","html-slider-response","16","333924","0.0-5.0-2.1","234","1","2025-07-23 20:14:38","1f75c3e559b7213887762d5229550c2b","216.120.189.168","Mozilla/5.0 (Windows NT 10.0; Win64; x64) AppleWebKit/537.36 (KHTML, like Gecko) Chrome/138.0.0.0 Safari/537.36","WebKit","Chrome","138.0.0.0","Windows","10.0","https://app.prolific.com/","en-US,en;q=0.9","674eae0026291e33be89b46f","683dba2a8a9dda3513610c04","688142860eb7ec76336958a3","3","0","674eae0026291e33be89b46f","3","0","2025-07-23T20:21:52.285Z","","","","","","","","","","","ControlQ","","50","","","","","","","","","","","","","","","","","","","","","","","","","","","","",""
"3423","","<div style=""width:500px;"">
  <p>How would you describe your current emotional state?</p>
  </div>","59","html-slider-response","17","337348","0.0-5.0-3.1","234","1","2025-07-23 20:14:38","1f75c3e559b7213887762d5229550c2b","216.120.189.168","Mozilla/5.0 (Windows NT 10.0; Win64; x64) AppleWebKit/537.36 (KHTML, like Gecko) Chrome/138.0.0.0 Safari/537.36","WebKit","Chrome","138.0.0.0","Windows","10.0","https://app.prolific.com/","en-US,en;q=0.9","674eae0026291e33be89b46f","683dba2a8a9dda3513610c04","688142860eb7ec76336958a3","3","0","674eae0026291e33be89b46f","3","0","2025-07-23T20:21:55.710Z","","","","","","","","","","","StressQ","","50","","","","","","","","","","","","","","","","","","","","","","","","","","","","",""
"3623","","<div style=""width:500px;"">
  <p>What best describes how you currently feel?</p>
  </div>","59","html-slider-response","18","340972","0.0-5.0-4.1","234","1","2025-07-23 20:14:38","1f75c3e559b7213887762d5229550c2b","216.120.189.168","Mozilla/5.0 (Windows NT 10.0; Win64; x64) AppleWebKit/537.36 (KHTML, like Gecko) Chrome/138.0.0.0 Safari/537.36","WebKit","Chrome","138.0.0.0","Windows","10.0","https://app.prolific.com/","en-US,en;q=0.9","674eae0026291e33be89b46f","683dba2a8a9dda3513610c04","688142860eb7ec76336958a3","3","0","674eae0026291e33be89b46f","3","0","2025-07-23T20:21:59.333Z","","","","","","","","","","","MotivationQ","","50","","","","","","","","","","","","","","","","","","","","","","","","","","","","",""
"","","","","ctl-task-cpt","19","365370","0.0-5.0-0.2","234","1","2025-07-23 20:14:38","1f75c3e559b7213887762d5229550c2b","216.120.189.168","Mozilla/5.0 (Windows NT 10.0; Win64; x64) AppleWebKit/537.36 (KHTML, like Gecko) Chrome/138.0.0.0 Safari/537.36","WebKit","Chrome","138.0.0.0","Windows","10.0","https://app.prolific.com/","en-US,en;q=0.9","674eae0026291e33be89b46f","683dba2a8a9dda3513610c04","688142860eb7ec76336958a3","3","0","674eae0026291e33be89b46f","3","0","2025-07-23T20:22:23.731Z","","","","","","","","","","","","","","win-only","1","g1:NE,g2:SW","0.8","3","0","345549.4","1491.5","6496","21355.4","1","4","4","6","1","1","1","2","1","0.015151515151515152","2711.2","3000","1110","[""up"",""right""]","{""num_key_presses"":4,""num_perfect"":3,""num_errors"":0,""num_randdir"":1,""num_randdir_good_moves"":1,""num_whilered"":0,""num_whileblue"":0,""num_blue"":1,""num_good_moves"":4}","[289.22232142857143,297.12857142857143,0.2,289.22232142857143,297.12857142857143,100.3,289.22232142857143,297.12857142857143,204.6,289.22232142857143,297.12857142857143,309.1,289.22232142857143,297.12857142857143,409.7,289.22232142857143,297.12857142857143,515.5,191.22232142857143,341.12857142857143,622.1,143.22232142857143,369.12857142857143,724.4,143.22232142857143,369.12857142857143,829.1,142.22232142857143,372.12857142857143,930.3,117.22232142857143,426.12857142857143,1034.1,95.22232142857143,475.12857142857143,1134.2,88.22232142857143,490.12857142857143,1236.1,86.22232142857143,493.12857142857143,1339.2,86.22232142857143,493.12857142857143,1439.5,162.22232142857143,392.12857142857143,1544.2,258.22232142857143,274.12857142857143,1649,314.22232142857143,220.12857142857143,1749.1,314.22232142857143,220.12857142857143,1850.9,317.22232142857143,218.12857142857143,1955.7,438.22232142857143,105.12857142857143,2058.8,532.2223214285714,40.128571428571426,2159.4,554.2223214285714,27.128571428571426,2259.7,555.2223214285714,26.128571428571426,2364.2,555.2223214285714,26.128571428571426,2464.7,555.2223214285714,26.128571428571426,2564.8,555.2223214285714,26.128571428571426,2665.8,555.2223214285714,26.128571428571426,2771.3,555.2223214285714,26.128571428571426,2874.8,555.2223214285714,26.128571428571426,2979.4,555.2223214285714,26.128571428571426,3079.7,555.2223214285714,26.128571428571426,3180.3,555.2223214285714,26.128571428571426,3284,555.2223214285714,26.128571428571426,3384.3,555.2223214285714,26.128571428571426,3485.3,555.2223214285714,26.128571428571426,3589.2,555.2223214285714,26.128571428571426,3689.3,555.2223214285714,26.128571428571426,3789.4,555.2223214285714,26.128571428571426,3889.9,555.2223214285714,26.128571428571426,3994.7,555.2223214285714,26.128571428571426,4099.7,555.2223214285714,26.128571428571426,4204.5,555.2223214285714,26.128571428571426,4304.7,555.2223214285714,26.128571428571426,4404.9,555.2223214285714,26.128571428571426,4509.5,555.2223214285714,26.128571428571426,4610.8,555.2223214285714,26.128571428571426,4713.8,555.2223214285714,26.128571428571426,4814,555.2223214285714,26.128571428571426,4919.8]","[5222.9,5222.9,2801,2005.4,416.5,""smooth"",""up"",""up"",""good_move"",8414.3,3191.1,2355.4,5223.2,835.7,""smooth"",""up"",""up"",""good_move"",11903,3488.4,3161.2,8414.6,327.2,""smooth"",""right"",""right"",""good_move"",14772.6,2869.3,2531.7,11903.3,337.6,""oops"",""right"",""right"",""good_move""]","",""
"4645","","<div style=""width:500px;"">
  <p>What determined the result of this run?</p>
  </div>","61","html-slider-response","20","370016","0.0-5.0-1.2","234","1","2025-07-23 20:14:38","1f75c3e559b7213887762d5229550c2b","216.120.189.168","Mozilla/5.0 (Windows NT 10.0; Win64; x64) AppleWebKit/537.36 (KHTML, like Gecko) Chrome/138.0.0.0 Safari/537.36","WebKit","Chrome","138.0.0.0","Windows","10.0","https://app.prolific.com/","en-US,en;q=0.9","674eae0026291e33be89b46f","683dba2a8a9dda3513610c04","688142860eb7ec76336958a3","3","0","674eae0026291e33be89b46f","3","0","2025-07-23T20:22:28.377Z","","","","","","","","","","","AttribQ","","50","","","","","","","","","","","","","","","","","","","","","","","","","","","","",""
"3365","","<div style=""width:500px;"">
  <p>How much control did you have over the ball?</p>
  </div>","61","html-slider-response","21","373384","0.0-5.0-2.2","234","1","2025-07-23 20:14:38","1f75c3e559b7213887762d5229550c2b","216.120.189.168","Mozilla/5.0 (Windows NT 10.0; Win64; x64) AppleWebKit/537.36 (KHTML, like Gecko) Chrome/138.0.0.0 Safari/537.36","WebKit","Chrome","138.0.0.0","Windows","10.0","https://app.prolific.com/","en-US,en;q=0.9","674eae0026291e33be89b46f","683dba2a8a9dda3513610c04","688142860eb7ec76336958a3","3","0","674eae0026291e33be89b46f","3","0","2025-07-23T20:22:31.745Z","","","","","","","","","","","ControlQ","","50","","","","","","","","","","","","","","","","","","","","","","","","","","","","",""
"3044","","<div style=""width:500px;"">
  <p>How would you describe your current emotional state?</p>
  </div>","59","html-slider-response","22","376429","0.0-5.0-3.2","234","1","2025-07-23 20:14:38","1f75c3e559b7213887762d5229550c2b","216.120.189.168","Mozilla/5.0 (Windows NT 10.0; Win64; x64) AppleWebKit/537.36 (KHTML, like Gecko) Chrome/138.0.0.0 Safari/537.36","WebKit","Chrome","138.0.0.0","Windows","10.0","https://app.prolific.com/","en-US,en;q=0.9","674eae0026291e33be89b46f","683dba2a8a9dda3513610c04","688142860eb7ec76336958a3","3","0","674eae0026291e33be89b46f","3","0","2025-07-23T20:22:34.790Z","","","","","","","","","","","StressQ","","50","","","","","","","","","","","","","","","","","","","","","","","","","","","","",""
"2663","","<div style=""width:500px;"">
  <p>What best describes how you currently feel?</p>
  </div>","59","html-slider-response","23","379093","0.0-5.0-4.2","234","1","2025-07-23 20:14:38","1f75c3e559b7213887762d5229550c2b","216.120.189.168","Mozilla/5.0 (Windows NT 10.0; Win64; x64) AppleWebKit/537.36 (KHTML, like Gecko) Chrome/138.0.0.0 Safari/537.36","WebKit","Chrome","138.0.0.0","Windows","10.0","https://app.prolific.com/","en-US,en;q=0.9","674eae0026291e33be89b46f","683dba2a8a9dda3513610c04","688142860eb7ec76336958a3","3","0","674eae0026291e33be89b46f","3","0","2025-07-23T20:22:37.454Z","","","","","","","","","","","MotivationQ","","50","","","","","","","","","","","","","","","","","","","","","","","","","","","","",""
"","","","","ctl-task-cpt","24","408320","0.0-5.0-0.3","234","1","2025-07-23 20:14:38","1f75c3e559b7213887762d5229550c2b","216.120.189.168","Mozilla/5.0 (Windows NT 10.0; Win64; x64) AppleWebKit/537.36 (KHTML, like Gecko) Chrome/138.0.0.0 Safari/537.36","WebKit","Chrome","138.0.0.0","Windows","10.0","https://app.prolific.com/","en-US,en;q=0.9","674eae0026291e33be89b46f","683dba2a8a9dda3513610c04","688142860eb7ec76336958a3","3","0","674eae0026291e33be89b46f","3","0","2025-07-23T20:23:06.681Z","","","","","","","","","","","","","","win-only","2","g1:SE,g2:NW","0.7","4","0","383649.9","1634.9","6635.8","26205.5","1","4","8","6","2","8","8","10","2","0.07575757575757576","1733.3","3000","825","[""left"",""up""]","{""num_key_presses"":6,""num_perfect"":6,""num_errors"":0,""num_randdir"":0,""num_randdir_good_moves"":0,""num_whilered"":0,""num_whileblue"":0,""num_blue"":1,""num_good_moves"":6}","[297.22232142857143,299.12857142857143,0.1,297.22232142857143,299.12857142857143,101.6,297.22232142857143,299.12857142857143,205.4,297.22232142857143,299.12857142857143,307.3,297.22232142857143,299.12857142857143,407.7,297.22232142857143,299.12857142857143,511,287.22232142857143,295.12857142857143,616.3,85.22232142857143,39.128571428571426,716.4,63.222321428571426,13.128571428571426,817.3,63.222321428571426,13.128571428571426,923,63.222321428571426,15.128571428571426,1025.3,63.222321428571426,38.128571428571426,1125.7,64.22232142857143,49.128571428571426,1230.9,64.22232142857143,49.128571428571426,1330.9,64.22232142857143,49.128571428571426,1431.1,64.22232142857143,49.128571428571426,1536.3,64.22232142857143,49.128571428571426,1637,64.22232142857143,49.128571428571426,1740.4,64.22232142857143,49.128571428571426,1842.1,64.22232142857143,49.128571428571426,1946.1,64.22232142857143,49.128571428571426,2046.1,64.22232142857143,49.128571428571426,2146.5,71.22232142857143,68.12857142857143,2251.4,208.22232142857143,380.12857142857143,2351.7,233.22232142857143,458.12857142857143,2456.7,233.22232142857143,458.12857142857143,2556.8,233.22232142857143,458.12857142857143,2661.1,233.22232142857143,458.12857142857143,2766.1,233.22232142857143,458.12857142857143,2873.6,233.22232142857143,458.12857142857143,2975.8,233.22232142857143,458.12857142857143,3075.8,233.22232142857143,458.12857142857143,3176.1,233.22232142857143,458.12857142857143,3277.1,233.22232142857143,458.12857142857143,3380.8,233.22232142857143,458.12857142857143,3486.2,233.22232142857143,458.12857142857143,3586.2,248.22232142857143,464.12857142857143,3687.8,284.22232142857143,490.12857142857143,3788.7,310.22232142857143,518.1285714285714,3891.4,310.22232142857143,518.1285714285714,3996.9,310.22232142857143,518.1285714285714,4101.2,310.22232142857143,518.1285714285714,4202.1,310.22232142857143,518.1285714285714,4306.3,310.22232142857143,518.1285714285714,4407.4,310.22232142857143,518.1285714285714,4511.9,310.22232142857143,518.1285714285714,4616.2,310.22232142857143,518.1285714285714,4716.2,310.22232142857143,518.1285714285714,4822.9,310.22232142857143,518.1285714285714,4923.1]","[1440.7,1440.7,1000,0,440.7,""smooth"",""left"",""left"",""good_move"",4208.9,2767.6,2392.2,1441.3,375.4,""smooth"",""left"",""left"",""good_move"",7021.3,2812.4,2436.2,4209.1,376.1,""smooth"",""up"",""up"",""good_move"",13579.2,6557.4,2531.7,10690.2,357.3,""smooth"",""up"",""up"",""good_move"",16921.1,3341.6,3026.4,13579.5,315.2,""smooth"",""left"",""left"",""good_move"",19485.1,2563.8,2189.7,16921.4,374.1,""smooth"",""up"",""up"",""good_move""]","",""
"3163","","<div style=""width:500px;"">
  <p>What determined the result of this run?</p>
  </div>","62","html-slider-response","25","411483","0.0-5.0-1.3","234","1","2025-07-23 20:14:38","1f75c3e559b7213887762d5229550c2b","216.120.189.168","Mozilla/5.0 (Windows NT 10.0; Win64; x64) AppleWebKit/537.36 (KHTML, like Gecko) Chrome/138.0.0.0 Safari/537.36","WebKit","Chrome","138.0.0.0","Windows","10.0","https://app.prolific.com/","en-US,en;q=0.9","674eae0026291e33be89b46f","683dba2a8a9dda3513610c04","688142860eb7ec76336958a3","3","0","674eae0026291e33be89b46f","3","0","2025-07-23T20:23:09.844Z","","","","","","","","","","","AttribQ","","50","","","","","","","","","","","","","","","","","","","","","","","","","","","","",""
"2880","","<div style=""width:500px;"">
  <p>How much control did you have over the ball?</p>
  </div>","39","html-slider-response","26","414364","0.0-5.0-2.3","234","1","2025-07-23 20:14:38","1f75c3e559b7213887762d5229550c2b","216.120.189.168","Mozilla/5.0 (Windows NT 10.0; Win64; x64) AppleWebKit/537.36 (KHTML, like Gecko) Chrome/138.0.0.0 Safari/537.36","WebKit","Chrome","138.0.0.0","Windows","10.0","https://app.prolific.com/","en-US,en;q=0.9","674eae0026291e33be89b46f","683dba2a8a9dda3513610c04","688142860eb7ec76336958a3","3","0","674eae0026291e33be89b46f","3","0","2025-07-23T20:23:12.725Z","","","","","","","","","","","ControlQ","","50","","","","","","","","","","","","","","","","","","","","","","","","","","","","",""
"2642","","<div style=""width:500px;"">
  <p>How would you describe your current emotional state?</p>
  </div>","61","html-slider-response","27","417007","0.0-5.0-3.3","234","1","2025-07-23 20:14:38","1f75c3e559b7213887762d5229550c2b","216.120.189.168","Mozilla/5.0 (Windows NT 10.0; Win64; x64) AppleWebKit/537.36 (KHTML, like Gecko) Chrome/138.0.0.0 Safari/537.36","WebKit","Chrome","138.0.0.0","Windows","10.0","https://app.prolific.com/","en-US,en;q=0.9","674eae0026291e33be89b46f","683dba2a8a9dda3513610c04","688142860eb7ec76336958a3","3","0","674eae0026291e33be89b46f","3","0","2025-07-23T20:23:15.368Z","","","","","","","","","","","StressQ","","50","","","","","","","","","","","","","","","","","","","","","","","","","","","","",""
"2553","","<div style=""width:500px;"">
  <p>What best describes how you currently feel?</p>
  </div>","41","html-slider-response","28","419563","0.0-5.0-4.3","234","1","2025-07-23 20:14:38","1f75c3e559b7213887762d5229550c2b","216.120.189.168","Mozilla/5.0 (Windows NT 10.0; Win64; x64) AppleWebKit/537.36 (KHTML, like Gecko) Chrome/138.0.0.0 Safari/537.36","WebKit","Chrome","138.0.0.0","Windows","10.0","https://app.prolific.com/","en-US,en;q=0.9","674eae0026291e33be89b46f","683dba2a8a9dda3513610c04","688142860eb7ec76336958a3","3","0","674eae0026291e33be89b46f","3","0","2025-07-23T20:23:17.924Z","","","","","","","","","","","MotivationQ","","50","","","","","","","","","","","","","","","","","","","","","","","","","","","","",""
"","","","","ctl-task-cpt","29","439314","0.0-5.0-0.4","234","1","2025-07-23 20:14:38","1f75c3e559b7213887762d5229550c2b","216.120.189.168","Mozilla/5.0 (Windows NT 10.0; Win64; x64) AppleWebKit/537.36 (KHTML, like Gecko) Chrome/138.0.0.0 Safari/537.36","WebKit","Chrome","138.0.0.0","Windows","10.0","https://app.prolific.com/","en-US,en;q=0.9","674eae0026291e33be89b46f","683dba2a8a9dda3513610c04","688142860eb7ec76336958a3","3","0","674eae0026291e33be89b46f","3","0","2025-07-23T20:23:37.675Z","","","","","","","","","","","","","","win-only","1","g1:NE,g2:SW","0.6","5","0","424121.9","1602.6","6604.8","16735.5","1","4","8","6","1","1","1","11","10","0.08333333333333333","2257.5","3000","1230","[""up"",""right""]","{""num_key_presses"":4,""num_perfect"":4,""num_errors"":0,""num_randdir"":0,""num_randdir_good_moves"":0,""num_whilered"":0,""num_whileblue"":0,""num_blue"":0,""num_good_moves"":4}","[296.22232142857143,301.12857142857143,0.4,296.22232142857143,301.12857142857143,104.6,296.22232142857143,301.12857142857143,207.7,296.22232142857143,301.12857142857143,307.9,296.22232142857143,301.12857142857143,417.6,296.22232142857143,301.12857142857143,518.5,296.22232142857143,301.12857142857143,623.1,292.22232142857143,307.12857142857143,728.6,282.22232142857143,314.12857142857143,828.7,279.22232142857143,316.12857142857143,933.5,256.22232142857143,336.12857142857143,1034.5,250.22232142857143,340.12857142857143,1138.2,250.22232142857143,340.12857142857143,1238.5,250.22232142857143,338.12857142857143,1343,352.22232142857143,210.12857142857143,1443.4,484.22232142857143,70.12857142857143,1544.7,484.22232142857143,70.12857142857143,1650.8,485.22232142857143,70.12857142857143,1754.1,509.22232142857143,61.128571428571426,1854.1,518.2223214285714,61.128571428571426,1957.5,518.2223214285714,61.128571428571426,2057.9,518.2223214285714,61.128571428571426,2158.2,518.2223214285714,61.128571428571426,2263.2,518.2223214285714,61.128571428571426,2364.3,518.2223214285714,61.128571428571426,2465.5,518.2223214285714,61.128571428571426,2567.9,518.2223214285714,61.128571428571426,2669,518.2223214285714,61.128571428571426,2774.5,518.2223214285714,61.128571428571426,2877.9,518.2223214285714,61.128571428571426,2980,518.2223214285714,61.128571428571426,3084.3,518.2223214285714,61.128571428571426,3189.5,518.2223214285714,61.128571428571426,3292.5,518.2223214285714,61.128571428571426,3393.4,518.2223214285714,61.128571428571426,3493.4,518.2223214285714,61.128571428571426,3595,518.2223214285714,61.128571428571426,3702.1,518.2223214285714,61.128571428571426,3803.4,518.2223214285714,61.128571428571426,3907.8,518.2223214285714,61.128571428571426,4012.8,518.2223214285714,61.128571428571426,4115.5,518.2223214285714,61.128571428571426,4217.4,518.2223214285714,61.128571428571426,4318.4,518.2223214285714,61.128571428571426,4422.5,518.2223214285714,61.128571428571426,4523.2,518.2223214285714,61.128571428571426,4623.4,518.2223214285714,61.128571428571426,4724.2,518.2223214285714,61.128571428571426,4831.1,518.2223214285714,61.128571428571426,4933.1]","[1613.7,1613.7,1000,0,613.7,""smooth"",""up"",""up"",""good_move"",4471.9,2857.7,2510.4,1614.2,347.3,""smooth"",""right"",""right"",""good_move"",7166.1,2693.9,2181.9,4472.2,512,""smooth"",""up"",""up"",""good_move"",10030.2,2863.6,2516.7,7166.6,346.9,""smooth"",""right"",""right"",""good_move""]","",""
"3914","","<div style=""width:500px;"">
  <p>What determined the result of this run?</p>
  </div>","58","html-slider-response","30","443229","0.0-5.0-1.4","234","1","2025-07-23 20:14:38","1f75c3e559b7213887762d5229550c2b","216.120.189.168","Mozilla/5.0 (Windows NT 10.0; Win64; x64) AppleWebKit/537.36 (KHTML, like Gecko) Chrome/138.0.0.0 Safari/537.36","WebKit","Chrome","138.0.0.0","Windows","10.0","https://app.prolific.com/","en-US,en;q=0.9","674eae0026291e33be89b46f","683dba2a8a9dda3513610c04","688142860eb7ec76336958a3","3","0","674eae0026291e33be89b46f","3","0","2025-07-23T20:23:41.590Z","","","","","","","","","","","AttribQ","","50","","","","","","","","","","","","","","","","","","","","","","","","","","","","",""
"3010","","<div style=""width:500px;"">
  <p>How much control did you have over the ball?</p>
  </div>","64","html-slider-response","31","446241","0.0-5.0-2.4","234","1","2025-07-23 20:14:38","1f75c3e559b7213887762d5229550c2b","216.120.189.168","Mozilla/5.0 (Windows NT 10.0; Win64; x64) AppleWebKit/537.36 (KHTML, like Gecko) Chrome/138.0.0.0 Safari/537.36","WebKit","Chrome","138.0.0.0","Windows","10.0","https://app.prolific.com/","en-US,en;q=0.9","674eae0026291e33be89b46f","683dba2a8a9dda3513610c04","688142860eb7ec76336958a3","3","0","674eae0026291e33be89b46f","3","0","2025-07-23T20:23:44.603Z","","","","","","","","","","","ControlQ","","50","","","","","","","","","","","","","","","","","","","","","","","","","","","","",""
"2705","","<div style=""width:500px;"">
  <p>How would you describe your current emotional state?</p>
  </div>","43","html-slider-response","32","448948","0.0-5.0-3.4","234","1","2025-07-23 20:14:38","1f75c3e559b7213887762d5229550c2b","216.120.189.168","Mozilla/5.0 (Windows NT 10.0; Win64; x64) AppleWebKit/537.36 (KHTML, like Gecko) Chrome/138.0.0.0 Safari/537.36","WebKit","Chrome","138.0.0.0","Windows","10.0","https://app.prolific.com/","en-US,en;q=0.9","674eae0026291e33be89b46f","683dba2a8a9dda3513610c04","688142860eb7ec76336958a3","3","0","674eae0026291e33be89b46f","3","0","2025-07-23T20:23:47.309Z","","","","","","","","","","","StressQ","","50","","","","","","","","","","","","","","","","","","","","","","","","","","","","",""
"2784","","<div style=""width:500px;"">
  <p>What best describes how you currently feel?</p>
  </div>","58","html-slider-response","33","451734","0.0-5.0-4.4","234","1","2025-07-23 20:14:38","1f75c3e559b7213887762d5229550c2b","216.120.189.168","Mozilla/5.0 (Windows NT 10.0; Win64; x64) AppleWebKit/537.36 (KHTML, like Gecko) Chrome/138.0.0.0 Safari/537.36","WebKit","Chrome","138.0.0.0","Windows","10.0","https://app.prolific.com/","en-US,en;q=0.9","674eae0026291e33be89b46f","683dba2a8a9dda3513610c04","688142860eb7ec76336958a3","3","0","674eae0026291e33be89b46f","3","0","2025-07-23T20:23:50.095Z","","","","","","","","","","","MotivationQ","","50","","","","","","","","","","","","","","","","","","","","","","","","","","","","",""
"","","","","ctl-task-cpt","34","500302","0.0-5.0-0.5","234","1","2025-07-23 20:14:38","1f75c3e559b7213887762d5229550c2b","216.120.189.168","Mozilla/5.0 (Windows NT 10.0; Win64; x64) AppleWebKit/537.36 (KHTML, like Gecko) Chrome/138.0.0.0 Safari/537.36","WebKit","Chrome","138.0.0.0","Windows","10.0","https://app.prolific.com/","en-US,en;q=0.9","674eae0026291e33be89b46f","683dba2a8a9dda3513610c04","688142860eb7ec76336958a3","3","0","674eae0026291e33be89b46f","3","0","2025-07-23T20:24:38.663Z","","","","","","","","","","","","","","win-only","2","g1:SE,g2:NW","0.5","6","0","456293","2477.1","7480.6","45546","1","4","4","6","1","1","0","11","11","0.08333333333333333","3500.7","3000","85","[""down"",""right""]","{""num_key_presses"":9,""num_perfect"":4,""num_errors"":1,""num_randdir"":4,""num_randdir_good_moves"":2,""num_whilered"":0,""num_whileblue"":0,""num_blue"":4,""num_good_moves"":6}","[298.22232142857143,294.12857142857143,0.7,298.22232142857143,294.12857142857143,103.7,298.22232142857143,294.12857142857143,209.5,298.22232142857143,294.12857142857143,314.7,298.22232142857143,294.12857142857143,416.8,298.22232142857143,294.12857142857143,519.5,298.22232142857143,294.12857142857143,624,298.22232142857143,294.12857142857143,729.9,298.22232142857143,294.12857142857143,837.2,298.22232142857143,294.12857142857143,939,298.22232142857143,294.12857142857143,1039.2,298.22232142857143,294.12857142857143,1144.6,298.22232142857143,294.12857142857143,1244.6,202.22232142857143,206.12857142857143,1349.6,137.22232142857143,137.12857142857143,1455.6,116.22232142857143,117.12857142857143,1558.9,106.22232142857143,108.12857142857143,1659.1,94.22232142857143,93.12857142857143,1763.4,89.22232142857143,85.12857142857143,1866.8,86.22232142857143,83.12857142857143,1968.2,86.22232142857143,83.12857142857143,2069.7,86.22232142857143,83.12857142857143,2173.7,86.22232142857143,83.12857142857143,2278.7,86.22232142857143,83.12857142857143,2379.6,110.22232142857143,99.12857142857143,2485.7,457.22232142857143,455.12857142857143,2589.9,534.2223214285714,555.1285714285714,2694.7,534.2223214285714,555.1285714285714,2798.2,534.2223214285714,555.1285714285714,2898.8,534.2223214285714,555.1285714285714,2999.1,534.2223214285714,553.1285714285714,3101.2,534.2223214285714,551.1285714285714,3204.8,534.2223214285714,551.1285714285714,3308.5,534.2223214285714,551.1285714285714,3408.6,534.2223214285714,551.1285714285714,3510,534.2223214285714,551.1285714285714,3613.6,534.2223214285714,551.1285714285714,3716.4,534.2223214285714,551.1285714285714,3817.9,534.2223214285714,551.1285714285714,3918.5,534.2223214285714,551.1285714285714,4019.5,534.2223214285714,551.1285714285714,4120.5,534.2223214285714,551.1285714285714,4223.9,534.2223214285714,551.1285714285714,4324.5,534.2223214285714,551.1285714285714,4424.7,534.2223214285714,551.1285714285714,4528.9,534.2223214285714,551.1285714285714,4629.5,534.2223214285714,551.1285714285714,4732.7,534.2223214285714,551.1285714285714,4837,534.2223214285714,551.1285714285714,4938]","[1409.8,1409.8,1000,0,409.8,""smooth"",""down"",""down"",""good_move"",8002.8,6592.5,2962,4676,364.8,""oops"",""right"",""up"",""bad_move"",11415.4,3412.4,3063.2,8003,349.2,""smooth"",""down"",""down"",""good_move"",17708.1,6292.4,2473.1,14951,284,""oops"",""down"",""up"",""bad_move"",17850.3,142,2816.1,17708.3,-2674.1,""error"",""-"",""-"",""no_move"",25213.3,7362.9,2180.9,22596.1,436.3,""oops"",""down"",""down"",""good_move"",28354,3140.3,2579.4,25213.7,560.9,""smooth"",""down"",""down"",""good_move"",35491.8,7137.6,2867.7,32265.2,358.9,""oops"",""right"",""right"",""good_move"",37975.1,2483.2,2118.2,35492.1,364.9,""smooth"",""right"",""right"",""good_move""]","",""
"4048","","<div style=""width:500px;"">
  <p>What determined the result of this run?</p>
  </div>","61","html-slider-response","35","504350","0.0-5.0-1.5","234","1","2025-07-23 20:14:38","1f75c3e559b7213887762d5229550c2b","216.120.189.168","Mozilla/5.0 (Windows NT 10.0; Win64; x64) AppleWebKit/537.36 (KHTML, like Gecko) Chrome/138.0.0.0 Safari/537.36","WebKit","Chrome","138.0.0.0","Windows","10.0","https://app.prolific.com/","en-US,en;q=0.9","674eae0026291e33be89b46f","683dba2a8a9dda3513610c04","688142860eb7ec76336958a3","3","0","674eae0026291e33be89b46f","3","0","2025-07-23T20:24:42.711Z","","","","","","","","","","","AttribQ","","50","","","","","","","","","","","","","","","","","","","","","","","","","","","","",""
"2633","","<div style=""width:500px;"">
  <p>How much control did you have over the ball?</p>
  </div>","43","html-slider-response","36","506985","0.0-5.0-2.5","234","1","2025-07-23 20:14:38","1f75c3e559b7213887762d5229550c2b","216.120.189.168","Mozilla/5.0 (Windows NT 10.0; Win64; x64) AppleWebKit/537.36 (KHTML, like Gecko) Chrome/138.0.0.0 Safari/537.36","WebKit","Chrome","138.0.0.0","Windows","10.0","https://app.prolific.com/","en-US,en;q=0.9","674eae0026291e33be89b46f","683dba2a8a9dda3513610c04","688142860eb7ec76336958a3","3","0","674eae0026291e33be89b46f","3","0","2025-07-23T20:24:45.346Z","","","","","","","","","","","ControlQ","","50","","","","","","","","","","","","","","","","","","","","","","","","","","","","",""
"2920","","<div style=""width:500px;"">
  <p>How would you describe your current emotional state?</p>
  </div>","59","html-slider-response","37","509906","0.0-5.0-3.5","234","1","2025-07-23 20:14:38","1f75c3e559b7213887762d5229550c2b","216.120.189.168","Mozilla/5.0 (Windows NT 10.0; Win64; x64) AppleWebKit/537.36 (KHTML, like Gecko) Chrome/138.0.0.0 Safari/537.36","WebKit","Chrome","138.0.0.0","Windows","10.0","https://app.prolific.com/","en-US,en;q=0.9","674eae0026291e33be89b46f","683dba2a8a9dda3513610c04","688142860eb7ec76336958a3","3","0","674eae0026291e33be89b46f","3","0","2025-07-23T20:24:48.267Z","","","","","","","","","","","StressQ","","50","","","","","","","","","","","","","","","","","","","","","","","","","","","","",""
"2739","","<div style=""width:500px;"">
  <p>What best describes how you currently feel?</p>
  </div>","62","html-slider-response","38","512649","0.0-5.0-4.5","234","1","2025-07-23 20:14:38","1f75c3e559b7213887762d5229550c2b","216.120.189.168","Mozilla/5.0 (Windows NT 10.0; Win64; x64) AppleWebKit/537.36 (KHTML, like Gecko) Chrome/138.0.0.0 Safari/537.36","WebKit","Chrome","138.0.0.0","Windows","10.0","https://app.prolific.com/","en-US,en;q=0.9","674eae0026291e33be89b46f","683dba2a8a9dda3513610c04","688142860eb7ec76336958a3","3","0","674eae0026291e33be89b46f","3","0","2025-07-23T20:24:51.010Z","","","","","","","","","","","MotivationQ","","50","","","","","","","","","","","","","","","","","","","","","","","","","","","","",""
"","","","","ctl-task-cpt","39","559177","0.0-5.0-0.6","234","1","2025-07-23 20:14:38","1f75c3e559b7213887762d5229550c2b","216.120.189.168","Mozilla/5.0 (Windows NT 10.0; Win64; x64) AppleWebKit/537.36 (KHTML, like Gecko) Chrome/138.0.0.0 Safari/537.36","WebKit","Chrome","138.0.0.0","Windows","10.0","https://app.prolific.com/","en-US,en;q=0.9","674eae0026291e33be89b46f","683dba2a8a9dda3513610c04","688142860eb7ec76336958a3","3","0","674eae0026291e33be89b46f","3","0","2025-07-23T20:25:37.538Z","","","","","","","","","","","","","","win-only","0","g1:NW,g2:SE","0.4","7","0","517207.8","1715.9","6716.6","43506","1","4","8","6","2","-8","-8","3","11","0.022727272727272728","1696.9","3000","-2665","[""down"",""right""]","{""num_key_presses"":8,""num_perfect"":2,""num_errors"":0,""num_randdir"":6,""num_randdir_good_moves"":2,""num_whilered"":0,""num_whileblue"":0,""num_blue"":3,""num_good_moves"":4}","[300.22232142857143,304.12857142857143,0.2,300.22232142857143,304.12857142857143,100.3,300.22232142857143,304.12857142857143,212.3,300.22232142857143,304.12857142857143,315.1,300.22232142857143,304.12857142857143,420.1,300.22232142857143,304.12857142857143,529.3,300.22232142857143,304.12857142857143,629.9,392.22232142857143,428.12857142857143,734.4,520.2223214285714,607.1285714285714,834.7,520.2223214285714,609.1285714285714,935.2,520.2223214285714,609.1285714285714,1035.4,529.2223214285714,600.1285714285714,1141.9,544.2223214285714,573.1285714285714,1249,545.2223214285714,549.1285714285714,1350.2,546.2223214285714,542.1285714285714,1454.5,546.2223214285714,542.1285714285714,1560.6,546.2223214285714,542.1285714285714,1663.7,546.2223214285714,542.1285714285714,1765.7,546.2223214285714,542.1285714285714,1871,546.2223214285714,542.1285714285714,1979.2,546.2223214285714,542.1285714285714,2080.1,546.2223214285714,542.1285714285714,2185.2,546.2223214285714,542.1285714285714,2285.9,546.2223214285714,542.1285714285714,2390,546.2223214285714,542.1285714285714,2494.6,546.2223214285714,542.1285714285714,2595.6,546.2223214285714,542.1285714285714,2699.5,546.2223214285714,542.1285714285714,2800.6,546.2223214285714,542.1285714285714,2901.3,546.2223214285714,542.1285714285714,3005.2,546.2223214285714,542.1285714285714,3110.6,546.2223214285714,542.1285714285714,3214.6,546.2223214285714,542.1285714285714,3320.2,546.2223214285714,542.1285714285714,3420.8,546.2223214285714,542.1285714285714,3526.4,546.2223214285714,542.1285714285714,3631,546.2223214285714,542.1285714285714,3735.8,546.2223214285714,542.1285714285714,3841.1,546.2223214285714,542.1285714285714,3944.5,546.2223214285714,542.1285714285714,4045.2,546.2223214285714,542.1285714285714,4151.4,546.2223214285714,542.1285714285714,4251.7,546.2223214285714,542.1285714285714,4356.8,546.2223214285714,542.1285714285714,4457.3,546.2223214285714,542.1285714285714,4559.7,546.2223214285714,542.1285714285714,4664.6,546.2223214285714,542.1285714285714,4765.6,546.2223214285714,542.1285714285714,4870.1,546.2223214285714,542.1285714285714,4975.2]","[1334.2,1334.3,1000,0,334.3,""oops"",""down"",""up"",""bad_move"",4455,3120.1,2763.6,1334.9,356.5,""oops"",""down"",""down"",""good_move"",10482.1,6026.4,2377.8,7690.8,413.5,""smooth"",""down"",""down"",""good_move"",13782,3299.8,2902.5,10482.3,397.3,""oops"",""down"",""left"",""bad_move"",20082.2,6299.7,2058.2,17649.2,374.8,""smooth"",""down"",""down"",""good_move"",23242.5,3160,2784.4,20082.5,375.6,""oops"",""down"",""left"",""bad_move"",26760.8,3517.2,3167.5,23243.6,349.7,""oops"",""down"",""down"",""good_move"",29641.2,2880.3,2552.4,26760.9,327.9,""oops"",""right"",""up"",""bad_move""]","",""
"5089","","<div style=""width:500px;"">
  <p>What determined the result of this run?</p>
  </div>","65","html-slider-response","40","564267","0.0-5.0-1.6","234","1","2025-07-23 20:14:38","1f75c3e559b7213887762d5229550c2b","216.120.189.168","Mozilla/5.0 (Windows NT 10.0; Win64; x64) AppleWebKit/537.36 (KHTML, like Gecko) Chrome/138.0.0.0 Safari/537.36","WebKit","Chrome","138.0.0.0","Windows","10.0","https://app.prolific.com/","en-US,en;q=0.9","674eae0026291e33be89b46f","683dba2a8a9dda3513610c04","688142860eb7ec76336958a3","3","0","674eae0026291e33be89b46f","3","0","2025-07-23T20:25:42.628Z","","","","","","","","","","","AttribQ","","50","","","","","","","","","","","","","","","","","","","","","","","","","","","","",""
"3820","","<div style=""width:500px;"">
  <p>How much control did you have over the ball?</p>
  </div>","65","html-slider-response","41","568087","0.0-5.0-2.6","234","1","2025-07-23 20:14:38","1f75c3e559b7213887762d5229550c2b","216.120.189.168","Mozilla/5.0 (Windows NT 10.0; Win64; x64) AppleWebKit/537.36 (KHTML, like Gecko) Chrome/138.0.0.0 Safari/537.36","WebKit","Chrome","138.0.0.0","Windows","10.0","https://app.prolific.com/","en-US,en;q=0.9","674eae0026291e33be89b46f","683dba2a8a9dda3513610c04","688142860eb7ec76336958a3","3","0","674eae0026291e33be89b46f","3","0","2025-07-23T20:25:46.449Z","","","","","","","","","","","ControlQ","","50","","","","","","","","","","","","","","","","","","","","","","","","","","","","",""
"4856","","<div style=""width:500px;"">
  <p>How would you describe your current emotional state?</p>
  </div>","58","html-slider-response","42","572945","0.0-5.0-3.6","234","1","2025-07-23 20:14:38","1f75c3e559b7213887762d5229550c2b","216.120.189.168","Mozilla/5.0 (Windows NT 10.0; Win64; x64) AppleWebKit/537.36 (KHTML, like Gecko) Chrome/138.0.0.0 Safari/537.36","WebKit","Chrome","138.0.0.0","Windows","10.0","https://app.prolific.com/","en-US,en;q=0.9","674eae0026291e33be89b46f","683dba2a8a9dda3513610c04","688142860eb7ec76336958a3","3","0","674eae0026291e33be89b46f","3","0","2025-07-23T20:25:51.306Z","","","","","","","","","","","StressQ","","50","","","","","","","","","","","","","","","","","","","","","","","","","","","","",""
"3241","","<div style=""width:500px;"">
  <p>What best describes how you currently feel?</p>
  </div>","43","html-slider-response","43","576188","0.0-5.0-4.6","234","1","2025-07-23 20:14:38","1f75c3e559b7213887762d5229550c2b","216.120.189.168","Mozilla/5.0 (Windows NT 10.0; Win64; x64) AppleWebKit/537.36 (KHTML, like Gecko) Chrome/138.0.0.0 Safari/537.36","WebKit","Chrome","138.0.0.0","Windows","10.0","https://app.prolific.com/","en-US,en;q=0.9","674eae0026291e33be89b46f","683dba2a8a9dda3513610c04","688142860eb7ec76336958a3","3","0","674eae0026291e33be89b46f","3","0","2025-07-23T20:25:54.549Z","","","","","","","","","","","MotivationQ","","50","","","","","","","","","","","","","","","","","","","","","","","","","","","","",""
"","","","","ctl-task-cpt","44","619417","0.0-5.0-0.7","234","1","2025-07-23 20:14:38","1f75c3e559b7213887762d5229550c2b","216.120.189.168","Mozilla/5.0 (Windows NT 10.0; Win64; x64) AppleWebKit/537.36 (KHTML, like Gecko) Chrome/138.0.0.0 Safari/537.36","WebKit","Chrome","138.0.0.0","Windows","10.0","https://app.prolific.com/","en-US,en;q=0.9","674eae0026291e33be89b46f","683dba2a8a9dda3513610c04","688142860eb7ec76336958a3","3","0","674eae0026291e33be89b46f","3","0","2025-07-23T20:26:37.779Z","","","","","","","","","","","","","","win-only","0","g1:NW,g2:SE","0.3","8","0","580745.4","2477.5","7483.4","40205.4","1","4","4","6","2","-4","-4","0","3","0","1720.6","3000","-2660","[""down"",""right""]","{""num_key_presses"":8,""num_perfect"":3,""num_errors"":0,""num_randdir"":5,""num_randdir_good_moves"":2,""num_whilered"":0,""num_whileblue"":0,""num_blue"":2,""num_good_moves"":5}","[302.22232142857143,292.12857142857143,0.2,302.22232142857143,292.12857142857143,105.5,302.22232142857143,292.12857142857143,212.4,302.22232142857143,292.12857142857143,313.8,302.22232142857143,292.12857142857143,424.9,302.22232142857143,292.12857142857143,525.4,302.22232142857143,300.12857142857143,626.2,360.22232142857143,366.12857142857143,726.4,494.22232142857143,502.12857142857143,828.4,501.22232142857143,515.1285714285714,932.7,501.22232142857143,515.1285714285714,1034,504.22232142857143,518.1285714285714,1140,527.2223214285714,534.1285714285714,1241.7,530.2223214285714,534.1285714285714,1342.7,531.2223214285714,534.1285714285714,1443.5,531.2223214285714,534.1285714285714,1543.7,531.2223214285714,534.1285714285714,1644,531.2223214285714,534.1285714285714,1744.2,531.2223214285714,534.1285714285714,1850,531.2223214285714,534.1285714285714,1959.5,531.2223214285714,534.1285714285714,2059.7,531.2223214285714,534.1285714285714,2163.5,531.2223214285714,534.1285714285714,2275.5,531.2223214285714,534.1285714285714,2378.6,531.2223214285714,534.1285714285714,2482.9,531.2223214285714,534.1285714285714,2591.3,531.2223214285714,534.1285714285714,2692.9,531.2223214285714,534.1285714285714,2798.8,531.2223214285714,534.1285714285714,2908.6,531.2223214285714,534.1285714285714,3013.1,531.2223214285714,534.1285714285714,3127.6,531.2223214285714,534.1285714285714,3230.5,531.2223214285714,534.1285714285714,3333.5,531.2223214285714,534.1285714285714,3442.3,531.2223214285714,534.1285714285714,3545.7,531.2223214285714,534.1285714285714,3649.9,531.2223214285714,534.1285714285714,3754.2,531.2223214285714,534.1285714285714,3858.8,531.2223214285714,534.1285714285714,3958.8,531.2223214285714,534.1285714285714,4063.2,531.2223214285714,534.1285714285714,4164.7,531.2223214285714,534.1285714285714,4274.7,531.2223214285714,534.1285714285714,4377,531.2223214285714,534.1285714285714,4478.1,531.2223214285714,534.1285714285714,4578.3,531.2223214285714,534.1285714285714,4684.5,531.2223214285714,534.1285714285714,4792.5,531.2223214285714,534.1285714285714,4895.4,531.2223214285714,534.1285714285714,4998.4]","[1419.8,1419.8,1000,0,419.8,""smooth"",""down"",""down"",""good_move"",3969.2,2549,2140.1,1420.2,408.9,""oops"",""down"",""left"",""bad_move"",7183.3,3213.8,2835.7,3969.5,378.1,""oops"",""down"",""up"",""bad_move"",9968.9,2784.4,2445.4,7184.6,338.9,""oops"",""down"",""right"",""good_move"",13183.1,3213.8,2812.9,9969.3,400.9,""smooth"",""down"",""down"",""good_move"",20052.3,6868.9,3131.6,16554,366.7,""oops"",""down"",""left"",""bad_move"",23682.2,3629.6,3181.3,20052.6,448.3,""oops"",""down"",""down"",""good_move"",29900,6217.2,2484.4,27050.8,364.8,""smooth"",""down"",""down"",""good_move""]","",""
"10835","","<div style=""width:500px;"">
  <p>What determined the result of this run?</p>
  </div>","63","html-slider-response","45","630255","0.0-5.0-1.7","234","1","2025-07-23 20:14:38","1f75c3e559b7213887762d5229550c2b","216.120.189.168","Mozilla/5.0 (Windows NT 10.0; Win64; x64) AppleWebKit/537.36 (KHTML, like Gecko) Chrome/138.0.0.0 Safari/537.36","WebKit","Chrome","138.0.0.0","Windows","10.0","https://app.prolific.com/","en-US,en;q=0.9","674eae0026291e33be89b46f","683dba2a8a9dda3513610c04","688142860eb7ec76336958a3","3","0","674eae0026291e33be89b46f","3","0","2025-07-23T20:26:48.616Z","","","","","","","","","","","AttribQ","","50","","","","","","","","","","","","","","","","","","","","","","","","","","","","",""
"8868","","<div style=""width:500px;"">
  <p>How much control did you have over the ball?</p>
  </div>","62","html-slider-response","46","639124","0.0-5.0-2.7","234","1","2025-07-23 20:14:38","1f75c3e559b7213887762d5229550c2b","216.120.189.168","Mozilla/5.0 (Windows NT 10.0; Win64; x64) AppleWebKit/537.36 (KHTML, like Gecko) Chrome/138.0.0.0 Safari/537.36","WebKit","Chrome","138.0.0.0","Windows","10.0","https://app.prolific.com/","en-US,en;q=0.9","674eae0026291e33be89b46f","683dba2a8a9dda3513610c04","688142860eb7ec76336958a3","3","0","674eae0026291e33be89b46f","3","0","2025-07-23T20:26:57.485Z","","","","","","","","","","","ControlQ","","50","","","","","","","","","","","","","","","","","","","","","","","","","","","","",""
"3188","","<div style=""width:500px;"">
  <p>How would you describe your current emotional state?</p>
  </div>","63","html-slider-response","47","642314","0.0-5.0-3.7","234","1","2025-07-23 20:14:38","1f75c3e559b7213887762d5229550c2b","216.120.189.168","Mozilla/5.0 (Windows NT 10.0; Win64; x64) AppleWebKit/537.36 (KHTML, like Gecko) Chrome/138.0.0.0 Safari/537.36","WebKit","Chrome","138.0.0.0","Windows","10.0","https://app.prolific.com/","en-US,en;q=0.9","674eae0026291e33be89b46f","683dba2a8a9dda3513610c04","688142860eb7ec76336958a3","3","0","674eae0026291e33be89b46f","3","0","2025-07-23T20:27:00.675Z","","","","","","","","","","","StressQ","","50","","","","","","","","","","","","","","","","","","","","","","","","","","","","",""
"2188","","<div style=""width:500px;"">
  <p>What best describes how you currently feel?</p>
  </div>","59","html-slider-response","48","644506","0.0-5.0-4.7","234","1","2025-07-23 20:14:38","1f75c3e559b7213887762d5229550c2b","216.120.189.168","Mozilla/5.0 (Windows NT 10.0; Win64; x64) AppleWebKit/537.36 (KHTML, like Gecko) Chrome/138.0.0.0 Safari/537.36","WebKit","Chrome","138.0.0.0","Windows","10.0","https://app.prolific.com/","en-US,en;q=0.9","674eae0026291e33be89b46f","683dba2a8a9dda3513610c04","688142860eb7ec76336958a3","3","0","674eae0026291e33be89b46f","3","0","2025-07-23T20:27:02.867Z","","","","","","","","","","","MotivationQ","","50","","","","","","","","","","","","","","","","","","","","","","","","","","","","",""
"","","","","ctl-task-cpt","49","675419","0.0-5.0-0.8","234","1","2025-07-23 20:14:38","1f75c3e559b7213887762d5229550c2b","216.120.189.168","Mozilla/5.0 (Windows NT 10.0; Win64; x64) AppleWebKit/537.36 (KHTML, like Gecko) Chrome/138.0.0.0 Safari/537.36","WebKit","Chrome","138.0.0.0","Windows","10.0","https://app.prolific.com/","en-US,en;q=0.9","674eae0026291e33be89b46f","683dba2a8a9dda3513610c04","688142860eb7ec76336958a3","3","0","674eae0026291e33be89b46f","3","0","2025-07-23T20:27:33.780Z","","","","","","","","","","","","","","win-only","0","g1:NW,g2:SE","0.2","9","0","649062.6","1696.4","6702.4","27891.3","1","4","8","6","1","-1","-1","0","0","0","2022.6","3000","-2705","[""left"",""up""]","{""num_key_presses"":6,""num_perfect"":2,""num_errors"":0,""num_randdir"":4,""num_randdir_good_moves"":1,""num_whilered"":0,""num_whileblue"":0,""num_blue"":0,""num_good_moves"":3}","[299.22232142857143,298.12857142857143,0.2,299.22232142857143,298.12857142857143,103.1,299.22232142857143,298.12857142857143,204.3,299.22232142857143,298.12857142857143,305.2,299.22232142857143,298.12857142857143,408.9,299.22232142857143,298.12857142857143,519.3,299.22232142857143,298.12857142857143,621,394.22232142857143,397.12857142857143,724.7,469.22232142857143,496.12857142857143,824.9,461.22232142857143,495.12857142857143,929.7,208.22232142857143,276.12857142857143,1030.4,181.22232142857143,260.12857142857143,1131.4,181.22232142857143,260.12857142857143,1231.7,172.22232142857143,246.12857142857143,1333,89.22232142857143,81.12857142857143,1434.3,73.22232142857143,47.128571428571426,1536.6,67.22232142857143,42.128571428571426,1636.7,57.222321428571426,40.128571428571426,1739.5,57.222321428571426,40.128571428571426,1839.9,57.222321428571426,40.128571428571426,1942.5,57.222321428571426,40.128571428571426,2052.6,57.222321428571426,40.128571428571426,2154.4,57.222321428571426,40.128571428571426,2254.6,57.222321428571426,40.128571428571426,2355.1,57.222321428571426,40.128571428571426,2459.4,57.222321428571426,40.128571428571426,2559.8,57.222321428571426,40.128571428571426,2660.5,57.222321428571426,40.128571428571426,2769,57.222321428571426,40.128571428571426,2869,57.222321428571426,40.128571428571426,2969.8,57.222321428571426,40.128571428571426,3070.8,57.222321428571426,40.128571428571426,3175.1,57.222321428571426,40.128571428571426,3280,57.222321428571426,40.128571428571426,3380,57.222321428571426,40.128571428571426,3481.1,57.222321428571426,40.128571428571426,3582.2,57.222321428571426,40.128571428571426,3684.7,57.222321428571426,40.128571428571426,3789.4,57.222321428571426,40.128571428571426,3897.1,57.222321428571426,40.128571428571426,4001.6,57.222321428571426,40.128571428571426,4104.1,57.222321428571426,40.128571428571426,4204.7,57.222321428571426,40.128571428571426,4318.1,57.222321428571426,40.128571428571426,4419,57.222321428571426,40.128571428571426,4523,57.222321428571426,40.128571428571426,4624.7,57.222321428571426,40.128571428571426,4725,57.222321428571426,40.128571428571426,4835,57.222321428571426,40.128571428571426,4936.4]","[1745.7,1745.7,1000,0,745.7,""smooth"",""up"",""up"",""good_move"",4863,3116.9,2330.8,1746.1,786.1,""smooth"",""up"",""up"",""good_move"",7821.5,2958.3,2539.4,4863.2,418.9,""oops"",""left"",""right"",""bad_move"",11465.1,3643.2,3291,7821.9,352.3,""oops"",""left"",""left"",""good_move"",14528.7,3063.3,2740.2,11465.4,323.1,""oops"",""left"",""right"",""bad_move"",17324.4,2795.4,2430.7,14529,364.7,""oops"",""left"",""right"",""bad_move""]","",""
"2413","","<div style=""width:500px;"">
  <p>What determined the result of this run?</p>
  </div>","64","html-slider-response","50","677834","0.0-5.0-1.8","234","1","2025-07-23 20:14:38","1f75c3e559b7213887762d5229550c2b","216.120.189.168","Mozilla/5.0 (Windows NT 10.0; Win64; x64) AppleWebKit/537.36 (KHTML, like Gecko) Chrome/138.0.0.0 Safari/537.36","WebKit","Chrome","138.0.0.0","Windows","10.0","https://app.prolific.com/","en-US,en;q=0.9","674eae0026291e33be89b46f","683dba2a8a9dda3513610c04","688142860eb7ec76336958a3","3","0","674eae0026291e33be89b46f","3","0","2025-07-23T20:27:36.195Z","","","","","","","","","","","AttribQ","","50","","","","","","","","","","","","","","","","","","","","","","","","","","","","",""
"3269","","<div style=""width:500px;"">
  <p>How much control did you have over the ball?</p>
  </div>","59","html-slider-response","51","681104","0.0-5.0-2.8","234","1","2025-07-23 20:14:38","1f75c3e559b7213887762d5229550c2b","216.120.189.168","Mozilla/5.0 (Windows NT 10.0; Win64; x64) AppleWebKit/537.36 (KHTML, like Gecko) Chrome/138.0.0.0 Safari/537.36","WebKit","Chrome","138.0.0.0","Windows","10.0","https://app.prolific.com/","en-US,en;q=0.9","674eae0026291e33be89b46f","683dba2a8a9dda3513610c04","688142860eb7ec76336958a3","3","0","674eae0026291e33be89b46f","3","0","2025-07-23T20:27:39.465Z","","","","","","","","","","","ControlQ","","50","","","","","","","","","","","","","","","","","","","","","","","","","","","","",""
"3204","","<div style=""width:500px;"">
  <p>How would you describe your current emotional state?</p>
  </div>","67","html-slider-response","52","684308","0.0-5.0-3.8","234","1","2025-07-23 20:14:38","1f75c3e559b7213887762d5229550c2b","216.120.189.168","Mozilla/5.0 (Windows NT 10.0; Win64; x64) AppleWebKit/537.36 (KHTML, like Gecko) Chrome/138.0.0.0 Safari/537.36","WebKit","Chrome","138.0.0.0","Windows","10.0","https://app.prolific.com/","en-US,en;q=0.9","674eae0026291e33be89b46f","683dba2a8a9dda3513610c04","688142860eb7ec76336958a3","3","0","674eae0026291e33be89b46f","3","0","2025-07-23T20:27:42.669Z","","","","","","","","","","","StressQ","","50","","","","","","","","","","","","","","","","","","","","","","","","","","","","",""
"6187","","<div style=""width:500px;"">
  <p>What best describes how you currently feel?</p>
  </div>","66","html-slider-response","53","690496","0.0-5.0-4.8","234","1","2025-07-23 20:14:38","1f75c3e559b7213887762d5229550c2b","216.120.189.168","Mozilla/5.0 (Windows NT 10.0; Win64; x64) AppleWebKit/537.36 (KHTML, like Gecko) Chrome/138.0.0.0 Safari/537.36","WebKit","Chrome","138.0.0.0","Windows","10.0","https://app.prolific.com/","en-US,en;q=0.9","674eae0026291e33be89b46f","683dba2a8a9dda3513610c04","688142860eb7ec76336958a3","3","0","674eae0026291e33be89b46f","3","0","2025-07-23T20:27:48.857Z","","","","","","","","","","","MotivationQ","","50","","","","","","","","","","","","","","","","","","","","","","","","","","","","",""
"","","","","ctl-task-cpt","54","736250","0.0-5.0-0.9","234","1","2025-07-23 20:14:38","1f75c3e559b7213887762d5229550c2b","216.120.189.168","Mozilla/5.0 (Windows NT 10.0; Win64; x64) AppleWebKit/537.36 (KHTML, like Gecko) Chrome/138.0.0.0 Safari/537.36","WebKit","Chrome","138.0.0.0","Windows","10.0","https://app.prolific.com/","en-US,en;q=0.9","674eae0026291e33be89b46f","683dba2a8a9dda3513610c04","688142860eb7ec76336958a3","3","0","674eae0026291e33be89b46f","3","0","2025-07-23T20:28:34.611Z","","","","","","","","","","","","","","win-only","2","g1:SE,g2:NW","0.4","10","0","695053.3","2136.5","7140.3","42740.9","1","4","4","6","1","-1","-1","0","0","0","1915.7","3000","-2315","[""down"",""right""]","{""num_key_presses"":7,""num_perfect"":4,""num_errors"":0,""num_randdir"":3,""num_randdir_good_moves"":0,""num_whilered"":0,""num_whileblue"":0,""num_blue"":4,""num_good_moves"":4}","[294.22232142857143,296.12857142857143,0.3,294.22232142857143,296.12857142857143,102,294.22232142857143,296.12857142857143,204.5,294.22232142857143,296.12857142857143,312,294.22232142857143,296.12857142857143,414.7,294.22232142857143,296.12857142857143,520.4,294.22232142857143,296.12857142857143,620.6,266.22232142857143,254.12857142857143,723.9,215.22232142857143,192.12857142857143,824.1,219.22232142857143,191.12857142857143,924.2,452.22232142857143,428.12857142857143,1025.2,504.22232142857143,500.12857142857143,1135.4,504.22232142857143,500.12857142857143,1236.1,504.22232142857143,500.12857142857143,1337.3,505.22232142857143,500.12857142857143,1440.1,523.2223214285714,519.1285714285714,1540.2,525.2223214285714,522.1285714285714,1647.3,525.2223214285714,522.1285714285714,1750.1,525.2223214285714,522.1285714285714,1854,525.2223214285714,522.1285714285714,1960,525.2223214285714,522.1285714285714,2067.3,525.2223214285714,522.1285714285714,2172.2,525.2223214285714,522.1285714285714,2274.6,525.2223214285714,522.1285714285714,2381.7,525.2223214285714,522.1285714285714,2486.5,525.2223214285714,522.1285714285714,2590.8,525.2223214285714,522.1285714285714,2692.5,525.2223214285714,522.1285714285714,2796.5,525.2223214285714,522.1285714285714,2899.7,525.2223214285714,522.1285714285714,3003.9,525.2223214285714,522.1285714285714,3104.2,525.2223214285714,522.1285714285714,3209.3,525.2223214285714,522.1285714285714,3310,525.2223214285714,522.1285714285714,3419.5,525.2223214285714,522.1285714285714,3523.1,525.2223214285714,522.1285714285714,3624.7,525.2223214285714,522.1285714285714,3725.1,525.2223214285714,522.1285714285714,3831.9,525.2223214285714,522.1285714285714,3933.8,525.2223214285714,522.1285714285714,4034.9,525.2223214285714,522.1285714285714,4137.9,525.2223214285714,522.1285714285714,4240,525.2223214285714,522.1285714285714,4349.7,525.2223214285714,522.1285714285714,4451.6,525.2223214285714,522.1285714285714,4552.7,525.2223214285714,522.1285714285714,4655.7,525.2223214285714,522.1285714285714,4759.8,525.2223214285714,522.1285714285714,4872.7,525.2223214285714,522.1285714285714,4984.2]","[2296.3,2296.3,1000,0,1296.3,""smooth"",""down"",""down"",""good_move"",9310.1,7013.2,2656.4,6198.1,455.6,""oops"",""down"",""up"",""bad_move"",12366.4,3055.9,2679.7,9310.5,376.2,""smooth"",""right"",""right"",""good_move"",14997.7,2631,2232.2,12366.7,398.8,""smooth"",""down"",""down"",""good_move"",18016.1,3018.1,2597,14998,421.1,""smooth"",""down"",""down"",""good_move"",21673.6,3657.2,3271.4,18016.4,385.8,""oops"",""right"",""left"",""bad_move"",23972.6,2298.3,1888.2,21674.4,410.1,""oops"",""right"",""left"",""bad_move""]","",""
"10516","","<div style=""width:500px;"">
  <p>What determined the result of this run?</p>
  </div>","63","html-slider-response","55","746766","0.0-5.0-1.9","234","1","2025-07-23 20:14:38","1f75c3e559b7213887762d5229550c2b","216.120.189.168","Mozilla/5.0 (Windows NT 10.0; Win64; x64) AppleWebKit/537.36 (KHTML, like Gecko) Chrome/138.0.0.0 Safari/537.36","WebKit","Chrome","138.0.0.0","Windows","10.0","https://app.prolific.com/","en-US,en;q=0.9","674eae0026291e33be89b46f","683dba2a8a9dda3513610c04","688142860eb7ec76336958a3","3","0","674eae0026291e33be89b46f","3","0","2025-07-23T20:28:45.128Z","","","","","","","","","","","AttribQ","","50","","","","","","","","","","","","","","","","","","","","","","","","","","","","",""
"2632","","<div style=""width:500px;"">
  <p>How much control did you have over the ball?</p>
  </div>","61","html-slider-response","56","749400","0.0-5.0-2.9","234","1","2025-07-23 20:14:38","1f75c3e559b7213887762d5229550c2b","216.120.189.168","Mozilla/5.0 (Windows NT 10.0; Win64; x64) AppleWebKit/537.36 (KHTML, like Gecko) Chrome/138.0.0.0 Safari/537.36","WebKit","Chrome","138.0.0.0","Windows","10.0","https://app.prolific.com/","en-US,en;q=0.9","674eae0026291e33be89b46f","683dba2a8a9dda3513610c04","688142860eb7ec76336958a3","3","0","674eae0026291e33be89b46f","3","0","2025-07-23T20:28:47.761Z","","","","","","","","","","","ControlQ","","50","","","","","","","","","","","","","","","","","","","","","","","","","","","","",""
"2601","","<div style=""width:500px;"">
  <p>How would you describe your current emotional state?</p>
  </div>","58","html-slider-response","57","752002","0.0-5.0-3.9","234","1","2025-07-23 20:14:38","1f75c3e559b7213887762d5229550c2b","216.120.189.168","Mozilla/5.0 (Windows NT 10.0; Win64; x64) AppleWebKit/537.36 (KHTML, like Gecko) Chrome/138.0.0.0 Safari/537.36","WebKit","Chrome","138.0.0.0","Windows","10.0","https://app.prolific.com/","en-US,en;q=0.9","674eae0026291e33be89b46f","683dba2a8a9dda3513610c04","688142860eb7ec76336958a3","3","0","674eae0026291e33be89b46f","3","0","2025-07-23T20:28:50.363Z","","","","","","","","","","","StressQ","","50","","","","","","","","","","","","","","","","","","","","","","","","","","","","",""
"2866","","<div style=""width:500px;"">
  <p>What best describes how you currently feel?</p>
  </div>","61","html-slider-response","58","754869","0.0-5.0-4.9","234","1","2025-07-23 20:14:38","1f75c3e559b7213887762d5229550c2b","216.120.189.168","Mozilla/5.0 (Windows NT 10.0; Win64; x64) AppleWebKit/537.36 (KHTML, like Gecko) Chrome/138.0.0.0 Safari/537.36","WebKit","Chrome","138.0.0.0","Windows","10.0","https://app.prolific.com/","en-US,en;q=0.9","674eae0026291e33be89b46f","683dba2a8a9dda3513610c04","688142860eb7ec76336958a3","3","0","674eae0026291e33be89b46f","3","0","2025-07-23T20:28:53.230Z","","","","","","","","","","","MotivationQ","","50","","","","","","","","","","","","","","","","","","","","","","","","","","","","",""
"","","","","ctl-task-cpt","59","786770","0.0-5.0-0.10","234","1","2025-07-23 20:14:38","1f75c3e559b7213887762d5229550c2b","216.120.189.168","Mozilla/5.0 (Windows NT 10.0; Win64; x64) AppleWebKit/537.36 (KHTML, like Gecko) Chrome/138.0.0.0 Safari/537.36","WebKit","Chrome","138.0.0.0","Windows","10.0","https://app.prolific.com/","en-US,en;q=0.9","674eae0026291e33be89b46f","683dba2a8a9dda3513610c04","688142860eb7ec76336958a3","3","0","674eae0026291e33be89b46f","3","0","2025-07-23T20:29:25.131Z","","","","","","","","","","","","","","win-only","3","g1:SW,g2:NE","0.5","11","0","759429.5","5198.7","10205.6","28877.3","1","4","4","6","1","-1","-3","0","0","0","1889.5","3000","-2375","[""down"",""left""]","{""num_key_presses"":5,""num_perfect"":2,""num_errors"":2,""num_randdir"":1,""num_randdir_good_moves"":1,""num_whilered"":0,""num_whileblue"":2,""num_blue"":2,""num_good_moves"":3}","[295.22232142857143,295.12857142857143,0.9,295.22232142857143,295.12857142857143,106.6,295.22232142857143,295.12857142857143,206.8,295.22232142857143,295.12857142857143,310.3,295.22232142857143,295.12857142857143,415.6,295.22232142857143,295.12857142857143,522.2,308.22232142857143,292.12857142857143,632.4,366.22232142857143,195.12857142857143,733.1,391.22232142857143,152.12857142857143,836.3,343.22232142857143,230.12857142857143,943.6,131.22232142857143,453.12857142857143,1045.9,52.222321428571426,549.1285714285714,1147.5,52.222321428571426,549.1285714285714,1255.5,45.222321428571426,556.1285714285714,1361.3,37.222321428571426,564.1285714285714,1462.5,37.222321428571426,563.1285714285714,1563.7,37.222321428571426,563.1285714285714,1665.1,37.222321428571426,563.1285714285714,1770.2,37.222321428571426,563.1285714285714,1881.1,37.222321428571426,563.1285714285714,1985.6,37.222321428571426,563.1285714285714,2094.5,37.222321428571426,563.1285714285714,2197.9,37.222321428571426,563.1285714285714,2300.9,37.222321428571426,563.1285714285714,2404.4,37.222321428571426,563.1285714285714,2509.3,47.222321428571426,553.1285714285714,2614.8,67.22232142857143,540.1285714285714,2723,67.22232142857143,540.1285714285714,2829.9,67.22232142857143,540.1285714285714,2934.6,70.22232142857143,531.1285714285714,3040.3,75.22232142857143,516.1285714285714,3144.8,76.22232142857143,513.1285714285714,3247.4,76.22232142857143,513.1285714285714,3349.3,76.22232142857143,513.1285714285714,3458.1,76.22232142857143,513.1285714285714,3559.1,76.22232142857143,513.1285714285714,3659.8,76.22232142857143,513.1285714285714,3762.2,76.22232142857143,513.1285714285714,3864.2,76.22232142857143,513.1285714285714,3970.3,76.22232142857143,513.1285714285714,4073.4,76.22232142857143,513.1285714285714,4176.5,76.22232142857143,513.1285714285714,4277.9,76.22232142857143,513.1285714285714,4380.3,76.22232142857143,513.1285714285714,4482.9,76.22232142857143,513.1285714285714,4590.4,76.22232142857143,513.1285714285714,4691.2,76.22232142857143,513.1285714285714,4800.8,76.22232142857143,513.1285714285714,4904.8]","[1370.9,1370.9,1000,0,370.9,""smooth"",""down"",""down"",""good_move"",3614.5,2243,1879.3,1371.5,363.7,""while_blue"",""left"",""up"",""bad_move"",6732.6,3117.4,2747.9,3615.2,369.5,""smooth"",""down"",""down"",""good_move"",10000.9,3268.1,2505.9,6732.8,762.2,""oops"",""down"",""down"",""good_move"",13515.7,3514.4,3139.3,10001.5,374.9,""while_blue"",""left"",""right"",""bad_move""]","",""
"3484","","<div style=""width:500px;"">
  <p>What determined the result of this run?</p>
  </div>","61","html-slider-response","60","790257","0.0-5.0-1.10","234","1","2025-07-23 20:14:38","1f75c3e559b7213887762d5229550c2b","216.120.189.168","Mozilla/5.0 (Windows NT 10.0; Win64; x64) AppleWebKit/537.36 (KHTML, like Gecko) Chrome/138.0.0.0 Safari/537.36","WebKit","Chrome","138.0.0.0","Windows","10.0","https://app.prolific.com/","en-US,en;q=0.9","674eae0026291e33be89b46f","683dba2a8a9dda3513610c04","688142860eb7ec76336958a3","3","0","674eae0026291e33be89b46f","3","0","2025-07-23T20:29:28.618Z","","","","","","","","","","","AttribQ","","50","","","","","","","","","","","","","","","","","","","","","","","","","","","","",""
"2546","","<div style=""width:500px;"">
  <p>How much control did you have over the ball?</p>
  </div>","61","html-slider-response","61","792804","0.0-5.0-2.10","234","1","2025-07-23 20:14:38","1f75c3e559b7213887762d5229550c2b","216.120.189.168","Mozilla/5.0 (Windows NT 10.0; Win64; x64) AppleWebKit/537.36 (KHTML, like Gecko) Chrome/138.0.0.0 Safari/537.36","WebKit","Chrome","138.0.0.0","Windows","10.0","https://app.prolific.com/","en-US,en;q=0.9","674eae0026291e33be89b46f","683dba2a8a9dda3513610c04","688142860eb7ec76336958a3","3","0","674eae0026291e33be89b46f","3","0","2025-07-23T20:29:31.165Z","","","","","","","","","","","ControlQ","","50","","","","","","","","","","","","","","","","","","","","","","","","","","","","",""
"3644","","<div style=""width:500px;"">
  <p>How would you describe your current emotional state?</p>
  </div>","44","html-slider-response","62","796449","0.0-5.0-3.10","234","1","2025-07-23 20:14:38","1f75c3e559b7213887762d5229550c2b","216.120.189.168","Mozilla/5.0 (Windows NT 10.0; Win64; x64) AppleWebKit/537.36 (KHTML, like Gecko) Chrome/138.0.0.0 Safari/537.36","WebKit","Chrome","138.0.0.0","Windows","10.0","https://app.prolific.com/","en-US,en;q=0.9","674eae0026291e33be89b46f","683dba2a8a9dda3513610c04","688142860eb7ec76336958a3","3","0","674eae0026291e33be89b46f","3","0","2025-07-23T20:29:34.810Z","","","","","","","","","","","StressQ","","50","","","","","","","","","","","","","","","","","","","","","","","","","","","","",""
"2841","","<div style=""width:500px;"">
  <p>What best describes how you currently feel?</p>
  </div>","57","html-slider-response","63","799292","0.0-5.0-4.10","234","1","2025-07-23 20:14:38","1f75c3e559b7213887762d5229550c2b","216.120.189.168","Mozilla/5.0 (Windows NT 10.0; Win64; x64) AppleWebKit/537.36 (KHTML, like Gecko) Chrome/138.0.0.0 Safari/537.36","WebKit","Chrome","138.0.0.0","Windows","10.0","https://app.prolific.com/","en-US,en;q=0.9","674eae0026291e33be89b46f","683dba2a8a9dda3513610c04","688142860eb7ec76336958a3","3","0","674eae0026291e33be89b46f","3","0","2025-07-23T20:29:37.653Z","","","","","","","","","","","MotivationQ","","50","","","","","","","","","","","","","","","","","","","","","","","","","","","","",""
"","","","","ctl-task-cpt","64","831812","0.0-5.0-0.11","234","1","2025-07-23 20:14:38","1f75c3e559b7213887762d5229550c2b","216.120.189.168","Mozilla/5.0 (Windows NT 10.0; Win64; x64) AppleWebKit/537.36 (KHTML, like Gecko) Chrome/138.0.0.0 Safari/537.36","WebKit","Chrome","138.0.0.0","Windows","10.0","https://app.prolific.com/","en-US,en;q=0.9","674eae0026291e33be89b46f","683dba2a8a9dda3513610c04","688142860eb7ec76336958a3","3","0","674eae0026291e33be89b46f","3","0","2025-07-23T20:30:10.173Z","","","","","","","","","","","","","","win-only","3","g1:SW,g2:NE","0.6","12","0","803849.4","1986.3","6987.4","29500.9","1","4","8","6","1","-1","-1","0","0","0","1658.2","3000","-2485","[""down"",""left""]","{""num_key_presses"":3,""num_perfect"":2,""num_errors"":0,""num_randdir"":1,""num_randdir_good_moves"":0,""num_whilered"":0,""num_whileblue"":0,""num_blue"":3,""num_good_moves"":2}","[296.22232142857143,289.12857142857143,0.2,296.22232142857143,289.12857142857143,101.4,296.22232142857143,289.12857142857143,203.7,296.22232142857143,289.12857142857143,307.4,296.22232142857143,289.12857142857143,412.8,296.22232142857143,289.12857142857143,517,297.22232142857143,284.12857142857143,617.8,300.22232142857143,269.12857142857143,725.8,180.22232142857143,404.12857142857143,832.7,114.22232142857143,489.12857142857143,935.2,112.22232142857143,490.12857142857143,1040.5,103.22232142857143,495.12857142857143,1143.6,56.222321428571426,530.1285714285714,1246.6,47.222321428571426,536.1285714285714,1358,47.222321428571426,536.1285714285714,1467.9,47.222321428571426,536.1285714285714,1571,47.222321428571426,536.1285714285714,1676.2,47.222321428571426,536.1285714285714,1779.9,47.222321428571426,536.1285714285714,1885.2,47.222321428571426,536.1285714285714,1988.4,47.222321428571426,536.1285714285714,2089.3,47.222321428571426,536.1285714285714,2193.1,47.222321428571426,536.1285714285714,2300.1,47.222321428571426,536.1285714285714,2403.1,47.222321428571426,536.1285714285714,2503.9,47.222321428571426,536.1285714285714,2613.2,47.222321428571426,536.1285714285714,2715.2,47.222321428571426,536.1285714285714,2820,47.222321428571426,536.1285714285714,2920.2,47.222321428571426,536.1285714285714,3020.9,47.222321428571426,536.1285714285714,3127.2,47.222321428571426,536.1285714285714,3231.6,47.222321428571426,536.1285714285714,3333.1,47.222321428571426,536.1285714285714,3436,47.222321428571426,536.1285714285714,3537.4,47.222321428571426,536.1285714285714,3646.7,47.222321428571426,536.1285714285714,3748.1,47.222321428571426,536.1285714285714,3849.3,47.222321428571426,536.1285714285714,3950.1,47.222321428571426,536.1285714285714,4052.8,47.222321428571426,536.1285714285714,4155.2,47.222321428571426,536.1285714285714,4264.8,47.222321428571426,536.1285714285714,4366.5,47.222321428571426,536.1285714285714,4470.8,47.222321428571426,536.1285714285714,4577.5,47.222321428571426,536.1285714285714,4681.1,47.222321428571426,536.1285714285714,4783,47.222321428571426,536.1285714285714,4886,47.222321428571426,536.1285714285714,4986.1]","[1416.8,1416.8,1000,0,416.8,""smooth"",""down"",""down"",""good_move"",7724.6,6306.4,2407.6,4864.9,452.1,""smooth"",""down"",""down"",""good_move"",13643.1,5918,2268.7,10976.9,397.5,""oops"",""left"",""right"",""bad_move""]","",""
"6362","","<div style=""width:500px;"">
  <p>What determined the result of this run?</p>
  </div>","62","html-slider-response","65","838176","0.0-5.0-1.11","234","1","2025-07-23 20:14:38","1f75c3e559b7213887762d5229550c2b","216.120.189.168","Mozilla/5.0 (Windows NT 10.0; Win64; x64) AppleWebKit/537.36 (KHTML, like Gecko) Chrome/138.0.0.0 Safari/537.36","WebKit","Chrome","138.0.0.0","Windows","10.0","https://app.prolific.com/","en-US,en;q=0.9","674eae0026291e33be89b46f","683dba2a8a9dda3513610c04","688142860eb7ec76336958a3","3","0","674eae0026291e33be89b46f","3","0","2025-07-23T20:30:16.537Z","","","","","","","","","","","AttribQ","","50","","","","","","","","","","","","","","","","","","","","","","","","","","","","",""
"2746","","<div style=""width:500px;"">
  <p>How much control did you have over the ball?</p>
  </div>","59","html-slider-response","66","840924","0.0-5.0-2.11","234","1","2025-07-23 20:14:38","1f75c3e559b7213887762d5229550c2b","216.120.189.168","Mozilla/5.0 (Windows NT 10.0; Win64; x64) AppleWebKit/537.36 (KHTML, like Gecko) Chrome/138.0.0.0 Safari/537.36","WebKit","Chrome","138.0.0.0","Windows","10.0","https://app.prolific.com/","en-US,en;q=0.9","674eae0026291e33be89b46f","683dba2a8a9dda3513610c04","688142860eb7ec76336958a3","3","0","674eae0026291e33be89b46f","3","0","2025-07-23T20:30:19.285Z","","","","","","","","","","","ControlQ","","50","","","","","","","","","","","","","","","","","","","","","","","","","","","","",""
"2515","","<div style=""width:500px;"">
  <p>How would you describe your current emotional state?</p>
  </div>","60","html-slider-response","67","843440","0.0-5.0-3.11","234","1","2025-07-23 20:14:38","1f75c3e559b7213887762d5229550c2b","216.120.189.168","Mozilla/5.0 (Windows NT 10.0; Win64; x64) AppleWebKit/537.36 (KHTML, like Gecko) Chrome/138.0.0.0 Safari/537.36","WebKit","Chrome","138.0.0.0","Windows","10.0","https://app.prolific.com/","en-US,en;q=0.9","674eae0026291e33be89b46f","683dba2a8a9dda3513610c04","688142860eb7ec76336958a3","3","0","674eae0026291e33be89b46f","3","0","2025-07-23T20:30:21.801Z","","","","","","","","","","","StressQ","","50","","","","","","","","","","","","","","","","","","","","","","","","","","","","",""
"2430","","<div style=""width:500px;"">
  <p>What best describes how you currently feel?</p>
  </div>","58","html-slider-response","68","845870","0.0-5.0-4.11","234","1","2025-07-23 20:14:38","1f75c3e559b7213887762d5229550c2b","216.120.189.168","Mozilla/5.0 (Windows NT 10.0; Win64; x64) AppleWebKit/537.36 (KHTML, like Gecko) Chrome/138.0.0.0 Safari/537.36","WebKit","Chrome","138.0.0.0","Windows","10.0","https://app.prolific.com/","en-US,en;q=0.9","674eae0026291e33be89b46f","683dba2a8a9dda3513610c04","688142860eb7ec76336958a3","3","0","674eae0026291e33be89b46f","3","0","2025-07-23T20:30:24.232Z","","","","","","","","","","","MotivationQ","","50","","","","","","","","","","","","","","","","","","","","","","","","","","","","",""
"","","","","ctl-task-cpt","69","876195","0.0-5.0-0.12","234","1","2025-07-23 20:14:38","1f75c3e559b7213887762d5229550c2b","216.120.189.168","Mozilla/5.0 (Windows NT 10.0; Win64; x64) AppleWebKit/537.36 (KHTML, like Gecko) Chrome/138.0.0.0 Safari/537.36","WebKit","Chrome","138.0.0.0","Windows","10.0","https://app.prolific.com/","en-US,en;q=0.9","674eae0026291e33be89b46f","683dba2a8a9dda3513610c04","688142860eb7ec76336958a3","3","0","674eae0026291e33be89b46f","3","0","2025-07-23T20:30:54.556Z","","","","","","","","","","","","","","win-only","2","g1:SE,g2:NW","0.7","13","0","850429.9","1306.4","6318.5","27303.9","1","4","8","6","1","-1","-1","0","0","0","1918.7","3000","-2065","[""down"",""right""]","{""num_key_presses"":5,""num_perfect"":4,""num_errors"":0,""num_randdir"":1,""num_randdir_good_moves"":0,""num_whilered"":0,""num_whileblue"":0,""num_blue"":1,""num_good_moves"":4}","[299.22232142857143,291.12857142857143,0.2,299.22232142857143,291.12857142857143,100.2,299.22232142857143,291.12857142857143,200.3,299.22232142857143,291.12857142857143,308.6,299.22232142857143,291.12857142857143,416.5,299.22232142857143,291.12857142857143,516.6,299.22232142857143,291.12857142857143,619.6,299.22232142857143,291.12857142857143,733.3,306.22232142857143,312.12857142857143,833.5,378.22232142857143,440.12857142857143,935.8,387.22232142857143,459.12857142857143,1050.1,387.22232142857143,459.12857142857143,1154.2,434.22232142857143,476.12857142857143,1255.3,510.22232142857143,538.1285714285714,1366.1,524.2223214285714,558.1285714285714,1468.9,529.2223214285714,563.1285714285714,1573.9,530.2223214285714,564.1285714285714,1684.3,530.2223214285714,564.1285714285714,1793.3,530.2223214285714,564.1285714285714,1897.7,530.2223214285714,564.1285714285714,2000,530.2223214285714,564.1285714285714,2113.1,530.2223214285714,564.1285714285714,2215.8,530.2223214285714,564.1285714285714,2318.9,530.2223214285714,564.1285714285714,2429.5,530.2223214285714,564.1285714285714,2532.3,530.2223214285714,564.1285714285714,2632.3,530.2223214285714,564.1285714285714,2735.1,530.2223214285714,564.1285714285714,2835.2,530.2223214285714,564.1285714285714,2947.1,530.2223214285714,564.1285714285714,3048.4,530.2223214285714,564.1285714285714,3150.2,530.2223214285714,564.1285714285714,3255.1,530.2223214285714,564.1285714285714,3365.8,530.2223214285714,564.1285714285714,3474.5,530.2223214285714,564.1285714285714,3580.1,530.2223214285714,564.1285714285714,3683.6,530.2223214285714,564.1285714285714,3794.4,530.2223214285714,564.1285714285714,3895.1,530.2223214285714,564.1285714285714,3997.8,530.2223214285714,564.1285714285714,4100,530.2223214285714,564.1285714285714,4206.1,530.2223214285714,564.1285714285714,4308.7,530.2223214285714,564.1285714285714,4409.5,530.2223214285714,564.1285714285714,4513.4,530.2223214285714,564.1285714285714,4616.1,530.2223214285714,564.1285714285714,4717.3,530.2223214285714,564.1285714285714,4820.2,530.2223214285714,564.1285714285714,4933.4]","[1965.2,1965.2,1000,0,965.2,""smooth"",""down"",""down"",""good_move"",8354.6,6388.9,2344.1,5587.5,423,""oops"",""right"",""left"",""bad_move"",12284,3929,2511.1,8355,1417.9,""smooth"",""down"",""down"",""good_move"",15007.8,2723.1,1555.9,12284.7,1167.2,""smooth"",""right"",""right"",""good_move"",18314.2,3305.9,2924.5,15008.3,381.4,""smooth"",""right"",""right"",""good_move""]","",""
"2340","","<div style=""width:500px;"">
  <p>What determined the result of this run?</p>
  </div>","68","html-slider-response","70","878536","0.0-5.0-1.12","234","1","2025-07-23 20:14:38","1f75c3e559b7213887762d5229550c2b","216.120.189.168","Mozilla/5.0 (Windows NT 10.0; Win64; x64) AppleWebKit/537.36 (KHTML, like Gecko) Chrome/138.0.0.0 Safari/537.36","WebKit","Chrome","138.0.0.0","Windows","10.0","https://app.prolific.com/","en-US,en;q=0.9","674eae0026291e33be89b46f","683dba2a8a9dda3513610c04","688142860eb7ec76336958a3","3","0","674eae0026291e33be89b46f","3","0","2025-07-23T20:30:56.898Z","","","","","","","","","","","AttribQ","","50","","","","","","","","","","","","","","","","","","","","","","","","","","","","",""
"2706","","<div style=""width:500px;"">
  <p>How much control did you have over the ball?</p>
  </div>","64","html-slider-response","71","881245","0.0-5.0-2.12","234","1","2025-07-23 20:14:38","1f75c3e559b7213887762d5229550c2b","216.120.189.168","Mozilla/5.0 (Windows NT 10.0; Win64; x64) AppleWebKit/537.36 (KHTML, like Gecko) Chrome/138.0.0.0 Safari/537.36","WebKit","Chrome","138.0.0.0","Windows","10.0","https://app.prolific.com/","en-US,en;q=0.9","674eae0026291e33be89b46f","683dba2a8a9dda3513610c04","688142860eb7ec76336958a3","3","0","674eae0026291e33be89b46f","3","0","2025-07-23T20:30:59.606Z","","","","","","","","","","","ControlQ","","50","","","","","","","","","","","","","","","","","","","","","","","","","","","","",""
"2941","","<div style=""width:500px;"">
  <p>How would you describe your current emotional state?</p>
  </div>","60","html-slider-response","72","884189","0.0-5.0-3.12","234","1","2025-07-23 20:14:38","1f75c3e559b7213887762d5229550c2b","216.120.189.168","Mozilla/5.0 (Windows NT 10.0; Win64; x64) AppleWebKit/537.36 (KHTML, like Gecko) Chrome/138.0.0.0 Safari/537.36","WebKit","Chrome","138.0.0.0","Windows","10.0","https://app.prolific.com/","en-US,en;q=0.9","674eae0026291e33be89b46f","683dba2a8a9dda3513610c04","688142860eb7ec76336958a3","3","0","674eae0026291e33be89b46f","3","0","2025-07-23T20:31:02.550Z","","","","","","","","","","","StressQ","","50","","","","","","","","","","","","","","","","","","","","","","","","","","","","",""
"2366","","<div style=""width:500px;"">
  <p>What best describes how you currently feel?</p>
  </div>","53","html-slider-response","73","886556","0.0-5.0-4.12","234","1","2025-07-23 20:14:38","1f75c3e559b7213887762d5229550c2b","216.120.189.168","Mozilla/5.0 (Windows NT 10.0; Win64; x64) AppleWebKit/537.36 (KHTML, like Gecko) Chrome/138.0.0.0 Safari/537.36","WebKit","Chrome","138.0.0.0","Windows","10.0","https://app.prolific.com/","en-US,en;q=0.9","674eae0026291e33be89b46f","683dba2a8a9dda3513610c04","688142860eb7ec76336958a3","3","0","674eae0026291e33be89b46f","3","0","2025-07-23T20:31:04.917Z","","","","","","","","","","","MotivationQ","","50","","","","","","","","","","","","","","","","","","","","","","","","","","","","",""
"","","","","ctl-task-cpt","74","908028","0.0-5.0-0.13","234","1","2025-07-23 20:14:38","1f75c3e559b7213887762d5229550c2b","216.120.189.168","Mozilla/5.0 (Windows NT 10.0; Win64; x64) AppleWebKit/537.36 (KHTML, like Gecko) Chrome/138.0.0.0 Safari/537.36","WebKit","Chrome","138.0.0.0","Windows","10.0","https://app.prolific.com/","en-US,en;q=0.9","674eae0026291e33be89b46f","683dba2a8a9dda3513610c04","688142860eb7ec76336958a3","3","0","674eae0026291e33be89b46f","3","0","2025-07-23T20:31:26.389Z","","","","","","","","","","","","","","win-only","2","g1:SE,g2:NW","0.8","14","0","891112.6","2282.7","7288.1","18450.5","1","4","4","6","1","1","1","1","0","0.007575757575757576","1464.3","3000","1910","[""down"",""right""]","{""num_key_presses"":4,""num_perfect"":4,""num_errors"":0,""num_randdir"":0,""num_randdir_good_moves"":0,""num_whilered"":0,""num_whileblue"":0,""num_blue"":0,""num_good_moves"":4}","[298.22232142857143,299.12857142857143,0.7,298.22232142857143,299.12857142857143,100.8,298.22232142857143,299.12857142857143,204.5,298.22232142857143,299.12857142857143,312.7,298.22232142857143,299.12857142857143,413.6,298.22232142857143,299.12857142857143,528.1,507.22232142857143,519.1285714285714,637.5,575.2223214285714,593.1285714285714,742.1,575.2223214285714,593.1285714285714,847,575.2223214285714,593.1285714285714,956.3,562.2223214285714,581.1285714285714,1072.9,558.2223214285714,577.1285714285714,1173.5,558.2223214285714,577.1285714285714,1279,558.2223214285714,577.1285714285714,1387.5,558.2223214285714,577.1285714285714,1489.9,558.2223214285714,577.1285714285714,1597,558.2223214285714,577.1285714285714,1697.6,558.2223214285714,577.1285714285714,1797.7,558.2223214285714,577.1285714285714,1898.8,558.2223214285714,577.1285714285714,2000.2,558.2223214285714,577.1285714285714,2101.3,558.2223214285714,577.1285714285714,2206.9,558.2223214285714,577.1285714285714,2313,558.2223214285714,577.1285714285714,2421.5,558.2223214285714,577.1285714285714,2526.9,558.2223214285714,577.1285714285714,2636.5,558.2223214285714,577.1285714285714,2737.2,558.2223214285714,577.1285714285714,2839.6,558.2223214285714,577.1285714285714,2946.3,558.2223214285714,577.1285714285714,3053.6,558.2223214285714,577.1285714285714,3153.8,558.2223214285714,577.1285714285714,3253.8,558.2223214285714,577.1285714285714,3355.8,558.2223214285714,577.1285714285714,3459.5,558.2223214285714,577.1285714285714,3563.6,558.2223214285714,577.1285714285714,3667.3,558.2223214285714,577.1285714285714,3768.7,558.2223214285714,577.1285714285714,3874.3,558.2223214285714,577.1285714285714,3985.3,558.2223214285714,577.1285714285714,4085.6,558.2223214285714,577.1285714285714,4189.1,558.2223214285714,577.1285714285714,4295.2,558.2223214285714,577.1285714285714,4397.1,558.2223214285714,577.1285714285714,4498.2,558.2223214285714,577.1285714285714,4602.9,558.2223214285714,577.1285714285714,4717.8,558.2223214285714,577.1285714285714,4820.4,558.2223214285714,577.1285714285714,4923.4]","[1564.4,1564.5,1000,0,564.5,""smooth"",""down"",""down"",""good_move"",5116.7,3551.5,3164.3,1565.2,387.2,""smooth"",""right"",""right"",""good_move"",8298,3180.7,2826.7,5117.3,354,""smooth"",""down"",""down"",""good_move"",11031.3,2732.9,2312.5,8298.4,420.4,""smooth"",""right"",""right"",""good_move""]","",""
"4203","","<div style=""width:500px;"">
  <p>What determined the result of this run?</p>
  </div>","67","html-slider-response","75","912232","0.0-5.0-1.13","234","1","2025-07-23 20:14:38","1f75c3e559b7213887762d5229550c2b","216.120.189.168","Mozilla/5.0 (Windows NT 10.0; Win64; x64) AppleWebKit/537.36 (KHTML, like Gecko) Chrome/138.0.0.0 Safari/537.36","WebKit","Chrome","138.0.0.0","Windows","10.0","https://app.prolific.com/","en-US,en;q=0.9","674eae0026291e33be89b46f","683dba2a8a9dda3513610c04","688142860eb7ec76336958a3","3","0","674eae0026291e33be89b46f","3","0","2025-07-23T20:31:30.593Z","","","","","","","","","","","AttribQ","","50","","","","","","","","","","","","","","","","","","","","","","","","","","","","",""
"2233","","<div style=""width:500px;"">
  <p>How much control did you have over the ball?</p>
  </div>","57","html-slider-response","76","914467","0.0-5.0-2.13","234","1","2025-07-23 20:14:38","1f75c3e559b7213887762d5229550c2b","216.120.189.168","Mozilla/5.0 (Windows NT 10.0; Win64; x64) AppleWebKit/537.36 (KHTML, like Gecko) Chrome/138.0.0.0 Safari/537.36","WebKit","Chrome","138.0.0.0","Windows","10.0","https://app.prolific.com/","en-US,en;q=0.9","674eae0026291e33be89b46f","683dba2a8a9dda3513610c04","688142860eb7ec76336958a3","3","0","674eae0026291e33be89b46f","3","0","2025-07-23T20:31:32.828Z","","","","","","","","","","","ControlQ","","50","","","","","","","","","","","","","","","","","","","","","","","","","","","","",""
"2182","","<div style=""width:500px;"">
  <p>How would you describe your current emotional state?</p>
  </div>","41","html-slider-response","77","916650","0.0-5.0-3.13","234","1","2025-07-23 20:14:38","1f75c3e559b7213887762d5229550c2b","216.120.189.168","Mozilla/5.0 (Windows NT 10.0; Win64; x64) AppleWebKit/537.36 (KHTML, like Gecko) Chrome/138.0.0.0 Safari/537.36","WebKit","Chrome","138.0.0.0","Windows","10.0","https://app.prolific.com/","en-US,en;q=0.9","674eae0026291e33be89b46f","683dba2a8a9dda3513610c04","688142860eb7ec76336958a3","3","0","674eae0026291e33be89b46f","3","0","2025-07-23T20:31:35.011Z","","","","","","","","","","","StressQ","","50","","","","","","","","","","","","","","","","","","","","","","","","","","","","",""
"2537","","<div style=""width:500px;"">
  <p>What best describes how you currently feel?</p>
  </div>","38","html-slider-response","78","919188","0.0-5.0-4.13","234","1","2025-07-23 20:14:38","1f75c3e559b7213887762d5229550c2b","216.120.189.168","Mozilla/5.0 (Windows NT 10.0; Win64; x64) AppleWebKit/537.36 (KHTML, like Gecko) Chrome/138.0.0.0 Safari/537.36","WebKit","Chrome","138.0.0.0","Windows","10.0","https://app.prolific.com/","en-US,en;q=0.9","674eae0026291e33be89b46f","683dba2a8a9dda3513610c04","688142860eb7ec76336958a3","3","0","674eae0026291e33be89b46f","3","0","2025-07-23T20:31:37.550Z","","","","","","","","","","","MotivationQ","","50","","","","","","","","","","","","","","","","","","","","","","","","","","","","",""
