"rt","response_timestamp","stimulus","response","trial_type","trial_index","time_elapsed","internal_node_id","run_id","condition","recorded_at","source_code_version","ip","user_agent","device","browser","browser_version","platform","platform_version","referer","accept_language","PROLIFIC_PID","STUDY_ID","SESSION_ID","WEEK","BATCH","prolific_id","week","batch","realtime","success","responses","item_order","radio_event_ids","radio_event_times","key_event_times","mouse_event_times","straightlining","zigzagging","honeypot","eventType","view_history","slider_start","which_type","canvas_config","goals_layout","control_level","trial_number","tutorial_trial_number","trial_start_time","phase1_start_time","phase2_start_time","phase3_start_time","goal_1_value","goal_1_distance","goal_2_value","goal_2_distance","goal_selected","outcome","outcome_total","participant_final_score","participant_initial_score","participant_final_score_prop","goal_choice_rt","allocated_time","allocated_time_remaining","goal_direction","counts","mouse_movements","key_presses","question_order","question_id"
"7506","1752656092331","<p style='font-size:40px;line-height:1.25'><strong>Welcome to the experiment!</strong></p><p style='font-size:1.1em;line-height:1.25'>Thank you for participanting in our experiment again! You will be asked to play the Dysfunctional Ball Game again. We will briefly recap the rules before we start.</p><p style='font-size:1.1em;line-height:1.25'>Press <strong>Next</strong> to continue.</p>","0","custom-html-button-response","0","7508","0.0-0.0","83","1","2025-07-16 08:54:42","1f75c3e559b7213887762d5229550c2b","154.66.155.77","Mozilla/5.0 (Windows NT 10.0; Win64; x64) AppleWebKit/537.36 (KHTML, like Gecko) Chrome/138.0.0.0 Safari/537.36","WebKit","Chrome","138.0.0.0","Windows","10.0","https://app.prolific.com/","en-ZA,en-GB;q=0.9,en-US;q=0.8,en;q=0.7","666408427db5e38fe0ea1736","686e379bc37a29ffa5cdc956","687768940d697f122fba4b8c","1","1","666408427db5e38fe0ea1736","1","1","2025-07-16T08:54:52.332Z","","","","","","","","","","","","","","","","","","","","","","","","","","","","","","","","","","","","","","","","","",""
"21181","","","","fullscreen","1","29698","0.0-1.0","83","1","2025-07-16 08:54:42","1f75c3e559b7213887762d5229550c2b","154.66.155.77","Mozilla/5.0 (Windows NT 10.0; Win64; x64) AppleWebKit/537.36 (KHTML, like Gecko) Chrome/138.0.0.0 Safari/537.36","WebKit","Chrome","138.0.0.0","Windows","10.0","https://app.prolific.com/","en-ZA,en-GB;q=0.9,en-US;q=0.8,en;q=0.7","666408427db5e38fe0ea1736","686e379bc37a29ffa5cdc956","687768940d697f122fba4b8c","1","1","666408427db5e38fe0ea1736","1","1","","true","","","","","","","","","","","","","","","","","","","","","","","","","","","","","","","","","","","","","","","","",""
"4035","1752656118560","<p style='font-size:1.1em;line-height:1.25'>In the following, we will ask you a few questions relating to your feelings in the last 24 hours.<br></p><p style='font-size:1.1em;line-height:1.25'>Press the <strong>Next</strong> button to continue.</p>","0","custom-html-button-response","2","33737","0.0-2.0-0.0","83","1","2025-07-16 08:54:42","1f75c3e559b7213887762d5229550c2b","154.66.155.77","Mozilla/5.0 (Windows NT 10.0; Win64; x64) AppleWebKit/537.36 (KHTML, like Gecko) Chrome/138.0.0.0 Safari/537.36","WebKit","Chrome","138.0.0.0","Windows","10.0","https://app.prolific.com/","en-ZA,en-GB;q=0.9,en-US;q=0.8,en;q=0.7","666408427db5e38fe0ea1736","686e379bc37a29ffa5cdc956","687768940d697f122fba4b8c","1","1","666408427db5e38fe0ea1736","1","1","2025-07-16T08:55:18.561Z","","","","","","","","","","","","","","","","","","","","","","","","","","","","","","","","","","","","","","","","","",""
"111349.89999997616","","","","survey-template","3","145093","0.0-2.0-1.0","83","1","2025-07-16 08:54:42","1f75c3e559b7213887762d5229550c2b","154.66.155.77","Mozilla/5.0 (Windows NT 10.0; Win64; x64) AppleWebKit/537.36 (KHTML, like Gecko) Chrome/138.0.0.0 Safari/537.36","WebKit","Chrome","138.0.0.0","Windows","10.0","https://app.prolific.com/","en-ZA,en-GB;q=0.9,en-US;q=0.8,en;q=0.7","666408427db5e38fe0ea1736","686e379bc37a29ffa5cdc956","687768940d697f122fba4b8c","1","1","666408427db5e38fe0ea1736","1","1","2025-07-16T08:57:09.918Z","","{""Q01"":""0"",""Q02"":""0"",""Q03"":""0"",""Q04"":""1"",""Q05"":""2"",""Q06"":""0"",""Q07"":""0"",""Q08"":""0"",""Q09"":""0"",""Q10"":""0"",""Q11"":""0"",""Q12"":""2"",""Q13"":""5"",""Q14"":""3"",""Q15"":""3"",""Q16"":""3"",""Q17"":""1"",""Q18"":""1"",""Q19"":""3"",""Q20"":""1"",""Q21"":""1"",""Q22"":""1""}","[0,1,2,3,4,5,6,7,8,9,10,11,12,13,14,15,16,17,18,19,20,21]","[""Q01"",""Q01"",""Q02"",""Q03"",""Q04"",""Q05"",""Q06"",""Q07"",""Q08"",""Q09"",""Q10"",""Q11"",""Q12"",""Q12"",""Q12"",""Q13"",""Q14"",""Q15"",""Q16"",""Q17"",""Q18"",""Q19"",""Q20"",""Q21"",""Q22""]","[5914.599999964237,12413.599999964237,15327.899999976158,18782.80000001192,22093.80000001192,24065.30000001192,27350.399999976158,31039.19999998808,35267.09999996424,38403.09999996424,39628.59999996424,43518.69999998808,44742,51270,52635.09999996424,54744.59999996424,63469.39999997616,68240.39999997616,72445.69999998808,77264.69999998808,79824.09999996424,85673.80000001192,91113.30000001192,96332.59999996424,99121.69999998808]","[]","[0,4681.699999988079,5914.599999964237,12413.599999964237,14085.800000011921,15327.899999976158,16840.599999964237,17746.399999976158,18782.80000001192,20254.899999976158,21091.899999976158,22093.80000001192,24065.30000001192,26041.099999964237,27350.399999976158,29383.099999964237,31039.19999998808,35267.09999996424,36734.89999997616,38403.09999996424,39628.59999996424,40780.89999997616,41981.59999996424,43518.69999998808,44742,50178,51270,52635.09999996424,54744.59999996424,60606.59999996424,61870.09999996424,63469.39999997616,68240.39999997616,72445.69999998808,77264.69999998808,79824.09999996424,85673.80000001192,89404.89999997616,91113.30000001192,95081.30000001192,96332.59999996424,97712.89999997616,99121.69999998808,111336.69999998808]","0.4090909090909091","0.09523809523809523","0","drsp","","","","","","","","","","","","","","","","","","","","","","","","","","","","","","",""
"53822.60000002384","","","","survey-template","4","198919","0.0-2.0-2.0","83","1","2025-07-16 08:54:42","1f75c3e559b7213887762d5229550c2b","154.66.155.77","Mozilla/5.0 (Windows NT 10.0; Win64; x64) AppleWebKit/537.36 (KHTML, like Gecko) Chrome/138.0.0.0 Safari/537.36","WebKit","Chrome","138.0.0.0","Windows","10.0","https://app.prolific.com/","en-ZA,en-GB;q=0.9,en-US;q=0.8,en;q=0.7","666408427db5e38fe0ea1736","686e379bc37a29ffa5cdc956","687768940d697f122fba4b8c","1","1","666408427db5e38fe0ea1736","1","1","2025-07-16T08:58:03.743Z","","{""Q01"":""1"",""Q02"":""4"",""Q03"":""1""}","[0,1,2]","[""Q01"",""Q02"",""Q03"",""Q02"",""Q03""]","[4735.700000047684,7944.700000047684,11769,51352.40000003576,52646.40000003576]","[]","[3182.7000000476837,4735.700000047684,7944.700000047684,11769,49357.90000003576,50292.60000002384,51352.40000003576,52646.40000003576,53820.5]","1","0","0","stress","","","","","","","","","","","","","","","","","","","","","","","","","","","","","","",""
"20220","","","","instructions","5","219141","0.0-3.0-0.0","83","1","2025-07-16 08:54:42","1f75c3e559b7213887762d5229550c2b","154.66.155.77","Mozilla/5.0 (Windows NT 10.0; Win64; x64) AppleWebKit/537.36 (KHTML, like Gecko) Chrome/138.0.0.0 Safari/537.36","WebKit","Chrome","138.0.0.0","Windows","10.0","https://app.prolific.com/","en-ZA,en-GB;q=0.9,en-US;q=0.8,en;q=0.7","666408427db5e38fe0ea1736","686e379bc37a29ffa5cdc956","687768940d697f122fba4b8c","1","1","666408427db5e38fe0ea1736","1","1","","","","","","","","","","","","","[{""page_index"":0,""viewing_time"":20219}]","","","","","","","","","","","","","","","","","","","","","","","","","","","","","",""
"7694","","<p>Before you start with this game please answer the following three questions yourself. </p>
  <p>Through this game, we measure several aspects of your cognitive performance, such as reaction times, multi-tasking capabilities </p>
  <p>and the ability to assess the situation you are in.</p>
  <p></p>
  <p><b>How good do you usually are in such tasks?</b></p>","83","html-slider-response","6","226838","0.0-4.0-0.0","83","1","2025-07-16 08:54:42","1f75c3e559b7213887762d5229550c2b","154.66.155.77","Mozilla/5.0 (Windows NT 10.0; Win64; x64) AppleWebKit/537.36 (KHTML, like Gecko) Chrome/138.0.0.0 Safari/537.36","WebKit","Chrome","138.0.0.0","Windows","10.0","https://app.prolific.com/","en-ZA,en-GB;q=0.9,en-US;q=0.8,en;q=0.7","666408427db5e38fe0ea1736","686e379bc37a29ffa5cdc956","687768940d697f122fba4b8c","1","1","666408427db5e38fe0ea1736","1","1","2025-07-16T08:58:31.662Z","","","","","","","","","","","PreSkillQ","","50","","","","","","","","","","","","","","","","","","","","","","","","","","","","",""
"6324","","<div style=""width:500px;"">
  <p>How well do you think you will perform in this task compared to other participants?</p>
  </div>","92","html-slider-response","7","233164","0.0-4.0-1.0","83","1","2025-07-16 08:54:42","1f75c3e559b7213887762d5229550c2b","154.66.155.77","Mozilla/5.0 (Windows NT 10.0; Win64; x64) AppleWebKit/537.36 (KHTML, like Gecko) Chrome/138.0.0.0 Safari/537.36","WebKit","Chrome","138.0.0.0","Windows","10.0","https://app.prolific.com/","en-ZA,en-GB;q=0.9,en-US;q=0.8,en;q=0.7","666408427db5e38fe0ea1736","686e379bc37a29ffa5cdc956","687768940d697f122fba4b8c","1","1","666408427db5e38fe0ea1736","1","1","2025-07-16T08:58:37.988Z","","","","","","","","","","","PrePerfQ","","50","","","","","","","","","","","","","","","","","","","","","","","","","","","","",""
"4692","","<div style=""width:500px;"">
  <p>What best describes how you currently feel?</p>
  </div>","86","html-slider-response","8","237858","0.0-4.0-2.0","83","1","2025-07-16 08:54:42","1f75c3e559b7213887762d5229550c2b","154.66.155.77","Mozilla/5.0 (Windows NT 10.0; Win64; x64) AppleWebKit/537.36 (KHTML, like Gecko) Chrome/138.0.0.0 Safari/537.36","WebKit","Chrome","138.0.0.0","Windows","10.0","https://app.prolific.com/","en-ZA,en-GB;q=0.9,en-US;q=0.8,en;q=0.7","666408427db5e38fe0ea1736","686e379bc37a29ffa5cdc956","687768940d697f122fba4b8c","1","1","666408427db5e38fe0ea1736","1","1","2025-07-16T08:58:42.682Z","","","","","","","","","","","PreMotivationQ","","50","","","","","","","","","","","","","","","","","","","","","","","","","","","","",""
"","","","","ctl-task-cpt","9","269374","0.0-5.0-0.0","83","1","2025-07-16 08:54:42","1f75c3e559b7213887762d5229550c2b","154.66.155.77","Mozilla/5.0 (Windows NT 10.0; Win64; x64) AppleWebKit/537.36 (KHTML, like Gecko) Chrome/138.0.0.0 Safari/537.36","WebKit","Chrome","138.0.0.0","Windows","10.0","https://app.prolific.com/","en-ZA,en-GB;q=0.9,en-US;q=0.8,en;q=0.7","666408427db5e38fe0ea1736","686e379bc37a29ffa5cdc956","687768940d697f122fba4b8c","1","1","666408427db5e38fe0ea1736","1","1","2025-07-16T08:59:14.198Z","","","","","","","","","","","","","","win-only","0","g1:NW,g2:SE","1","1","0","240549.5","3288.4","8291.4","28509.8","1","4","8","6","2","-8","-8","0","0","0","5002.8","3000","-3000","[""down"",""right""]","{""num_key_presses"":5,""num_perfect"":5,""num_errors"":0,""num_randdir"":0,""num_randdir_good_moves"":0,""num_whilered"":0,""num_whileblue"":0,""num_blue"":1,""num_good_moves"":5}","[292.22232142857143,300.12857142857143,0.4,292.22232142857143,300.12857142857143,103.9,292.22232142857143,300.12857142857143,206.9,292.22232142857143,300.12857142857143,308.2,292.22232142857143,300.12857142857143,408.3,292.22232142857143,300.12857142857143,512.7,292.22232142857143,300.12857142857143,613.1,292.22232142857143,300.12857142857143,717.4,292.22232142857143,300.12857142857143,822.5,292.22232142857143,300.12857142857143,922.5,292.22232142857143,300.12857142857143,1027.8,292.22232142857143,300.12857142857143,1132.6,292.22232142857143,300.12857142857143,1232.8,292.22232142857143,300.12857142857143,1332.9,292.22232142857143,300.12857142857143,1439,292.22232142857143,300.12857142857143,1542.6,292.22232142857143,300.12857142857143,1642.9,292.22232142857143,300.12857142857143,1748.2,292.22232142857143,300.12857142857143,1852.6,292.22232142857143,300.12857142857143,1958.1,292.22232142857143,300.12857142857143,2062.8,292.22232142857143,300.12857142857143,2162.8,292.22232142857143,300.12857142857143,2262.8,292.22232142857143,300.12857142857143,2362.9,292.22232142857143,300.12857142857143,2467.7,292.22232142857143,300.12857142857143,2572.9,292.22232142857143,300.12857142857143,2674.3,292.22232142857143,300.12857142857143,2778.2,292.22232142857143,300.12857142857143,2882.6,292.22232142857143,300.12857142857143,2987.8,292.22232142857143,300.12857142857143,3088.4,292.22232142857143,300.12857142857143,3188.8,292.22232142857143,300.12857142857143,3293,292.22232142857143,300.12857142857143,3397.6,292.22232142857143,300.12857142857143,3498,292.22232142857143,300.12857142857143,3598.1,292.22232142857143,300.12857142857143,3701.9,292.22232142857143,300.12857142857143,3802.1,292.22232142857143,300.12857142857143,3907.6,292.22232142857143,300.12857142857143,4008.5,292.22232142857143,300.12857142857143,4113,292.22232142857143,300.12857142857143,4218.2,292.22232142857143,300.12857142857143,4318.3,292.22232142857143,300.12857142857143,4423.1,292.22232142857143,300.12857142857143,4528.4,292.22232142857143,300.12857142857143,4633,292.22232142857143,300.12857142857143,4737.1,292.22232142857143,300.12857142857143,4838.8,292.22232142857143,300.12857142857143,4943.5]","[1535.5,1535.5,1000,0,535.5,""smooth"",""right"",""right"",""good_move"",8405.9,6869.6,2451,5369.9,585,""smooth"",""right"",""right"",""good_move"",11617.3,3211.2,2206.3,8406.1,1004.9,""smooth"",""down"",""down"",""good_move"",14394.3,2776.8,2335,11617.5,441.8,""smooth"",""right"",""right"",""good_move"",16972.1,2577.7,2191.6,14394.4,386.1,""smooth"",""down"",""down"",""good_move""]","",""
"5205","","<div style=""width:500px;"">
  <p>What determined the result of this run?</p>
  </div>","30","html-slider-response","10","274580","0.0-5.0-1.0","83","1","2025-07-16 08:54:42","1f75c3e559b7213887762d5229550c2b","154.66.155.77","Mozilla/5.0 (Windows NT 10.0; Win64; x64) AppleWebKit/537.36 (KHTML, like Gecko) Chrome/138.0.0.0 Safari/537.36","WebKit","Chrome","138.0.0.0","Windows","10.0","https://app.prolific.com/","en-ZA,en-GB;q=0.9,en-US;q=0.8,en;q=0.7","666408427db5e38fe0ea1736","686e379bc37a29ffa5cdc956","687768940d697f122fba4b8c","1","1","666408427db5e38fe0ea1736","1","1","2025-07-16T08:59:19.404Z","","","","","","","","","","","AttribQ","","50","","","","","","","","","","","","","","","","","","","","","","","","","","","","",""
"4098","","<div style=""width:500px;"">
  <p>How much control did you have over the ball?</p>
  </div>","74","html-slider-response","11","278681","0.0-5.0-2.0","83","1","2025-07-16 08:54:42","1f75c3e559b7213887762d5229550c2b","154.66.155.77","Mozilla/5.0 (Windows NT 10.0; Win64; x64) AppleWebKit/537.36 (KHTML, like Gecko) Chrome/138.0.0.0 Safari/537.36","WebKit","Chrome","138.0.0.0","Windows","10.0","https://app.prolific.com/","en-ZA,en-GB;q=0.9,en-US;q=0.8,en;q=0.7","666408427db5e38fe0ea1736","686e379bc37a29ffa5cdc956","687768940d697f122fba4b8c","1","1","666408427db5e38fe0ea1736","1","1","2025-07-16T08:59:23.505Z","","","","","","","","","","","ControlQ","","50","","","","","","","","","","","","","","","","","","","","","","","","","","","","",""
"3620","","<div style=""width:500px;"">
  <p>How would you describe your current emotional state?</p>
  </div>","76","html-slider-response","12","282303","0.0-5.0-3.0","83","1","2025-07-16 08:54:42","1f75c3e559b7213887762d5229550c2b","154.66.155.77","Mozilla/5.0 (Windows NT 10.0; Win64; x64) AppleWebKit/537.36 (KHTML, like Gecko) Chrome/138.0.0.0 Safari/537.36","WebKit","Chrome","138.0.0.0","Windows","10.0","https://app.prolific.com/","en-ZA,en-GB;q=0.9,en-US;q=0.8,en;q=0.7","666408427db5e38fe0ea1736","686e379bc37a29ffa5cdc956","687768940d697f122fba4b8c","1","1","666408427db5e38fe0ea1736","1","1","2025-07-16T08:59:27.128Z","","","","","","","","","","","StressQ","","50","","","","","","","","","","","","","","","","","","","","","","","","","","","","",""
"4107","","<div style=""width:500px;"">
  <p>What best describes how you currently feel?</p>
  </div>","69","html-slider-response","13","286413","0.0-5.0-4.0","83","1","2025-07-16 08:54:42","1f75c3e559b7213887762d5229550c2b","154.66.155.77","Mozilla/5.0 (Windows NT 10.0; Win64; x64) AppleWebKit/537.36 (KHTML, like Gecko) Chrome/138.0.0.0 Safari/537.36","WebKit","Chrome","138.0.0.0","Windows","10.0","https://app.prolific.com/","en-ZA,en-GB;q=0.9,en-US;q=0.8,en;q=0.7","666408427db5e38fe0ea1736","686e379bc37a29ffa5cdc956","687768940d697f122fba4b8c","1","1","666408427db5e38fe0ea1736","1","1","2025-07-16T08:59:31.237Z","","","","","","","","","","","MotivationQ","","50","","","","","","","","","","","","","","","","","","","","","","","","","","","","",""
"","","","","ctl-task-cpt","14","314786","0.0-5.0-0.1","83","1","2025-07-16 08:54:42","1f75c3e559b7213887762d5229550c2b","154.66.155.77","Mozilla/5.0 (Windows NT 10.0; Win64; x64) AppleWebKit/537.36 (KHTML, like Gecko) Chrome/138.0.0.0 Safari/537.36","WebKit","Chrome","138.0.0.0","Windows","10.0","https://app.prolific.com/","en-ZA,en-GB;q=0.9,en-US;q=0.8,en;q=0.7","666408427db5e38fe0ea1736","686e379bc37a29ffa5cdc956","687768940d697f122fba4b8c","1","1","666408427db5e38fe0ea1736","1","1","2025-07-16T08:59:59.610Z","","","","","","","","","","","","","","win-only","3","g1:SW,g2:NE","0.9","2","0","289103.9","4309.3","9311","25360.7","1","4","4","6","2","4","4","4","0","0.030303030303030304","4499.2","3000","740","[""up"",""right""]","{""num_key_presses"":6,""num_perfect"":6,""num_errors"":0,""num_randdir"":0,""num_randdir_good_moves"":0,""num_whilered"":0,""num_whileblue"":0,""num_blue"":0,""num_good_moves"":6}","[297.22232142857143,294.12857142857143,0.2,297.22232142857143,294.12857142857143,101.2,297.22232142857143,294.12857142857143,201.4,297.22232142857143,294.12857142857143,306.5,297.22232142857143,294.12857142857143,406.6,297.22232142857143,294.12857142857143,507.4,297.22232142857143,294.12857142857143,607.5,297.22232142857143,294.12857142857143,711.2,297.22232142857143,294.12857142857143,816.4,297.22232142857143,294.12857142857143,916.5,297.22232142857143,294.12857142857143,1016.7,297.22232142857143,294.12857142857143,1116.8,297.22232142857143,294.12857142857143,1217,297.22232142857143,294.12857142857143,1322,297.22232142857143,294.12857142857143,1426,297.22232142857143,294.12857142857143,1526.3,297.22232142857143,294.12857142857143,1627.5,297.22232142857143,294.12857142857143,1731,297.22232142857143,294.12857142857143,1831.4,297.22232142857143,294.12857142857143,1931.6,297.22232142857143,294.12857142857143,2036.6,297.22232142857143,294.12857142857143,2137.2,297.22232142857143,294.12857142857143,2241.4,297.22232142857143,294.12857142857143,2341.9,297.22232142857143,294.12857142857143,2446.5,297.22232142857143,294.12857142857143,2552.1,297.22232142857143,294.12857142857143,2652.1,297.22232142857143,294.12857142857143,2752.1,297.22232142857143,294.12857142857143,2857,297.22232142857143,294.12857142857143,2957.5,297.22232142857143,294.12857142857143,3061.4,297.22232142857143,294.12857142857143,3161.9,297.22232142857143,294.12857142857143,3267.3,297.22232142857143,294.12857142857143,3372.3,303.22232142857143,281.12857142857143,3477.4,404.22232142857143,136.12857142857143,3577.4,492.22232142857143,4.128571428571426,3680.9,500.22232142857143,-8.871428571428574,3783.2,504.22232142857143,5.128571428571426,3886.4,555.2223214285714,56.128571428571426,3986.6,570.2223214285714,70.12857142857143,4087.3,569.2223214285714,67.12857142857143,4192.1,569.2223214285714,67.12857142857143,4292.1,569.2223214285714,67.12857142857143,4392.2,569.2223214285714,67.12857142857143,4492.6,569.2223214285714,67.12857142857143,4596.2,569.2223214285714,67.12857142857143,4702.4,569.2223214285714,67.12857142857143,4806.6,569.2223214285714,67.12857142857143,4906.6]","[1485.2,1485.1,1000,0.1,485.1,""smooth"",""up"",""up"",""good_move"",4504.8,3019.3,2633.3,1485.5,386,""smooth"",""right"",""right"",""good_move"",7167.4,2662.3,2272.8,4505.1,389.5,""smooth"",""up"",""up"",""good_move"",10468.5,3300.8,2959.3,7167.7,341.5,""smooth"",""right"",""right"",""good_move"",13778.4,3309.7,2994.1,10468.7,315.6,""smooth"",""right"",""right"",""good_move"",15961.3,2182.5,1802.5,13778.8,380,""smooth"",""up"",""up"",""good_move""]","",""
"4523","","<div style=""width:500px;"">
  <p>What determined the result of this run?</p>
  </div>","94","html-slider-response","15","319311","0.0-5.0-1.1","83","1","2025-07-16 08:54:42","1f75c3e559b7213887762d5229550c2b","154.66.155.77","Mozilla/5.0 (Windows NT 10.0; Win64; x64) AppleWebKit/537.36 (KHTML, like Gecko) Chrome/138.0.0.0 Safari/537.36","WebKit","Chrome","138.0.0.0","Windows","10.0","https://app.prolific.com/","en-ZA,en-GB;q=0.9,en-US;q=0.8,en;q=0.7","666408427db5e38fe0ea1736","686e379bc37a29ffa5cdc956","687768940d697f122fba4b8c","1","1","666408427db5e38fe0ea1736","1","1","2025-07-16T09:00:04.135Z","","","","","","","","","","","AttribQ","","50","","","","","","","","","","","","","","","","","","","","","","","","","","","","",""
"3802","","<div style=""width:500px;"">
  <p>How much control did you have over the ball?</p>
  </div>","98","html-slider-response","16","323115","0.0-5.0-2.1","83","1","2025-07-16 08:54:42","1f75c3e559b7213887762d5229550c2b","154.66.155.77","Mozilla/5.0 (Windows NT 10.0; Win64; x64) AppleWebKit/537.36 (KHTML, like Gecko) Chrome/138.0.0.0 Safari/537.36","WebKit","Chrome","138.0.0.0","Windows","10.0","https://app.prolific.com/","en-ZA,en-GB;q=0.9,en-US;q=0.8,en;q=0.7","666408427db5e38fe0ea1736","686e379bc37a29ffa5cdc956","687768940d697f122fba4b8c","1","1","666408427db5e38fe0ea1736","1","1","2025-07-16T09:00:07.939Z","","","","","","","","","","","ControlQ","","50","","","","","","","","","","","","","","","","","","","","","","","","","","","","",""
"5470","","<div style=""width:500px;"">
  <p>How would you describe your current emotional state?</p>
  </div>","25","html-slider-response","17","328586","0.0-5.0-3.1","83","1","2025-07-16 08:54:42","1f75c3e559b7213887762d5229550c2b","154.66.155.77","Mozilla/5.0 (Windows NT 10.0; Win64; x64) AppleWebKit/537.36 (KHTML, like Gecko) Chrome/138.0.0.0 Safari/537.36","WebKit","Chrome","138.0.0.0","Windows","10.0","https://app.prolific.com/","en-ZA,en-GB;q=0.9,en-US;q=0.8,en;q=0.7","666408427db5e38fe0ea1736","686e379bc37a29ffa5cdc956","687768940d697f122fba4b8c","1","1","666408427db5e38fe0ea1736","1","1","2025-07-16T09:00:13.410Z","","","","","","","","","","","StressQ","","50","","","","","","","","","","","","","","","","","","","","","","","","","","","","",""
"3295","","<div style=""width:500px;"">
  <p>What best describes how you currently feel?</p>
  </div>","100","html-slider-response","18","331882","0.0-5.0-4.1","83","1","2025-07-16 08:54:42","1f75c3e559b7213887762d5229550c2b","154.66.155.77","Mozilla/5.0 (Windows NT 10.0; Win64; x64) AppleWebKit/537.36 (KHTML, like Gecko) Chrome/138.0.0.0 Safari/537.36","WebKit","Chrome","138.0.0.0","Windows","10.0","https://app.prolific.com/","en-ZA,en-GB;q=0.9,en-US;q=0.8,en;q=0.7","666408427db5e38fe0ea1736","686e379bc37a29ffa5cdc956","687768940d697f122fba4b8c","1","1","666408427db5e38fe0ea1736","1","1","2025-07-16T09:00:16.706Z","","","","","","","","","","","MotivationQ","","50","","","","","","","","","","","","","","","","","","","","","","","","","","","","",""
"","","","","ctl-task-cpt","19","359336","0.0-5.0-0.2","83","1","2025-07-16 08:54:42","1f75c3e559b7213887762d5229550c2b","154.66.155.77","Mozilla/5.0 (Windows NT 10.0; Win64; x64) AppleWebKit/537.36 (KHTML, like Gecko) Chrome/138.0.0.0 Safari/537.36","WebKit","Chrome","138.0.0.0","Windows","10.0","https://app.prolific.com/","en-ZA,en-GB;q=0.9,en-US;q=0.8,en;q=0.7","666408427db5e38fe0ea1736","686e379bc37a29ffa5cdc956","687768940d697f122fba4b8c","1","1","666408427db5e38fe0ea1736","1","1","2025-07-16T09:00:44.160Z","","","","","","","","","","","","","","win-only","0","g1:NW,g2:SE","0.8","3","0","334573.4","3299.2","8301.1","24445.8","1","4","4","6","2","4","4","8","4","0.06060606060606061","3101.7","3000","665","[""down"",""right""]","{""num_key_presses"":6,""num_perfect"":4,""num_errors"":0,""num_randdir"":2,""num_randdir_good_moves"":2,""num_whilered"":0,""num_whileblue"":0,""num_blue"":0,""num_good_moves"":6}","[292.22232142857143,303.12857142857143,0.2,292.22232142857143,303.12857142857143,101.7,292.22232142857143,303.12857142857143,203,292.22232142857143,303.12857142857143,306.9,292.22232142857143,303.12857142857143,407.4,292.22232142857143,303.12857142857143,507.4,292.22232142857143,303.12857142857143,608.2,292.22232142857143,303.12857142857143,712.5,292.22232142857143,303.12857142857143,812.6,292.22232142857143,303.12857142857143,917.1,292.22232142857143,303.12857142857143,1018.4,292.22232142857143,303.12857142857143,1124.2,292.22232142857143,303.12857142857143,1227.1,292.22232142857143,303.12857142857143,1327.5,292.22232142857143,303.12857142857143,1427.5,292.22232142857143,303.12857142857143,1532.5,292.22232142857143,303.12857142857143,1632.5,292.22232142857143,303.12857142857143,1737,292.22232142857143,303.12857142857143,1838.7,292.22232142857143,303.12857142857143,1942.7,292.22232142857143,303.12857142857143,2047.3,292.22232142857143,303.12857142857143,2147.5,438.22232142857143,383.12857142857143,2251.3,501.22232142857143,422.12857142857143,2351.9,552.2223214285714,457.12857142857143,2452.1,560.2223214285714,493.12857142857143,2557.1,559.2223214285714,510.12857142857143,2662.3,534.2223214285714,551.1285714285714,2767.4,534.2223214285714,551.1285714285714,2867.9,534.2223214285714,551.1285714285714,2967.9,534.2223214285714,551.1285714285714,3073.7,534.2223214285714,551.1285714285714,3177.1,534.2223214285714,551.1285714285714,3278.1,534.2223214285714,551.1285714285714,3382.6,534.2223214285714,551.1285714285714,3486.6,534.2223214285714,551.1285714285714,3586.6,534.2223214285714,551.1285714285714,3687.8,534.2223214285714,551.1285714285714,3792.4,534.2223214285714,551.1285714285714,3892.4,534.2223214285714,551.1285714285714,3995,534.2223214285714,551.1285714285714,4097.1,534.2223214285714,551.1285714285714,4197.5,534.2223214285714,551.1285714285714,4301.2,534.2223214285714,551.1285714285714,4401.7,534.2223214285714,551.1285714285714,4507.1,534.2223214285714,551.1285714285714,4612.6,534.2223214285714,551.1285714285714,4717.4,534.2223214285714,551.1285714285714,4817.4,534.2223214285714,551.1285714285714,4922.9]","[1370.7,1370.7,1000,0,370.7,""oops"",""down"",""right"",""good_move"",4110.7,2739.6,2157.6,1371.1,582,""smooth"",""down"",""down"",""good_move"",7322.4,3211.5,2832.3,4110.9,379.2,""oops"",""right"",""right"",""good_move"",10334.3,3011.6,2659.8,7322.7,351.8,""smooth"",""down"",""down"",""good_move"",13064.5,2730,2379.6,10334.5,350.4,""smooth"",""right"",""right"",""good_move"",16060.8,2996.1,2666.1,13064.7,330,""smooth"",""down"",""down"",""good_move""]","",""
"4659","","<div style=""width:500px;"">
  <p>What determined the result of this run?</p>
  </div>","93","html-slider-response","20","363997","0.0-5.0-1.2","83","1","2025-07-16 08:54:42","1f75c3e559b7213887762d5229550c2b","154.66.155.77","Mozilla/5.0 (Windows NT 10.0; Win64; x64) AppleWebKit/537.36 (KHTML, like Gecko) Chrome/138.0.0.0 Safari/537.36","WebKit","Chrome","138.0.0.0","Windows","10.0","https://app.prolific.com/","en-ZA,en-GB;q=0.9,en-US;q=0.8,en;q=0.7","666408427db5e38fe0ea1736","686e379bc37a29ffa5cdc956","687768940d697f122fba4b8c","1","1","666408427db5e38fe0ea1736","1","1","2025-07-16T09:00:48.821Z","","","","","","","","","","","AttribQ","","50","","","","","","","","","","","","","","","","","","","","","","","","","","","","",""
"3348","","<div style=""width:500px;"">
  <p>How much control did you have over the ball?</p>
  </div>","100","html-slider-response","21","367346","0.0-5.0-2.2","83","1","2025-07-16 08:54:42","1f75c3e559b7213887762d5229550c2b","154.66.155.77","Mozilla/5.0 (Windows NT 10.0; Win64; x64) AppleWebKit/537.36 (KHTML, like Gecko) Chrome/138.0.0.0 Safari/537.36","WebKit","Chrome","138.0.0.0","Windows","10.0","https://app.prolific.com/","en-ZA,en-GB;q=0.9,en-US;q=0.8,en;q=0.7","666408427db5e38fe0ea1736","686e379bc37a29ffa5cdc956","687768940d697f122fba4b8c","1","1","666408427db5e38fe0ea1736","1","1","2025-07-16T09:00:52.171Z","","","","","","","","","","","ControlQ","","50","","","","","","","","","","","","","","","","","","","","","","","","","","","","",""
"3218","","<div style=""width:500px;"">
  <p>How would you describe your current emotional state?</p>
  </div>","21","html-slider-response","22","370566","0.0-5.0-3.2","83","1","2025-07-16 08:54:42","1f75c3e559b7213887762d5229550c2b","154.66.155.77","Mozilla/5.0 (Windows NT 10.0; Win64; x64) AppleWebKit/537.36 (KHTML, like Gecko) Chrome/138.0.0.0 Safari/537.36","WebKit","Chrome","138.0.0.0","Windows","10.0","https://app.prolific.com/","en-ZA,en-GB;q=0.9,en-US;q=0.8,en;q=0.7","666408427db5e38fe0ea1736","686e379bc37a29ffa5cdc956","687768940d697f122fba4b8c","1","1","666408427db5e38fe0ea1736","1","1","2025-07-16T09:00:55.390Z","","","","","","","","","","","StressQ","","50","","","","","","","","","","","","","","","","","","","","","","","","","","","","",""
"4674","","<div style=""width:500px;"">
  <p>What best describes how you currently feel?</p>
  </div>","81","html-slider-response","23","375241","0.0-5.0-4.2","83","1","2025-07-16 08:54:42","1f75c3e559b7213887762d5229550c2b","154.66.155.77","Mozilla/5.0 (Windows NT 10.0; Win64; x64) AppleWebKit/537.36 (KHTML, like Gecko) Chrome/138.0.0.0 Safari/537.36","WebKit","Chrome","138.0.0.0","Windows","10.0","https://app.prolific.com/","en-ZA,en-GB;q=0.9,en-US;q=0.8,en;q=0.7","666408427db5e38fe0ea1736","686e379bc37a29ffa5cdc956","687768940d697f122fba4b8c","1","1","666408427db5e38fe0ea1736","1","1","2025-07-16T09:01:00.065Z","","","","","","","","","","","MotivationQ","","50","","","","","","","","","","","","","","","","","","","","","","","","","","","","",""
"","","","","ctl-task-cpt","24","410083","0.0-5.0-0.3","83","1","2025-07-16 08:54:42","1f75c3e559b7213887762d5229550c2b","154.66.155.77","Mozilla/5.0 (Windows NT 10.0; Win64; x64) AppleWebKit/537.36 (KHTML, like Gecko) Chrome/138.0.0.0 Safari/537.36","WebKit","Chrome","138.0.0.0","Windows","10.0","https://app.prolific.com/","en-ZA,en-GB;q=0.9,en-US;q=0.8,en;q=0.7","666408427db5e38fe0ea1736","686e379bc37a29ffa5cdc956","687768940d697f122fba4b8c","1","1","666408427db5e38fe0ea1736","1","1","2025-07-16T09:01:34.907Z","","","","","","","","","","","","","","win-only","3","g1:SW,g2:NE","0.7","4","0","377932.1","2211.3","7214.2","31823.8","1","4","8","6","1","-1","-1","7","8","0.05303030303030303","5002.8","3000","-2710","[""down"",""left""]","{""num_key_presses"":8,""num_perfect"":6,""num_errors"":0,""num_randdir"":2,""num_randdir_good_moves"":0,""num_whilered"":0,""num_whileblue"":0,""num_blue"":0,""num_good_moves"":5}","[299.22232142857143,302.12857142857143,0.2,299.22232142857143,302.12857142857143,101.6,299.22232142857143,302.12857142857143,205.4,299.22232142857143,302.12857142857143,309.9,299.22232142857143,302.12857142857143,417.9,299.22232142857143,302.12857142857143,518.4,299.22232142857143,302.12857142857143,619.4,299.22232142857143,302.12857142857143,719.7,299.22232142857143,302.12857142857143,825.2,299.22232142857143,302.12857142857143,926,299.22232142857143,302.12857142857143,1034.7,299.22232142857143,302.12857142857143,1135.3,299.22232142857143,302.12857142857143,1239.7,380.22232142857143,210.12857142857143,1345.2,507.22232142857143,12.128571428571426,1452.4,519.2223214285714,-7.871428571428574,1555.3,520.2223214285714,-7.871428571428574,1655.9,523.2223214285714,-8.871428571428574,1759.6,523.2223214285714,-8.871428571428574,1860.4,523.2223214285714,-8.871428571428574,1968.4,523.2223214285714,-8.871428571428574,2068.7,523.2223214285714,-8.871428571428574,2168.9,523.2223214285714,-8.871428571428574,2268.9,523.2223214285714,-8.871428571428574,2370.1,523.2223214285714,-8.871428571428574,2470.1,523.2223214285714,-8.871428571428574,2574.1,523.2223214285714,-8.871428571428574,2674.2,523.2223214285714,-8.871428571428574,2775.2,523.2223214285714,-8.871428571428574,2875.4,523.2223214285714,-8.871428571428574,2975.9,523.2223214285714,-8.871428571428574,3080.1,523.2223214285714,-8.871428571428574,3185.6,523.2223214285714,-8.871428571428574,3290.4,523.2223214285714,-8.871428571428574,3395.2,523.2223214285714,-8.871428571428574,3501.6,523.2223214285714,-8.871428571428574,3602.6,523.2223214285714,-8.871428571428574,3704.2,523.2223214285714,-8.871428571428574,3805.4,523.2223214285714,-8.871428571428574,3910.2,523.2223214285714,-8.871428571428574,4010.2,523.2223214285714,-8.871428571428574,4110.5,523.2223214285714,-8.871428571428574,4219.4,523.2223214285714,-8.871428571428574,4325.2,523.2223214285714,-8.871428571428574,4425.4,523.2223214285714,-8.871428571428574,4529.8,523.2223214285714,-8.871428571428574,4629.9,523.2223214285714,-8.871428571428574,4730.2,523.2223214285714,-8.871428571428574,4830.4,523.2223214285714,-8.871428571428574,4934.4]","[1386.9,1386.9,1000,0,387,""smooth"",""up"",""up"",""bad_move"",4467.7,3080.5,2564.6,1387.2,515.9,""smooth"",""down"",""down"",""good_move"",7219,2751,2307.3,4468,443.7,""smooth"",""down"",""down"",""good_move"",10153.1,2934,2526.2,7219.2,407.7,""smooth"",""left"",""left"",""good_move"",12787.4,2634.1,2233.5,10153.3,400.6,""smooth"",""down"",""down"",""good_move"",16377.4,3589.9,3189.3,12787.5,400.6,""oops"",""left"",""right"",""bad_move"",19149.2,2771.6,2387.6,16377.6,384,""oops"",""left"",""right"",""bad_move"",22590.4,3441,3072.5,19149.4,368.5,""smooth"",""left"",""left"",""good_move""]","",""
"6392","","<div style=""width:500px;"">
  <p>What determined the result of this run?</p>
  </div>","43","html-slider-response","25","416477","0.0-5.0-1.3","83","1","2025-07-16 08:54:42","1f75c3e559b7213887762d5229550c2b","154.66.155.77","Mozilla/5.0 (Windows NT 10.0; Win64; x64) AppleWebKit/537.36 (KHTML, like Gecko) Chrome/138.0.0.0 Safari/537.36","WebKit","Chrome","138.0.0.0","Windows","10.0","https://app.prolific.com/","en-ZA,en-GB;q=0.9,en-US;q=0.8,en;q=0.7","666408427db5e38fe0ea1736","686e379bc37a29ffa5cdc956","687768940d697f122fba4b8c","1","1","666408427db5e38fe0ea1736","1","1","2025-07-16T09:01:41.301Z","","","","","","","","","","","AttribQ","","50","","","","","","","","","","","","","","","","","","","","","","","","","","","","",""
"4234","","<div style=""width:500px;"">
  <p>How much control did you have over the ball?</p>
  </div>","55","html-slider-response","26","420711","0.0-5.0-2.3","83","1","2025-07-16 08:54:42","1f75c3e559b7213887762d5229550c2b","154.66.155.77","Mozilla/5.0 (Windows NT 10.0; Win64; x64) AppleWebKit/537.36 (KHTML, like Gecko) Chrome/138.0.0.0 Safari/537.36","WebKit","Chrome","138.0.0.0","Windows","10.0","https://app.prolific.com/","en-ZA,en-GB;q=0.9,en-US;q=0.8,en;q=0.7","666408427db5e38fe0ea1736","686e379bc37a29ffa5cdc956","687768940d697f122fba4b8c","1","1","666408427db5e38fe0ea1736","1","1","2025-07-16T09:01:45.535Z","","","","","","","","","","","ControlQ","","50","","","","","","","","","","","","","","","","","","","","","","","","","","","","",""
"3256","","<div style=""width:500px;"">
  <p>How would you describe your current emotional state?</p>
  </div>","77","html-slider-response","27","423968","0.0-5.0-3.3","83","1","2025-07-16 08:54:42","1f75c3e559b7213887762d5229550c2b","154.66.155.77","Mozilla/5.0 (Windows NT 10.0; Win64; x64) AppleWebKit/537.36 (KHTML, like Gecko) Chrome/138.0.0.0 Safari/537.36","WebKit","Chrome","138.0.0.0","Windows","10.0","https://app.prolific.com/","en-ZA,en-GB;q=0.9,en-US;q=0.8,en;q=0.7","666408427db5e38fe0ea1736","686e379bc37a29ffa5cdc956","687768940d697f122fba4b8c","1","1","666408427db5e38fe0ea1736","1","1","2025-07-16T09:01:48.792Z","","","","","","","","","","","StressQ","","50","","","","","","","","","","","","","","","","","","","","","","","","","","","","",""
"54634","","<div style=""width:500px;"">
  <p>What best describes how you currently feel?</p>
  </div>","50","html-slider-response","28","478602","0.0-5.0-4.3","83","1","2025-07-16 08:54:42","1f75c3e559b7213887762d5229550c2b","154.66.155.77","Mozilla/5.0 (Windows NT 10.0; Win64; x64) AppleWebKit/537.36 (KHTML, like Gecko) Chrome/138.0.0.0 Safari/537.36","WebKit","Chrome","138.0.0.0","Windows","10.0","https://app.prolific.com/","en-ZA,en-GB;q=0.9,en-US;q=0.8,en;q=0.7","666408427db5e38fe0ea1736","686e379bc37a29ffa5cdc956","687768940d697f122fba4b8c","1","1","666408427db5e38fe0ea1736","1","1","2025-07-16T09:02:43.426Z","","","","","","","","","","","MotivationQ","","50","","","","","","","","","","","","","","","","","","","","","","","","","","","","",""
"","","","","ctl-task-cpt","29","522089","0.0-5.0-0.4","83","1","2025-07-16 08:54:42","1f75c3e559b7213887762d5229550c2b","154.66.155.77","Mozilla/5.0 (Windows NT 10.0; Win64; x64) AppleWebKit/537.36 (KHTML, like Gecko) Chrome/138.0.0.0 Safari/537.36","WebKit","Chrome","138.0.0.0","Windows","10.0","https://app.prolific.com/","en-ZA,en-GB;q=0.9,en-US;q=0.8,en;q=0.7","666408427db5e38fe0ea1736","686e379bc37a29ffa5cdc956","687768940d697f122fba4b8c","1","1","666408427db5e38fe0ea1736","1","1","2025-07-16T09:03:26.914Z","","","","","","","","","","","","","","win-only","2","g1:SE,g2:NW","0.6","5","0","481293.7","5911","10916.9","40466.3","1","4","8","6","2","-8","-8","0","7","0","2081.9","3000","-3005","[""left"",""up""]","{""num_key_presses"":6,""num_perfect"":3,""num_errors"":0,""num_randdir"":3,""num_randdir_good_moves"":2,""num_whilered"":0,""num_whileblue"":0,""num_blue"":3,""num_good_moves"":5}","[295.22232142857143,304.12857142857143,0.2,295.22232142857143,304.12857142857143,110.1,295.22232142857143,304.12857142857143,214.5,295.22232142857143,304.12857142857143,320.5,295.22232142857143,304.12857142857143,425.5,295.22232142857143,304.12857142857143,529.2,295.22232142857143,304.12857142857143,632.4,295.22232142857143,304.12857142857143,735.4,295.22232142857143,304.12857142857143,836.3,295.22232142857143,304.12857142857143,940.4,295.22232142857143,304.12857142857143,1045.2,295.22232142857143,304.12857142857143,1145.8,256.22232142857143,289.12857142857143,1250.7,158.22232142857143,122.12857142857143,1354.8,117.22232142857143,66.12857142857143,1455.3,57.222321428571426,-9.871428571428574,1560.1,55.222321428571426,-8.871428571428574,1660.5,51.222321428571426,1.1285714285714263,1764.5,53.222321428571426,28.128571428571426,1866,53.222321428571426,30.128571428571426,1969.4,53.222321428571426,30.128571428571426,2070.6,53.222321428571426,30.128571428571426,2177.9,53.222321428571426,30.128571428571426,2282.7,53.222321428571426,30.128571428571426,2385.2,53.222321428571426,30.128571428571426,2490.2,53.222321428571426,30.128571428571426,2594.4,53.222321428571426,30.128571428571426,2694.5,53.222321428571426,30.128571428571426,2794.5,53.222321428571426,30.128571428571426,2894.5,53.222321428571426,30.128571428571426,3000.8,53.222321428571426,30.128571428571426,3105.2,53.222321428571426,30.128571428571426,3205.6,53.222321428571426,30.128571428571426,3310.6,53.222321428571426,30.128571428571426,3416.2,53.222321428571426,30.128571428571426,3520.2,53.222321428571426,30.128571428571426,3625,53.222321428571426,30.128571428571426,3725.4,53.222321428571426,30.128571428571426,3830.3,53.222321428571426,30.128571428571426,3934.3,53.222321428571426,30.128571428571426,4035.2,53.222321428571426,30.128571428571426,4135.5,53.222321428571426,30.128571428571426,4240.3,53.222321428571426,30.128571428571426,4340.4,53.222321428571426,30.128571428571426,4444.8,53.222321428571426,30.128571428571426,4544.8,53.222321428571426,30.128571428571426,4644.8,53.222321428571426,30.128571428571426,4750.1,53.222321428571426,30.128571428571426,4855.1,53.222321428571426,30.128571428571426,4960.3]","[1437.5,1437.4,1000,0.1,437.4,""oops"",""left"",""left"",""good_move"",6987.1,5549.3,1788.2,4743.6,455.3,""smooth"",""up"",""up"",""good_move"",9822.6,2835.2,2368.7,6987.4,466.5,""oops"",""left"",""up"",""good_move"",16815,6992.3,2533.6,13775,506.5,""oops"",""up"",""right"",""bad_move"",19615.6,2800.4,2115.6,16815.2,684.8,""smooth"",""left"",""left"",""good_move"",26588,6972,3165.6,23020.9,401.5,""smooth"",""left"",""left"",""good_move""]","",""
"5182","","<div style=""width:500px;"">
  <p>What determined the result of this run?</p>
  </div>","92","html-slider-response","30","527272","0.0-5.0-1.4","83","1","2025-07-16 08:54:42","1f75c3e559b7213887762d5229550c2b","154.66.155.77","Mozilla/5.0 (Windows NT 10.0; Win64; x64) AppleWebKit/537.36 (KHTML, like Gecko) Chrome/138.0.0.0 Safari/537.36","WebKit","Chrome","138.0.0.0","Windows","10.0","https://app.prolific.com/","en-ZA,en-GB;q=0.9,en-US;q=0.8,en;q=0.7","666408427db5e38fe0ea1736","686e379bc37a29ffa5cdc956","687768940d697f122fba4b8c","1","1","666408427db5e38fe0ea1736","1","1","2025-07-16T09:03:32.097Z","","","","","","","","","","","AttribQ","","50","","","","","","","","","","","","","","","","","","","","","","","","","","","","",""
"4562","","<div style=""width:500px;"">
  <p>How much control did you have over the ball?</p>
  </div>","37","html-slider-response","31","531835","0.0-5.0-2.4","83","1","2025-07-16 08:54:42","1f75c3e559b7213887762d5229550c2b","154.66.155.77","Mozilla/5.0 (Windows NT 10.0; Win64; x64) AppleWebKit/537.36 (KHTML, like Gecko) Chrome/138.0.0.0 Safari/537.36","WebKit","Chrome","138.0.0.0","Windows","10.0","https://app.prolific.com/","en-ZA,en-GB;q=0.9,en-US;q=0.8,en;q=0.7","666408427db5e38fe0ea1736","686e379bc37a29ffa5cdc956","687768940d697f122fba4b8c","1","1","666408427db5e38fe0ea1736","1","1","2025-07-16T09:03:36.660Z","","","","","","","","","","","ControlQ","","50","","","","","","","","","","","","","","","","","","","","","","","","","","","","",""
"3413","","<div style=""width:500px;"">
  <p>How would you describe your current emotional state?</p>
  </div>","81","html-slider-response","32","535249","0.0-5.0-3.4","83","1","2025-07-16 08:54:42","1f75c3e559b7213887762d5229550c2b","154.66.155.77","Mozilla/5.0 (Windows NT 10.0; Win64; x64) AppleWebKit/537.36 (KHTML, like Gecko) Chrome/138.0.0.0 Safari/537.36","WebKit","Chrome","138.0.0.0","Windows","10.0","https://app.prolific.com/","en-ZA,en-GB;q=0.9,en-US;q=0.8,en;q=0.7","666408427db5e38fe0ea1736","686e379bc37a29ffa5cdc956","687768940d697f122fba4b8c","1","1","666408427db5e38fe0ea1736","1","1","2025-07-16T09:03:40.073Z","","","","","","","","","","","StressQ","","50","","","","","","","","","","","","","","","","","","","","","","","","","","","","",""
"4809","","<div style=""width:500px;"">
  <p>What best describes how you currently feel?</p>
  </div>","63","html-slider-response","33","540059","0.0-5.0-4.4","83","1","2025-07-16 08:54:42","1f75c3e559b7213887762d5229550c2b","154.66.155.77","Mozilla/5.0 (Windows NT 10.0; Win64; x64) AppleWebKit/537.36 (KHTML, like Gecko) Chrome/138.0.0.0 Safari/537.36","WebKit","Chrome","138.0.0.0","Windows","10.0","https://app.prolific.com/","en-ZA,en-GB;q=0.9,en-US;q=0.8,en;q=0.7","666408427db5e38fe0ea1736","686e379bc37a29ffa5cdc956","687768940d697f122fba4b8c","1","1","666408427db5e38fe0ea1736","1","1","2025-07-16T09:03:44.883Z","","","","","","","","","","","MotivationQ","","50","","","","","","","","","","","","","","","","","","","","","","","","","","","","",""
"","","","","ctl-task-cpt","34","578349","0.0-5.0-0.5","83","1","2025-07-16 08:54:42","1f75c3e559b7213887762d5229550c2b","154.66.155.77","Mozilla/5.0 (Windows NT 10.0; Win64; x64) AppleWebKit/537.36 (KHTML, like Gecko) Chrome/138.0.0.0 Safari/537.36","WebKit","Chrome","138.0.0.0","Windows","10.0","https://app.prolific.com/","en-ZA,en-GB;q=0.9,en-US;q=0.8,en;q=0.7","666408427db5e38fe0ea1736","686e379bc37a29ffa5cdc956","687768940d697f122fba4b8c","1","1","666408427db5e38fe0ea1736","1","1","2025-07-16T09:04:23.173Z","","","","","","","","","","","","","","win-only","1","g1:NE,g2:SW","0.5","6","0","542750.2","1492","6497.1","35276.6","1","4","4","6","2","-4","-4","0","0","0","1467","3000","-2960","[""down"",""left""]","{""num_key_presses"":6,""num_perfect"":5,""num_errors"":0,""num_randdir"":1,""num_randdir_good_moves"":0,""num_whilered"":0,""num_whileblue"":0,""num_blue"":3,""num_good_moves"":5}","[295.22232142857143,295.12857142857143,0.1,295.22232142857143,295.12857142857143,111.6,295.22232142857143,295.12857142857143,213.5,295.22232142857143,295.12857142857143,313.6,295.22232142857143,295.12857142857143,414,292.22232142857143,293.12857142857143,514.1,232.22232142857143,314.12857142857143,614.5,132.22232142857143,393.12857142857143,714.7,130.22232142857143,398.12857142857143,815.7,130.22232142857143,398.12857142857143,918.9,130.22232142857143,398.12857142857143,1023.1,67.22232142857143,492.12857142857143,1123.5,37.222321428571426,553.1285714285714,1225.5,36.222321428571426,557.1285714285714,1328.5,36.222321428571426,557.1285714285714,1429.4,36.222321428571426,557.1285714285714,1534.4,36.222321428571426,557.1285714285714,1634.8,36.222321428571426,557.1285714285714,1739.3,36.222321428571426,557.1285714285714,1844.1,36.222321428571426,557.1285714285714,1947,36.222321428571426,557.1285714285714,2049.5,36.222321428571426,557.1285714285714,2153.6,36.222321428571426,557.1285714285714,2254.5,36.222321428571426,557.1285714285714,2359.2,36.222321428571426,557.1285714285714,2459.5,36.222321428571426,557.1285714285714,2568.1,36.222321428571426,557.1285714285714,2668.9,36.222321428571426,557.1285714285714,2774.1,36.222321428571426,557.1285714285714,2876.2,36.222321428571426,557.1285714285714,2978.6,36.222321428571426,557.1285714285714,3079.6,36.222321428571426,557.1285714285714,3183.3,36.222321428571426,557.1285714285714,3284,36.222321428571426,557.1285714285714,3389.3,36.222321428571426,557.1285714285714,3497,36.222321428571426,557.1285714285714,3598.6,36.222321428571426,557.1285714285714,3703.2,36.222321428571426,557.1285714285714,3810.4,36.222321428571426,557.1285714285714,3916.6,36.222321428571426,557.1285714285714,4016.7,36.222321428571426,557.1285714285714,4118.3,36.222321428571426,557.1285714285714,4219.4,36.222321428571426,557.1285714285714,4319.4,36.222321428571426,557.1285714285714,4423.2,36.222321428571426,557.1285714285714,4524.4,36.222321428571426,557.1285714285714,4624.8,36.222321428571426,557.1285714285714,4728.5,36.222321428571426,557.1285714285714,4828.8,36.222321428571426,557.1285714285714,4929.2]","[1469.1,1469.1,1000,0,469.1,""smooth"",""down"",""down"",""good_move"",4660.9,3191.5,2757.6,1469.4,433.9,""smooth"",""down"",""down"",""good_move"",10759.2,6098.2,2810.8,7524.3,424.1,""smooth"",""down"",""down"",""good_move"",13820,3060.7,2623.4,10759.4,437.2,""oops"",""left"",""up"",""bad_move"",16329.6,2509.4,1951.6,13820.2,557.8,""smooth"",""down"",""down"",""good_move"",26167.5,9837.6,1951.8,23835.6,380.2,""smooth"",""left"",""left"",""good_move""]","",""
"6391","","<div style=""width:500px;"">
  <p>What determined the result of this run?</p>
  </div>","36","html-slider-response","35","584740","0.0-5.0-1.5","83","1","2025-07-16 08:54:42","1f75c3e559b7213887762d5229550c2b","154.66.155.77","Mozilla/5.0 (Windows NT 10.0; Win64; x64) AppleWebKit/537.36 (KHTML, like Gecko) Chrome/138.0.0.0 Safari/537.36","WebKit","Chrome","138.0.0.0","Windows","10.0","https://app.prolific.com/","en-ZA,en-GB;q=0.9,en-US;q=0.8,en;q=0.7","666408427db5e38fe0ea1736","686e379bc37a29ffa5cdc956","687768940d697f122fba4b8c","1","1","666408427db5e38fe0ea1736","1","1","2025-07-16T09:04:29.564Z","","","","","","","","","","","AttribQ","","50","","","","","","","","","","","","","","","","","","","","","","","","","","","","",""
"4245","","<div style=""width:500px;"">
  <p>How much control did you have over the ball?</p>
  </div>","15","html-slider-response","36","588986","0.0-5.0-2.5","83","1","2025-07-16 08:54:42","1f75c3e559b7213887762d5229550c2b","154.66.155.77","Mozilla/5.0 (Windows NT 10.0; Win64; x64) AppleWebKit/537.36 (KHTML, like Gecko) Chrome/138.0.0.0 Safari/537.36","WebKit","Chrome","138.0.0.0","Windows","10.0","https://app.prolific.com/","en-ZA,en-GB;q=0.9,en-US;q=0.8,en;q=0.7","666408427db5e38fe0ea1736","686e379bc37a29ffa5cdc956","687768940d697f122fba4b8c","1","1","666408427db5e38fe0ea1736","1","1","2025-07-16T09:04:33.810Z","","","","","","","","","","","ControlQ","","50","","","","","","","","","","","","","","","","","","","","","","","","","","","","",""
"3554","","<div style=""width:500px;"">
  <p>How would you describe your current emotional state?</p>
  </div>","73","html-slider-response","37","592540","0.0-5.0-3.5","83","1","2025-07-16 08:54:42","1f75c3e559b7213887762d5229550c2b","154.66.155.77","Mozilla/5.0 (Windows NT 10.0; Win64; x64) AppleWebKit/537.36 (KHTML, like Gecko) Chrome/138.0.0.0 Safari/537.36","WebKit","Chrome","138.0.0.0","Windows","10.0","https://app.prolific.com/","en-ZA,en-GB;q=0.9,en-US;q=0.8,en;q=0.7","666408427db5e38fe0ea1736","686e379bc37a29ffa5cdc956","687768940d697f122fba4b8c","1","1","666408427db5e38fe0ea1736","1","1","2025-07-16T09:04:37.365Z","","","","","","","","","","","StressQ","","50","","","","","","","","","","","","","","","","","","","","","","","","","","","","",""
"5216","","<div style=""width:500px;"">
  <p>What best describes how you currently feel?</p>
  </div>","66","html-slider-response","38","597757","0.0-5.0-4.5","83","1","2025-07-16 08:54:42","1f75c3e559b7213887762d5229550c2b","154.66.155.77","Mozilla/5.0 (Windows NT 10.0; Win64; x64) AppleWebKit/537.36 (KHTML, like Gecko) Chrome/138.0.0.0 Safari/537.36","WebKit","Chrome","138.0.0.0","Windows","10.0","https://app.prolific.com/","en-ZA,en-GB;q=0.9,en-US;q=0.8,en;q=0.7","666408427db5e38fe0ea1736","686e379bc37a29ffa5cdc956","687768940d697f122fba4b8c","1","1","666408427db5e38fe0ea1736","1","1","2025-07-16T09:04:42.581Z","","","","","","","","","","","MotivationQ","","50","","","","","","","","","","","","","","","","","","","","","","","","","","","","",""
"","","","","ctl-task-cpt","39","640651","0.0-5.0-0.6","83","1","2025-07-16 08:54:42","1f75c3e559b7213887762d5229550c2b","154.66.155.77","Mozilla/5.0 (Windows NT 10.0; Win64; x64) AppleWebKit/537.36 (KHTML, like Gecko) Chrome/138.0.0.0 Safari/537.36","WebKit","Chrome","138.0.0.0","Windows","10.0","https://app.prolific.com/","en-ZA,en-GB;q=0.9,en-US;q=0.8,en;q=0.7","666408427db5e38fe0ea1736","686e379bc37a29ffa5cdc956","687768940d697f122fba4b8c","1","1","666408427db5e38fe0ea1736","1","1","2025-07-16T09:05:25.476Z","","","","","","","","","","","","","","win-only","3","g1:SW,g2:NE","0.4","7","0","600448","1438.5","6440.5","39880.9","1","4","8","6","2","-8","-10","0","0","0","1638.9","3000","-2970","[""up"",""right""]","{""num_key_presses"":9,""num_perfect"":3,""num_errors"":2,""num_randdir"":4,""num_randdir_good_moves"":2,""num_whilered"":0,""num_whileblue"":0,""num_blue"":3,""num_good_moves"":5}","[305.22232142857143,293.12857142857143,0.2,305.22232142857143,293.12857142857143,101.7,305.22232142857143,293.12857142857143,202.9,305.22232142857143,293.12857142857143,307.7,305.22232142857143,293.12857142857143,412.5,305.22232142857143,293.12857142857143,517.3,305.22232142857143,293.12857142857143,617.4,305.22232142857143,293.12857142857143,721.8,305.22232142857143,293.12857142857143,821.9,539.2223214285714,53.128571428571426,924.1,559.2223214285714,21.128571428571426,1026.8,594.2223214285714,-22.871428571428574,1132.3,594.2223214285714,-22.871428571428574,1233.2,535.2223214285714,38.128571428571426,1337.9,535.2223214285714,41.128571428571426,1442.7,534.2223214285714,41.128571428571426,1546.8,534.2223214285714,41.128571428571426,1647.2,534.2223214285714,41.128571428571426,1753.2,534.2223214285714,41.128571428571426,1857.7,534.2223214285714,41.128571428571426,1962,534.2223214285714,41.128571428571426,2062.1,534.2223214285714,41.128571428571426,2163.2,534.2223214285714,41.128571428571426,2267.1,534.2223214285714,41.128571428571426,2367.1,534.2223214285714,41.128571428571426,2467.2,534.2223214285714,41.128571428571426,2575.4,534.2223214285714,41.128571428571426,2678,534.2223214285714,41.128571428571426,2783,534.2223214285714,41.128571428571426,2887.5,534.2223214285714,41.128571428571426,2987.6,534.2223214285714,41.128571428571426,3088.1,534.2223214285714,41.128571428571426,3192.4,534.2223214285714,41.128571428571426,3292.9,534.2223214285714,41.128571428571426,3397.1,534.2223214285714,41.128571428571426,3497.7,534.2223214285714,41.128571428571426,3603,534.2223214285714,41.128571428571426,3703.7,534.2223214285714,41.128571428571426,3803.9,534.2223214285714,41.128571428571426,3906.9,534.2223214285714,41.128571428571426,4007,534.2223214285714,41.128571428571426,4107.8,534.2223214285714,41.128571428571426,4212.2,534.2223214285714,41.128571428571426,4312.7,534.2223214285714,41.128571428571426,4418.2,534.2223214285714,41.128571428571426,4525.9,534.2223214285714,41.128571428571426,4627.5,534.2223214285714,41.128571428571426,4732.4,534.2223214285714,41.128571428571426,4832.7,534.2223214285714,41.128571428571426,4936.7]","[1508.1,1508.1,1000,0,508.1,""smooth"",""up"",""up"",""good_move"",4000.2,2491.9,2038,1508.3,453.9,""oops"",""up"",""down"",""bad_move"",6993.7,2993.2,2322.4,6915.2,-2243.8,""error"",""-"",""-"",""no_move"",10954.2,3960.1,2584.2,7995.1,374.9,""smooth"",""right"",""right"",""good_move"",13523.5,2569,2109.4,10954.5,459.6,""smooth"",""up"",""up"",""good_move"",16359.2,2835.2,2437.7,13524,397.5,""oops"",""up"",""left"",""bad_move"",19257.9,2898.5,2427.8,16359.4,470.7,""oops"",""right"",""right"",""good_move"",28286.4,9028.2,1888.2,26034.8,363.4,""oops"",""up"",""right"",""good_move"",30036,1749.2,2883.2,28286.8,-1134,""error"",""-"",""-"",""no_move""]","",""
"9339","","<div style=""width:500px;"">
  <p>What determined the result of this run?</p>
  </div>","12","html-slider-response","40","649991","0.0-5.0-1.6","83","1","2025-07-16 08:54:42","1f75c3e559b7213887762d5229550c2b","154.66.155.77","Mozilla/5.0 (Windows NT 10.0; Win64; x64) AppleWebKit/537.36 (KHTML, like Gecko) Chrome/138.0.0.0 Safari/537.36","WebKit","Chrome","138.0.0.0","Windows","10.0","https://app.prolific.com/","en-ZA,en-GB;q=0.9,en-US;q=0.8,en;q=0.7","666408427db5e38fe0ea1736","686e379bc37a29ffa5cdc956","687768940d697f122fba4b8c","1","1","666408427db5e38fe0ea1736","1","1","2025-07-16T09:05:34.815Z","","","","","","","","","","","AttribQ","","50","","","","","","","","","","","","","","","","","","","","","","","","","","","","",""
"4310","","<div style=""width:500px;"">
  <p>How much control did you have over the ball?</p>
  </div>","11","html-slider-response","41","654301","0.0-5.0-2.6","83","1","2025-07-16 08:54:42","1f75c3e559b7213887762d5229550c2b","154.66.155.77","Mozilla/5.0 (Windows NT 10.0; Win64; x64) AppleWebKit/537.36 (KHTML, like Gecko) Chrome/138.0.0.0 Safari/537.36","WebKit","Chrome","138.0.0.0","Windows","10.0","https://app.prolific.com/","en-ZA,en-GB;q=0.9,en-US;q=0.8,en;q=0.7","666408427db5e38fe0ea1736","686e379bc37a29ffa5cdc956","687768940d697f122fba4b8c","1","1","666408427db5e38fe0ea1736","1","1","2025-07-16T09:05:39.125Z","","","","","","","","","","","ControlQ","","50","","","","","","","","","","","","","","","","","","","","","","","","","","","","",""
"4190","","<div style=""width:500px;"">
  <p>How would you describe your current emotional state?</p>
  </div>","90","html-slider-response","42","658492","0.0-5.0-3.6","83","1","2025-07-16 08:54:42","1f75c3e559b7213887762d5229550c2b","154.66.155.77","Mozilla/5.0 (Windows NT 10.0; Win64; x64) AppleWebKit/537.36 (KHTML, like Gecko) Chrome/138.0.0.0 Safari/537.36","WebKit","Chrome","138.0.0.0","Windows","10.0","https://app.prolific.com/","en-ZA,en-GB;q=0.9,en-US;q=0.8,en;q=0.7","666408427db5e38fe0ea1736","686e379bc37a29ffa5cdc956","687768940d697f122fba4b8c","1","1","666408427db5e38fe0ea1736","1","1","2025-07-16T09:05:43.317Z","","","","","","","","","","","StressQ","","50","","","","","","","","","","","","","","","","","","","","","","","","","","","","",""
"4274","","<div style=""width:500px;"">
  <p>What best describes how you currently feel?</p>
  </div>","62","html-slider-response","43","662767","0.0-5.0-4.6","83","1","2025-07-16 08:54:42","1f75c3e559b7213887762d5229550c2b","154.66.155.77","Mozilla/5.0 (Windows NT 10.0; Win64; x64) AppleWebKit/537.36 (KHTML, like Gecko) Chrome/138.0.0.0 Safari/537.36","WebKit","Chrome","138.0.0.0","Windows","10.0","https://app.prolific.com/","en-ZA,en-GB;q=0.9,en-US;q=0.8,en;q=0.7","666408427db5e38fe0ea1736","686e379bc37a29ffa5cdc956","687768940d697f122fba4b8c","1","1","666408427db5e38fe0ea1736","1","1","2025-07-16T09:05:47.591Z","","","","","","","","","","","MotivationQ","","50","","","","","","","","","","","","","","","","","","","","","","","","","","","","",""
"","","","","ctl-task-cpt","44","701381","0.0-5.0-0.7","83","1","2025-07-16 08:54:42","1f75c3e559b7213887762d5229550c2b","154.66.155.77","Mozilla/5.0 (Windows NT 10.0; Win64; x64) AppleWebKit/537.36 (KHTML, like Gecko) Chrome/138.0.0.0 Safari/537.36","WebKit","Chrome","138.0.0.0","Windows","10.0","https://app.prolific.com/","en-ZA,en-GB;q=0.9,en-US;q=0.8,en;q=0.7","666408427db5e38fe0ea1736","686e379bc37a29ffa5cdc956","687768940d697f122fba4b8c","1","1","666408427db5e38fe0ea1736","1","1","2025-07-16T09:06:26.205Z","","","","","","","","","","","","","","win-only","2","g1:SE,g2:NW","0.3","8","0","665458.4","2973.6","7984.2","35596.1","1","4","4","6","2","-4","-4","0","0","0","1527.6","3000","-2555","[""left"",""up""]","{""num_key_presses"":6,""num_perfect"":1,""num_errors"":0,""num_randdir"":5,""num_randdir_good_moves"":4,""num_whilered"":0,""num_whileblue"":0,""num_blue"":2,""num_good_moves"":5}","[294.22232142857143,292.12857142857143,0.2,294.22232142857143,292.12857142857143,107.5,294.22232142857143,292.12857142857143,208.9,294.22232142857143,292.12857142857143,311.9,294.22232142857143,292.12857142857143,417.5,294.22232142857143,292.12857142857143,518.1,294.22232142857143,292.12857142857143,625.8,227.22232142857143,231.12857142857143,727.3,138.22232142857143,171.12857142857143,832,101.22232142857143,134.12857142857143,932,77.22232142857143,113.12857142857143,1032.1,67.22232142857143,102.12857142857143,1132.3,62.222321428571426,92.12857142857143,1242,62.222321428571426,89.12857142857143,1347.4,62.222321428571426,89.12857142857143,1451.8,62.222321428571426,89.12857142857143,1559.5,62.222321428571426,89.12857142857143,1661.8,62.222321428571426,89.12857142857143,1776.3,62.222321428571426,89.12857142857143,1877.4,62.222321428571426,89.12857142857143,1982.7,62.222321428571426,89.12857142857143,2091.6,62.222321428571426,89.12857142857143,2192.9,62.222321428571426,89.12857142857143,2296.6,62.222321428571426,89.12857142857143,2397.6,62.222321428571426,89.12857142857143,2502.2,62.222321428571426,89.12857142857143,2602.2,62.222321428571426,89.12857142857143,2706.6,62.222321428571426,89.12857142857143,2807.1,62.222321428571426,89.12857142857143,2910.6,62.222321428571426,89.12857142857143,3012.3,62.222321428571426,89.12857142857143,3117.3,62.222321428571426,89.12857142857143,3226.7,62.222321428571426,89.12857142857143,3327.6,62.222321428571426,89.12857142857143,3432.8,62.222321428571426,89.12857142857143,3542.1,62.222321428571426,89.12857142857143,3647.7,62.222321428571426,89.12857142857143,3751.9,62.222321428571426,89.12857142857143,3852.2,62.222321428571426,89.12857142857143,3959.8,62.222321428571426,89.12857142857143,4060.3,62.222321428571426,89.12857142857143,4162.2,62.222321428571426,89.12857142857143,4262.6,62.222321428571426,89.12857142857143,4367.5,62.222321428571426,89.12857142857143,4475.3,62.222321428571426,89.12857142857143,4575.7,62.222321428571426,89.12857142857143,4677.4,62.222321428571426,89.12857142857143,4782.3,62.222321428571426,89.12857142857143,4886.9,62.222321428571426,89.12857142857143,4991.6]","[1448.6,1448.6,1000,0,448.6,""oops"",""up"",""left"",""good_move"",4432,2983.1,2573.4,1448.9,409.7,""smooth"",""up"",""up"",""good_move"",8133.5,3701.1,3316,4432.4,385.1,""oops"",""left"",""up"",""good_move"",11587.4,3453.7,2532.1,8133.7,921.6,""oops"",""left"",""up"",""good_move"",21245.4,9657.8,2494,18356,395.5,""oops"",""up"",""right"",""bad_move"",24609.6,3363.9,2680,21245.7,683.9,""oops"",""left"",""left"",""good_move""]","",""
"4946","","<div style=""width:500px;"">
  <p>What determined the result of this run?</p>
  </div>","16","html-slider-response","45","706328","0.0-5.0-1.7","83","1","2025-07-16 08:54:42","1f75c3e559b7213887762d5229550c2b","154.66.155.77","Mozilla/5.0 (Windows NT 10.0; Win64; x64) AppleWebKit/537.36 (KHTML, like Gecko) Chrome/138.0.0.0 Safari/537.36","WebKit","Chrome","138.0.0.0","Windows","10.0","https://app.prolific.com/","en-ZA,en-GB;q=0.9,en-US;q=0.8,en;q=0.7","666408427db5e38fe0ea1736","686e379bc37a29ffa5cdc956","687768940d697f122fba4b8c","1","1","666408427db5e38fe0ea1736","1","1","2025-07-16T09:06:31.152Z","","","","","","","","","","","AttribQ","","50","","","","","","","","","","","","","","","","","","","","","","","","","","","","",""
"3382","","<div style=""width:500px;"">
  <p>How much control did you have over the ball?</p>
  </div>","68","html-slider-response","46","709710","0.0-5.0-2.7","83","1","2025-07-16 08:54:42","1f75c3e559b7213887762d5229550c2b","154.66.155.77","Mozilla/5.0 (Windows NT 10.0; Win64; x64) AppleWebKit/537.36 (KHTML, like Gecko) Chrome/138.0.0.0 Safari/537.36","WebKit","Chrome","138.0.0.0","Windows","10.0","https://app.prolific.com/","en-ZA,en-GB;q=0.9,en-US;q=0.8,en;q=0.7","666408427db5e38fe0ea1736","686e379bc37a29ffa5cdc956","687768940d697f122fba4b8c","1","1","666408427db5e38fe0ea1736","1","1","2025-07-16T09:06:34.534Z","","","","","","","","","","","ControlQ","","50","","","","","","","","","","","","","","","","","","","","","","","","","","","","",""
"3001","","<div style=""width:500px;"">
  <p>How would you describe your current emotional state?</p>
  </div>","74","html-slider-response","47","712712","0.0-5.0-3.7","83","1","2025-07-16 08:54:42","1f75c3e559b7213887762d5229550c2b","154.66.155.77","Mozilla/5.0 (Windows NT 10.0; Win64; x64) AppleWebKit/537.36 (KHTML, like Gecko) Chrome/138.0.0.0 Safari/537.36","WebKit","Chrome","138.0.0.0","Windows","10.0","https://app.prolific.com/","en-ZA,en-GB;q=0.9,en-US;q=0.8,en;q=0.7","666408427db5e38fe0ea1736","686e379bc37a29ffa5cdc956","687768940d697f122fba4b8c","1","1","666408427db5e38fe0ea1736","1","1","2025-07-16T09:06:37.536Z","","","","","","","","","","","StressQ","","50","","","","","","","","","","","","","","","","","","","","","","","","","","","","",""
"4058","","<div style=""width:500px;"">
  <p>What best describes how you currently feel?</p>
  </div>","68","html-slider-response","48","716771","0.0-5.0-4.7","83","1","2025-07-16 08:54:42","1f75c3e559b7213887762d5229550c2b","154.66.155.77","Mozilla/5.0 (Windows NT 10.0; Win64; x64) AppleWebKit/537.36 (KHTML, like Gecko) Chrome/138.0.0.0 Safari/537.36","WebKit","Chrome","138.0.0.0","Windows","10.0","https://app.prolific.com/","en-ZA,en-GB;q=0.9,en-US;q=0.8,en;q=0.7","666408427db5e38fe0ea1736","686e379bc37a29ffa5cdc956","687768940d697f122fba4b8c","1","1","666408427db5e38fe0ea1736","1","1","2025-07-16T09:06:41.595Z","","","","","","","","","","","MotivationQ","","50","","","","","","","","","","","","","","","","","","","","","","","","","","","","",""
"","","","","ctl-task-cpt","49","755498","0.0-5.0-0.8","83","1","2025-07-16 08:54:42","1f75c3e559b7213887762d5229550c2b","154.66.155.77","Mozilla/5.0 (Windows NT 10.0; Win64; x64) AppleWebKit/537.36 (KHTML, like Gecko) Chrome/138.0.0.0 Safari/537.36","WebKit","Chrome","138.0.0.0","Windows","10.0","https://app.prolific.com/","en-ZA,en-GB;q=0.9,en-US;q=0.8,en;q=0.7","666408427db5e38fe0ea1736","686e379bc37a29ffa5cdc956","687768940d697f122fba4b8c","1","1","666408427db5e38fe0ea1736","1","1","2025-07-16T09:07:20.322Z","","","","","","","","","","","","","","win-only","1","g1:NE,g2:SW","0.2","9","0","719462","2670","7670.8","35707.2","1","4","4","6","2","-4","-4","0","0","0","2469.5","3000","-2980","[""down"",""left""]","{""num_key_presses"":6,""num_perfect"":2,""num_errors"":0,""num_randdir"":4,""num_randdir_good_moves"":0,""num_whilered"":0,""num_whileblue"":0,""num_blue"":2,""num_good_moves"":2}","[292.22232142857143,292.12857142857143,0.1,292.22232142857143,292.12857142857143,101.6,292.22232142857143,292.12857142857143,205.3,292.22232142857143,292.12857142857143,311.3,292.22232142857143,292.12857142857143,416.4,292.22232142857143,292.12857142857143,521.5,292.22232142857143,292.12857142857143,625,292.22232142857143,292.12857142857143,727.1,289.22232142857143,295.12857142857143,831,244.22232142857143,351.12857142857143,936.2,207.22232142857143,381.12857142857143,1036.9,207.22232142857143,381.12857142857143,1140.8,207.22232142857143,381.12857142857143,1243.2,207.22232142857143,381.12857142857143,1346.5,171.22232142857143,414.12857142857143,1451.2,161.22232142857143,429.12857142857143,1551.7,161.22232142857143,430.12857142857143,1657.7,162.22232142857143,430.12857142857143,1757.9,136.22232142857143,467.12857142857143,1858.4,100.22232142857143,501.12857142857143,1961.3,76.22232142857143,570.1285714285714,2066.2,76.22232142857143,570.1285714285714,2166.6,76.22232142857143,570.1285714285714,2267.4,76.22232142857143,570.1285714285714,2370.5,76.22232142857143,570.1285714285714,2472.9,76.22232142857143,570.1285714285714,2578.6,76.22232142857143,570.1285714285714,2681.7,76.22232142857143,570.1285714285714,2782.2,76.22232142857143,570.1285714285714,2886.4,76.22232142857143,570.1285714285714,2987.5,76.22232142857143,570.1285714285714,3091.1,76.22232142857143,570.1285714285714,3192.8,76.22232142857143,570.1285714285714,3295.9,76.22232142857143,570.1285714285714,3400.8,76.22232142857143,570.1285714285714,3501.2,76.22232142857143,570.1285714285714,3606,76.22232142857143,570.1285714285714,3707,76.22232142857143,570.1285714285714,3811.3,76.22232142857143,570.1285714285714,3916.3,76.22232142857143,570.1285714285714,4016.8,76.22232142857143,570.1285714285714,4121.1,76.22232142857143,570.1285714285714,4224.6,76.22232142857143,570.1285714285714,4326.9,76.22232142857143,570.1285714285714,4431.4,76.22232142857143,570.1285714285714,4536,76.22232142857143,570.1285714285714,4636.7,76.22232142857143,570.1285714285714,4743.3,76.22232142857143,570.1285714285714,4846,76.22232142857143,570.1285714285714,4946.6]","[1427.1,1427.1,1000,0,427.1,""smooth"",""down"",""down"",""good_move"",4775,3347.6,2968,1427.4,379.6,""oops"",""down"",""up"",""bad_move"",7981.7,3206.3,2811.1,4775.4,395.2,""oops"",""down"",""right"",""bad_move"",10160.7,2178.7,1678.6,7982,500.1,""smooth"",""left"",""left"",""good_move"",21102.7,10941.8,3314.6,17334.9,453.2,""oops"",""left"",""up"",""bad_move"",25489.4,4386.5,3726,21102.9,660.5,""oops"",""down"",""right"",""bad_move""]","",""
"4431","","<div style=""width:500px;"">
  <p>What determined the result of this run?</p>
  </div>","6","html-slider-response","50","759930","0.0-5.0-1.8","83","1","2025-07-16 08:54:42","1f75c3e559b7213887762d5229550c2b","154.66.155.77","Mozilla/5.0 (Windows NT 10.0; Win64; x64) AppleWebKit/537.36 (KHTML, like Gecko) Chrome/138.0.0.0 Safari/537.36","WebKit","Chrome","138.0.0.0","Windows","10.0","https://app.prolific.com/","en-ZA,en-GB;q=0.9,en-US;q=0.8,en;q=0.7","666408427db5e38fe0ea1736","686e379bc37a29ffa5cdc956","687768940d697f122fba4b8c","1","1","666408427db5e38fe0ea1736","1","1","2025-07-16T09:07:24.754Z","","","","","","","","","","","AttribQ","","50","","","","","","","","","","","","","","","","","","","","","","","","","","","","",""
"4717","","<div style=""width:500px;"">
  <p>How much control did you have over the ball?</p>
  </div>","2","html-slider-response","51","764648","0.0-5.0-2.8","83","1","2025-07-16 08:54:42","1f75c3e559b7213887762d5229550c2b","154.66.155.77","Mozilla/5.0 (Windows NT 10.0; Win64; x64) AppleWebKit/537.36 (KHTML, like Gecko) Chrome/138.0.0.0 Safari/537.36","WebKit","Chrome","138.0.0.0","Windows","10.0","https://app.prolific.com/","en-ZA,en-GB;q=0.9,en-US;q=0.8,en;q=0.7","666408427db5e38fe0ea1736","686e379bc37a29ffa5cdc956","687768940d697f122fba4b8c","1","1","666408427db5e38fe0ea1736","1","1","2025-07-16T09:07:29.472Z","","","","","","","","","","","ControlQ","","50","","","","","","","","","","","","","","","","","","","","","","","","","","","","",""
"6748","","<div style=""width:500px;"">
  <p>How would you describe your current emotional state?</p>
  </div>","63","html-slider-response","52","771397","0.0-5.0-3.8","83","1","2025-07-16 08:54:42","1f75c3e559b7213887762d5229550c2b","154.66.155.77","Mozilla/5.0 (Windows NT 10.0; Win64; x64) AppleWebKit/537.36 (KHTML, like Gecko) Chrome/138.0.0.0 Safari/537.36","WebKit","Chrome","138.0.0.0","Windows","10.0","https://app.prolific.com/","en-ZA,en-GB;q=0.9,en-US;q=0.8,en;q=0.7","666408427db5e38fe0ea1736","686e379bc37a29ffa5cdc956","687768940d697f122fba4b8c","1","1","666408427db5e38fe0ea1736","1","1","2025-07-16T09:07:36.221Z","","","","","","","","","","","StressQ","","50","","","","","","","","","","","","","","","","","","","","","","","","","","","","",""
"4161","","<div style=""width:500px;"">
  <p>What best describes how you currently feel?</p>
  </div>","80","html-slider-response","53","775559","0.0-5.0-4.8","83","1","2025-07-16 08:54:42","1f75c3e559b7213887762d5229550c2b","154.66.155.77","Mozilla/5.0 (Windows NT 10.0; Win64; x64) AppleWebKit/537.36 (KHTML, like Gecko) Chrome/138.0.0.0 Safari/537.36","WebKit","Chrome","138.0.0.0","Windows","10.0","https://app.prolific.com/","en-ZA,en-GB;q=0.9,en-US;q=0.8,en;q=0.7","666408427db5e38fe0ea1736","686e379bc37a29ffa5cdc956","687768940d697f122fba4b8c","1","1","666408427db5e38fe0ea1736","1","1","2025-07-16T09:07:40.383Z","","","","","","","","","","","MotivationQ","","50","","","","","","","","","","","","","","","","","","","","","","","","","","","","",""
"","","","","ctl-task-cpt","54","801965","0.0-5.0-0.9","83","1","2025-07-16 08:54:42","1f75c3e559b7213887762d5229550c2b","154.66.155.77","Mozilla/5.0 (Windows NT 10.0; Win64; x64) AppleWebKit/537.36 (KHTML, like Gecko) Chrome/138.0.0.0 Safari/537.36","WebKit","Chrome","138.0.0.0","Windows","10.0","https://app.prolific.com/","en-ZA,en-GB;q=0.9,en-US;q=0.8,en;q=0.7","666408427db5e38fe0ea1736","686e379bc37a29ffa5cdc956","687768940d697f122fba4b8c","1","1","666408427db5e38fe0ea1736","1","1","2025-07-16T09:08:06.789Z","","","","","","","","","","","","","","win-only","1","g1:NE,g2:SW","0.4","10","0","778251","1362.6","6363.3","23380.3","1","4","8","6","2","-8","-8","0","0","0","1641.3","3000","-2940","[""down"",""left""]","{""num_key_presses"":4,""num_perfect"":2,""num_errors"":0,""num_randdir"":2,""num_randdir_good_moves"":0,""num_whilered"":0,""num_whileblue"":0,""num_blue"":1,""num_good_moves"":2}","[297.22232142857143,303.12857142857143,0.2,297.22232142857143,303.12857142857143,103.7,297.22232142857143,303.12857142857143,207.5,297.22232142857143,303.12857142857143,308.2,297.22232142857143,303.12857142857143,408.7,297.22232142857143,303.12857142857143,516.2,107.22232142857143,438.12857142857143,617.5,107.22232142857143,438.12857142857143,718.6,107.22232142857143,438.12857142857143,822.8,107.22232142857143,438.12857142857143,924.2,39.222321428571426,547.1285714285714,1032.4,36.222321428571426,558.1285714285714,1132.7,32.222321428571426,567.1285714285714,1233.8,32.222321428571426,567.1285714285714,1336.1,32.222321428571426,567.1285714285714,1437.7,32.222321428571426,567.1285714285714,1538,32.222321428571426,567.1285714285714,1638,32.222321428571426,567.1285714285714,1738.3,32.222321428571426,567.1285714285714,1843.4,32.222321428571426,567.1285714285714,1949.5,32.222321428571426,567.1285714285714,2054.2,32.222321428571426,567.1285714285714,2157.8,32.222321428571426,567.1285714285714,2257.8,32.222321428571426,567.1285714285714,2358,32.222321428571426,567.1285714285714,2462.8,32.222321428571426,567.1285714285714,2567.2,32.222321428571426,567.1285714285714,2668.4,32.222321428571426,567.1285714285714,2774.2,32.222321428571426,567.1285714285714,2880.7,32.222321428571426,567.1285714285714,2982.6,32.222321428571426,567.1285714285714,3088.1,32.222321428571426,567.1285714285714,3188.4,32.222321428571426,567.1285714285714,3288.9,32.222321428571426,567.1285714285714,3392.6,32.222321428571426,567.1285714285714,3492.7,32.222321428571426,567.1285714285714,3592.9,32.222321428571426,567.1285714285714,3693.4,32.222321428571426,567.1285714285714,3793.5,32.222321428571426,567.1285714285714,3895.2,32.222321428571426,567.1285714285714,4004.3,32.222321428571426,567.1285714285714,4107.8,32.222321428571426,567.1285714285714,4209.4,32.222321428571426,567.1285714285714,4313.7,32.222321428571426,567.1285714285714,4418.4,32.222321428571426,567.1285714285714,4523.3,32.222321428571426,567.1285714285714,4632.2,32.222321428571426,567.1285714285714,4733.7,32.222321428571426,567.1285714285714,4837.7,32.222321428571426,567.1285714285714,4938.5]","[1798.6,1798.6,1000,0,798.6,""oops"",""down"",""up"",""bad_move"",8723.3,6924.5,2606.7,5700.1,416.5,""smooth"",""left"",""left"",""good_move"",12215.5,3491.8,2662.1,8723.7,829.7,""smooth"",""left"",""left"",""good_move"",15076.1,2860.4,1931.3,12215.7,929.1,""oops"",""left"",""right"",""bad_move""]","",""
"4687","","<div style=""width:500px;"">
  <p>What determined the result of this run?</p>
  </div>","0","html-slider-response","55","806652","0.0-5.0-1.9","83","1","2025-07-16 08:54:42","1f75c3e559b7213887762d5229550c2b","154.66.155.77","Mozilla/5.0 (Windows NT 10.0; Win64; x64) AppleWebKit/537.36 (KHTML, like Gecko) Chrome/138.0.0.0 Safari/537.36","WebKit","Chrome","138.0.0.0","Windows","10.0","https://app.prolific.com/","en-ZA,en-GB;q=0.9,en-US;q=0.8,en;q=0.7","666408427db5e38fe0ea1736","686e379bc37a29ffa5cdc956","687768940d697f122fba4b8c","1","1","666408427db5e38fe0ea1736","1","1","2025-07-16T09:08:11.477Z","","","","","","","","","","","AttribQ","","50","","","","","","","","","","","","","","","","","","","","","","","","","","","","",""
"7192","","<div style=""width:500px;"">
  <p>How much control did you have over the ball?</p>
  </div>","46","html-slider-response","56","813845","0.0-5.0-2.9","83","1","2025-07-16 08:54:42","1f75c3e559b7213887762d5229550c2b","154.66.155.77","Mozilla/5.0 (Windows NT 10.0; Win64; x64) AppleWebKit/537.36 (KHTML, like Gecko) Chrome/138.0.0.0 Safari/537.36","WebKit","Chrome","138.0.0.0","Windows","10.0","https://app.prolific.com/","en-ZA,en-GB;q=0.9,en-US;q=0.8,en;q=0.7","666408427db5e38fe0ea1736","686e379bc37a29ffa5cdc956","687768940d697f122fba4b8c","1","1","666408427db5e38fe0ea1736","1","1","2025-07-16T09:08:18.669Z","","","","","","","","","","","ControlQ","","50","","","","","","","","","","","","","","","","","","","","","","","","","","","","",""
"4419","","<div style=""width:500px;"">
  <p>How would you describe your current emotional state?</p>
  </div>","75","html-slider-response","57","818265","0.0-5.0-3.9","83","1","2025-07-16 08:54:42","1f75c3e559b7213887762d5229550c2b","154.66.155.77","Mozilla/5.0 (Windows NT 10.0; Win64; x64) AppleWebKit/537.36 (KHTML, like Gecko) Chrome/138.0.0.0 Safari/537.36","WebKit","Chrome","138.0.0.0","Windows","10.0","https://app.prolific.com/","en-ZA,en-GB;q=0.9,en-US;q=0.8,en;q=0.7","666408427db5e38fe0ea1736","686e379bc37a29ffa5cdc956","687768940d697f122fba4b8c","1","1","666408427db5e38fe0ea1736","1","1","2025-07-16T09:08:23.089Z","","","","","","","","","","","StressQ","","50","","","","","","","","","","","","","","","","","","","","","","","","","","","","",""
"4392","","<div style=""width:500px;"">
  <p>What best describes how you currently feel?</p>
  </div>","77","html-slider-response","58","822658","0.0-5.0-4.9","83","1","2025-07-16 08:54:42","1f75c3e559b7213887762d5229550c2b","154.66.155.77","Mozilla/5.0 (Windows NT 10.0; Win64; x64) AppleWebKit/537.36 (KHTML, like Gecko) Chrome/138.0.0.0 Safari/537.36","WebKit","Chrome","138.0.0.0","Windows","10.0","https://app.prolific.com/","en-ZA,en-GB;q=0.9,en-US;q=0.8,en;q=0.7","666408427db5e38fe0ea1736","686e379bc37a29ffa5cdc956","687768940d697f122fba4b8c","1","1","666408427db5e38fe0ea1736","1","1","2025-07-16T09:08:27.482Z","","","","","","","","","","","MotivationQ","","50","","","","","","","","","","","","","","","","","","","","","","","","","","","","",""
"","","","","ctl-task-cpt","59","857476","0.0-5.0-0.10","83","1","2025-07-16 08:54:42","1f75c3e559b7213887762d5229550c2b","154.66.155.77","Mozilla/5.0 (Windows NT 10.0; Win64; x64) AppleWebKit/537.36 (KHTML, like Gecko) Chrome/138.0.0.0 Safari/537.36","WebKit","Chrome","138.0.0.0","Windows","10.0","https://app.prolific.com/","en-ZA,en-GB;q=0.9,en-US;q=0.8,en;q=0.7","666408427db5e38fe0ea1736","686e379bc37a29ffa5cdc956","687768940d697f122fba4b8c","1","1","666408427db5e38fe0ea1736","1","1","2025-07-16T09:09:02.300Z","","","","","","","","","","","","","","win-only","0","g1:NW,g2:SE","0.5","11","0","825349.9","3308.7","8312.4","31800.9","1","4","4","6","2","-4","-4","0","0","0","3603.2","3000","-2825","[""down"",""right""]","{""num_key_presses"":6,""num_perfect"":3,""num_errors"":0,""num_randdir"":3,""num_randdir_good_moves"":1,""num_whilered"":0,""num_whileblue"":0,""num_blue"":1,""num_good_moves"":4}","[297.22232142857143,291.12857142857143,0.3,297.22232142857143,291.12857142857143,101.7,297.22232142857143,291.12857142857143,207.8,297.22232142857143,291.12857142857143,307.8,297.22232142857143,291.12857142857143,413,297.22232142857143,291.12857142857143,519,297.22232142857143,291.12857142857143,620.3,297.22232142857143,291.12857142857143,725.6,297.22232142857143,291.12857142857143,827,297.22232142857143,291.12857142857143,932.1,297.22232142857143,291.12857142857143,1041.1,297.22232142857143,291.12857142857143,1142.4,297.22232142857143,291.12857142857143,1247.2,297.22232142857143,291.12857142857143,1347.7,297.22232142857143,291.12857142857143,1452.7,297.22232142857143,291.12857142857143,1556.4,297.22232142857143,291.12857142857143,1658.8,297.22232142857143,291.12857142857143,1762.3,297.22232142857143,291.12857142857143,1862.4,304.22232142857143,295.12857142857143,1967.5,363.22232142857143,350.12857142857143,2073.9,408.22232142857143,385.12857142857143,2177.8,486.22232142857143,435.12857142857143,2284.2,518.2223214285714,465.12857142857143,2387.8,525.2223214285714,483.12857142857143,2491,528.2223214285714,531.1285714285714,2593.2,529.2223214285714,541.1285714285714,2696.6,529.2223214285714,541.1285714285714,2797.2,529.2223214285714,541.1285714285714,2897.5,529.2223214285714,541.1285714285714,3005.8,529.2223214285714,541.1285714285714,3107.4,529.2223214285714,541.1285714285714,3209,529.2223214285714,541.1285714285714,3312.7,529.2223214285714,541.1285714285714,3417.2,529.2223214285714,541.1285714285714,3521.8,529.2223214285714,541.1285714285714,3621.8,529.2223214285714,541.1285714285714,3726.9,529.2223214285714,541.1285714285714,3828,529.2223214285714,541.1285714285714,3932.6,529.2223214285714,541.1285714285714,4032.8,529.2223214285714,541.1285714285714,4132.9,529.2223214285714,541.1285714285714,4241.4,529.2223214285714,541.1285714285714,4342.3,529.2223214285714,541.1285714285714,4447.5,529.2223214285714,541.1285714285714,4551.9,529.2223214285714,541.1285714285714,4652.5,529.2223214285714,541.1285714285714,4757.6,529.2223214285714,541.1285714285714,4863,529.2223214285714,541.1285714285714,4967.8]","[1586.7,1586.7,1000,0,586.7,""smooth"",""right"",""right"",""good_move"",3924.1,2337.1,1945.4,1587,391.7,""oops"",""down"",""right"",""good_move"",6809.1,2884.9,2471.3,3924.2,413.6,""oops"",""down"",""up"",""bad_move"",10517.6,3707.6,3286,6810,421.6,""smooth"",""down"",""down"",""good_move"",13761.1,3243,2744.8,10518.2,498.1,""oops"",""down"",""left"",""bad_move"",17252.1,3490.7,2751.4,13761.4,739.3,""smooth"",""down"",""down"",""good_move""]","",""
"4648","","<div style=""width:500px;"">
  <p>What determined the result of this run?</p>
  </div>","23","html-slider-response","60","862125","0.0-5.0-1.10","83","1","2025-07-16 08:54:42","1f75c3e559b7213887762d5229550c2b","154.66.155.77","Mozilla/5.0 (Windows NT 10.0; Win64; x64) AppleWebKit/537.36 (KHTML, like Gecko) Chrome/138.0.0.0 Safari/537.36","WebKit","Chrome","138.0.0.0","Windows","10.0","https://app.prolific.com/","en-ZA,en-GB;q=0.9,en-US;q=0.8,en;q=0.7","666408427db5e38fe0ea1736","686e379bc37a29ffa5cdc956","687768940d697f122fba4b8c","1","1","666408427db5e38fe0ea1736","1","1","2025-07-16T09:09:06.950Z","","","","","","","","","","","AttribQ","","50","","","","","","","","","","","","","","","","","","","","","","","","","","","","",""
"2654","","<div style=""width:500px;"">
  <p>How much control did you have over the ball?</p>
  </div>","44","html-slider-response","61","864780","0.0-5.0-2.10","83","1","2025-07-16 08:54:42","1f75c3e559b7213887762d5229550c2b","154.66.155.77","Mozilla/5.0 (Windows NT 10.0; Win64; x64) AppleWebKit/537.36 (KHTML, like Gecko) Chrome/138.0.0.0 Safari/537.36","WebKit","Chrome","138.0.0.0","Windows","10.0","https://app.prolific.com/","en-ZA,en-GB;q=0.9,en-US;q=0.8,en;q=0.7","666408427db5e38fe0ea1736","686e379bc37a29ffa5cdc956","687768940d697f122fba4b8c","1","1","666408427db5e38fe0ea1736","1","1","2025-07-16T09:09:09.604Z","","","","","","","","","","","ControlQ","","50","","","","","","","","","","","","","","","","","","","","","","","","","","","","",""
"2513","","<div style=""width:500px;"">
  <p>How would you describe your current emotional state?</p>
  </div>","69","html-slider-response","62","867294","0.0-5.0-3.10","83","1","2025-07-16 08:54:42","1f75c3e559b7213887762d5229550c2b","154.66.155.77","Mozilla/5.0 (Windows NT 10.0; Win64; x64) AppleWebKit/537.36 (KHTML, like Gecko) Chrome/138.0.0.0 Safari/537.36","WebKit","Chrome","138.0.0.0","Windows","10.0","https://app.prolific.com/","en-ZA,en-GB;q=0.9,en-US;q=0.8,en;q=0.7","666408427db5e38fe0ea1736","686e379bc37a29ffa5cdc956","687768940d697f122fba4b8c","1","1","666408427db5e38fe0ea1736","1","1","2025-07-16T09:09:12.118Z","","","","","","","","","","","StressQ","","50","","","","","","","","","","","","","","","","","","","","","","","","","","","","",""
"4178","","<div style=""width:500px;"">
  <p>What best describes how you currently feel?</p>
  </div>","50","html-slider-response","63","871473","0.0-5.0-4.10","83","1","2025-07-16 08:54:42","1f75c3e559b7213887762d5229550c2b","154.66.155.77","Mozilla/5.0 (Windows NT 10.0; Win64; x64) AppleWebKit/537.36 (KHTML, like Gecko) Chrome/138.0.0.0 Safari/537.36","WebKit","Chrome","138.0.0.0","Windows","10.0","https://app.prolific.com/","en-ZA,en-GB;q=0.9,en-US;q=0.8,en;q=0.7","666408427db5e38fe0ea1736","686e379bc37a29ffa5cdc956","687768940d697f122fba4b8c","1","1","666408427db5e38fe0ea1736","1","1","2025-07-16T09:09:16.297Z","","","","","","","","","","","MotivationQ","","50","","","","","","","","","","","","","","","","","","","","","","","","","","","","",""
"","","","","ctl-task-cpt","64","914478","0.0-5.0-0.11","83","1","2025-07-16 08:54:42","1f75c3e559b7213887762d5229550c2b","154.66.155.77","Mozilla/5.0 (Windows NT 10.0; Win64; x64) AppleWebKit/537.36 (KHTML, like Gecko) Chrome/138.0.0.0 Safari/537.36","WebKit","Chrome","138.0.0.0","Windows","10.0","https://app.prolific.com/","en-ZA,en-GB;q=0.9,en-US;q=0.8,en;q=0.7","666408427db5e38fe0ea1736","686e379bc37a29ffa5cdc956","687768940d697f122fba4b8c","1","1","666408427db5e38fe0ea1736","1","1","2025-07-16T09:09:59.303Z","","","","","","","","","","","","","","win-only","0","g1:NW,g2:SE","0.6","12","0","874164.5","1584.1","6590.3","39981.2","1","4","8","6","2","-8","-8","0","0","0","1453.2","3000","-2745","[""down"",""right""]","{""num_key_presses"":6,""num_perfect"":3,""num_errors"":0,""num_randdir"":3,""num_randdir_good_moves"":2,""num_whilered"":0,""num_whileblue"":0,""num_blue"":4,""num_good_moves"":4}","[305.22232142857143,293.12857142857143,0.2,305.22232142857143,293.12857142857143,101.8,305.22232142857143,293.12857142857143,206.3,305.22232142857143,293.12857142857143,306.3,305.22232142857143,293.12857142857143,415.5,305.22232142857143,293.12857142857143,524.4,300.22232142857143,289.12857142857143,627.7,247.22232142857143,264.12857142857143,732.3,284.22232142857143,314.12857142857143,835.7,404.22232142857143,414.12857142857143,937.6,477.22232142857143,459.12857142857143,1042.2,526.2223214285714,552.1285714285714,1143,526.2223214285714,552.1285714285714,1247,526.2223214285714,552.1285714285714,1354.6,526.2223214285714,552.1285714285714,1465.6,526.2223214285714,552.1285714285714,1565.7,526.2223214285714,552.1285714285714,1667.8,526.2223214285714,552.1285714285714,1771.7,526.2223214285714,552.1285714285714,1876.5,526.2223214285714,552.1285714285714,1977.1,526.2223214285714,552.1285714285714,2087.4,526.2223214285714,552.1285714285714,2187.9,526.2223214285714,552.1285714285714,2291.6,526.2223214285714,552.1285714285714,2400.7,526.2223214285714,552.1285714285714,2507.2,526.2223214285714,552.1285714285714,2607.3,526.2223214285714,552.1285714285714,2711.6,526.2223214285714,552.1285714285714,2812.5,526.2223214285714,552.1285714285714,2917.8,526.2223214285714,552.1285714285714,3021.5,526.2223214285714,552.1285714285714,3121.7,526.2223214285714,552.1285714285714,3226.5,526.2223214285714,552.1285714285714,3328.1,526.2223214285714,552.1285714285714,3438.8,526.2223214285714,552.1285714285714,3542.6,526.2223214285714,552.1285714285714,3646.2,526.2223214285714,552.1285714285714,3746.5,526.2223214285714,552.1285714285714,3847.7,526.2223214285714,552.1285714285714,3956.6,526.2223214285714,552.1285714285714,4057.1,526.2223214285714,552.1285714285714,4157.8,526.2223214285714,552.1285714285714,4261.3,526.2223214285714,552.1285714285714,4361.5,526.2223214285714,552.1285714285714,4461.7,526.2223214285714,552.1285714285714,4561.8,526.2223214285714,552.1285714285714,4666.5,526.2223214285714,552.1285714285714,4772.9,526.2223214285714,552.1285714285714,4876.3,526.2223214285714,552.1285714285714,4976.6]","[4576.2,4576.2,2227.1,2005.2,343.9,""oops"",""left"",""up"",""bad_move"",11040.6,6464,2291.2,8331.4,418,""smooth"",""up"",""up"",""bad_move"",14206.7,3166,2479.3,11040.7,686.7,""oops"",""right"",""down"",""good_move"",17842.2,3635.3,2494.2,14207,1141,""smooth"",""down"",""down"",""good_move"",20689.5,2847.1,2486.5,17842.4,360.6,""oops"",""down"",""down"",""good_move"",23841.7,3151.9,2849.2,20689.8,302.7,""smooth"",""right"",""right"",""good_move""]","",""
"4259","","<div style=""width:500px;"">
  <p>What determined the result of this run?</p>
  </div>","37","html-slider-response","65","918738","0.0-5.0-1.11","83","1","2025-07-16 08:54:42","1f75c3e559b7213887762d5229550c2b","154.66.155.77","Mozilla/5.0 (Windows NT 10.0; Win64; x64) AppleWebKit/537.36 (KHTML, like Gecko) Chrome/138.0.0.0 Safari/537.36","WebKit","Chrome","138.0.0.0","Windows","10.0","https://app.prolific.com/","en-ZA,en-GB;q=0.9,en-US;q=0.8,en;q=0.7","666408427db5e38fe0ea1736","686e379bc37a29ffa5cdc956","687768940d697f122fba4b8c","1","1","666408427db5e38fe0ea1736","1","1","2025-07-16T09:10:03.563Z","","","","","","","","","","","AttribQ","","50","","","","","","","","","","","","","","","","","","","","","","","","","","","","",""
"3583","","<div style=""width:500px;"">
  <p>How much control did you have over the ball?</p>
  </div>","35","html-slider-response","66","922322","0.0-5.0-2.11","83","1","2025-07-16 08:54:42","1f75c3e559b7213887762d5229550c2b","154.66.155.77","Mozilla/5.0 (Windows NT 10.0; Win64; x64) AppleWebKit/537.36 (KHTML, like Gecko) Chrome/138.0.0.0 Safari/537.36","WebKit","Chrome","138.0.0.0","Windows","10.0","https://app.prolific.com/","en-ZA,en-GB;q=0.9,en-US;q=0.8,en;q=0.7","666408427db5e38fe0ea1736","686e379bc37a29ffa5cdc956","687768940d697f122fba4b8c","1","1","666408427db5e38fe0ea1736","1","1","2025-07-16T09:10:07.147Z","","","","","","","","","","","ControlQ","","50","","","","","","","","","","","","","","","","","","","","","","","","","","","","",""
"2748","","<div style=""width:500px;"">
  <p>How would you describe your current emotional state?</p>
  </div>","67","html-slider-response","67","925071","0.0-5.0-3.11","83","1","2025-07-16 08:54:42","1f75c3e559b7213887762d5229550c2b","154.66.155.77","Mozilla/5.0 (Windows NT 10.0; Win64; x64) AppleWebKit/537.36 (KHTML, like Gecko) Chrome/138.0.0.0 Safari/537.36","WebKit","Chrome","138.0.0.0","Windows","10.0","https://app.prolific.com/","en-ZA,en-GB;q=0.9,en-US;q=0.8,en;q=0.7","666408427db5e38fe0ea1736","686e379bc37a29ffa5cdc956","687768940d697f122fba4b8c","1","1","666408427db5e38fe0ea1736","1","1","2025-07-16T09:10:09.896Z","","","","","","","","","","","StressQ","","50","","","","","","","","","","","","","","","","","","","","","","","","","","","","",""
"3735","","<div style=""width:500px;"">
  <p>What best describes how you currently feel?</p>
  </div>","67","html-slider-response","68","928807","0.0-5.0-4.11","83","1","2025-07-16 08:54:42","1f75c3e559b7213887762d5229550c2b","154.66.155.77","Mozilla/5.0 (Windows NT 10.0; Win64; x64) AppleWebKit/537.36 (KHTML, like Gecko) Chrome/138.0.0.0 Safari/537.36","WebKit","Chrome","138.0.0.0","Windows","10.0","https://app.prolific.com/","en-ZA,en-GB;q=0.9,en-US;q=0.8,en;q=0.7","666408427db5e38fe0ea1736","686e379bc37a29ffa5cdc956","687768940d697f122fba4b8c","1","1","666408427db5e38fe0ea1736","1","1","2025-07-16T09:10:13.632Z","","","","","","","","","","","MotivationQ","","50","","","","","","","","","","","","","","","","","","","","","","","","","","","","",""
"","","","","ctl-task-cpt","69","954012","0.0-5.0-0.12","83","1","2025-07-16 08:54:42","1f75c3e559b7213887762d5229550c2b","154.66.155.77","Mozilla/5.0 (Windows NT 10.0; Win64; x64) AppleWebKit/537.36 (KHTML, like Gecko) Chrome/138.0.0.0 Safari/537.36","WebKit","Chrome","138.0.0.0","Windows","10.0","https://app.prolific.com/","en-ZA,en-GB;q=0.9,en-US;q=0.8,en;q=0.7","666408427db5e38fe0ea1736","686e379bc37a29ffa5cdc956","687768940d697f122fba4b8c","1","1","666408427db5e38fe0ea1736","1","1","2025-07-16T09:10:38.836Z","","","","","","","","","","","","","","win-only","1","g1:NE,g2:SW","0.7","13","0","931499.3","1524.4","6526.7","22185.5","1","4","4","6","1","1","1","1","0","0.007575757575757576","1920.5","3000","760","[""up"",""right""]","{""num_key_presses"":6,""num_perfect"":4,""num_errors"":0,""num_randdir"":2,""num_randdir_good_moves"":1,""num_whilered"":0,""num_whileblue"":0,""num_blue"":0,""num_good_moves"":5}","[301.22232142857143,302.12857142857143,0.1,301.22232142857143,302.12857142857143,100.8,301.22232142857143,302.12857142857143,200.9,301.22232142857143,302.12857142857143,301.7,301.22232142857143,302.12857142857143,402.5,301.22232142857143,302.12857142857143,506.4,301.22232142857143,302.12857142857143,606.8,258.22232142857143,342.12857142857143,707.4,166.22232142857143,474.12857142857143,811.7,166.22232142857143,474.12857142857143,916.5,166.22232142857143,474.12857142857143,1016.6,166.22232142857143,474.12857142857143,1117.6,261.22232142857143,369.12857142857143,1221.9,441.22232142857143,193.12857142857143,1326,485.22232142857143,133.12857142857143,1427.7,503.22232142857143,108.12857142857143,1532.3,525.2223214285714,82.12857142857143,1636.1,530.2223214285714,70.12857142857143,1737,530.2223214285714,70.12857142857143,1841.7,530.2223214285714,70.12857142857143,1942,530.2223214285714,70.12857142857143,2046.7,530.2223214285714,70.12857142857143,2151.7,530.2223214285714,70.12857142857143,2252,530.2223214285714,70.12857142857143,2357.5,530.2223214285714,70.12857142857143,2461.5,530.2223214285714,70.12857142857143,2565.1,530.2223214285714,70.12857142857143,2666.3,530.2223214285714,70.12857142857143,2772.7,530.2223214285714,70.12857142857143,2880.8,530.2223214285714,70.12857142857143,2987.3,530.2223214285714,70.12857142857143,3092.3,530.2223214285714,70.12857142857143,3196.6,530.2223214285714,70.12857142857143,3298.7,530.2223214285714,70.12857142857143,3401,530.2223214285714,70.12857142857143,3501.3,530.2223214285714,70.12857142857143,3601.5,530.2223214285714,70.12857142857143,3707.4,530.2223214285714,70.12857142857143,3815.2,530.2223214285714,70.12857142857143,3916.7,530.2223214285714,70.12857142857143,4016.7,530.2223214285714,70.12857142857143,4121.9,530.2223214285714,70.12857142857143,4226.1,530.2223214285714,70.12857142857143,4326.3,530.2223214285714,70.12857142857143,4427.3,530.2223214285714,70.12857142857143,4531.2,530.2223214285714,70.12857142857143,4632.8,530.2223214285714,70.12857142857143,4736,530.2223214285714,70.12857142857143,4836,530.2223214285714,70.12857142857143,4937]","[1387.7,1387.7,1000,0,387.7,""smooth"",""up"",""up"",""good_move"",5183.7,3795.7,3331.4,1388,464.3,""oops"",""right"",""down"",""bad_move"",7423.5,2239.5,1755.3,5184,484.2,""smooth"",""up"",""up"",""good_move"",10206.3,2782.6,2411.6,7423.7,371,""oops"",""right"",""right"",""good_move"",13115.9,2909.4,2549.8,10206.5,359.6,""smooth"",""up"",""up"",""good_move"",15556,2439.8,2063.1,13116.2,376.7,""smooth"",""right"",""right"",""good_move""]","",""
"4366","","<div style=""width:500px;"">
  <p>What determined the result of this run?</p>
  </div>","99","html-slider-response","70","958379","0.0-5.0-1.12","83","1","2025-07-16 08:54:42","1f75c3e559b7213887762d5229550c2b","154.66.155.77","Mozilla/5.0 (Windows NT 10.0; Win64; x64) AppleWebKit/537.36 (KHTML, like Gecko) Chrome/138.0.0.0 Safari/537.36","WebKit","Chrome","138.0.0.0","Windows","10.0","https://app.prolific.com/","en-ZA,en-GB;q=0.9,en-US;q=0.8,en;q=0.7","666408427db5e38fe0ea1736","686e379bc37a29ffa5cdc956","687768940d697f122fba4b8c","1","1","666408427db5e38fe0ea1736","1","1","2025-07-16T09:10:43.203Z","","","","","","","","","","","AttribQ","","50","","","","","","","","","","","","","","","","","","","","","","","","","","","","",""
"4978","","<div style=""width:500px;"">
  <p>How much control did you have over the ball?</p>
  </div>","96","html-slider-response","71","963358","0.0-5.0-2.12","83","1","2025-07-16 08:54:42","1f75c3e559b7213887762d5229550c2b","154.66.155.77","Mozilla/5.0 (Windows NT 10.0; Win64; x64) AppleWebKit/537.36 (KHTML, like Gecko) Chrome/138.0.0.0 Safari/537.36","WebKit","Chrome","138.0.0.0","Windows","10.0","https://app.prolific.com/","en-ZA,en-GB;q=0.9,en-US;q=0.8,en;q=0.7","666408427db5e38fe0ea1736","686e379bc37a29ffa5cdc956","687768940d697f122fba4b8c","1","1","666408427db5e38fe0ea1736","1","1","2025-07-16T09:10:48.182Z","","","","","","","","","","","ControlQ","","50","","","","","","","","","","","","","","","","","","","","","","","","","","","","",""
"4802","","<div style=""width:500px;"">
  <p>How would you describe your current emotional state?</p>
  </div>","37","html-slider-response","72","968160","0.0-5.0-3.12","83","1","2025-07-16 08:54:42","1f75c3e559b7213887762d5229550c2b","154.66.155.77","Mozilla/5.0 (Windows NT 10.0; Win64; x64) AppleWebKit/537.36 (KHTML, like Gecko) Chrome/138.0.0.0 Safari/537.36","WebKit","Chrome","138.0.0.0","Windows","10.0","https://app.prolific.com/","en-ZA,en-GB;q=0.9,en-US;q=0.8,en;q=0.7","666408427db5e38fe0ea1736","686e379bc37a29ffa5cdc956","687768940d697f122fba4b8c","1","1","666408427db5e38fe0ea1736","1","1","2025-07-16T09:10:52.984Z","","","","","","","","","","","StressQ","","50","","","","","","","","","","","","","","","","","","","","","","","","","","","","",""
"6405","","<div style=""width:500px;"">
  <p>What best describes how you currently feel?</p>
  </div>","92","html-slider-response","73","974566","0.0-5.0-4.12","83","1","2025-07-16 08:54:42","1f75c3e559b7213887762d5229550c2b","154.66.155.77","Mozilla/5.0 (Windows NT 10.0; Win64; x64) AppleWebKit/537.36 (KHTML, like Gecko) Chrome/138.0.0.0 Safari/537.36","WebKit","Chrome","138.0.0.0","Windows","10.0","https://app.prolific.com/","en-ZA,en-GB;q=0.9,en-US;q=0.8,en;q=0.7","666408427db5e38fe0ea1736","686e379bc37a29ffa5cdc956","687768940d697f122fba4b8c","1","1","666408427db5e38fe0ea1736","1","1","2025-07-16T09:10:59.390Z","","","","","","","","","","","MotivationQ","","50","","","","","","","","","","","","","","","","","","","","","","","","","","","","",""
"","","","","ctl-task-cpt","74","999891","0.0-5.0-0.13","83","1","2025-07-16 08:54:42","1f75c3e559b7213887762d5229550c2b","154.66.155.77","Mozilla/5.0 (Windows NT 10.0; Win64; x64) AppleWebKit/537.36 (KHTML, like Gecko) Chrome/138.0.0.0 Safari/537.36","WebKit","Chrome","138.0.0.0","Windows","10.0","https://app.prolific.com/","en-ZA,en-GB;q=0.9,en-US;q=0.8,en;q=0.7","666408427db5e38fe0ea1736","686e379bc37a29ffa5cdc956","687768940d697f122fba4b8c","1","1","666408427db5e38fe0ea1736","1","1","2025-07-16T09:11:24.716Z","","","","","","","","","","","","","","win-only","1","g1:NE,g2:SW","0.8","14","0","977257.3","1797.8","6801.6","22311.4","1","4","8","6","2","8","8","9","1","0.06818181818181818","2131.8","3000","785","[""down"",""left""]","{""num_key_presses"":6,""num_perfect"":6,""num_errors"":0,""num_randdir"":0,""num_randdir_good_moves"":0,""num_whilered"":0,""num_whileblue"":0,""num_blue"":0,""num_good_moves"":6}","[300.22232142857143,289.12857142857143,0.1,300.22232142857143,289.12857142857143,102.7,300.22232142857143,289.12857142857143,207.8,300.22232142857143,289.12857142857143,308.2,300.22232142857143,289.12857142857143,413.3,300.22232142857143,289.12857142857143,517.4,300.22232142857143,289.12857142857143,618.4,333.22232142857143,269.12857142857143,723.3,331.22232142857143,282.12857142857143,832.8,247.22232142857143,386.12857142857143,932.8,211.22232142857143,411.12857142857143,1034.5,211.22232142857143,411.12857142857143,1138,211.22232142857143,411.12857142857143,1238,153.22232142857143,471.12857142857143,1343.1,145.22232142857143,481.12857142857143,1451.9,145.22232142857143,481.12857142857143,1554.9,145.22232142857143,481.12857142857143,1657.9,140.22232142857143,484.12857142857143,1762.4,90.22232142857143,502.12857142857143,1867.4,90.22232142857143,502.12857142857143,1967.7,90.22232142857143,502.12857142857143,2068.8,90.22232142857143,502.12857142857143,2168.8,90.22232142857143,502.12857142857143,2272.6,90.22232142857143,502.12857142857143,2374.3,90.22232142857143,502.12857142857143,2474.8,90.22232142857143,502.12857142857143,2577.6,90.22232142857143,502.12857142857143,2677.6,90.22232142857143,502.12857142857143,2778.6,90.22232142857143,502.12857142857143,2879.1,90.22232142857143,502.12857142857143,2989.1,90.22232142857143,502.12857142857143,3092.8,90.22232142857143,502.12857142857143,3193.6,90.22232142857143,502.12857142857143,3297.6,90.22232142857143,502.12857142857143,3398.1,90.22232142857143,502.12857142857143,3502.8,90.22232142857143,502.12857142857143,3602.8,90.22232142857143,502.12857142857143,3703.5,90.22232142857143,502.12857142857143,3803.7,90.22232142857143,502.12857142857143,3903.8,90.22232142857143,502.12857142857143,4007.7,90.22232142857143,502.12857142857143,4107.7,90.22232142857143,502.12857142857143,4207.9,90.22232142857143,502.12857142857143,4308.4,90.22232142857143,502.12857142857143,4408.7,90.22232142857143,502.12857142857143,4518.8,90.22232142857143,502.12857142857143,4623,90.22232142857143,502.12857142857143,4723.7,90.22232142857143,502.12857142857143,4828.7,90.22232142857143,502.12857142857143,4928.7]","[1428.9,1428.9,1000,0,428.9,""smooth"",""down"",""down"",""good_move"",4388.7,2959.4,2581.3,1429.3,378.1,""smooth"",""down"",""down"",""good_move"",6969.2,2580.3,2130,4388.9,450.3,""smooth"",""down"",""down"",""good_move"",9720.3,2750.9,2394.7,6969.4,356.2,""smooth"",""left"",""left"",""good_move"",12102.6,2382,1996.4,9720.6,385.6,""smooth"",""left"",""left"",""good_move"",15421.2,3318.4,2882.2,12102.8,436.2,""smooth"",""left"",""left"",""good_move""]","",""
"4902","","<div style=""width:500px;"">
  <p>What determined the result of this run?</p>
