"rt","response_timestamp","stimulus","response","trial_type","trial_index","time_elapsed","internal_node_id","run_id","condition","recorded_at","source_code_version","ip","user_agent","device","browser","browser_version","platform","platform_version","referer","accept_language","PROLIFIC_PID","STUDY_ID","SESSION_ID","WEEK","BATCH","prolific_id","week","batch","realtime","success","responses","item_order","radio_event_ids","radio_event_times","key_event_times","mouse_event_times","straightlining","zigzagging","honeypot","eventType","view_history","slider_start","which_type","canvas_config","goals_layout","control_level","trial_number","tutorial_trial_number","trial_start_time","phase1_start_time","phase2_start_time","phase3_start_time","goal_1_value","goal_1_distance","goal_2_value","goal_2_distance","goal_selected","outcome","outcome_total","participant_final_score","participant_initial_score","participant_final_score_prop","goal_choice_rt","allocated_time","allocated_time_remaining","goal_direction","counts","mouse_movements","key_presses","question_order","question_id"
"4839","1753252776427","<p style='font-size:40px;line-height:1.25'><strong>Welcome to the experiment!</strong></p><p style='font-size:1.1em;line-height:1.25'>Thank you for participanting in our experiment again! You will be asked to play the Dysfunctional Ball Game again. We will briefly recap the rules before we start.</p><p style='font-size:1.1em;line-height:1.25'>Press <strong>Next</strong> to continue.</p>","0","custom-html-button-response","0","4846","0.0-0.0","160","1","2025-07-23 06:39:20","1f75c3e559b7213887762d5229550c2b","216.120.189.118","Mozilla/5.0 (Windows NT 10.0; Win64; x64) AppleWebKit/537.36 (KHTML, like Gecko) Chrome/138.0.0.0 Safari/537.36","WebKit","Chrome","138.0.0.0","Windows","10.0","https://app.prolific.com/","en-US,en;q=0.9","6786c32f329b1d694103f225","683dba2a8a9dda3513610c04","68808364ca43b4251bf90b25","3","0","6786c32f329b1d694103f225","3","0","2025-07-23T06:39:36.430Z","","","","","","","","","","","","","","","","","","","","","","","","","","","","","","","","","","","","","","","","","",""
"5645","","","","fullscreen","1","11502","0.0-1.0","160","1","2025-07-23 06:39:20","1f75c3e559b7213887762d5229550c2b","216.120.189.118","Mozilla/5.0 (Windows NT 10.0; Win64; x64) AppleWebKit/537.36 (KHTML, like Gecko) Chrome/138.0.0.0 Safari/537.36","WebKit","Chrome","138.0.0.0","Windows","10.0","https://app.prolific.com/","en-US,en;q=0.9","6786c32f329b1d694103f225","683dba2a8a9dda3513610c04","68808364ca43b4251bf90b25","3","0","6786c32f329b1d694103f225","3","0","","true","","","","","","","","","","","","","","","","","","","","","","","","","","","","","","","","","","","","","","","","",""
"3438","1753252786526","<p style='font-size:1.1em;line-height:1.25'>In the following, we will ask you a few questions relating to your feelings in the last 24 hours.<br></p><p style='font-size:1.1em;line-height:1.25'>Press the <strong>Next</strong> button to continue.</p>","0","custom-html-button-response","2","14943","0.0-2.0-0.0","160","1","2025-07-23 06:39:20","1f75c3e559b7213887762d5229550c2b","216.120.189.118","Mozilla/5.0 (Windows NT 10.0; Win64; x64) AppleWebKit/537.36 (KHTML, like Gecko) Chrome/138.0.0.0 Safari/537.36","WebKit","Chrome","138.0.0.0","Windows","10.0","https://app.prolific.com/","en-US,en;q=0.9","6786c32f329b1d694103f225","683dba2a8a9dda3513610c04","68808364ca43b4251bf90b25","3","0","6786c32f329b1d694103f225","3","0","2025-07-23T06:39:46.527Z","","","","","","","","","","","","","","","","","","","","","","","","","","","","","","","","","","","","","","","","","",""
"75594.5","","","","survey-template","3","90555","0.0-2.0-1.0","160","1","2025-07-23 06:39:20","1f75c3e559b7213887762d5229550c2b","216.120.189.118","Mozilla/5.0 (Windows NT 10.0; Win64; x64) AppleWebKit/537.36 (KHTML, like Gecko) Chrome/138.0.0.0 Safari/537.36","WebKit","Chrome","138.0.0.0","Windows","10.0","https://app.prolific.com/","en-US,en;q=0.9","6786c32f329b1d694103f225","683dba2a8a9dda3513610c04","68808364ca43b4251bf90b25","3","0","6786c32f329b1d694103f225","3","0","2025-07-23T06:41:02.139Z","","{""Q01"":""1"",""Q02"":""0"",""Q03"":""0"",""Q04"":""0"",""Q05"":""3"",""Q06"":""1"",""Q07"":""2"",""Q08"":""1"",""Q09"":""2"",""Q10"":""0"",""Q11"":""2"",""Q12"":""0"",""Q13"":""5"",""Q14"":""0"",""Q15"":""0"",""Q16"":""0"",""Q17"":""2"",""Q18"":""2"",""Q19"":""0"",""Q20"":""0"",""Q21"":""0"",""Q22"":""0""}","[0,1,2,3,4,5,6,7,8,9,10,11,12,13,14,15,16,17,18,19,20,21]","[""Q01"",""Q02"",""Q03"",""Q04"",""Q05"",""Q06"",""Q07"",""Q08"",""Q09"",""Q10"",""Q11"",""Q12"",""Q13"",""Q14"",""Q15"",""Q16"",""Q17"",""Q18"",""Q19"",""Q20"",""Q21"",""Q22""]","[5656.39999999851,8594.89999999851,9794.10000000149,13462.60000000149,15253.39999999851,20249,23060.39999999851,26216.5,29424.60000000149,32876.20000000298,36709.39999999851,43199.89999999851,47775.5,54420.79999999702,55824.79999999702,57165.79999999702,60261.89999999851,61778.20000000298,65361.10000000149,68421.39999999851,70171.10000000149,73441.89999999851]","[]","[0.10000000149011612,5656.39999999851,7354.89999999851,8594.89999999851,9794.10000000149,13462.60000000149,15253.39999999851,20249,23060.39999999851,26216.5,29424.60000000149,32876.20000000298,36709.39999999851,43199.89999999851,47775.5,54420.79999999702,55824.79999999702,57165.79999999702,60261.89999999851,61778.20000000298,64399.5,65361.10000000149,66544.20000000298,68421.39999999851,70171.10000000149,73441.89999999851,75576.20000000298]","0.5454545454545454","0.2857142857142857","0","drsp","","","","","","","","","","","","","","","","","","","","","","","","","","","","","","",""
"17817.5","","","","survey-template","4","108378","0.0-2.0-2.0","160","1","2025-07-23 06:39:20","1f75c3e559b7213887762d5229550c2b","216.120.189.118","Mozilla/5.0 (Windows NT 10.0; Win64; x64) AppleWebKit/537.36 (KHTML, like Gecko) Chrome/138.0.0.0 Safari/537.36","WebKit","Chrome","138.0.0.0","Windows","10.0","https://app.prolific.com/","en-US,en;q=0.9","6786c32f329b1d694103f225","683dba2a8a9dda3513610c04","68808364ca43b4251bf90b25","3","0","6786c32f329b1d694103f225","3","0","2025-07-23T06:41:19.962Z","","{""Q01"":""1"",""Q02"":""4"",""Q03"":""0""}","[0,1,2]","[""Q01"",""Q02"",""Q03""]","[3828,12296.60000000149,16078.29999999702]","[]","[3828,12296.60000000149,16078.29999999702,17815.10000000149]","0.6666666666666666","0.5","0","stress","","","","","","","","","","","","","","","","","","","","","","","","","","","","","","",""
"5858","","","","instructions","5","114238","0.0-3.0-0.0","160","1","2025-07-23 06:39:20","1f75c3e559b7213887762d5229550c2b","216.120.189.118","Mozilla/5.0 (Windows NT 10.0; Win64; x64) AppleWebKit/537.36 (KHTML, like Gecko) Chrome/138.0.0.0 Safari/537.36","WebKit","Chrome","138.0.0.0","Windows","10.0","https://app.prolific.com/","en-US,en;q=0.9","6786c32f329b1d694103f225","683dba2a8a9dda3513610c04","68808364ca43b4251bf90b25","3","0","6786c32f329b1d694103f225","3","0","","","","","","","","","","","","","[{""page_index"":0,""viewing_time"":5857}]","","","","","","","","","","","","","","","","","","","","","","","","","","","","","",""
"7200","","<p>Before you start with this game please answer the following three questions yourself. </p>
  <p>Through this game, we measure several aspects of your cognitive performance, such as reaction times, multi-tasking capabilities </p>
  <p>and the ability to assess the situation you are in.</p>
  <p></p>
  <p><b>How good do you usually are in such tasks?</b></p>","90","html-slider-response","6","121442","0.0-4.0-0.0","160","1","2025-07-23 06:39:20","1f75c3e559b7213887762d5229550c2b","216.120.189.118","Mozilla/5.0 (Windows NT 10.0; Win64; x64) AppleWebKit/537.36 (KHTML, like Gecko) Chrome/138.0.0.0 Safari/537.36","WebKit","Chrome","138.0.0.0","Windows","10.0","https://app.prolific.com/","en-US,en;q=0.9","6786c32f329b1d694103f225","683dba2a8a9dda3513610c04","68808364ca43b4251bf90b25","3","0","6786c32f329b1d694103f225","3","0","2025-07-23T06:41:33.026Z","","","","","","","","","","","PreSkillQ","","50","","","","","","","","","","","","","","","","","","","","","","","","","","","","",""
"4084","","<div style=""width:500px;"">
  <p>How well do you think you will perform in this task compared to other participants?</p>
  </div>","82","html-slider-response","7","125529","0.0-4.0-1.0","160","1","2025-07-23 06:39:20","1f75c3e559b7213887762d5229550c2b","216.120.189.118","Mozilla/5.0 (Windows NT 10.0; Win64; x64) AppleWebKit/537.36 (KHTML, like Gecko) Chrome/138.0.0.0 Safari/537.36","WebKit","Chrome","138.0.0.0","Windows","10.0","https://app.prolific.com/","en-US,en;q=0.9","6786c32f329b1d694103f225","683dba2a8a9dda3513610c04","68808364ca43b4251bf90b25","3","0","6786c32f329b1d694103f225","3","0","2025-07-23T06:41:37.113Z","","","","","","","","","","","PrePerfQ","","50","","","","","","","","","","","","","","","","","","","","","","","","","","","","",""
"6102","","<div style=""width:500px;"">
  <p>What best describes how you currently feel?</p>
  </div>","83","html-slider-response","8","131634","0.0-4.0-2.0","160","1","2025-07-23 06:39:20","1f75c3e559b7213887762d5229550c2b","216.120.189.118","Mozilla/5.0 (Windows NT 10.0; Win64; x64) AppleWebKit/537.36 (KHTML, like Gecko) Chrome/138.0.0.0 Safari/537.36","WebKit","Chrome","138.0.0.0","Windows","10.0","https://app.prolific.com/","en-US,en;q=0.9","6786c32f329b1d694103f225","683dba2a8a9dda3513610c04","68808364ca43b4251bf90b25","3","0","6786c32f329b1d694103f225","3","0","2025-07-23T06:41:43.218Z","","","","","","","","","","","PreMotivationQ","","50","","","","","","","","","","","","","","","","","","","","","","","","","","","","",""
"","","","","ctl-task-cpt","9","160217","0.0-5.0-0.0","160","1","2025-07-23 06:39:20","1f75c3e559b7213887762d5229550c2b","216.120.189.118","Mozilla/5.0 (Windows NT 10.0; Win64; x64) AppleWebKit/537.36 (KHTML, like Gecko) Chrome/138.0.0.0 Safari/537.36","WebKit","Chrome","138.0.0.0","Windows","10.0","https://app.prolific.com/","en-US,en;q=0.9","6786c32f329b1d694103f225","683dba2a8a9dda3513610c04","68808364ca43b4251bf90b25","3","0","6786c32f329b1d694103f225","3","0","2025-07-23T06:42:11.801Z","","","","","","","","","","","","","","win-only","1","g1:NE,g2:SW","1","1","0","143991.1","6138.9","11148.9","25568.8","1","4","8","6","1","1","1","1","0","0.007575757575757576","5009.9","3000","1590","[""up"",""right""]","{""num_key_presses"":4,""num_perfect"":4,""num_errors"":0,""num_randdir"":0,""num_randdir_good_moves"":0,""num_whilered"":0,""num_whileblue"":0,""num_blue"":1,""num_good_moves"":4}","[288.22232142857143,297.12857142857143,1,288.22232142857143,297.12857142857143,104.7,288.22232142857143,297.12857142857143,212,288.22232142857143,297.12857142857143,315,288.22232142857143,297.12857142857143,416.7,288.22232142857143,297.12857142857143,518.2,288.22232142857143,297.12857142857143,623.5,288.22232142857143,297.12857142857143,731.6,288.22232142857143,297.12857142857143,832.6,288.22232142857143,297.12857142857143,934.4,288.22232142857143,297.12857142857143,1036.9,288.22232142857143,297.12857142857143,1140.7,288.22232142857143,297.12857142857143,1242.1,288.22232142857143,297.12857142857143,1350.8,288.22232142857143,297.12857142857143,1452.3,288.22232142857143,297.12857142857143,1554.4,288.22232142857143,297.12857142857143,1665.7,288.22232142857143,297.12857142857143,1767,288.22232142857143,297.12857142857143,1868.9,288.22232142857143,297.12857142857143,1970.2,288.22232142857143,297.12857142857143,2071.2,288.22232142857143,297.12857142857143,2173.2,288.22232142857143,297.12857142857143,2280.4,288.22232142857143,297.12857142857143,2381.9,288.22232142857143,297.12857142857143,2483.6,288.22232142857143,297.12857142857143,2588,288.22232142857143,297.12857142857143,2689.6,288.22232142857143,297.12857142857143,2789.9,288.22232142857143,297.12857142857143,2899.9,288.22232142857143,297.12857142857143,3001.7,288.22232142857143,297.12857142857143,3103.7,288.22232142857143,297.12857142857143,3204,288.22232142857143,297.12857142857143,3305.9,288.22232142857143,297.12857142857143,3407.3,288.22232142857143,297.12857142857143,3521.5,288.22232142857143,297.12857142857143,3622.5,288.22232142857143,297.12857142857143,3723.1,288.22232142857143,297.12857142857143,3834.1,288.22232142857143,297.12857142857143,3940.5,288.22232142857143,297.12857142857143,4046.3,288.22232142857143,297.12857142857143,4154.5,288.22232142857143,297.12857142857143,4255.5,288.22232142857143,297.12857142857143,4357.6,288.22232142857143,297.12857142857143,4458,288.22232142857143,297.12857142857143,4561.3,288.22232142857143,297.12857142857143,4662.4,288.22232142857143,297.12857142857143,4764.2,288.22232142857143,297.12857142857143,4866,288.22232142857143,297.12857142857143,4967.1]","[1419.8,1419.8,1000,0,419.9,""smooth"",""right"",""right"",""good_move"",7899.7,6478.1,2391.2,5107.2,401.3,""smooth"",""right"",""right"",""good_move"",11157.6,3257.1,2232.5,7900.6,1024.6,""smooth"",""up"",""up"",""good_move"",14254.5,3093,2704.3,11161.5,388.7,""smooth"",""up"",""up"",""good_move""]","",""
"4337","","<div style=""width:500px;"">
  <p>What determined the result of this run?</p>
  </div>","98","html-slider-response","10","164557","0.0-5.0-1.0","160","1","2025-07-23 06:39:20","1f75c3e559b7213887762d5229550c2b","216.120.189.118","Mozilla/5.0 (Windows NT 10.0; Win64; x64) AppleWebKit/537.36 (KHTML, like Gecko) Chrome/138.0.0.0 Safari/537.36","WebKit","Chrome","138.0.0.0","Windows","10.0","https://app.prolific.com/","en-US,en;q=0.9","6786c32f329b1d694103f225","683dba2a8a9dda3513610c04","68808364ca43b4251bf90b25","3","0","6786c32f329b1d694103f225","3","0","2025-07-23T06:42:16.141Z","","","","","","","","","","","AttribQ","","50","","","","","","","","","","","","","","","","","","","","","","","","","","","","",""
"4559","","<div style=""width:500px;"">
  <p>How much control did you have over the ball?</p>
  </div>","99","html-slider-response","11","169119","0.0-5.0-2.0","160","1","2025-07-23 06:39:20","1f75c3e559b7213887762d5229550c2b","216.120.189.118","Mozilla/5.0 (Windows NT 10.0; Win64; x64) AppleWebKit/537.36 (KHTML, like Gecko) Chrome/138.0.0.0 Safari/537.36","WebKit","Chrome","138.0.0.0","Windows","10.0","https://app.prolific.com/","en-US,en;q=0.9","6786c32f329b1d694103f225","683dba2a8a9dda3513610c04","68808364ca43b4251bf90b25","3","0","6786c32f329b1d694103f225","3","0","2025-07-23T06:42:20.703Z","","","","","","","","","","","ControlQ","","50","","","","","","","","","","","","","","","","","","","","","","","","","","","","",""
"5374","","<div style=""width:500px;"">
  <p>How would you describe your current emotional state?</p>
  </div>","0","html-slider-response","12","174495","0.0-5.0-3.0","160","1","2025-07-23 06:39:20","1f75c3e559b7213887762d5229550c2b","216.120.189.118","Mozilla/5.0 (Windows NT 10.0; Win64; x64) AppleWebKit/537.36 (KHTML, like Gecko) Chrome/138.0.0.0 Safari/537.36","WebKit","Chrome","138.0.0.0","Windows","10.0","https://app.prolific.com/","en-US,en;q=0.9","6786c32f329b1d694103f225","683dba2a8a9dda3513610c04","68808364ca43b4251bf90b25","3","0","6786c32f329b1d694103f225","3","0","2025-07-23T06:42:26.080Z","","","","","","","","","","","StressQ","","50","","","","","","","","","","","","","","","","","","","","","","","","","","","","",""
"5910","","<div style=""width:500px;"">
  <p>What best describes how you currently feel?</p>
  </div>","100","html-slider-response","13","180410","0.0-5.0-4.0","160","1","2025-07-23 06:39:20","1f75c3e559b7213887762d5229550c2b","216.120.189.118","Mozilla/5.0 (Windows NT 10.0; Win64; x64) AppleWebKit/537.36 (KHTML, like Gecko) Chrome/138.0.0.0 Safari/537.36","WebKit","Chrome","138.0.0.0","Windows","10.0","https://app.prolific.com/","en-US,en;q=0.9","6786c32f329b1d694103f225","683dba2a8a9dda3513610c04","68808364ca43b4251bf90b25","3","0","6786c32f329b1d694103f225","3","0","2025-07-23T06:42:31.994Z","","","","","","","","","","","MotivationQ","","50","","","","","","","","","","","","","","","","","","","","","","","","","","","","",""
"","","","","ctl-task-cpt","14","214757","0.0-5.0-0.1","160","1","2025-07-23 06:39:20","1f75c3e559b7213887762d5229550c2b","216.120.189.118","Mozilla/5.0 (Windows NT 10.0; Win64; x64) AppleWebKit/537.36 (KHTML, like Gecko) Chrome/138.0.0.0 Safari/537.36","WebKit","Chrome","138.0.0.0","Windows","10.0","https://app.prolific.com/","en-US,en;q=0.9","6786c32f329b1d694103f225","683dba2a8a9dda3513610c04","68808364ca43b4251bf90b25","3","0","6786c32f329b1d694103f225","3","0","2025-07-23T06:43:06.341Z","","","","","","","","","","","","","","win-only","3","g1:SW,g2:NE","0.9","2","0","192764.3","1568.8","6573.5","31328.1","1","4","4","6","1","1","0","1","1","0.007575757575757576","5004.7","3000","1155","[""down"",""left""]","{""num_key_presses"":8,""num_perfect"":6,""num_errors"":1,""num_randdir"":1,""num_randdir_good_moves"":1,""num_whilered"":0,""num_whileblue"":1,""num_blue"":2,""num_good_moves"":6}","[301.22232142857143,290.12857142857143,0.8,301.22232142857143,290.12857142857143,102.5,301.22232142857143,290.12857142857143,205.2,301.22232142857143,290.12857142857143,309.3,301.22232142857143,290.12857142857143,412.4,301.22232142857143,290.12857142857143,522.9,301.22232142857143,290.12857142857143,633.3,301.22232142857143,290.12857142857143,739.4,301.22232142857143,290.12857142857143,840.6,301.22232142857143,290.12857142857143,946.8,301.22232142857143,290.12857142857143,1050.5,301.22232142857143,290.12857142857143,1152.8,301.22232142857143,290.12857142857143,1254.2,301.22232142857143,290.12857142857143,1354.6,301.22232142857143,290.12857142857143,1460.8,301.22232142857143,290.12857142857143,1563.4,301.22232142857143,290.12857142857143,1666.2,301.22232142857143,290.12857142857143,1772.3,301.22232142857143,290.12857142857143,1875.8,301.22232142857143,290.12857142857143,1977.1,301.22232142857143,290.12857142857143,2079.1,301.22232142857143,290.12857142857143,2183,301.22232142857143,290.12857142857143,2294.1,301.22232142857143,290.12857142857143,2401.4,301.22232142857143,290.12857142857143,2503,301.22232142857143,290.12857142857143,2604.2,301.22232142857143,290.12857142857143,2718,301.22232142857143,290.12857142857143,2825.6,301.22232142857143,290.12857142857143,2928.5,301.22232142857143,290.12857142857143,3030.3,301.22232142857143,290.12857142857143,3132.7,301.22232142857143,290.12857142857143,3233.3,301.22232142857143,290.12857142857143,3337.7,301.22232142857143,290.12857142857143,3439,301.22232142857143,290.12857142857143,3547,301.22232142857143,290.12857142857143,3653.6,301.22232142857143,290.12857142857143,3760.7,301.22232142857143,290.12857142857143,3862.2,301.22232142857143,290.12857142857143,3966.5,301.22232142857143,290.12857142857143,4069.1,301.22232142857143,290.12857142857143,4169.7,301.22232142857143,290.12857142857143,4270.7,301.22232142857143,290.12857142857143,4373,301.22232142857143,290.12857142857143,4475.7,301.22232142857143,290.12857142857143,4582.5,301.22232142857143,290.12857142857143,4682.9,301.22232142857143,290.12857142857143,4790.8,301.22232142857143,290.12857142857143,4893]","[1491.5,1491.4,1000,0.1,491.4,""smooth"",""right"",""right"",""bad_move"",4364.8,2869.3,2510.3,1495.6,358.9,""smooth"",""down"",""down"",""good_move"",6610.8,2244.5,1843.7,4366.3,400.9,""smooth"",""down"",""down"",""good_move"",9387.8,2775.7,2421.9,6612.1,353.8,""smooth"",""left"",""left"",""good_move"",12280,2890.7,2539.3,9389.3,351.4,""while_blue"",""left"",""up"",""bad_move"",15123.1,2839.5,2453.4,12283.7,386.1,""smooth"",""down"",""down"",""good_move"",21263.2,6138.7,2224.7,18631.9,406.7,""smooth"",""left"",""left"",""good_move"",24620.4,3355,2949.6,21265.4,405.4,""oops"",""left"",""left"",""good_move""]","",""
"4375","","<div style=""width:500px;"">
  <p>What determined the result of this run?</p>
  </div>","95","html-slider-response","15","219134","0.0-5.0-1.1","160","1","2025-07-23 06:39:20","1f75c3e559b7213887762d5229550c2b","216.120.189.118","Mozilla/5.0 (Windows NT 10.0; Win64; x64) AppleWebKit/537.36 (KHTML, like Gecko) Chrome/138.0.0.0 Safari/537.36","WebKit","Chrome","138.0.0.0","Windows","10.0","https://app.prolific.com/","en-US,en;q=0.9","6786c32f329b1d694103f225","683dba2a8a9dda3513610c04","68808364ca43b4251bf90b25","3","0","6786c32f329b1d694103f225","3","0","2025-07-23T06:43:10.719Z","","","","","","","","","","","AttribQ","","50","","","","","","","","","","","","","","","","","","","","","","","","","","","","",""
"2486","","<div style=""width:500px;"">
  <p>How much control did you have over the ball?</p>
  </div>","92","html-slider-response","16","221624","0.0-5.0-2.1","160","1","2025-07-23 06:39:20","1f75c3e559b7213887762d5229550c2b","216.120.189.118","Mozilla/5.0 (Windows NT 10.0; Win64; x64) AppleWebKit/537.36 (KHTML, like Gecko) Chrome/138.0.0.0 Safari/537.36","WebKit","Chrome","138.0.0.0","Windows","10.0","https://app.prolific.com/","en-US,en;q=0.9","6786c32f329b1d694103f225","683dba2a8a9dda3513610c04","68808364ca43b4251bf90b25","3","0","6786c32f329b1d694103f225","3","0","2025-07-23T06:43:13.208Z","","","","","","","","","","","ControlQ","","50","","","","","","","","","","","","","","","","","","","","","","","","","","","","",""
"4890","","<div style=""width:500px;"">
  <p>How would you describe your current emotional state?</p>
  </div>","4","html-slider-response","17","226517","0.0-5.0-3.1","160","1","2025-07-23 06:39:20","1f75c3e559b7213887762d5229550c2b","216.120.189.118","Mozilla/5.0 (Windows NT 10.0; Win64; x64) AppleWebKit/537.36 (KHTML, like Gecko) Chrome/138.0.0.0 Safari/537.36","WebKit","Chrome","138.0.0.0","Windows","10.0","https://app.prolific.com/","en-US,en;q=0.9","6786c32f329b1d694103f225","683dba2a8a9dda3513610c04","68808364ca43b4251bf90b25","3","0","6786c32f329b1d694103f225","3","0","2025-07-23T06:43:18.101Z","","","","","","","","","","","StressQ","","50","","","","","","","","","","","","","","","","","","","","","","","","","","","","",""
"7276","","<div style=""width:500px;"">
  <p>What best describes how you currently feel?</p>
  </div>","94","html-slider-response","18","233796","0.0-5.0-4.1","160","1","2025-07-23 06:39:20","1f75c3e559b7213887762d5229550c2b","216.120.189.118","Mozilla/5.0 (Windows NT 10.0; Win64; x64) AppleWebKit/537.36 (KHTML, like Gecko) Chrome/138.0.0.0 Safari/537.36","WebKit","Chrome","138.0.0.0","Windows","10.0","https://app.prolific.com/","en-US,en;q=0.9","6786c32f329b1d694103f225","683dba2a8a9dda3513610c04","68808364ca43b4251bf90b25","3","0","6786c32f329b1d694103f225","3","0","2025-07-23T06:43:25.380Z","","","","","","","","","","","MotivationQ","","50","","","","","","","","","","","","","","","","","","","","","","","","","","","","",""
"","","","","ctl-task-cpt","19","258573","0.0-5.0-0.2","160","1","2025-07-23 06:39:20","1f75c3e559b7213887762d5229550c2b","216.120.189.118","Mozilla/5.0 (Windows NT 10.0; Win64; x64) AppleWebKit/537.36 (KHTML, like Gecko) Chrome/138.0.0.0 Safari/537.36","WebKit","Chrome","138.0.0.0","Windows","10.0","https://app.prolific.com/","en-US,en;q=0.9","6786c32f329b1d694103f225","683dba2a8a9dda3513610c04","68808364ca43b4251bf90b25","3","0","6786c32f329b1d694103f225","3","0","2025-07-23T06:43:50.157Z","","","","","","","","","","","","","","win-only","1","g1:NE,g2:SW","0.8","3","0","246152.3","1653.7","6659.6","21755.8","1","4","4","6","1","1","1","2","1","0.015151515151515152","5005.8","3000","1860","[""up"",""right""]","{""num_key_presses"":4,""num_perfect"":4,""num_errors"":0,""num_randdir"":0,""num_randdir_good_moves"":0,""num_whilered"":0,""num_whileblue"":0,""num_blue"":1,""num_good_moves"":4}","[294.22232142857143,292.12857142857143,0.9,294.22232142857143,292.12857142857143,103.5,294.22232142857143,292.12857142857143,208.6,294.22232142857143,292.12857142857143,311.1,294.22232142857143,292.12857142857143,416.2,294.22232142857143,292.12857142857143,517.8,294.22232142857143,292.12857142857143,625.5,294.22232142857143,292.12857142857143,727.1,294.22232142857143,292.12857142857143,831,294.22232142857143,292.12857142857143,933.4,294.22232142857143,292.12857142857143,1040.5,294.22232142857143,292.12857142857143,1150,294.22232142857143,292.12857142857143,1250,294.22232142857143,292.12857142857143,1350.3,294.22232142857143,292.12857142857143,1454,294.22232142857143,292.12857142857143,1567.5,294.22232142857143,292.12857142857143,1667.7,294.22232142857143,292.12857142857143,1769.4,294.22232142857143,292.12857142857143,1875.4,294.22232142857143,292.12857142857143,1986.8,294.22232142857143,292.12857142857143,2087.8,294.22232142857143,292.12857142857143,2202.9,294.22232142857143,292.12857142857143,2303.1,294.22232142857143,292.12857142857143,2409.3,294.22232142857143,292.12857142857143,2510,294.22232142857143,292.12857142857143,2613.4,294.22232142857143,292.12857142857143,2719.2,294.22232142857143,292.12857142857143,2827.1,294.22232142857143,292.12857142857143,2933.6,294.22232142857143,292.12857142857143,3035.2,294.22232142857143,292.12857142857143,3137.6,294.22232142857143,292.12857142857143,3249.8,294.22232142857143,292.12857142857143,3350,294.22232142857143,292.12857142857143,3452.4,294.22232142857143,292.12857142857143,3554.8,294.22232142857143,292.12857142857143,3655.7,294.22232142857143,292.12857142857143,3760,294.22232142857143,292.12857142857143,3863.1,294.22232142857143,292.12857142857143,3963.8,294.22232142857143,292.12857142857143,4068,294.22232142857143,292.12857142857143,4169.7,294.22232142857143,292.12857142857143,4271,294.22232142857143,292.12857142857143,4376.8,294.22232142857143,292.12857142857143,4477,294.22232142857143,292.12857142857143,4578.6,294.22232142857143,292.12857142857143,4684.3,294.22232142857143,292.12857142857143,4797.4,294.22232142857143,292.12857142857143,4899.3]","[5058.7,5058.7,2603.3,2007.2,448.2,""smooth"",""right"",""right"",""good_move"",7969.7,2909.7,2477.3,5060,432.5,""smooth"",""right"",""right"",""good_move"",11947.3,3975.3,3609.2,7972.1,366,""smooth"",""up"",""up"",""good_move"",14961.3,3011.2,2520.3,11950.2,490.9,""smooth"",""up"",""up"",""good_move""]","",""
"3538","","<div style=""width:500px;"">
  <p>What determined the result of this run?</p>
  </div>","100","html-slider-response","20","262114","0.0-5.0-1.2","160","1","2025-07-23 06:39:20","1f75c3e559b7213887762d5229550c2b","216.120.189.118","Mozilla/5.0 (Windows NT 10.0; Win64; x64) AppleWebKit/537.36 (KHTML, like Gecko) Chrome/138.0.0.0 Safari/537.36","WebKit","Chrome","138.0.0.0","Windows","10.0","https://app.prolific.com/","en-US,en;q=0.9","6786c32f329b1d694103f225","683dba2a8a9dda3513610c04","68808364ca43b4251bf90b25","3","0","6786c32f329b1d694103f225","3","0","2025-07-23T06:43:53.698Z","","","","","","","","","","","AttribQ","","50","","","","","","","","","","","","","","","","","","","","","","","","","","","","",""
"3678","","<div style=""width:500px;"">
  <p>How much control did you have over the ball?</p>
  </div>","100","html-slider-response","21","265795","0.0-5.0-2.2","160","1","2025-07-23 06:39:20","1f75c3e559b7213887762d5229550c2b","216.120.189.118","Mozilla/5.0 (Windows NT 10.0; Win64; x64) AppleWebKit/537.36 (KHTML, like Gecko) Chrome/138.0.0.0 Safari/537.36","WebKit","Chrome","138.0.0.0","Windows","10.0","https://app.prolific.com/","en-US,en;q=0.9","6786c32f329b1d694103f225","683dba2a8a9dda3513610c04","68808364ca43b4251bf90b25","3","0","6786c32f329b1d694103f225","3","0","2025-07-23T06:43:57.379Z","","","","","","","","","","","ControlQ","","50","","","","","","","","","","","","","","","","","","","","","","","","","","","","",""
"4556","","<div style=""width:500px;"">
  <p>How would you describe your current emotional state?</p>
  </div>","0","html-slider-response","22","270355","0.0-5.0-3.2","160","1","2025-07-23 06:39:20","1f75c3e559b7213887762d5229550c2b","216.120.189.118","Mozilla/5.0 (Windows NT 10.0; Win64; x64) AppleWebKit/537.36 (KHTML, like Gecko) Chrome/138.0.0.0 Safari/537.36","WebKit","Chrome","138.0.0.0","Windows","10.0","https://app.prolific.com/","en-US,en;q=0.9","6786c32f329b1d694103f225","683dba2a8a9dda3513610c04","68808364ca43b4251bf90b25","3","0","6786c32f329b1d694103f225","3","0","2025-07-23T06:44:01.939Z","","","","","","","","","","","StressQ","","50","","","","","","","","","","","","","","","","","","","","","","","","","","","","",""
"5320","","<div style=""width:500px;"">
  <p>What best describes how you currently feel?</p>
  </div>","100","html-slider-response","23","275678","0.0-5.0-4.2","160","1","2025-07-23 06:39:20","1f75c3e559b7213887762d5229550c2b","216.120.189.118","Mozilla/5.0 (Windows NT 10.0; Win64; x64) AppleWebKit/537.36 (KHTML, like Gecko) Chrome/138.0.0.0 Safari/537.36","WebKit","Chrome","138.0.0.0","Windows","10.0","https://app.prolific.com/","en-US,en;q=0.9","6786c32f329b1d694103f225","683dba2a8a9dda3513610c04","68808364ca43b4251bf90b25","3","0","6786c32f329b1d694103f225","3","0","2025-07-23T06:44:07.262Z","","","","","","","","","","","MotivationQ","","50","","","","","","","","","","","","","","","","","","","","","","","","","","","","",""
"","","","","ctl-task-cpt","24","303936","0.0-5.0-0.3","160","1","2025-07-23 06:39:20","1f75c3e559b7213887762d5229550c2b","216.120.189.118","Mozilla/5.0 (Windows NT 10.0; Win64; x64) AppleWebKit/537.36 (KHTML, like Gecko) Chrome/138.0.0.0 Safari/537.36","WebKit","Chrome","138.0.0.0","Windows","10.0","https://app.prolific.com/","en-US,en;q=0.9","6786c32f329b1d694103f225","683dba2a8a9dda3513610c04","68808364ca43b4251bf90b25","3","0","6786c32f329b1d694103f225","3","0","2025-07-23T06:44:35.521Z","","","","","","","","","","","","","","win-only","2","g1:SE,g2:NW","0.7","4","0","288033.6","2079.1","7086.1","25240.2","1","4","8","6","1","1","1","3","2","0.022727272727272728","5006.9","3000","1995","[""down"",""right""]","{""num_key_presses"":4,""num_perfect"":4,""num_errors"":0,""num_randdir"":0,""num_randdir_good_moves"":0,""num_whilered"":0,""num_whileblue"":0,""num_blue"":2,""num_good_moves"":4}","[297.22232142857143,298.12857142857143,1.2,297.22232142857143,298.12857142857143,100.9,297.22232142857143,298.12857142857143,208.5,297.22232142857143,298.12857142857143,309.8,297.22232142857143,298.12857142857143,414.6,297.22232142857143,298.12857142857143,520.8,297.22232142857143,298.12857142857143,628.7,297.22232142857143,298.12857142857143,743,297.22232142857143,298.12857142857143,845.1,297.22232142857143,298.12857142857143,952.6,297.22232142857143,298.12857142857143,1062.8,297.22232142857143,298.12857142857143,1171,297.22232142857143,298.12857142857143,1281.1,297.22232142857143,298.12857142857143,1382.9,297.22232142857143,298.12857142857143,1484.3,297.22232142857143,298.12857142857143,1585.1,297.22232142857143,298.12857142857143,1687.1,297.22232142857143,298.12857142857143,1793.8,297.22232142857143,298.12857142857143,1908.4,297.22232142857143,298.12857142857143,2011,297.22232142857143,298.12857142857143,2123.9,297.22232142857143,298.12857142857143,2224.2,297.22232142857143,298.12857142857143,2328.6,297.22232142857143,298.12857142857143,2430.9,297.22232142857143,298.12857142857143,2537.8,297.22232142857143,298.12857142857143,2641,297.22232142857143,298.12857142857143,2742.3,297.22232142857143,298.12857142857143,2845.1,297.22232142857143,298.12857142857143,2953.1,297.22232142857143,298.12857142857143,3070.1,297.22232142857143,298.12857142857143,3185.6,297.22232142857143,298.12857142857143,3293.5,297.22232142857143,298.12857142857143,3394.5,297.22232142857143,298.12857142857143,3499.6,297.22232142857143,298.12857142857143,3602.6,297.22232142857143,298.12857142857143,3705.1,297.22232142857143,298.12857142857143,3806.9,297.22232142857143,298.12857142857143,3914.3,297.22232142857143,298.12857142857143,4015.4,297.22232142857143,298.12857142857143,4130.5,297.22232142857143,298.12857142857143,4233.4,297.22232142857143,298.12857142857143,4333.8,297.22232142857143,298.12857142857143,4435.2,297.22232142857143,298.12857142857143,4546.9,297.22232142857143,298.12857142857143,4661.1,297.22232142857143,298.12857142857143,4765,297.22232142857143,298.12857142857143,4869.2,297.22232142857143,298.12857142857143,4969.4]","[4436.7,4436.7,2030.2,2004.9,401.6,""smooth"",""right"",""right"",""good_move"",7625.2,3181.4,2767.2,4443.9,414.1,""smooth"",""right"",""right"",""good_move"",14583.8,6957.5,3019.5,11125.5,438.8,""smooth"",""down"",""down"",""good_move"",17982.6,3397.9,3028.5,14584.9,369.3,""smooth"",""down"",""down"",""good_move""]","",""
"3522","","<div style=""width:500px;"">
  <p>What determined the result of this run?</p>
  </div>","100","html-slider-response","25","307462","0.0-5.0-1.3","160","1","2025-07-23 06:39:20","1f75c3e559b7213887762d5229550c2b","216.120.189.118","Mozilla/5.0 (Windows NT 10.0; Win64; x64) AppleWebKit/537.36 (KHTML, like Gecko) Chrome/138.0.0.0 Safari/537.36","WebKit","Chrome","138.0.0.0","Windows","10.0","https://app.prolific.com/","en-US,en;q=0.9","6786c32f329b1d694103f225","683dba2a8a9dda3513610c04","68808364ca43b4251bf90b25","3","0","6786c32f329b1d694103f225","3","0","2025-07-23T06:44:39.046Z","","","","","","","","","","","AttribQ","","50","","","","","","","","","","","","","","","","","","","","","","","","","","","","",""
"4017","","<div style=""width:500px;"">
  <p>How much control did you have over the ball?</p>
  </div>","50","html-slider-response","26","311482","0.0-5.0-2.3","160","1","2025-07-23 06:39:20","1f75c3e559b7213887762d5229550c2b","216.120.189.118","Mozilla/5.0 (Windows NT 10.0; Win64; x64) AppleWebKit/537.36 (KHTML, like Gecko) Chrome/138.0.0.0 Safari/537.36","WebKit","Chrome","138.0.0.0","Windows","10.0","https://app.prolific.com/","en-US,en;q=0.9","6786c32f329b1d694103f225","683dba2a8a9dda3513610c04","68808364ca43b4251bf90b25","3","0","6786c32f329b1d694103f225","3","0","2025-07-23T06:44:43.066Z","","","","","","","","","","","ControlQ","","50","","","","","","","","","","","","","","","","","","","","","","","","","","","","",""
"5296","","<div style=""width:500px;"">
  <p>How would you describe your current emotional state?</p>
  </div>","3","html-slider-response","27","316781","0.0-5.0-3.3","160","1","2025-07-23 06:39:20","1f75c3e559b7213887762d5229550c2b","216.120.189.118","Mozilla/5.0 (Windows NT 10.0; Win64; x64) AppleWebKit/537.36 (KHTML, like Gecko) Chrome/138.0.0.0 Safari/537.36","WebKit","Chrome","138.0.0.0","Windows","10.0","https://app.prolific.com/","en-US,en;q=0.9","6786c32f329b1d694103f225","683dba2a8a9dda3513610c04","68808364ca43b4251bf90b25","3","0","6786c32f329b1d694103f225","3","0","2025-07-23T06:44:48.365Z","","","","","","","","","","","StressQ","","50","","","","","","","","","","","","","","","","","","","","","","","","","","","","",""
"3916","","<div style=""width:500px;"">
  <p>What best describes how you currently feel?</p>
  </div>","99","html-slider-response","28","320699","0.0-5.0-4.3","160","1","2025-07-23 06:39:20","1f75c3e559b7213887762d5229550c2b","216.120.189.118","Mozilla/5.0 (Windows NT 10.0; Win64; x64) AppleWebKit/537.36 (KHTML, like Gecko) Chrome/138.0.0.0 Safari/537.36","WebKit","Chrome","138.0.0.0","Windows","10.0","https://app.prolific.com/","en-US,en;q=0.9","6786c32f329b1d694103f225","683dba2a8a9dda3513610c04","68808364ca43b4251bf90b25","3","0","6786c32f329b1d694103f225","3","0","2025-07-23T06:44:52.283Z","","","","","","","","","","","MotivationQ","","50","","","","","","","","","","","","","","","","","","","","","","","","","","","","",""
"","","","","ctl-task-cpt","29","371779","0.0-5.0-0.4","160","1","2025-07-23 06:39:20","1f75c3e559b7213887762d5229550c2b","216.120.189.118","Mozilla/5.0 (Windows NT 10.0; Win64; x64) AppleWebKit/537.36 (KHTML, like Gecko) Chrome/138.0.0.0 Safari/537.36","WebKit","Chrome","138.0.0.0","Windows","10.0","https://app.prolific.com/","en-US,en;q=0.9","6786c32f329b1d694103f225","683dba2a8a9dda3513610c04","68808364ca43b4251bf90b25","3","0","6786c32f329b1d694103f225","3","0","2025-07-23T06:45:43.363Z","","","","","","","","","","","","","","win-only","3","g1:SW,g2:NE","0.6","5","0","333055.8","1452.7","6474.6","48054.7","1","4","4","6","2","4","4","7","3","0.05303030303030303","5021.7","3000","325","[""up"",""right""]","{""num_key_presses"":12,""num_perfect"":8,""num_errors"":0,""num_randdir"":4,""num_randdir_good_moves"":1,""num_whilered"":0,""num_whileblue"":0,""num_blue"":2,""num_good_moves"":9}","[296.22232142857143,299.12857142857143,1.6,296.22232142857143,299.12857142857143,103.2,296.22232142857143,299.12857142857143,214.5,296.22232142857143,299.12857142857143,314.6,296.22232142857143,299.12857142857143,419.5,296.22232142857143,299.12857142857143,524.7,296.22232142857143,299.12857142857143,634.9,296.22232142857143,299.12857142857143,749.9,296.22232142857143,299.12857142857143,854.6,296.22232142857143,299.12857142857143,957.2,296.22232142857143,299.12857142857143,1063.7,296.22232142857143,299.12857142857143,1169.2,296.22232142857143,299.12857142857143,1271.8,296.22232142857143,299.12857142857143,1375.4,296.22232142857143,299.12857142857143,1475.6,296.22232142857143,299.12857142857143,1580.5,296.22232142857143,299.12857142857143,1684.4,296.22232142857143,299.12857142857143,1791.1,296.22232142857143,299.12857142857143,1895.8,296.22232142857143,299.12857142857143,2002.5,296.22232142857143,299.12857142857143,2103.5,296.22232142857143,299.12857142857143,2204.9,296.22232142857143,299.12857142857143,2321.2,296.22232142857143,299.12857142857143,2437.5,296.22232142857143,299.12857142857143,2538.8,296.22232142857143,299.12857142857143,2643.2,296.22232142857143,299.12857142857143,2746.6,296.22232142857143,299.12857142857143,2854.2,296.22232142857143,299.12857142857143,2960.5,296.22232142857143,299.12857142857143,3065.8,296.22232142857143,299.12857142857143,3170.4,296.22232142857143,299.12857142857143,3277.1,296.22232142857143,299.12857142857143,3381,296.22232142857143,299.12857142857143,3485.2,296.22232142857143,299.12857142857143,3592.2,296.22232142857143,299.12857142857143,3698,296.22232142857143,299.12857142857143,3805.6,296.22232142857143,299.12857142857143,3907.8,296.22232142857143,299.12857142857143,4010.1,296.22232142857143,299.12857142857143,4114.4,296.22232142857143,299.12857142857143,4217.2,296.22232142857143,299.12857142857143,4320.1,296.22232142857143,299.12857142857143,4424.2,296.22232142857143,299.12857142857143,4533.4,296.22232142857143,299.12857142857143,4638.3,296.22232142857143,299.12857142857143,4754.2,296.22232142857143,299.12857142857143,4855.9,296.22232142857143,299.12857142857143,4958.3]","[1368.5,1368.5,1000,0,368.5,""oops"",""right"",""up"",""good_move"",4089.2,2719.5,2281.3,1369.7,438.2,""smooth"",""right"",""right"",""good_move"",9793.9,5694.8,2112.1,7319.4,362.5,""smooth"",""right"",""right"",""good_move"",13138.5,3343.2,2815,9795.5,528.1,""oops"",""right"",""down"",""bad_move"",17233.6,4090.1,2748.7,13143.6,1341.3,""smooth"",""up"",""up"",""good_move"",19641.1,2406.3,2005.2,17234.9,401,""smooth"",""up"",""up"",""good_move"",23674.2,4030,3649.1,19644.2,380.9,""smooth"",""up"",""up"",""good_move"",29872.9,6194.4,2568,26977.3,327.7,""oops"",""right"",""down"",""bad_move"",32486.4,2612.4,2244.3,29874,368.1,""oops"",""up"",""left"",""bad_move"",35426.8,2936.1,2486.8,32490.7,449.3,""smooth"",""right"",""right"",""good_move"",38713.9,3285.3,2887.1,35428.6,398.2,""smooth"",""right"",""right"",""good_move"",41339.8,2612,2251,38727.8,361,""smooth"",""up"",""up"",""good_move""]","",""
"3930","","<div style=""width:500px;"">
  <p>What determined the result of this run?</p>
  </div>","97","html-slider-response","30","375713","0.0-5.0-1.4","160","1","2025-07-23 06:39:20","1f75c3e559b7213887762d5229550c2b","216.120.189.118","Mozilla/5.0 (Windows NT 10.0; Win64; x64) AppleWebKit/537.36 (KHTML, like Gecko) Chrome/138.0.0.0 Safari/537.36","WebKit","Chrome","138.0.0.0","Windows","10.0","https://app.prolific.com/","en-US,en;q=0.9","6786c32f329b1d694103f225","683dba2a8a9dda3513610c04","68808364ca43b4251bf90b25","3","0","6786c32f329b1d694103f225","3","0","2025-07-23T06:45:47.297Z","","","","","","","","","","","AttribQ","","50","","","","","","","","","","","","","","","","","","","","","","","","","","","","",""
"8063","","<div style=""width:500px;"">
  <p>How much control did you have over the ball?</p>
  </div>","76","html-slider-response","31","383780","0.0-5.0-2.4","160","1","2025-07-23 06:39:20","1f75c3e559b7213887762d5229550c2b","216.120.189.118","Mozilla/5.0 (Windows NT 10.0; Win64; x64) AppleWebKit/537.36 (KHTML, like Gecko) Chrome/138.0.0.0 Safari/537.36","WebKit","Chrome","138.0.0.0","Windows","10.0","https://app.prolific.com/","en-US,en;q=0.9","6786c32f329b1d694103f225","683dba2a8a9dda3513610c04","68808364ca43b4251bf90b25","3","0","6786c32f329b1d694103f225","3","0","2025-07-23T06:45:55.365Z","","","","","","","","","","","ControlQ","","50","","","","","","","","","","","","","","","","","","","","","","","","","","","","",""
"5504","","<div style=""width:500px;"">
  <p>How would you describe your current emotional state?</p>
  </div>","0","html-slider-response","32","389290","0.0-5.0-3.4","160","1","2025-07-23 06:39:20","1f75c3e559b7213887762d5229550c2b","216.120.189.118","Mozilla/5.0 (Windows NT 10.0; Win64; x64) AppleWebKit/537.36 (KHTML, like Gecko) Chrome/138.0.0.0 Safari/537.36","WebKit","Chrome","138.0.0.0","Windows","10.0","https://app.prolific.com/","en-US,en;q=0.9","6786c32f329b1d694103f225","683dba2a8a9dda3513610c04","68808364ca43b4251bf90b25","3","0","6786c32f329b1d694103f225","3","0","2025-07-23T06:46:00.874Z","","","","","","","","","","","StressQ","","50","","","","","","","","","","","","","","","","","","","","","","","","","","","","",""
"6456","","<div style=""width:500px;"">
  <p>What best describes how you currently feel?</p>
  </div>","88","html-slider-response","33","395749","0.0-5.0-4.4","160","1","2025-07-23 06:39:20","1f75c3e559b7213887762d5229550c2b","216.120.189.118","Mozilla/5.0 (Windows NT 10.0; Win64; x64) AppleWebKit/537.36 (KHTML, like Gecko) Chrome/138.0.0.0 Safari/537.36","WebKit","Chrome","138.0.0.0","Windows","10.0","https://app.prolific.com/","en-US,en;q=0.9","6786c32f329b1d694103f225","683dba2a8a9dda3513610c04","68808364ca43b4251bf90b25","3","0","6786c32f329b1d694103f225","3","0","2025-07-23T06:46:07.333Z","","","","","","","","","","","MotivationQ","","50","","","","","","","","","","","","","","","","","","","","","","","","","","","","",""
"","","","","ctl-task-cpt","34","461064","0.0-5.0-0.5","160","1","2025-07-23 06:39:20","1f75c3e559b7213887762d5229550c2b","216.120.189.118","Mozilla/5.0 (Windows NT 10.0; Win64; x64) AppleWebKit/537.36 (KHTML, like Gecko) Chrome/138.0.0.0 Safari/537.36","WebKit","Chrome","138.0.0.0","Windows","10.0","https://app.prolific.com/","en-US,en;q=0.9","6786c32f329b1d694103f225","683dba2a8a9dda3513610c04","68808364ca43b4251bf90b25","3","0","6786c32f329b1d694103f225","3","0","2025-07-23T06:47:12.648Z","","","","","","","","","","","","","","win-only","0","g1:NW,g2:SE","0.5","6","0","408107.2","2524.2","7532.6","62293","1","4","8","6","2","8","8","15","7","0.11363636363636363","5008.4","3000","710","[""down"",""right""]","{""num_key_presses"":14,""num_perfect"":7,""num_errors"":0,""num_randdir"":7,""num_randdir_good_moves"":3,""num_whilered"":0,""num_whileblue"":0,""num_blue"":3,""num_good_moves"":10}","[293.22232142857143,293.12857142857143,10.6,293.22232142857143,293.12857142857143,112,293.22232142857143,293.12857142857143,214.5,293.22232142857143,293.12857142857143,315,293.22232142857143,293.12857142857143,420.4,293.22232142857143,293.12857142857143,521.7,293.22232142857143,293.12857142857143,627.1,293.22232142857143,293.12857142857143,730.6,293.22232142857143,293.12857142857143,836.6,293.22232142857143,293.12857142857143,946.3,293.22232142857143,293.12857142857143,1049.2,293.22232142857143,293.12857142857143,1154.7,293.22232142857143,293.12857142857143,1262.9,293.22232142857143,293.12857142857143,1365.1,293.22232142857143,293.12857142857143,1467.9,293.22232142857143,293.12857142857143,1574.2,293.22232142857143,293.12857142857143,1683.4,293.22232142857143,293.12857142857143,1786.4,293.22232142857143,293.12857142857143,1887.5,293.22232142857143,293.12857142857143,1992.5,293.22232142857143,293.12857142857143,2092.9,293.22232142857143,293.12857142857143,2197.5,293.22232142857143,293.12857142857143,2309,293.22232142857143,293.12857142857143,2412.1,293.22232142857143,293.12857142857143,2516.7,293.22232142857143,293.12857142857143,2619,293.22232142857143,293.12857142857143,2729.4,293.22232142857143,293.12857142857143,2833.3,293.22232142857143,293.12857142857143,2938.3,293.22232142857143,293.12857142857143,3043.2,293.22232142857143,293.12857142857143,3149.9,293.22232142857143,293.12857142857143,3259.4,293.22232142857143,293.12857142857143,3369.1,293.22232142857143,293.12857142857143,3475.6,293.22232142857143,293.12857142857143,3584.6,293.22232142857143,293.12857142857143,3689.7,293.22232142857143,293.12857142857143,3799.2,293.22232142857143,293.12857142857143,3903.9,293.22232142857143,293.12857142857143,4016,293.22232142857143,293.12857142857143,4116.2,293.22232142857143,293.12857142857143,4223.5,293.22232142857143,293.12857142857143,4334,293.22232142857143,293.12857142857143,4440.6,293.22232142857143,293.12857142857143,4548.6,293.22232142857143,293.12857142857143,4653.2,293.22232142857143,293.12857142857143,4756,293.22232142857143,293.12857142857143,4857.4,293.22232142857143,293.12857142857143,4962.8]","[1409.8,1409.8,1000,0,409.8,""oops"",""right"",""down"",""good_move"",4250.2,2829.5,2438.5,1420.7,391,""smooth"",""right"",""right"",""good_move"",10933.2,6677.4,2481.5,8042.1,409.6,""oops"",""right"",""down"",""good_move"",13463.9,2529.7,2098.4,10934.2,431.3,""smooth"",""right"",""right"",""good_move"",20823.9,7358.8,2567.2,17851.6,405.1,""oops"",""right"",""left"",""bad_move"",25230.3,4405.3,2430.7,20825.1,1974.5,""smooth"",""down"",""down"",""good_move"",28465.9,3233,2301.9,25233.1,931,""oops"",""right"",""up"",""bad_move"",31835.2,3367.7,2084.5,28467.6,1283.2,""smooth"",""down"",""down"",""good_move"",34227.7,2391.2,1974.7,31836.5,416.5,""smooth"",""right"",""right"",""good_move"",37454.9,3219.7,2841.3,34235.2,378.4,""oops"",""right"",""up"",""bad_move"",45300.8,7834,4054.9,40814.4,431.5,""smooth"",""down"",""down"",""good_move"",48515.8,3213.9,2770,45301.9,443.9,""oops"",""right"",""left"",""bad_move"",51600.3,3083.2,2726.9,48517.1,356.3,""smooth"",""right"",""right"",""good_move"",54521.9,2919.5,2555.1,51602.4,364.4,""oops"",""right"",""right"",""good_move""]","",""
"3905","","<div style=""width:500px;"">
  <p>What determined the result of this run?</p>
  </div>","99","html-slider-response","35","464972","0.0-5.0-1.5","160","1","2025-07-23 06:39:20","1f75c3e559b7213887762d5229550c2b","216.120.189.118","Mozilla/5.0 (Windows NT 10.0; Win64; x64) AppleWebKit/537.36 (KHTML, like Gecko) Chrome/138.0.0.0 Safari/537.36","WebKit","Chrome","138.0.0.0","Windows","10.0","https://app.prolific.com/","en-US,en;q=0.9","6786c32f329b1d694103f225","683dba2a8a9dda3513610c04","68808364ca43b4251bf90b25","3","0","6786c32f329b1d694103f225","3","0","2025-07-23T06:47:16.557Z","","","","","","","","","","","AttribQ","","50","","","","","","","","","","","","","","","","","","","","","","","","","","","","",""
"3353","","<div style=""width:500px;"">
  <p>How much control did you have over the ball?</p>
  </div>","84","html-slider-response","36","468329","0.0-5.0-2.5","160","1","2025-07-23 06:39:20","1f75c3e559b7213887762d5229550c2b","216.120.189.118","Mozilla/5.0 (Windows NT 10.0; Win64; x64) AppleWebKit/537.36 (KHTML, like Gecko) Chrome/138.0.0.0 Safari/537.36","WebKit","Chrome","138.0.0.0","Windows","10.0","https://app.prolific.com/","en-US,en;q=0.9","6786c32f329b1d694103f225","683dba2a8a9dda3513610c04","68808364ca43b4251bf90b25","3","0","6786c32f329b1d694103f225","3","0","2025-07-23T06:47:19.913Z","","","","","","","","","","","ControlQ","","50","","","","","","","","","","","","","","","","","","","","","","","","","","","","",""
"5055","","<div style=""width:500px;"">
  <p>How would you describe your current emotional state?</p>
  </div>","2","html-slider-response","37","473387","0.0-5.0-3.5","160","1","2025-07-23 06:39:20","1f75c3e559b7213887762d5229550c2b","216.120.189.118","Mozilla/5.0 (Windows NT 10.0; Win64; x64) AppleWebKit/537.36 (KHTML, like Gecko) Chrome/138.0.0.0 Safari/537.36","WebKit","Chrome","138.0.0.0","Windows","10.0","https://app.prolific.com/","en-US,en;q=0.9","6786c32f329b1d694103f225","683dba2a8a9dda3513610c04","68808364ca43b4251bf90b25","3","0","6786c32f329b1d694103f225","3","0","2025-07-23T06:47:24.971Z","","","","","","","","","","","StressQ","","50","","","","","","","","","","","","","","","","","","","","","","","","","","","","",""
"3998","","<div style=""width:500px;"">
  <p>What best describes how you currently feel?</p>
  </div>","84","html-slider-response","38","477389","0.0-5.0-4.5","160","1","2025-07-23 06:39:20","1f75c3e559b7213887762d5229550c2b","216.120.189.118","Mozilla/5.0 (Windows NT 10.0; Win64; x64) AppleWebKit/537.36 (KHTML, like Gecko) Chrome/138.0.0.0 Safari/537.36","WebKit","Chrome","138.0.0.0","Windows","10.0","https://app.prolific.com/","en-US,en;q=0.9","6786c32f329b1d694103f225","683dba2a8a9dda3513610c04","68808364ca43b4251bf90b25","3","0","6786c32f329b1d694103f225","3","0","2025-07-23T06:47:28.973Z","","","","","","","","","","","MotivationQ","","50","","","","","","","","","","","","","","","","","","","","","","","","","","","","",""
"","","","","ctl-task-cpt","39","533539","0.0-5.0-0.6","160","1","2025-07-23 06:39:20","1f75c3e559b7213887762d5229550c2b","216.120.189.118","Mozilla/5.0 (Windows NT 10.0; Win64; x64) AppleWebKit/537.36 (KHTML, like Gecko) Chrome/138.0.0.0 Safari/537.36","WebKit","Chrome","138.0.0.0","Windows","10.0","https://app.prolific.com/","en-US,en;q=0.9","6786c32f329b1d694103f225","683dba2a8a9dda3513610c04","68808364ca43b4251bf90b25","3","0","6786c32f329b1d694103f225","3","0","2025-07-23T06:48:25.124Z","","","","","","","","","","","","","","win-only","3","g1:SW,g2:NE","0.4","7","0","489744.6","2126.2","7136.2","53129.4","1","4","4","6","2","4","4","19","15","0.14393939393939395","5010","3000","980","[""up"",""right""]","{""num_key_presses"":12,""num_perfect"":5,""num_errors"":0,""num_randdir"":7,""num_randdir_good_moves"":4,""num_whilered"":0,""num_whileblue"":0,""num_blue"":3,""num_good_moves"":9}","[289.22232142857143,296.12857142857143,0.9,289.22232142857143,296.12857142857143,110.8,289.22232142857143,296.12857142857143,223.1,289.22232142857143,296.12857142857143,330.9,289.22232142857143,296.12857142857143,436.9,289.22232142857143,296.12857142857143,540,289.22232142857143,296.12857142857143,651,289.22232142857143,296.12857142857143,758.4,289.22232142857143,296.12857142857143,868.5,289.22232142857143,296.12857142857143,973.8,289.22232142857143,296.12857142857143,1077.7,289.22232142857143,296.12857142857143,1184.7,289.22232142857143,296.12857142857143,1286.7,289.22232142857143,296.12857142857143,1393.2,289.22232142857143,296.12857142857143,1498.1,289.22232142857143,296.12857142857143,1612.9,289.22232142857143,296.12857142857143,1722.4,289.22232142857143,296.12857142857143,1823,289.22232142857143,296.12857142857143,1925.7,289.22232142857143,296.12857142857143,2026.3,289.22232142857143,296.12857142857143,2130.8,289.22232142857143,296.12857142857143,2240.5,289.22232142857143,296.12857142857143,2346,289.22232142857143,296.12857142857143,2448.2,289.22232142857143,296.12857142857143,2557.6,289.22232142857143,296.12857142857143,2661.3,289.22232142857143,296.12857142857143,2764.4,289.22232142857143,296.12857142857143,2867.3,289.22232142857143,296.12857142857143,2973.5,289.22232142857143,296.12857142857143,3080.7,289.22232142857143,296.12857142857143,3188.1,289.22232142857143,296.12857142857143,3298.4,289.22232142857143,296.12857142857143,3407.3,289.22232142857143,296.12857142857143,3511.7,289.22232142857143,296.12857142857143,3622.5,289.22232142857143,296.12857142857143,3729.4,289.22232142857143,296.12857142857143,3838.9,289.22232142857143,296.12857142857143,3942.4,289.22232142857143,296.12857142857143,4058,289.22232142857143,296.12857142857143,4163.4,289.22232142857143,296.12857142857143,4270.9,289.22232142857143,296.12857142857143,4384.7,289.22232142857143,296.12857142857143,4484.9,289.22232142857143,296.12857142857143,4591.5,289.22232142857143,296.12857142857143,4697.4,289.22232142857143,296.12857142857143,4805.8,289.22232142857143,296.12857142857143,4915.9]","[5309.5,5309.5,2889.6,2007.9,412,""smooth"",""right"",""right"",""good_move"",8354.9,3042.9,2600,5312,442.9,""smooth"",""right"",""right"",""good_move"",11225.7,2869.6,2503.6,8356.3,365.9,""oops"",""right"",""left"",""bad_move"",14355.5,3127.6,1932.2,11227.9,1195.4,""oops"",""right"",""up"",""good_move"",17786.7,3429.8,2422,14357,1007.7,""smooth"",""up"",""up"",""good_move"",21209.1,3420.8,2371.1,17788.4,1049.7,""oops"",""up"",""down"",""bad_move"",26676.1,5463.8,2063.9,24154,458.2,""oops"",""up"",""up"",""good_move"",29878.1,3199.8,2398.7,26678.4,801.1,""oops"",""up"",""left"",""bad_move"",33377,3492,2837.5,29885,654.5,""smooth"",""up"",""up"",""good_move"",36257.7,2879.3,2472.3,33378.4,407,""oops"",""right"",""right"",""good_move"",42339.4,6078.4,2151,39799.6,388.8,""oops"",""right"",""right"",""good_move"",45669.9,3329.7,2905.2,42340.3,424.5,""smooth"",""right"",""right"",""good_move""]","",""
"3196","","<div style=""width:500px;"">
  <p>What determined the result of this run?</p>
  </div>","100","html-slider-response","40","536739","0.0-5.0-1.6","160","1","2025-07-23 06:39:20","1f75c3e559b7213887762d5229550c2b","216.120.189.118","Mozilla/5.0 (Windows NT 10.0; Win64; x64) AppleWebKit/537.36 (KHTML, like Gecko) Chrome/138.0.0.0 Safari/537.36","WebKit","Chrome","138.0.0.0","Windows","10.0","https://app.prolific.com/","en-US,en;q=0.9","6786c32f329b1d694103f225","683dba2a8a9dda3513610c04","68808364ca43b4251bf90b25","3","0","6786c32f329b1d694103f225","3","0","2025-07-23T06:48:28.323Z","","","","","","","","","","","AttribQ","","50","","","","","","","","","","","","","","","","","","","","","","","","","","","","",""
"6743","","<div style=""width:500px;"">
  <p>How much control did you have over the ball?</p>
  </div>","81","html-slider-response","41","543487","0.0-5.0-2.6","160","1","2025-07-23 06:39:20","1f75c3e559b7213887762d5229550c2b","216.120.189.118","Mozilla/5.0 (Windows NT 10.0; Win64; x64) AppleWebKit/537.36 (KHTML, like Gecko) Chrome/138.0.0.0 Safari/537.36","WebKit","Chrome","138.0.0.0","Windows","10.0","https://app.prolific.com/","en-US,en;q=0.9","6786c32f329b1d694103f225","683dba2a8a9dda3513610c04","68808364ca43b4251bf90b25","3","0","6786c32f329b1d694103f225","3","0","2025-07-23T06:48:35.071Z","","","","","","","","","","","ControlQ","","50","","","","","","","","","","","","","","","","","","","","","","","","","","","","",""
"4707","","<div style=""width:500px;"">
  <p>How would you describe your current emotional state?</p>
  </div>","12","html-slider-response","42","548197","0.0-5.0-3.6","160","1","2025-07-23 06:39:20","1f75c3e559b7213887762d5229550c2b","216.120.189.118","Mozilla/5.0 (Windows NT 10.0; Win64; x64) AppleWebKit/537.36 (KHTML, like Gecko) Chrome/138.0.0.0 Safari/537.36","WebKit","Chrome","138.0.0.0","Windows","10.0","https://app.prolific.com/","en-US,en;q=0.9","6786c32f329b1d694103f225","683dba2a8a9dda3513610c04","68808364ca43b4251bf90b25","3","0","6786c32f329b1d694103f225","3","0","2025-07-23T06:48:39.781Z","","","","","","","","","","","StressQ","","50","","","","","","","","","","","","","","","","","","","","","","","","","","","","",""
"4673","","<div style=""width:500px;"">
  <p>What best describes how you currently feel?</p>
  </div>","95","html-slider-response","43","552872","0.0-5.0-4.6","160","1","2025-07-23 06:39:20","1f75c3e559b7213887762d5229550c2b","216.120.189.118","Mozilla/5.0 (Windows NT 10.0; Win64; x64) AppleWebKit/537.36 (KHTML, like Gecko) Chrome/138.0.0.0 Safari/537.36","WebKit","Chrome","138.0.0.0","Windows","10.0","https://app.prolific.com/","en-US,en;q=0.9","6786c32f329b1d694103f225","683dba2a8a9dda3513610c04","68808364ca43b4251bf90b25","3","0","6786c32f329b1d694103f225","3","0","2025-07-23T06:48:44.456Z","","","","","","","","","","","MotivationQ","","50","","","","","","","","","","","","","","","","","","","","","","","","","","","","",""
"","","","","ctl-task-cpt","44","636580","0.0-5.0-0.7","160","1","2025-07-23 06:39:20","1f75c3e559b7213887762d5229550c2b","216.120.189.118","Mozilla/5.0 (Windows NT 10.0; Win64; x64) AppleWebKit/537.36 (KHTML, like Gecko) Chrome/138.0.0.0 Safari/537.36","WebKit","Chrome","138.0.0.0","Windows","10.0","https://app.prolific.com/","en-US,en;q=0.9","6786c32f329b1d694103f225","683dba2a8a9dda3513610c04","68808364ca43b4251bf90b25","3","0","6786c32f329b1d694103f225","3","0","2025-07-23T06:50:08.164Z","","","","","","","","","","","","","","win-only","0","g1:NW,g2:SE","0.3","8","0","565228.2","18611.4","23631.3","80684.6","1","4","8","6","1","1","0","19","19","0.14393939393939395","5019.9","3000","870","[""left"",""up""]","{""num_key_presses"":16,""num_perfect"":6,""num_errors"":1,""num_randdir"":9,""num_randdir_good_moves"":4,""num_whilered"":0,""num_whileblue"":1,""num_blue"":2,""num_good_moves"":10}","[291.22232142857143,296.12857142857143,6.9,291.22232142857143,296.12857142857143,103.5,291.22232142857143,296.12857142857143,213.8,291.22232142857143,296.12857142857143,315.9,291.22232142857143,296.12857142857143,418.1,291.22232142857143,296.12857142857143,535,291.22232142857143,296.12857142857143,639.3,291.22232142857143,296.12857142857143,743.7,291.22232142857143,296.12857142857143,860.8,291.22232142857143,296.12857142857143,968.2,291.22232142857143,296.12857142857143,1076.4,291.22232142857143,296.12857142857143,1188.6,291.22232142857143,296.12857142857143,1289.8,291.22232142857143,296.12857142857143,1390.6,291.22232142857143,296.12857142857143,1502.9,291.22232142857143,296.12857142857143,1616.7,291.22232142857143,296.12857142857143,1727.2,291.22232142857143,296.12857142857143,1837.7,291.22232142857143,296.12857142857143,1941.1,291.22232142857143,296.12857142857143,2044.7,291.22232142857143,296.12857142857143,2154.4,291.22232142857143,296.12857142857143,2258.4,291.22232142857143,296.12857142857143,2359.2,291.22232142857143,296.12857142857143,2460.5,291.22232142857143,296.12857142857143,2561.6,291.22232142857143,296.12857142857143,2674.8,291.22232142857143,296.12857142857143,2774.9,291.22232142857143,296.12857142857143,2874.9,291.22232142857143,296.12857142857143,2977.1,291.22232142857143,296.12857142857143,3081.1,291.22232142857143,296.12857142857143,3183.5,291.22232142857143,296.12857142857143,3298.3,291.22232142857143,296.12857142857143,3403.2,291.22232142857143,296.12857142857143,3514.2,291.22232142857143,296.12857142857143,3625.3,291.22232142857143,296.12857142857143,3731.6,291.22232142857143,296.12857142857143,3842,291.22232142857143,296.12857142857143,3949.2,291.22232142857143,296.12857142857143,4060.1,291.22232142857143,296.12857142857143,4179.4,291.22232142857143,296.12857142857143,4290,291.22232142857143,296.12857142857143,4400.7,291.22232142857143,296.12857142857143,4515.1,291.22232142857143,296.12857142857143,4622.5,291.22232142857143,296.12857142857143,4738.1,291.22232142857143,296.12857142857143,4850.5,291.22232142857143,296.12857142857143,4962.4]","[2079.6,2079.6,1000,0,1079.6,""oops"",""up"",""up"",""good_move"",5960.3,3879.4,2214.4,2080.9,1665,""smooth"",""up"",""up"",""good_move"",9155.7,3194.3,2718.4,5961.6,475.8,""oops"",""left"",""left"",""good_move"",12275.6,3116.1,2476.2,9159.5,639.9,""oops"",""left"",""down"",""bad_move"",15341.2,3059.7,2651.7,12281.5,408,""smooth"",""up"",""up"",""good_move"",18621.3,3278.2,2872.2,15343.3,405.8,""oops"",""left"",""right"",""bad_move"",21621.7,2998.8,2348.8,18622.9,650,""oops"",""left"",""right"",""bad_move"",24690,3066.7,2628.5,21623.3,438.2,""smooth"",""left"",""left"",""good_move"",28241.4,3549.9,2283.4,24691.7,1266.4,""oops"",""left"",""left"",""good_move"",36224.7,7981.8,3179.8,32620.7,424.3,""oops"",""left"",""right"",""bad_move"",39294.2,3065.5,2594.6,36228.8,470.8,""smooth"",""left"",""left"",""good_move"",42972.8,3676.7,3278.5,39296.1,398.2,""oops"",""left"",""down"",""bad_move"",46349.3,3374.8,3013.7,42974.5,361.2,""while_blue"",""up"",""right"",""bad_move"",49195.2,2840.2,2364,46355,476.2,""oops"",""left"",""left"",""good_move"",52811.7,3604.2,2407.9,49207.7,1196.2,""smooth"",""left"",""left"",""good_move"",56671.4,3858.4,1945.6,52813.1,1912.7,""smooth"",""up"",""up"",""good_move""]","",""
"4591","","<div style=""width:500px;"">
  <p>What determined the result of this run?</p>
  </div>","89","html-slider-response","45","641174","0.0-5.0-1.7","160","1","2025-07-23 06:39:20","1f75c3e559b7213887762d5229550c2b","216.120.189.118","Mozilla/5.0 (Windows NT 10.0; Win64; x64) AppleWebKit/537.36 (KHTML, like Gecko) Chrome/138.0.0.0 Safari/537.36","WebKit","Chrome","138.0.0.0","Windows","10.0","https://app.prolific.com/","en-US,en;q=0.9","6786c32f329b1d694103f225","683dba2a8a9dda3513610c04","68808364ca43b4251bf90b25","3","0","6786c32f329b1d694103f225","3","0","2025-07-23T06:50:12.758Z","","","","","","","","","","","AttribQ","","50","","","","","","","","","","","","","","","","","","","","","","","","","","","","",""
"3874","","<div style=""width:500px;"">
  <p>How much control did you have over the ball?</p>
  </div>","88","html-slider-response","46","645052","0.0-5.0-2.7","160","1","2025-07-23 06:39:20","1f75c3e559b7213887762d5229550c2b","216.120.189.118","Mozilla/5.0 (Windows NT 10.0; Win64; x64) AppleWebKit/537.36 (KHTML, like Gecko) Chrome/138.0.0.0 Safari/537.36","WebKit","Chrome","138.0.0.0","Windows","10.0","https://app.prolific.com/","en-US,en;q=0.9","6786c32f329b1d694103f225","683dba2a8a9dda3513610c04","68808364ca43b4251bf90b25","3","0","6786c32f329b1d694103f225","3","0","2025-07-23T06:50:16.636Z","","","","","","","","","","","ControlQ","","50","","","","","","","","","","","","","","","","","","","","","","","","","","","","",""
"3697","","<div style=""width:500px;"">
  <p>How would you describe your current emotional state?</p>
  </div>","2","html-slider-response","47","648752","0.0-5.0-3.7","160","1","2025-07-23 06:39:20","1f75c3e559b7213887762d5229550c2b","216.120.189.118","Mozilla/5.0 (Windows NT 10.0; Win64; x64) AppleWebKit/537.36 (KHTML, like Gecko) Chrome/138.0.0.0 Safari/537.36","WebKit","Chrome","138.0.0.0","Windows","10.0","https://app.prolific.com/","en-US,en;q=0.9","6786c32f329b1d694103f225","683dba2a8a9dda3513610c04","68808364ca43b4251bf90b25","3","0","6786c32f329b1d694103f225","3","0","2025-07-23T06:50:20.337Z","","","","","","","","","","","StressQ","","50","","","","","","","","","","","","","","","","","","","","","","","","","","","","",""
"3670","","<div style=""width:500px;"">
  <p>What best describes how you currently feel?</p>
  </div>","87","html-slider-response","48","652426","0.0-5.0-4.7","160","1","2025-07-23 06:39:20","1f75c3e559b7213887762d5229550c2b","216.120.189.118","Mozilla/5.0 (Windows NT 10.0; Win64; x64) AppleWebKit/537.36 (KHTML, like Gecko) Chrome/138.0.0.0 Safari/537.36","WebKit","Chrome","138.0.0.0","Windows","10.0","https://app.prolific.com/","en-US,en;q=0.9","6786c32f329b1d694103f225","683dba2a8a9dda3513610c04","68808364ca43b4251bf90b25","3","0","6786c32f329b1d694103f225","3","0","2025-07-23T06:50:24.010Z","","","","","","","","","","","MotivationQ","","50","","","","","","","","","","","","","","","","","","","","","","","","","","","","",""
"","","","","ctl-task-cpt","49","699067","0.0-5.0-0.8","160","1","2025-07-23 06:39:20","1f75c3e559b7213887762d5229550c2b","216.120.189.118","Mozilla/5.0 (Windows NT 10.0; Win64; x64) AppleWebKit/537.36 (KHTML, like Gecko) Chrome/138.0.0.0 Safari/537.36","WebKit","Chrome","138.0.0.0","Windows","10.0","https://app.prolific.com/","en-US,en;q=0.9","6786c32f329b1d694103f225","683dba2a8a9dda3513610c04","68808364ca43b4251bf90b25","3","0","6786c32f329b1d694103f225","3","0","2025-07-23T06:51:10.651Z","","","","","","","","","","","","","","win-only","0","g1:NW,g2:SE","0.2","9","0","664781.7","2650.5","7654.6","43607.9","1","4","8","6","2","8","8","27","19","0.20454545454545456","5004","3000","1750","[""down"",""right""]","{""num_key_presses"":8,""num_perfect"":2,""num_errors"":0,""num_randdir"":6,""num_randdir_good_moves"":5,""num_whilered"":0,""num_whileblue"":0,""num_blue"":3,""num_good_moves"":7}","[295.22232142857143,294.12857142857143,1.2,295.22232142857143,294.12857142857143,115.3,295.22232142857143,294.12857142857143,215.9,295.22232142857143,294.12857142857143,331,295.22232142857143,294.12857142857143,445.5,295.22232142857143,294.12857142857143,550.5,295.22232142857143,294.12857142857143,652.6,295.22232142857143,294.12857142857143,753.7,295.22232142857143,294.12857142857143,862.9,295.22232142857143,294.12857142857143,964.1,295.22232142857143,294.12857142857143,1069.3,295.22232142857143,294.12857142857143,1170.3,295.22232142857143,294.12857142857143,1270.8,295.22232142857143,294.12857142857143,1371.8,295.22232142857143,294.12857142857143,1481.6,295.22232142857143,294.12857142857143,1584.5,295.22232142857143,294.12857142857143,1693.8,295.22232142857143,294.12857142857143,1797.7,295.22232142857143,294.12857142857143,1907.4,295.22232142857143,294.12857142857143,2017.1,295.22232142857143,294.12857142857143,2120.6,295.22232142857143,294.12857142857143,2228,295.22232142857143,294.12857142857143,2330.6,295.22232142857143,294.12857142857143,2435,295.22232142857143,294.12857142857143,2546.8,295.22232142857143,294.12857142857143,2657.5,295.22232142857143,294.12857142857143,2764.2,295.22232142857143,294.12857142857143,2878.3,295.22232142857143,294.12857142857143,2979.3,295.22232142857143,294.12857142857143,3087,295.22232142857143,294.12857142857143,3201.5,295.22232142857143,294.12857142857143,3310.3,295.22232142857143,294.12857142857143,3427.5,295.22232142857143,294.12857142857143,3543,295.22232142857143,294.12857142857143,3650.4,295.22232142857143,294.12857142857143,3763,295.22232142857143,294.12857142857143,3867.1,295.22232142857143,294.12857142857143,3973.2,295.22232142857143,294.12857142857143,4080.9,295.22232142857143,294.12857142857143,4188.6,295.22232142857143,294.12857142857143,4305,295.22232142857143,294.12857142857143,4407.8,295.22232142857143,294.12857142857143,4510.9,295.22232142857143,294.12857142857143,4618.9,295.22232142857143,294.12857142857143,4722.3,295.22232142857143,294.12857142857143,4840.3,295.22232142857143,294.12857142857143,4943.8]","[1417.6,1417.6,1000,0,417.6,""oops"",""right"",""down"",""good_move"",4709.9,3282.6,2747.6,1427.3,535,""oops"",""right"",""up"",""bad_move"",8679.1,3965.5,2243.5,4713.6,1722,""oops"",""right"",""down"",""good_move"",11936.9,3256.5,2813.5,8680.4,443,""oops"",""right"",""right"",""good_move"",15991.8,4052,2719.3,11939.8,1332.7,""oops"",""right"",""down"",""good_move"",19378.4,3376.9,2680.5,16001.5,696.4,""smooth"",""right"",""right"",""good_move"",25933.4,6553.5,2119.5,23313.1,500.8,""smooth"",""right"",""right"",""good_move"",35517.6,9582.9,2510.3,32584.3,423,""oops"",""down"",""down"",""good_move""]","",""
"3487","","<div style=""width:500px;"">
  <p>What determined the result of this run?</p>
  </div>","100","html-slider-response","50","702556","0.0-5.0-1.8","160","1","2025-07-23 06:39:20","1f75c3e559b7213887762d5229550c2b","216.120.189.118","Mozilla/5.0 (Windows NT 10.0; Win64; x64) AppleWebKit/537.36 (KHTML, like Gecko) Chrome/138.0.0.0 Safari/537.36","WebKit","Chrome","138.0.0.0","Windows","10.0","https://app.prolific.com/","en-US,en;q=0.9","6786c32f329b1d694103f225","683dba2a8a9dda3513610c04","68808364ca43b4251bf90b25","3","0","6786c32f329b1d694103f225","3","0","2025-07-23T06:51:14.141Z","","","","","","","","","","","AttribQ","","50","","","","","","","","","","","","","","","","","","","","","","","","","","","","",""
"3415","","<div style=""width:500px;"">
  <p>How much control did you have over the ball?</p>
  </div>","100","html-slider-response","51","705975","0.0-5.0-2.8","160","1","2025-07-23 06:39:20","1f75c3e559b7213887762d5229550c2b","216.120.189.118","Mozilla/5.0 (Windows NT 10.0; Win64; x64) AppleWebKit/537.36 (KHTML, like Gecko) Chrome/138.0.0.0 Safari/537.36","WebKit","Chrome","138.0.0.0","Windows","10.0","https://app.prolific.com/","en-US,en;q=0.9","6786c32f329b1d694103f225","683dba2a8a9dda3513610c04","68808364ca43b4251bf90b25","3","0","6786c32f329b1d694103f225","3","0","2025-07-23T06:51:17.559Z","","","","","","","","","","","ControlQ","","50","","","","","","","","","","","","","","","","","","","","","","","","","","","","",""
"3837","","<div style=""width:500px;"">
  <p>How would you describe your current emotional state?</p>
  </div>","0","html-slider-response","52","709817","0.0-5.0-3.8","160","1","2025-07-23 06:39:20","1f75c3e559b7213887762d5229550c2b","216.120.189.118","Mozilla/5.0 (Windows NT 10.0; Win64; x64) AppleWebKit/537.36 (KHTML, like Gecko) Chrome/138.0.0.0 Safari/537.36","WebKit","Chrome","138.0.0.0","Windows","10.0","https://app.prolific.com/","en-US,en;q=0.9","6786c32f329b1d694103f225","683dba2a8a9dda3513610c04","68808364ca43b4251bf90b25","3","0","6786c32f329b1d694103f225","3","0","2025-07-23T06:51:21.401Z","","","","","","","","","","","StressQ","","50","","","","","","","","","","","","","","","","","","","","","","","","","","","","",""
"3475","","<div style=""width:500px;"">
  <p>What best describes how you currently feel?</p>
  </div>","100","html-slider-response","53","713300","0.0-5.0-4.8","160","1","2025-07-23 06:39:20","1f75c3e559b7213887762d5229550c2b","216.120.189.118","Mozilla/5.0 (Windows NT 10.0; Win64; x64) AppleWebKit/537.36 (KHTML, like Gecko) Chrome/138.0.0.0 Safari/537.36","WebKit","Chrome","138.0.0.0","Windows","10.0","https://app.prolific.com/","en-US,en;q=0.9","6786c32f329b1d694103f225","683dba2a8a9dda3513610c04","68808364ca43b4251bf90b25","3","0","6786c32f329b1d694103f225","3","0","2025-07-23T06:51:24.884Z","","","","","","","","","","","MotivationQ","","50","","","","","","","","","","","","","","","","","","","","","","","","","","","","",""
"","","","","ctl-task-cpt","54","782474","0.0-5.0-0.9","160","1","2025-07-23 06:39:20","1f75c3e559b7213887762d5229550c2b","216.120.189.118","Mozilla/5.0 (Windows NT 10.0; Win64; x64) AppleWebKit/537.36 (KHTML, like Gecko) Chrome/138.0.0.0 Safari/537.36","WebKit","Chrome","138.0.0.0","Windows","10.0","https://app.prolific.com/","en-US,en;q=0.9","6786c32f329b1d694103f225","683dba2a8a9dda3513610c04","68808364ca43b4251bf90b25","3","0","6786c32f329b1d694103f225","3","0","2025-07-23T06:52:34.058Z","","","","","","","","","","","","","","win-only","0","g1:NW,g2:SE","0.4","10","0","725657.4","1853.5","6857.2","66138.7","1","4","4","6","2","4","4","31","27","0.23484848484848486","5003.7","3000","990","[""down"",""right""]","{""num_key_presses"":12,""num_perfect"":5,""num_errors"":0,""num_randdir"":7,""num_randdir_good_moves"":4,""num_whilered"":0,""num_whileblue"":0,""num_blue"":6,""num_good_moves"":9}","[297.22232142857143,297.12857142857143,0.7,297.22232142857143,297.12857142857143,109.9,297.22232142857143,297.12857142857143,215,297.22232142857143,297.12857142857143,321.7,297.22232142857143,297.12857142857143,434.7,297.22232142857143,297.12857142857143,535.7,297.22232142857143,297.12857142857143,641.7,297.22232142857143,297.12857142857143,743.7,297.22232142857143,297.12857142857143,853.2,297.22232142857143,297.12857142857143,968.5,297.22232142857143,297.12857142857143,1071.7,297.22232142857143,297.12857142857143,1184.4,297.22232142857143,297.12857142857143,1297.9,297.22232142857143,297.12857142857143,1417.3,297.22232142857143,297.12857142857143,1522,297.22232142857143,297.12857142857143,1630.9,297.22232142857143,297.12857142857143,1747.6,297.22232142857143,297.12857142857143,1858,297.22232142857143,297.12857142857143,1975.1,297.22232142857143,297.12857142857143,2084.5,297.22232142857143,297.12857142857143,2199.2,297.22232142857143,297.12857142857143,2308.3,297.22232142857143,297.12857142857143,2422.2,297.22232142857143,297.12857142857143,2538.7,297.22232142857143,297.12857142857143,2653.5,297.22232142857143,297.12857142857143,2772.3,297.22232142857143,297.12857142857143,2884.8,297.22232142857143,297.12857142857143,2998.4,297.22232142857143,297.12857142857143,3105.8,297.22232142857143,297.12857142857143,3225.7,297.22232142857143,297.12857142857143,3341,297.22232142857143,297.12857142857143,3460,297.22232142857143,297.12857142857143,3573.5,297.22232142857143,297.12857142857143,3691,297.22232142857143,297.12857142857143,3795.3,297.22232142857143,297.12857142857143,3907.2,297.22232142857143,297.12857142857143,4008,297.22232142857143,297.12857142857143,4115.2,297.22232142857143,297.12857142857143,4231.2,297.22232142857143,297.12857142857143,4343.6,297.22232142857143,297.12857142857143,4451.8,297.22232142857143,297.12857142857143,4559.5,297.22232142857143,297.12857142857143,4669.6,297.22232142857143,297.12857142857143,4780.1,297.22232142857143,297.12857142857143,4893.5]","[2763,2763,1000,0,1763,""smooth"",""right"",""right"",""good_move"",5815,3046.7,2051.6,2768.3,995.1,""smooth"",""right"",""right"",""good_move"",8309.6,2492,1997.7,5817.7,494.3,""oops"",""right"",""up"",""bad_move"",12829.8,4518.5,1592,8311.3,2926.5,""smooth"",""right"",""right"",""good_move"",15754.4,2923.4,2444.1,12831,479.4,""oops"",""down"",""down"",""good_move"",25908.6,10151.5,3133.8,22263.6,511.2,""oops"",""down"",""left"",""bad_move"",33207.7,7297.9,2343.1,30430.3,434.3,""oops"",""down"",""right"",""good_move"",42972.7,9763.8,2566.7,39907.9,498.1,""oops"",""down"",""down"",""good_move"",49329.4,6353.9,3248.3,45544.4,536.7,""oops"",""down"",""left"",""bad_move"",53472.8,4142.5,1964.3,49330.3,2178.2,""smooth"",""right"",""right"",""good_move"",56294,2817.4,2122.6,53476.6,694.8,""smooth"",""down"",""down"",""good_move"",58813.5,2516.8,1976.1,56296.7,540.7,""oops"",""down"",""down"",""good_move""]","",""
"4939","","<div style=""width:500px;"">
  <p>What determined the result of this run?</p>
  </div>","98","html-slider-response","55","787416","0.0-5.0-1.9","160","1","2025-07-23 06:39:20","1f75c3e559b7213887762d5229550c2b","216.120.189.118","Mozilla/5.0 (Windows NT 10.0; Win64; x64) AppleWebKit/537.36 (KHTML, like Gecko) Chrome/138.0.0.0 Safari/537.36","WebKit","Chrome","138.0.0.0","Windows","10.0","https://app.prolific.com/","en-US,en;q=0.9","6786c32f329b1d694103f225","683dba2a8a9dda3513610c04","68808364ca43b4251bf90b25","3","0","6786c32f329b1d694103f225","3","0","2025-07-23T06:52:39.001Z","","","","","","","","","","","AttribQ","","50","","","","","","","","","","","","","","","","","","","","","","","","","","","","",""
"3143","","<div style=""width:500px;"">
  <p>How much control did you have over the ball?</p>
  </div>","95","html-slider-response","56","790566","0.0-5.0-2.9","160","1","2025-07-23 06:39:20","1f75c3e559b7213887762d5229550c2b","216.120.189.118","Mozilla/5.0 (Windows NT 10.0; Win64; x64) AppleWebKit/537.36 (KHTML, like Gecko) Chrome/138.0.0.0 Safari/537.36","WebKit","Chrome","138.0.0.0","Windows","10.0","https://app.prolific.com/","en-US,en;q=0.9","6786c32f329b1d694103f225","683dba2a8a9dda3513610c04","68808364ca43b4251bf90b25","3","0","6786c32f329b1d694103f225","3","0","2025-07-23T06:52:42.150Z","","","","","","","","","","","ControlQ","","50","","","","","","","","","","","","","","","","","","","","","","","","","","","","",""
"4254","","<div style=""width:500px;"">
  <p>How would you describe your current emotional state?</p>
  </div>","0","html-slider-response","57","794825","0.0-5.0-3.9","160","1","2025-07-23 06:39:20","1f75c3e559b7213887762d5229550c2b","216.120.189.118","Mozilla/5.0 (Windows NT 10.0; Win64; x64) AppleWebKit/537.36 (KHTML, like Gecko) Chrome/138.0.0.0 Safari/537.36","WebKit","Chrome","138.0.0.0","Windows","10.0","https://app.prolific.com/","en-US,en;q=0.9","6786c32f329b1d694103f225","683dba2a8a9dda3513610c04","68808364ca43b4251bf90b25","3","0","6786c32f329b1d694103f225","3","0","2025-07-23T06:52:46.409Z","","","","","","","","","","","StressQ","","50","","","","","","","","","","","","","","","","","","","","","","","","","","","","",""
"3507","","<div style=""width:500px;"">
  <p>What best describes how you currently feel?</p>
  </div>","94","html-slider-response","58","798335","0.0-5.0-4.9","160","1","2025-07-23 06:39:20","1f75c3e559b7213887762d5229550c2b","216.120.189.118","Mozilla/5.0 (Windows NT 10.0; Win64; x64) AppleWebKit/537.36 (KHTML, like Gecko) Chrome/138.0.0.0 Safari/537.36","WebKit","Chrome","138.0.0.0","Windows","10.0","https://app.prolific.com/","en-US,en;q=0.9","6786c32f329b1d694103f225","683dba2a8a9dda3513610c04","68808364ca43b4251bf90b25","3","0","6786c32f329b1d694103f225","3","0","2025-07-23T06:52:49.919Z","","","","","","","","","","","MotivationQ","","50","","","","","","","","","","","","","","","","","","","","","","","","","","","","",""
"","","","","ctl-task-cpt","59","850441","0.0-5.0-0.10","160","1","2025-07-23 06:39:20","1f75c3e559b7213887762d5229550c2b","216.120.189.118","Mozilla/5.0 (Windows NT 10.0; Win64; x64) AppleWebKit/537.36 (KHTML, like Gecko) Chrome/138.0.0.0 Safari/537.36","WebKit","Chrome","138.0.0.0","Windows","10.0","https://app.prolific.com/","en-US,en;q=0.9","6786c32f329b1d694103f225","683dba2a8a9dda3513610c04","68808364ca43b4251bf90b25","3","0","6786c32f329b1d694103f225","3","0","2025-07-23T06:53:42.025Z","","","","","","","","","","","","","","win-only","2","g1:SE,g2:NW","0.5","11","0","810691.5","2303.3","7333","49060.4","1","4","8","6","2","8","7","38","31","0.2878787878787879","5029.7","3000","1945","[""left"",""up""]","{""num_key_presses"":9,""num_perfect"":4,""num_errors"":1,""num_randdir"":4,""num_randdir_good_moves"":3,""num_whilered"":0,""num_whileblue"":0,""num_blue"":2,""num_good_moves"":7}","[296.22232142857143,303.12857142857143,1.2,296.22232142857143,303.12857142857143,118.2,296.22232142857143,303.12857142857143,240.2,296.22232142857143,303.12857142857143,361.5,296.22232142857143,303.12857142857143,483.6,296.22232142857143,303.12857142857143,607.8,296.22232142857143,303.12857142857143,728.8,296.22232142857143,303.12857142857143,850,296.22232142857143,303.12857142857143,969.2,296.22232142857143,303.12857142857143,1100.4,296.22232142857143,303.12857142857143,1202,296.22232142857143,303.12857142857143,1302.7,296.22232142857143,303.12857142857143,1407.1,296.22232142857143,303.12857142857143,1508,296.22232142857143,303.12857142857143,1623.3,296.22232142857143,303.12857142857143,1725.5,296.22232142857143,303.12857142857143,1842.5,296.22232142857143,303.12857142857143,1955.5,296.22232142857143,303.12857142857143,2069.4,296.22232142857143,303.12857142857143,2182.2,296.22232142857143,303.12857142857143,2282.8,296.22232142857143,303.12857142857143,2386.1,296.22232142857143,303.12857142857143,2493.7,296.22232142857143,303.12857142857143,2595.5,296.22232142857143,303.12857142857143,2707.1,296.22232142857143,303.12857142857143,2825.1,296.22232142857143,303.12857142857143,2936.3,296.22232142857143,303.12857142857143,3044.1,296.22232142857143,303.12857142857143,3146.6,296.22232142857143,303.12857142857143,3267.2,296.22232142857143,303.12857142857143,3378.5,296.22232142857143,303.12857142857143,3487.5,296.22232142857143,303.12857142857143,3592.5,296.22232142857143,303.12857142857143,3704.4,296.22232142857143,303.12857142857143,3815.7,296.22232142857143,303.12857142857143,3926.3,296.22232142857143,303.12857142857143,4036.8,296.22232142857143,303.12857142857143,4142.8,296.22232142857143,303.12857142857143,4252,296.22232142857143,303.12857142857143,4360.1,296.22232142857143,303.12857142857143,4475.3,296.22232142857143,303.12857142857143,4593.5,296.22232142857143,303.12857142857143,4695.2,296.22232142857143,303.12857142857143,4811.1,296.22232142857143,303.12857142857143,4932.6]","[3153.8,3153.8,2313.1,2014.4,-1173.7,""error"",""-"",""-"",""no_move"",8108.1,4953.2,2558.2,4157.5,1392.4,""smooth"",""up"",""up"",""good_move"",12157.7,4045.4,2966,8112.3,1079.4,""oops"",""up"",""up"",""good_move"",16765.9,4605.9,2444.9,12160,2161,""smooth"",""up"",""up"",""good_move"",21805.8,5038.8,2289.1,16767.1,2749.6,""oops"",""left"",""down"",""bad_move"",25172.6,3365.1,2915.7,21807.5,449.4,""oops"",""up"",""left"",""good_move"",32566.8,7392.3,2716.1,29418.6,432.1,""oops"",""up"",""left"",""good_move"",37362.2,4792,2817.1,32570.2,1974.9,""smooth"",""up"",""up"",""good_move"",41375.5,3995.1,3093.3,37380.5,901.7,""smooth"",""left"",""left"",""good_move""]","",""
"4697","","<div style=""width:500px;"">
  <p>What determined the result of this run?</p>
  </div>","100","html-slider-response","60","855142","0.0-5.0-1.10","160","1","2025-07-23 06:39:20","1f75c3e559b7213887762d5229550c2b","216.120.189.118","Mozilla/5.0 (Windows NT 10.0; Win64; x64) AppleWebKit/537.36 (KHTML, like Gecko) Chrome/138.0.0.0 Safari/537.36","WebKit","Chrome","138.0.0.0","Windows","10.0","https://app.prolific.com/","en-US,en;q=0.9","6786c32f329b1d694103f225","683dba2a8a9dda3513610c04","68808364ca43b4251bf90b25","3","0","6786c32f329b1d694103f225","3","0","2025-07-23T06:53:46.726Z","","","","","","","","","","","AttribQ","","50","","","","","","","","","","","","","","","","","","","","","","","","","","","","",""
"3121","","<div style=""width:500px;"">
  <p>How much control did you have over the ball?</p>
  </div>","99","html-slider-response","61","858267","0.0-5.0-2.10","160","1","2025-07-23 06:39:20","1f75c3e559b7213887762d5229550c2b","216.120.189.118","Mozilla/5.0 (Windows NT 10.0; Win64; x64) AppleWebKit/537.36 (KHTML, like Gecko) Chrome/138.0.0.0 Safari/537.36","WebKit","Chrome","138.0.0.0","Windows","10.0","https://app.prolific.com/","en-US,en;q=0.9","6786c32f329b1d694103f225","683dba2a8a9dda3513610c04","68808364ca43b4251bf90b25","3","0","6786c32f329b1d694103f225","3","0","2025-07-23T06:53:49.851Z","","","","","","","","","","","ControlQ","","50","","","","","","","","","","","","","","","","","","","","","","","","","","","","",""
"4140","","<div style=""width:500px;"">
  <p>How would you describe your current emotional state?</p>
  </div>","0","html-slider-response","62","862410","0.0-5.0-3.10","160","1","2025-07-23 06:39:20","1f75c3e559b7213887762d5229550c2b","216.120.189.118","Mozilla/5.0 (Windows NT 10.0; Win64; x64) AppleWebKit/537.36 (KHTML, like Gecko) Chrome/138.0.0.0 Safari/537.36","WebKit","Chrome","138.0.0.0","Windows","10.0","https://app.prolific.com/","en-US,en;q=0.9","6786c32f329b1d694103f225","683dba2a8a9dda3513610c04","68808364ca43b4251bf90b25","3","0","6786c32f329b1d694103f225","3","0","2025-07-23T06:53:53.994Z","","","","","","","","","","","StressQ","","50","","","","","","","","","","","","","","","","","","","","","","","","","","","","",""
"4858","","<div style=""width:500px;"">
  <p>What best describes how you currently feel?</p>
  </div>","99","html-slider-response","63","867272","0.0-5.0-4.10","160","1","2025-07-23 06:39:20","1f75c3e559b7213887762d5229550c2b","216.120.189.118","Mozilla/5.0 (Windows NT 10.0; Win64; x64) AppleWebKit/537.36 (KHTML, like Gecko) Chrome/138.0.0.0 Safari/537.36","WebKit","Chrome","138.0.0.0","Windows","10.0","https://app.prolific.com/","en-US,en;q=0.9","6786c32f329b1d694103f225","683dba2a8a9dda3513610c04","68808364ca43b4251bf90b25","3","0","6786c32f329b1d694103f225","3","0","2025-07-23T06:53:58.856Z","","","","","","","","","","","MotivationQ","","50","","","","","","","","","","","","","","","","","","","","","","","","","","","","",""
"","","","","ctl-task-cpt","64","938090","0.0-5.0-0.11","160","1","2025-07-23 06:39:20","1f75c3e559b7213887762d5229550c2b","216.120.189.118","Mozilla/5.0 (Windows NT 10.0; Win64; x64) AppleWebKit/537.36 (KHTML, like Gecko) Chrome/138.0.0.0 Safari/537.36","WebKit","Chrome","138.0.0.0","Windows","10.0","https://app.prolific.com/","en-US,en;q=0.9","6786c32f329b1d694103f225","683dba2a8a9dda3513610c04","68808364ca43b4251bf90b25","3","0","6786c32f329b1d694103f225","3","0","2025-07-23T06:55:09.675Z","","","","","","","","","","","","","","win-only","3","g1:SW,g2:NE","0.6","12","0","879629.5","2707","7710.2","67746.4","1","4","4","6","1","1","1","39","38","0.29545454545454547","5003.1","3000","1750","[""down"",""left""]","{""num_key_presses"":12,""num_perfect"":8,""num_errors"":0,""num_randdir"":4,""num_randdir_good_moves"":1,""num_whilered"":0,""num_whileblue"":0,""num_blue"":1,""num_good_moves"":8}","[293.22232142857143,291.12857142857143,0.9,293.22232142857143,291.12857142857143,100.2,293.22232142857143,291.12857142857143,201.5,293.22232142857143,291.12857142857143,309.6,293.22232142857143,291.12857142857143,425.1,293.22232142857143,291.12857142857143,533,293.22232142857143,291.12857142857143,637.7,293.22232142857143,291.12857142857143,748.6,293.22232142857143,291.12857142857143,869.1,293.22232142857143,291.12857142857143,987,293.22232142857143,291.12857142857143,1089.3,293.22232142857143,291.12857142857143,1200.5,293.22232142857143,291.12857142857143,1301.2,293.22232142857143,291.12857142857143,1404.7,293.22232142857143,291.12857142857143,1517.9,293.22232142857143,291.12857142857143,1631.3,293.22232142857143,291.12857142857143,1738.7,293.22232142857143,291.12857142857143,1852.8,293.22232142857143,291.12857142857143,1968.5,293.22232142857143,291.12857142857143,2075.5,293.22232142857143,291.12857142857143,2186.4,293.22232142857143,291.12857142857143,2306.4,293.22232142857143,291.12857142857143,2415.1,293.22232142857143,291.12857142857143,2530.9,293.22232142857143,291.12857142857143,2643.6,293.22232142857143,291.12857142857143,2754.2,293.22232142857143,291.12857142857143,2866.3,293.22232142857143,291.12857142857143,2986.6,293.22232142857143,291.12857142857143,3087.7,293.22232142857143,291.12857142857143,3199,293.22232142857143,291.12857142857143,3312,293.22232142857143,291.12857142857143,3426.5,293.22232142857143,291.12857142857143,3536.6,293.22232142857143,291.12857142857143,3651.2,293.22232142857143,291.12857142857143,3754.5,293.22232142857143,291.12857142857143,3870.9,293.22232142857143,291.12857142857143,3984.6,293.22232142857143,291.12857142857143,4086,293.22232142857143,291.12857142857143,4208.1,293.22232142857143,291.12857142857143,4329.2,293.22232142857143,291.12857142857143,4450.8,293.22232142857143,291.12857142857143,4563.5,293.22232142857143,291.12857142857143,4685.8,293.22232142857143,291.12857142857143,4787.7,293.22232142857143,291.12857142857143,4900.1]","[2620.4,2620.4,1000,0,1620.4,""smooth"",""right"",""right"",""bad_move"",5934.4,3309,2830,2625.4,479,""smooth"",""down"",""down"",""good_move"",9112.8,3177,2692.4,5935.8,484.6,""smooth"",""down"",""down"",""good_move"",11833.9,2719.3,2099.5,9114.6,619.8,""smooth"",""left"",""left"",""good_move"",17086.2,5248.4,2756.7,11837.8,2491.7,""smooth"",""left"",""left"",""good_move"",22935.4,5840.7,2673.2,17094.8,3167.4,""oops"",""left"",""up"",""bad_move"",29727.5,6790.8,2788.5,22936.7,4002.3,""smooth"",""left"",""left"",""good_move"",37303.8,7575.5,2320,29728.3,5255.5,""oops"",""down"",""right"",""bad_move"",41405.8,4093.7,3133.7,37312.1,960,""oops"",""left"",""up"",""bad_move"",52610.6,11203.3,2135.1,49898.4,577.1,""oops"",""down"",""down"",""good_move"",56070.8,3459,2697.1,52611.8,761.9,""smooth"",""down"",""down"",""good_move"",59103.3,3030.1,2442.1,56073.3,588,""smooth"",""left"",""left"",""good_move""]","",""
"5574","","<div style=""width:500px;"">
  <p>What determined the result of this run?</p>
  </div>","100","html-slider-response","65","943672","0.0-5.0-1.11","160","1","2025-07-23 06:39:20","1f75c3e559b7213887762d5229550c2b","216.120.189.118","Mozilla/5.0 (Windows NT 10.0; Win64; x64) AppleWebKit/537.36 (KHTML, like Gecko) Chrome/138.0.0.0 Safari/537.36","WebKit","Chrome","138.0.0.0","Windows","10.0","https://app.prolific.com/","en-US,en;q=0.9","6786c32f329b1d694103f225","683dba2a8a9dda3513610c04","68808364ca43b4251bf90b25","3","0","6786c32f329b1d694103f225","3","0","2025-07-23T06:55:15.256Z","","","","","","","","","","","AttribQ","","50","","","","","","","","","","","","","","","","","","","","","","","","","","","","",""
"2979","","<div style=""width:500px;"">
  <p>How much control did you have over the ball?</p>
  </div>","99","html-slider-response","66","946654","0.0-5.0-2.11","160","1","2025-07-23 06:39:20","1f75c3e559b7213887762d5229550c2b","216.120.189.118","Mozilla/5.0 (Windows NT 10.0; Win64; x64) AppleWebKit/537.36 (KHTML, like Gecko) Chrome/138.0.0.0 Safari/537.36","WebKit","Chrome","138.0.0.0","Windows","10.0","https://app.prolific.com/","en-US,en;q=0.9","6786c32f329b1d694103f225","683dba2a8a9dda3513610c04","68808364ca43b4251bf90b25","3","0","6786c32f329b1d694103f225","3","0","2025-07-23T06:55:18.238Z","","","","","","","","","","","ControlQ","","50","","","","","","","","","","","","","","","","","","","","","","","","","","","","",""
"3569","","<div style=""width:500px;"">
  <p>How would you describe your current emotional state?</p>
  </div>","2","html-slider-response","67","950226","0.0-5.0-3.11","160","1","2025-07-23 06:39:20","1f75c3e559b7213887762d5229550c2b","216.120.189.118","Mozilla/5.0 (Windows NT 10.0; Win64; x64) AppleWebKit/537.36 (KHTML, like Gecko) Chrome/138.0.0.0 Safari/537.36","WebKit","Chrome","138.0.0.0","Windows","10.0","https://app.prolific.com/","en-US,en;q=0.9","6786c32f329b1d694103f225","683dba2a8a9dda3513610c04","68808364ca43b4251bf90b25","3","0","6786c32f329b1d694103f225","3","0","2025-07-23T06:55:21.810Z","","","","","","","","","","","StressQ","","50","","","","","","","","","","","","","","","","","","","","","","","","","","","","",""
"3734","","<div style=""width:500px;"">
  <p>What best describes how you currently feel?</p>
  </div>","100","html-slider-response","68","953964","0.0-5.0-4.11","160","1","2025-07-23 06:39:20","1f75c3e559b7213887762d5229550c2b","216.120.189.118","Mozilla/5.0 (Windows NT 10.0; Win64; x64) AppleWebKit/537.36 (KHTML, like Gecko) Chrome/138.0.0.0 Safari/537.36","WebKit","Chrome","138.0.0.0","Windows","10.0","https://app.prolific.com/","en-US,en;q=0.9","6786c32f329b1d694103f225","683dba2a8a9dda3513610c04","68808364ca43b4251bf90b25","3","0","6786c32f329b1d694103f225","3","0","2025-07-23T06:55:25.548Z","","","","","","","","","","","MotivationQ","","50","","","","","","","","","","","","","","","","","","","","","","","","","","","","",""
"","","","","ctl-task-cpt","69","983088","0.0-5.0-0.12","160","1","2025-07-23 06:39:20","1f75c3e559b7213887762d5229550c2b","216.120.189.118","Mozilla/5.0 (Windows NT 10.0; Win64; x64) AppleWebKit/537.36 (KHTML, like Gecko) Chrome/138.0.0.0 Safari/537.36","WebKit","Chrome","138.0.0.0","Windows","10.0","https://app.prolific.com/","en-US,en;q=0.9","6786c32f329b1d694103f225","683dba2a8a9dda3513610c04","68808364ca43b4251bf90b25","3","0","6786c32f329b1d694103f225","3","0","2025-07-23T06:55:54.673Z","","","","","","","","","","","","","","win-only","0","g1:NW,g2:SE","0.7","13","0","966320.3","2607.6","7624.1","26083","1","4","4","6","2","4","4","43","39","0.32575757575757575","5016.5","3000","2440","[""down"",""right""]","{""num_key_presses"":6,""num_perfect"":5,""num_errors"":0,""num_randdir"":1,""num_randdir_good_moves"":1,""num_whilered"":0,""num_whileblue"":0,""num_blue"":0,""num_good_moves"":6}","[294.22232142857143,290.12857142857143,0.9,294.22232142857143,290.12857142857143,113.2,294.22232142857143,290.12857142857143,228.6,294.22232142857143,290.12857142857143,340.9,294.22232142857143,290.12857142857143,448.4,294.22232142857143,290.12857142857143,563.5,294.22232142857143,290.12857142857143,671.3,294.22232142857143,290.12857142857143,778.1,294.22232142857143,290.12857142857143,886,294.22232142857143,290.12857142857143,994.7,294.22232142857143,290.12857142857143,1096.5,294.22232142857143,290.12857142857143,1204.9,294.22232142857143,290.12857142857143,1329.7,294.22232142857143,290.12857142857143,1435.9,294.22232142857143,290.12857142857143,1543.1,294.22232142857143,290.12857142857143,1645.5,294.22232142857143,290.12857142857143,1752.6,294.22232142857143,290.12857142857143,1857.1,294.22232142857143,290.12857142857143,1959.4,294.22232142857143,290.12857142857143,2084.3,294.22232142857143,290.12857142857143,2208.2,294.22232142857143,290.12857142857143,2338.4,294.22232142857143,290.12857142857143,2455.6,294.22232142857143,290.12857142857143,2570.6,294.22232142857143,290.12857142857143,2686.4,294.22232142857143,290.12857142857143,2796.6,294.22232142857143,290.12857142857143,2910.4,294.22232142857143,290.12857142857143,3026.3,294.22232142857143,290.12857142857143,3152,294.22232142857143,290.12857142857143,3270.8,294.22232142857143,290.12857142857143,3394.5,294.22232142857143,290.12857142857143,3508.5,294.22232142857143,290.12857142857143,3625.7,294.22232142857143,290.12857142857143,3744,294.22232142857143,290.12857142857143,3863.1,294.22232142857143,290.12857142857143,3982.5,294.22232142857143,290.12857142857143,4111.9,294.22232142857143,290.12857142857143,4227,294.22232142857143,290.12857142857143,4349.3,294.22232142857143,290.12857142857143,4472.2,294.22232142857143,290.12857142857143,4594,294.22232142857143,290.12857142857143,4713.4,294.22232142857143,290.12857142857143,4836,294.22232142857143,290.12857142857143,4960.4]","[1504,1504,1000,0,504,""smooth"",""right"",""right"",""good_move"",4537.6,3031.6,2512.3,1506.1,519.2,""smooth"",""right"",""right"",""good_move"",8109.8,3571,3095.5,4538.8,475.6,""oops"",""right"",""down"",""good_move"",11640.8,3529.3,3072.9,8111.6,456.4,""smooth"",""right"",""right"",""good_move"",15162.4,3520.3,3074,11642.2,446.2,""smooth"",""down"",""down"",""good_move"",17977.7,2807.7,2349.2,15170,458.5,""smooth"",""down"",""down"",""good_move""]","",""
"3301","","<div style=""width:500px;"">
  <p>What determined the result of this run?</p>
  </div>","100","html-slider-response","70","986393","0.0-5.0-1.12","160","1","2025-07-23 06:39:20","1f75c3e559b7213887762d5229550c2b","216.120.189.118","Mozilla/5.0 (Windows NT 10.0; Win64; x64) AppleWebKit/537.36 (KHTML, like Gecko) Chrome/138.0.0.0 Safari/537.36","WebKit","Chrome","138.0.0.0","Windows","10.0","https://app.prolific.com/","en-US,en;q=0.9","6786c32f329b1d694103f225","683dba2a8a9dda3513610c04","68808364ca43b4251bf90b25","3","0","6786c32f329b1d694103f225","3","0","2025-07-23T06:55:57.978Z","","","","","","","","","","","AttribQ","","50","","","","","","","","","","","","","","","","","","","","","","","","","","","","",""
"3186","","<div style=""width:500px;"">
  <p>How much control did you have over the ball?</p>
  </div>","100","html-slider-response","71","989584","0.0-5.0-2.12","160","1","2025-07-23 06:39:20","1f75c3e559b7213887762d5229550c2b","216.120.189.118","Mozilla/5.0 (Windows NT 10.0; Win64; x64) AppleWebKit/537.36 (KHTML, like Gecko) Chrome/138.0.0.0 Safari/537.36","WebKit","Chrome","138.0.0.0","Windows","10.0","https://app.prolific.com/","en-US,en;q=0.9","6786c32f329b1d694103f225","683dba2a8a9dda3513610c04","68808364ca43b4251bf90b25","3","0","6786c32f329b1d694103f225","3","0","2025-07-23T06:56:01.168Z","","","","","","","","","","","ControlQ","","50","","","","","","","","","","","","","","","","","","","","","","","","","","","","",""
"3809","","<div style=""width:500px;"">
  <p>How would you describe your current emotional state?</p>
  </div>","0","html-slider-response","72","993397","0.0-5.0-3.12","160","1","2025-07-23 06:39:20","1f75c3e559b7213887762d5229550c2b","216.120.189.118","Mozilla/5.0 (Windows NT 10.0; Win64; x64) AppleWebKit/537.36 (KHTML, like Gecko) Chrome/138.0.0.0 Safari/537.36","WebKit","Chrome","138.0.0.0","Windows","10.0","https://app.prolific.com/","en-US,en;q=0.9","6786c32f329b1d694103f225","683dba2a8a9dda3513610c04","68808364ca43b4251bf90b25","3","0","6786c32f329b1d694103f225","3","0","2025-07-23T06:56:04.981Z","","","","","","","","","","","StressQ","","50","","","","","","","","","","","","","","","","","","","","","","","","","","","","",""
"5171","","<div style=""width:500px;"">
  <p>What best describes how you currently feel?</p>
  </div>","100","html-slider-response","73","998572","0.0-5.0-4.12","160","1","2025-07-23 06:39:20","1f75c3e559b7213887762d5229550c2b","216.120.189.118","Mozilla/5.0 (Windows NT 10.0; Win64; x64) AppleWebKit/537.36 (KHTML, like Gecko) Chrome/138.0.0.0 Safari/537.36","WebKit","Chrome","138.0.0.0","Windows","10.0","https://app.prolific.com/","en-US,en;q=0.9","6786c32f329b1d694103f225","683dba2a8a9dda3513610c04","68808364ca43b4251bf90b25","3","0","6786c32f329b1d694103f225","3","0","2025-07-23T06:56:10.157Z","","","","","","","","","","","MotivationQ","","50","","","","","","","","","","","","","","","","","","","","","","","","","","","","",""
"","","","","ctl-task-cpt","74","1030989","0.0-5.0-0.13","160","1","2025-07-23 06:39:20","1f75c3e559b7213887762d5229550c2b","216.120.189.118","Mozilla/5.0 (Windows NT 10.0; Win64; x64) AppleWebKit/537.36 (KHTML, like Gecko) Chrome/138.0.0.0 Safari/537.36","WebKit","Chrome","138.0.0.0","Windows","10.0","https://app.prolific.com/","en-US,en;q=0.9","6786c32f329b1d694103f225","683dba2a8a9dda3513610c04","68808364ca43b4251bf90b25","3","0","6786c32f329b1d694103f225","3","0","2025-07-23T06:56:42.573Z","","","","","","","","","","","","","","win-only","1","g1:NE,g2:SW","0.8","14","0","1010932.8","3137.8","8157.3","29360.5","1","4","8","6","2","8","8","51","43","0.38636363636363635","5019.5","3000","2295","[""down"",""left""]","{""num_key_presses"":6,""num_perfect"":5,""num_errors"":0,""num_randdir"":1,""num_randdir_good_moves"":1,""num_whilered"":0,""num_whileblue"":0,""num_blue"":0,""num_good_moves"":6}","[299.22232142857143,292.12857142857143,1.1,299.22232142857143,292.12857142857143,106,299.22232142857143,292.12857142857143,214.3,299.22232142857143,292.12857142857143,343.9,299.22232142857143,292.12857142857143,477.9,299.22232142857143,292.12857142857143,613.2,299.22232142857143,292.12857142857143,738.8,299.22232142857143,292.12857142857143,867.6,299.22232142857143,292.12857142857143,994.3,299.22232142857143,292.12857142857143,1124.2,299.22232142857143,292.12857142857143,1252,299.22232142857143,292.12857142857143,1380.4,299.22232142857143,292.12857142857143,1507.6,299.22232142857143,292.12857142857143,1636.7,299.22232142857143,292.12857142857143,1767.7,299.22232142857143,292.12857142857143,1896.5,299.22232142857143,292.12857142857143,2021.4,299.22232142857143,292.12857142857143,2126.2,299.22232142857143,292.12857142857143,2252.9,299.22232142857143,292.12857142857143,2381.5,299.22232142857143,292.12857142857143,2482.8,299.22232142857143,292.12857142857143,2613.3,299.22232142857143,292.12857142857143,2713.5,299.22232142857143,292.12857142857143,2842.5,299.22232142857143,292.12857142857143,2967.9,299.22232142857143,292.12857142857143,3068.3,299.22232142857143,292.12857142857143,3184.6,299.22232142857143,292.12857142857143,3287.9,299.22232142857143,292.12857142857143,3387.9,299.22232142857143,292.12857142857143,3517.8,299.22232142857143,292.12857142857143,3619,299.22232142857143,292.12857142857143,3719.1,299.22232142857143,292.12857142857143,3821.4,299.22232142857143,292.12857142857143,3955.2,299.22232142857143,292.12857142857143,4056,299.22232142857143,292.12857142857143,4164.7,299.22232142857143,292.12857142857143,4272.2,299.22232142857143,292.12857142857143,4408.1,299.22232142857143,292.12857142857143,4509.4,299.22232142857143,292.12857142857143,4610.4,299.22232142857143,292.12857142857143,4711.8,299.22232142857143,292.12857142857143,4845.1,299.22232142857143,292.12857142857143,4950.7]","[2203.4,2203.4,1000,0,1203.4,""smooth"",""down"",""down"",""good_move"",5065.8,2853,2353.2,2212.9,499.8,""oops"",""down"",""down"",""good_move"",8207.8,3139.3,2495.6,5068.5,643.7,""smooth"",""down"",""down"",""good_move"",10947.7,2724.8,2170,8222.9,554.8,""smooth"",""left"",""left"",""good_move"",15377.9,4428.2,1741.9,10949.7,2686.3,""smooth"",""left"",""left"",""good_move"",20586.1,5206.6,2326,15379.5,2880.6,""smooth"",""left"",""left"",""good_move""]","",""
"10098","","<div style=""width:500px;"">
  <p>What determined the result of this run?</p>
