"rt","response_timestamp","stimulus","response","trial_type","trial_index","time_elapsed","internal_node_id","run_id","condition","recorded_at","source_code_version","ip","user_agent","device","browser","browser_version","platform","platform_version","referer","accept_language","PROLIFIC_PID","STUDY_ID","SESSION_ID","WEEK","BATCH","prolific_id","week","batch","realtime","success","responses","item_order","radio_event_ids","radio_event_times","key_event_times","mouse_event_times","straightlining","zigzagging","honeypot","eventType","view_history","slider_start","which_type","canvas_config","goals_layout","control_level","trial_number","tutorial_trial_number","trial_start_time","phase1_start_time","phase2_start_time","phase3_start_time","goal_1_value","goal_1_distance","goal_2_value","goal_2_distance","goal_selected","outcome","outcome_total","participant_final_score","participant_initial_score","participant_final_score_prop","goal_choice_rt","allocated_time","allocated_time_remaining","goal_direction","counts","mouse_movements","key_presses","question_order","question_id"
"4616","1753252463203","<p style='font-size:40px;line-height:1.25'><strong>Welcome to the experiment!</strong></p><p style='font-size:1.1em;line-height:1.25'>Thank you for participanting in our experiment again! You will be asked to play the Dysfunctional Ball Game again. We will briefly recap the rules before we start.</p><p style='font-size:1.1em;line-height:1.25'>Press <strong>Next</strong> to continue.</p>","0","custom-html-button-response","0","4620","0.0-0.0","153","1","2025-07-23 06:34:17","1f75c3e559b7213887762d5229550c2b","78.137.213.1","Mozilla/5.0 (Windows NT 10.0; Win64; x64) AppleWebKit/537.36 (KHTML, like Gecko) Chrome/138.0.0.0 Safari/537.36","WebKit","Chrome","138.0.0.0","Windows","10.0","https://app.prolific.com/","pt-PT,pt;q=0.9,en-US;q=0.8,en;q=0.7,es;q=0.6,de;q=0.5,it;q=0.4","66aea8fcd9cd711541bf63e5","683db9eb0562dbf637994deb","6880821d012ef9b969b5e475","2","1","66aea8fcd9cd711541bf63e5","2","1","2025-07-23T06:34:23.205Z","","","","","","","","","","","","","","","","","","","","","","","","","","","","","","","","","","","","","","","","","",""
"4155","","","","fullscreen","1","9783","0.0-1.0","153","1","2025-07-23 06:34:17","1f75c3e559b7213887762d5229550c2b","78.137.213.1","Mozilla/5.0 (Windows NT 10.0; Win64; x64) AppleWebKit/537.36 (KHTML, like Gecko) Chrome/138.0.0.0 Safari/537.36","WebKit","Chrome","138.0.0.0","Windows","10.0","https://app.prolific.com/","pt-PT,pt;q=0.9,en-US;q=0.8,en;q=0.7,es;q=0.6,de;q=0.5,it;q=0.4","66aea8fcd9cd711541bf63e5","683db9eb0562dbf637994deb","6880821d012ef9b969b5e475","2","1","66aea8fcd9cd711541bf63e5","2","1","","true","","","","","","","","","","","","","","","","","","","","","","","","","","","","","","","","","","","","","","","","",""
"1212","1753252469581","<p style='font-size:1.1em;line-height:1.25'>In the following, we will ask you a few questions relating to your feelings in the last 24 hours.<br></p><p style='font-size:1.1em;line-height:1.25'>Press the <strong>Next</strong> button to continue.</p>","0","custom-html-button-response","2","10996","0.0-2.0-0.0","153","1","2025-07-23 06:34:17","1f75c3e559b7213887762d5229550c2b","78.137.213.1","Mozilla/5.0 (Windows NT 10.0; Win64; x64) AppleWebKit/537.36 (KHTML, like Gecko) Chrome/138.0.0.0 Safari/537.36","WebKit","Chrome","138.0.0.0","Windows","10.0","https://app.prolific.com/","pt-PT,pt;q=0.9,en-US;q=0.8,en;q=0.7,es;q=0.6,de;q=0.5,it;q=0.4","66aea8fcd9cd711541bf63e5","683db9eb0562dbf637994deb","6880821d012ef9b969b5e475","2","1","66aea8fcd9cd711541bf63e5","2","1","2025-07-23T06:34:29.581Z","","","","","","","","","","","","","","","","","","","","","","","","","","","","","","","","","","","","","","","","","",""
"66607","","","","survey-template","3","77611","0.0-2.0-1.0","153","1","2025-07-23 06:34:17","1f75c3e559b7213887762d5229550c2b","78.137.213.1","Mozilla/5.0 (Windows NT 10.0; Win64; x64) AppleWebKit/537.36 (KHTML, like Gecko) Chrome/138.0.0.0 Safari/537.36","WebKit","Chrome","138.0.0.0","Windows","10.0","https://app.prolific.com/","pt-PT,pt;q=0.9,en-US;q=0.8,en;q=0.7,es;q=0.6,de;q=0.5,it;q=0.4","66aea8fcd9cd711541bf63e5","683db9eb0562dbf637994deb","6880821d012ef9b969b5e475","2","1","66aea8fcd9cd711541bf63e5","2","1","2025-07-23T06:35:36.196Z","","{""Q01"":""3"",""Q02"":""3"",""Q03"":""3"",""Q04"":""4"",""Q05"":""4"",""Q06"":""3"",""Q07"":""3"",""Q08"":""4"",""Q09"":""2"",""Q10"":""4"",""Q11"":""4"",""Q12"":""1"",""Q13"":""5"",""Q14"":""1"",""Q15"":""3"",""Q16"":""3"",""Q17"":""4"",""Q18"":""3"",""Q19"":""2"",""Q20"":""3"",""Q21"":""2"",""Q22"":""3""}","[0,1,2,3,4,5,6,7,8,9,10,11,12,13,14,15,16,17,18,19,20,21]","[""Q01"",""Q02"",""Q03"",""Q04"",""Q05"",""Q06"",""Q07"",""Q08"",""Q09"",""Q10"",""Q11"",""Q12"",""Q12"",""Q13"",""Q14"",""Q15"",""Q16"",""Q16"",""Q17"",""Q18"",""Q19"",""Q20"",""Q21"",""Q22""]","[2618.600000023842,4124.799999952316,5242.899999976158,6799.200000047684,9901.899999976158,12068.600000023842,14703.600000023842,18446.600000023842,20979.399999976158,22769.799999952316,24488.299999952316,27479.700000047684,29289.700000047684,33043.60000002384,34315.10000002384,39167.700000047684,42025.89999997616,45007,46827.299999952316,48607.200000047684,55910.10000002384,57405.299999952316,60548.700000047684,65852.89999997616]","[]","[0.20000004768371582,2618.600000023842,4124.799999952316,5242.899999976158,6799.200000047684,8406.700000047684,9901.899999976158,12068.600000023842,14703.600000023842,18446.600000023842,20979.399999976158,22769.799999952316,24488.299999952316,27479.700000047684,28293.5,29289.700000047684,31732,33043.60000002384,34315.10000002384,39167.700000047684,41182,42025.89999997616,45007,46827.299999952316,47915.89999997616,48607.200000047684,53184.60000002384,55910.10000002384,57405.299999952316,60548.700000047684,65852.89999997616,66600.89999997616]","0.45454545454545453","0.42857142857142855","0","drsp","","","","","","","","","","","","","","","","","","","","","","","","","","","","","","",""
"11244.5","","","","survey-template","4","88858","0.0-2.0-2.0","153","1","2025-07-23 06:34:17","1f75c3e559b7213887762d5229550c2b","78.137.213.1","Mozilla/5.0 (Windows NT 10.0; Win64; x64) AppleWebKit/537.36 (KHTML, like Gecko) Chrome/138.0.0.0 Safari/537.36","WebKit","Chrome","138.0.0.0","Windows","10.0","https://app.prolific.com/","pt-PT,pt;q=0.9,en-US;q=0.8,en;q=0.7,es;q=0.6,de;q=0.5,it;q=0.4","66aea8fcd9cd711541bf63e5","683db9eb0562dbf637994deb","6880821d012ef9b969b5e475","2","1","66aea8fcd9cd711541bf63e5","2","1","2025-07-23T06:35:47.443Z","","{""Q01"":""3"",""Q02"":""3"",""Q03"":""3""}","[0,1,2]","[""Q01"",""Q02"",""Q03"",""Q02""]","[2998.600000023842,5085.700000047684,6040.600000023842,7850.600000023842]","[]","[2307.600000023842,2998.600000023842,5085.700000047684,6040.600000023842,7850.600000023842,11243.700000047684]","0.6666666666666666","1","0","stress","","","","","","","","","","","","","","","","","","","","","","","","","","","","","","",""
"1710","","","","instructions","5","90570","0.0-3.0-0.0","153","1","2025-07-23 06:34:17","1f75c3e559b7213887762d5229550c2b","78.137.213.1","Mozilla/5.0 (Windows NT 10.0; Win64; x64) AppleWebKit/537.36 (KHTML, like Gecko) Chrome/138.0.0.0 Safari/537.36","WebKit","Chrome","138.0.0.0","Windows","10.0","https://app.prolific.com/","pt-PT,pt;q=0.9,en-US;q=0.8,en;q=0.7,es;q=0.6,de;q=0.5,it;q=0.4","66aea8fcd9cd711541bf63e5","683db9eb0562dbf637994deb","6880821d012ef9b969b5e475","2","1","66aea8fcd9cd711541bf63e5","2","1","","","","","","","","","","","","","[{""page_index"":0,""viewing_time"":1710}]","","","","","","","","","","","","","","","","","","","","","","","","","","","","","",""
"4663","","<p>Before you start with this game please answer the following three questions yourself. </p>
  <p>Through this game, we measure several aspects of your cognitive performance, such as reaction times, multi-tasking capabilities </p>
  <p>and the ability to assess the situation you are in.</p>
  <p></p>
  <p><b>How good do you usually are in such tasks?</b></p>","27","html-slider-response","6","95241","0.0-4.0-0.0","153","1","2025-07-23 06:34:17","1f75c3e559b7213887762d5229550c2b","78.137.213.1","Mozilla/5.0 (Windows NT 10.0; Win64; x64) AppleWebKit/537.36 (KHTML, like Gecko) Chrome/138.0.0.0 Safari/537.36","WebKit","Chrome","138.0.0.0","Windows","10.0","https://app.prolific.com/","pt-PT,pt;q=0.9,en-US;q=0.8,en;q=0.7,es;q=0.6,de;q=0.5,it;q=0.4","66aea8fcd9cd711541bf63e5","683db9eb0562dbf637994deb","6880821d012ef9b969b5e475","2","1","66aea8fcd9cd711541bf63e5","2","1","2025-07-23T06:35:53.826Z","","","","","","","","","","","PreSkillQ","","50","","","","","","","","","","","","","","","","","","","","","","","","","","","","",""
"6860","","<div style=""width:500px;"">
  <p>How well do you think you will perform in this task compared to other participants?</p>
  </div>","19","html-slider-response","7","102102","0.0-4.0-1.0","153","1","2025-07-23 06:34:17","1f75c3e559b7213887762d5229550c2b","78.137.213.1","Mozilla/5.0 (Windows NT 10.0; Win64; x64) AppleWebKit/537.36 (KHTML, like Gecko) Chrome/138.0.0.0 Safari/537.36","WebKit","Chrome","138.0.0.0","Windows","10.0","https://app.prolific.com/","pt-PT,pt;q=0.9,en-US;q=0.8,en;q=0.7,es;q=0.6,de;q=0.5,it;q=0.4","66aea8fcd9cd711541bf63e5","683db9eb0562dbf637994deb","6880821d012ef9b969b5e475","2","1","66aea8fcd9cd711541bf63e5","2","1","2025-07-23T06:36:00.687Z","","","","","","","","","","","PrePerfQ","","50","","","","","","","","","","","","","","","","","","","","","","","","","","","","",""
"4798","","<div style=""width:500px;"">
  <p>What best describes how you currently feel?</p>
  </div>","80","html-slider-response","8","106902","0.0-4.0-2.0","153","1","2025-07-23 06:34:17","1f75c3e559b7213887762d5229550c2b","78.137.213.1","Mozilla/5.0 (Windows NT 10.0; Win64; x64) AppleWebKit/537.36 (KHTML, like Gecko) Chrome/138.0.0.0 Safari/537.36","WebKit","Chrome","138.0.0.0","Windows","10.0","https://app.prolific.com/","pt-PT,pt;q=0.9,en-US;q=0.8,en;q=0.7,es;q=0.6,de;q=0.5,it;q=0.4","66aea8fcd9cd711541bf63e5","683db9eb0562dbf637994deb","6880821d012ef9b969b5e475","2","1","66aea8fcd9cd711541bf63e5","2","1","2025-07-23T06:36:05.487Z","","","","","","","","","","","PreMotivationQ","","50","","","","","","","","","","","","","","","","","","","","","","","","","","","","",""
"","","","","ctl-task-cpt","9","133245","0.0-5.0-0.0","153","1","2025-07-23 06:34:17","1f75c3e559b7213887762d5229550c2b","78.137.213.1","Mozilla/5.0 (Windows NT 10.0; Win64; x64) AppleWebKit/537.36 (KHTML, like Gecko) Chrome/138.0.0.0 Safari/537.36","WebKit","Chrome","138.0.0.0","Windows","10.0","https://app.prolific.com/","pt-PT,pt;q=0.9,en-US;q=0.8,en;q=0.7,es;q=0.6,de;q=0.5,it;q=0.4","66aea8fcd9cd711541bf63e5","683db9eb0562dbf637994deb","6880821d012ef9b969b5e475","2","1","66aea8fcd9cd711541bf63e5","2","1","2025-07-23T06:36:31.830Z","","","","","","","","","","","","","","win-only","1","g1:NE,g2:SW","1","1","0","108650.4","1023.7","6030.6","23329.4","1","4","4","6","1","1","1","1","0","0.007575757575757576","1622.1","3000","1790","[""up"",""right""]","{""num_key_presses"":4,""num_perfect"":4,""num_errors"":0,""num_randdir"":0,""num_randdir_good_moves"":0,""num_whilered"":0,""num_whileblue"":0,""num_blue"":2,""num_good_moves"":4}","[406.5714133126395,412.82142761775424,1.1,406.5714133126395,412.82142761775424,101.2,406.5714133126395,412.82142761775424,210,406.5714133126395,412.82142761775424,313.5,406.5714133126395,412.82142761775424,420.7,406.5714133126395,412.82142761775424,522.6,406.5714133126395,412.82142761775424,623.1,406.5714133126395,412.82142761775424,729.3,512.8214133126395,289.07142761775424,829.3,546.5714133126395,265.32142761775424,932.7,546.5714133126395,265.32142761775424,1033.2,670.3214133126395,92.82142761775425,1137.1,696.5714133126395,84.07142761775425,1250.3,696.5714133126395,115.32142761775425,1354.6,705.3214133126395,112.82142761775425,1463.7,717.8214133126395,106.57142761775425,1574.6,717.8214133126395,106.57142761775425,1683.1,717.8214133126395,106.57142761775425,1791.4,717.8214133126395,106.57142761775425,1896.7,959.0714133126395,136.57142761775424,2002.9,1129.0714133126396,171.57142761775424,2102.9,1129.0714133126396,171.57142761775424,2203.3,1129.0714133126396,171.57142761775424,2303.3,1129.0714133126396,171.57142761775424,2409.9,1129.0714133126396,171.57142761775424,2513.6,1129.0714133126396,171.57142761775424,2615.1,1129.0714133126396,171.57142761775424,2722.4,1129.0714133126396,171.57142761775424,2823.8,1129.0714133126396,171.57142761775424,2932.8,1129.0714133126396,171.57142761775424,3034.7,1129.0714133126396,171.57142761775424,3140.7,1129.0714133126396,171.57142761775424,3244,1129.0714133126396,171.57142761775424,3358.3,1129.0714133126396,171.57142761775424,3462.8,1129.0714133126396,171.57142761775424,3562.9,1129.0714133126396,171.57142761775424,3664.2,1129.0714133126396,171.57142761775424,3772,1129.0714133126396,171.57142761775424,3873.8,1129.0714133126396,171.57142761775424,3977.8,1129.0714133126396,171.57142761775424,4078.4,1129.0714133126396,171.57142761775424,4179.8,1129.0714133126396,171.57142761775424,4283.1,1129.0714133126396,171.57142761775424,4385.6,1129.0714133126396,171.57142761775424,4490.1,1129.0714133126396,171.57142761775424,4591.6,1129.0714133126396,171.57142761775424,4694,1129.0714133126396,171.57142761775424,4794.1,1129.0714133126396,171.57142761775424,4902.8]","[9003,9003,2760.2,5766.5,476.3,""smooth"",""up"",""up"",""good_move"",11482.3,2478.8,2015.9,9003.5,462.9,""smooth"",""right"",""right"",""good_move"",14164.3,2680.4,2307.5,11483.9,372.9,""smooth"",""up"",""up"",""good_move"",17166.6,3001,2534.8,14165.6,466.3,""smooth"",""right"",""right"",""good_move""]","",""
"3282","","<div style=""width:500px;"">
  <p>What determined the result of this run?</p>
  </div>","13","html-slider-response","10","136530","0.0-5.0-1.0","153","1","2025-07-23 06:34:17","1f75c3e559b7213887762d5229550c2b","78.137.213.1","Mozilla/5.0 (Windows NT 10.0; Win64; x64) AppleWebKit/537.36 (KHTML, like Gecko) Chrome/138.0.0.0 Safari/537.36","WebKit","Chrome","138.0.0.0","Windows","10.0","https://app.prolific.com/","pt-PT,pt;q=0.9,en-US;q=0.8,en;q=0.7,es;q=0.6,de;q=0.5,it;q=0.4","66aea8fcd9cd711541bf63e5","683db9eb0562dbf637994deb","6880821d012ef9b969b5e475","2","1","66aea8fcd9cd711541bf63e5","2","1","2025-07-23T06:36:35.115Z","","","","","","","","","","","AttribQ","","50","","","","","","","","","","","","","","","","","","","","","","","","","","","","",""
"2134","","<div style=""width:500px;"">
  <p>How much control did you have over the ball?</p>
  </div>","100","html-slider-response","11","138665","0.0-5.0-2.0","153","1","2025-07-23 06:34:17","1f75c3e559b7213887762d5229550c2b","78.137.213.1","Mozilla/5.0 (Windows NT 10.0; Win64; x64) AppleWebKit/537.36 (KHTML, like Gecko) Chrome/138.0.0.0 Safari/537.36","WebKit","Chrome","138.0.0.0","Windows","10.0","https://app.prolific.com/","pt-PT,pt;q=0.9,en-US;q=0.8,en;q=0.7,es;q=0.6,de;q=0.5,it;q=0.4","66aea8fcd9cd711541bf63e5","683db9eb0562dbf637994deb","6880821d012ef9b969b5e475","2","1","66aea8fcd9cd711541bf63e5","2","1","2025-07-23T06:36:37.250Z","","","","","","","","","","","ControlQ","","50","","","","","","","","","","","","","","","","","","","","","","","","","","","","",""
"2948","","<div style=""width:500px;"">
  <p>How would you describe your current emotional state?</p>
  </div>","25","html-slider-response","12","141615","0.0-5.0-3.0","153","1","2025-07-23 06:34:17","1f75c3e559b7213887762d5229550c2b","78.137.213.1","Mozilla/5.0 (Windows NT 10.0; Win64; x64) AppleWebKit/537.36 (KHTML, like Gecko) Chrome/138.0.0.0 Safari/537.36","WebKit","Chrome","138.0.0.0","Windows","10.0","https://app.prolific.com/","pt-PT,pt;q=0.9,en-US;q=0.8,en;q=0.7,es;q=0.6,de;q=0.5,it;q=0.4","66aea8fcd9cd711541bf63e5","683db9eb0562dbf637994deb","6880821d012ef9b969b5e475","2","1","66aea8fcd9cd711541bf63e5","2","1","2025-07-23T06:36:40.200Z","","","","","","","","","","","StressQ","","50","","","","","","","","","","","","","","","","","","","","","","","","","","","","",""
"2786","","<div style=""width:500px;"">
  <p>What best describes how you currently feel?</p>
  </div>","77","html-slider-response","13","144403","0.0-5.0-4.0","153","1","2025-07-23 06:34:17","1f75c3e559b7213887762d5229550c2b","78.137.213.1","Mozilla/5.0 (Windows NT 10.0; Win64; x64) AppleWebKit/537.36 (KHTML, like Gecko) Chrome/138.0.0.0 Safari/537.36","WebKit","Chrome","138.0.0.0","Windows","10.0","https://app.prolific.com/","pt-PT,pt;q=0.9,en-US;q=0.8,en;q=0.7,es;q=0.6,de;q=0.5,it;q=0.4","66aea8fcd9cd711541bf63e5","683db9eb0562dbf637994deb","6880821d012ef9b969b5e475","2","1","66aea8fcd9cd711541bf63e5","2","1","2025-07-23T06:36:42.988Z","","","","","","","","","","","MotivationQ","","50","","","","","","","","","","","","","","","","","","","","","","","","","","","","",""
"","","","","ctl-task-cpt","14","183612","0.0-5.0-0.1","153","1","2025-07-23 06:34:17","1f75c3e559b7213887762d5229550c2b","78.137.213.1","Mozilla/5.0 (Windows NT 10.0; Win64; x64) AppleWebKit/537.36 (KHTML, like Gecko) Chrome/138.0.0.0 Safari/537.36","WebKit","Chrome","138.0.0.0","Windows","10.0","https://app.prolific.com/","pt-PT,pt;q=0.9,en-US;q=0.8,en;q=0.7,es;q=0.6,de;q=0.5,it;q=0.4","66aea8fcd9cd711541bf63e5","683db9eb0562dbf637994deb","6880821d012ef9b969b5e475","2","1","66aea8fcd9cd711541bf63e5","2","1","2025-07-23T06:37:22.198Z","","","","","","","","","","","","","","win-only","2","g1:SE,g2:NW","0.9","2","0","146149.7","986","5993.4","36198.9","1","4","8","6","2","8","8","9","1","0.06818181818181818","2088.5","3000","1145","[""left"",""up""]","{""num_key_presses"":6,""num_perfect"":5,""num_errors"":0,""num_randdir"":1,""num_randdir_good_moves"":1,""num_whilered"":0,""num_whileblue"":0,""num_blue"":4,""num_good_moves"":6}","[406.5714133126395,420.32142761775424,1.7,406.5714133126395,417.82142761775424,102.5,406.5714133126395,417.82142761775424,206.5,406.5714133126395,417.82142761775424,311.8,406.5714133126395,417.82142761775424,416.2,406.5714133126395,417.82142761775424,526.8,406.5714133126395,412.82142761775424,626.8,400.3214133126395,401.57142761775424,731.8,387.8214133126395,456.57142761775424,834.3,395.3214133126395,459.07142761775424,945.5,641.5714133126395,717.8214276177542,1056.9,645.3214133126395,716.5714276177542,1161.5,305.3214133126395,311.57142761775424,1266.2,289.0714133126395,292.82142761775424,1366.8,289.0714133126395,292.82142761775424,1476.6,221.5714133126395,241.57142761775424,1576.7,134.0714133126395,135.32142761775424,1677.6,132.8214133126395,91.57142761775425,1785.7,132.8214133126395,91.57142761775425,1887.6,122.8214133126395,86.57142761775425,1991.1,96.5714133126395,76.57142761775425,2094.9,96.5714133126395,76.57142761775425,2195.5,96.5714133126395,76.57142761775425,2306.8,96.5714133126395,76.57142761775425,2407,-409.6785866873605,497.82142761775424,2511.4,-432.1785866873605,517.8214276177542,2618.3,-432.1785866873605,517.8214276177542,2718.8,-432.1785866873605,517.8214276177542,2823.1,-432.1785866873605,517.8214276177542,2927.5,-432.1785866873605,517.8214276177542,3030.9,-432.1785866873605,517.8214276177542,3132.6,-432.1785866873605,517.8214276177542,3239.2,-432.1785866873605,517.8214276177542,3344.2,-432.1785866873605,517.8214276177542,3447,-432.1785866873605,517.8214276177542,3557,-432.1785866873605,517.8214276177542,3661.1,-432.1785866873605,517.8214276177542,3766.8,-432.1785866873605,517.8214276177542,3877.2,-432.1785866873605,517.8214276177542,3982.3,-432.1785866873605,517.8214276177542,4086.7,-432.1785866873605,517.8214276177542,4187,-432.1785866873605,517.8214276177542,4287.1,-432.1785866873605,517.8214276177542,4387.1,-432.1785866873605,517.8214276177542,4487.2,-432.1785866873605,517.8214276177542,4591,-432.1785866873605,517.8214276177542,4692.8,-432.1785866873605,517.8214276177542,4792.8,-432.1785866873605,517.8214276177542,4896.1,-432.1785866873605,517.8214276177542,4996.4]","[1640.7,1640.9,1000,0,640.9,""smooth"",""left"",""left"",""good_move"",11954.8,10311.5,3161.7,8309.5,483.7,""smooth"",""left"",""left"",""good_move"",20089.1,8133.5,3151.2,16526.9,411.1,""smooth"",""left"",""left"",""good_move"",22256,2166.5,1740.6,20089.5,425.9,""smooth"",""up"",""up"",""good_move"",27712,5455.4,1738.5,25549.6,423.9,""oops"",""up"",""up"",""good_move"",30066.7,2354.3,2005.4,27712.4,348.9,""smooth"",""up"",""up"",""good_move""]","",""
"4424","","<div style=""width:500px;"">
  <p>What determined the result of this run?</p>
  </div>","9","html-slider-response","15","188041","0.0-5.0-1.1","153","1","2025-07-23 06:34:17","1f75c3e559b7213887762d5229550c2b","78.137.213.1","Mozilla/5.0 (Windows NT 10.0; Win64; x64) AppleWebKit/537.36 (KHTML, like Gecko) Chrome/138.0.0.0 Safari/537.36","WebKit","Chrome","138.0.0.0","Windows","10.0","https://app.prolific.com/","pt-PT,pt;q=0.9,en-US;q=0.8,en;q=0.7,es;q=0.6,de;q=0.5,it;q=0.4","66aea8fcd9cd711541bf63e5","683db9eb0562dbf637994deb","6880821d012ef9b969b5e475","2","1","66aea8fcd9cd711541bf63e5","2","1","2025-07-23T06:37:26.626Z","","","","","","","","","","","AttribQ","","50","","","","","","","","","","","","","","","","","","","","","","","","","","","","",""
"2199","","<div style=""width:500px;"">
  <p>How much control did you have over the ball?</p>
  </div>","100","html-slider-response","16","190242","0.0-5.0-2.1","153","1","2025-07-23 06:34:17","1f75c3e559b7213887762d5229550c2b","78.137.213.1","Mozilla/5.0 (Windows NT 10.0; Win64; x64) AppleWebKit/537.36 (KHTML, like Gecko) Chrome/138.0.0.0 Safari/537.36","WebKit","Chrome","138.0.0.0","Windows","10.0","https://app.prolific.com/","pt-PT,pt;q=0.9,en-US;q=0.8,en;q=0.7,es;q=0.6,de;q=0.5,it;q=0.4","66aea8fcd9cd711541bf63e5","683db9eb0562dbf637994deb","6880821d012ef9b969b5e475","2","1","66aea8fcd9cd711541bf63e5","2","1","2025-07-23T06:37:28.827Z","","","","","","","","","","","ControlQ","","50","","","","","","","","","","","","","","","","","","","","","","","","","","","","",""
"2384","","<div style=""width:500px;"">
  <p>How would you describe your current emotional state?</p>
  </div>","18","html-slider-response","17","192631","0.0-5.0-3.1","153","1","2025-07-23 06:34:17","1f75c3e559b7213887762d5229550c2b","78.137.213.1","Mozilla/5.0 (Windows NT 10.0; Win64; x64) AppleWebKit/537.36 (KHTML, like Gecko) Chrome/138.0.0.0 Safari/537.36","WebKit","Chrome","138.0.0.0","Windows","10.0","https://app.prolific.com/","pt-PT,pt;q=0.9,en-US;q=0.8,en;q=0.7,es;q=0.6,de;q=0.5,it;q=0.4","66aea8fcd9cd711541bf63e5","683db9eb0562dbf637994deb","6880821d012ef9b969b5e475","2","1","66aea8fcd9cd711541bf63e5","2","1","2025-07-23T06:37:31.216Z","","","","","","","","","","","StressQ","","50","","","","","","","","","","","","","","","","","","","","","","","","","","","","",""
"1865","","<div style=""width:500px;"">
  <p>What best describes how you currently feel?</p>
  </div>","83","html-slider-response","18","194499","0.0-5.0-4.1","153","1","2025-07-23 06:34:17","1f75c3e559b7213887762d5229550c2b","78.137.213.1","Mozilla/5.0 (Windows NT 10.0; Win64; x64) AppleWebKit/537.36 (KHTML, like Gecko) Chrome/138.0.0.0 Safari/537.36","WebKit","Chrome","138.0.0.0","Windows","10.0","https://app.prolific.com/","pt-PT,pt;q=0.9,en-US;q=0.8,en;q=0.7,es;q=0.6,de;q=0.5,it;q=0.4","66aea8fcd9cd711541bf63e5","683db9eb0562dbf637994deb","6880821d012ef9b969b5e475","2","1","66aea8fcd9cd711541bf63e5","2","1","2025-07-23T06:37:33.084Z","","","","","","","","","","","MotivationQ","","50","","","","","","","","","","","","","","","","","","","","","","","","","","","","",""
"","","","","ctl-task-cpt","19","242962","0.0-5.0-0.2","153","1","2025-07-23 06:34:17","1f75c3e559b7213887762d5229550c2b","78.137.213.1","Mozilla/5.0 (Windows NT 10.0; Win64; x64) AppleWebKit/537.36 (KHTML, like Gecko) Chrome/138.0.0.0 Safari/537.36","WebKit","Chrome","138.0.0.0","Windows","10.0","https://app.prolific.com/","pt-PT,pt;q=0.9,en-US;q=0.8,en;q=0.7,es;q=0.6,de;q=0.5,it;q=0.4","66aea8fcd9cd711541bf63e5","683db9eb0562dbf637994deb","6880821d012ef9b969b5e475","2","1","66aea8fcd9cd711541bf63e5","2","1","2025-07-23T06:38:21.547Z","","","","","","","","","","","","","","win-only","1","g1:NE,g2:SW","0.8","3","0","196247.2","965.9","5975.6","45448.1","1","4","8","6","2","8","8","17","9","0.12878787878787878","1623.7","3000","145","[""down"",""left""]","{""num_key_presses"":10,""num_perfect"":8,""num_errors"":0,""num_randdir"":2,""num_randdir_good_moves"":0,""num_whilered"":0,""num_whileblue"":0,""num_blue"":3,""num_good_moves"":8}","[421.5714133126395,407.82142761775424,1.4,421.5714133126395,407.82142761775424,103.3,421.5714133126395,407.82142761775424,209.8,421.5714133126395,407.82142761775424,309.9,421.5714133126395,407.82142761775424,413.3,421.5714133126395,407.82142761775424,523.8,421.5714133126395,407.82142761775424,626.8,421.5714133126395,407.82142761775424,734,421.5714133126395,407.82142761775424,842,421.5714133126395,407.82142761775424,943.9,421.5714133126395,407.82142761775424,1050.2,95.3214133126395,871.5714276177542,1152.3,89.0714133126395,877.8214276177542,1263.3,86.5714133126395,874.0714276177542,1364.3,71.5714133126395,839.0714276177542,1465,87.8214133126395,789.0714276177542,1565.8,89.0714133126395,786.5714276177542,1666.4,89.0714133126395,786.5714276177542,1769.5,89.0714133126395,786.5714276177542,1876,-67.1785866873605,775.3214276177542,1976.9,-275.9285866873605,782.8214276177542,2083.3,-275.9285866873605,782.8214276177542,2189.9,-275.9285866873605,782.8214276177542,2290.1,-275.9285866873605,782.8214276177542,2400.2,-275.9285866873605,782.8214276177542,2503.5,-275.9285866873605,782.8214276177542,2608.4,-275.9285866873605,782.8214276177542,2710.2,-275.9285866873605,782.8214276177542,2812.1,-275.9285866873605,782.8214276177542,2919.1,-275.9285866873605,782.8214276177542,3020.5,-275.9285866873605,782.8214276177542,3128.1,-275.9285866873605,782.8214276177542,3239.3,-275.9285866873605,782.8214276177542,3340,-275.9285866873605,782.8214276177542,3440.2,-275.9285866873605,782.8214276177542,3548.6,-275.9285866873605,782.8214276177542,3655.9,-275.9285866873605,782.8214276177542,3757.7,-275.9285866873605,782.8214276177542,3869.5,-275.9285866873605,782.8214276177542,3976.1,-275.9285866873605,782.8214276177542,4078.1,-275.9285866873605,782.8214276177542,4182.2,-275.9285866873605,782.8214276177542,4282.2,-275.9285866873605,782.8214276177542,4393.3,-275.9285866873605,782.8214276177542,4498.5,-275.9285866873605,782.8214276177542,4604,-275.9285866873605,782.8214276177542,4708.8,-275.9285866873605,782.8214276177542,4809.3,-275.9285866873605,782.8214276177542,4912.3]","[1641.1,1641.1,1000,0,641.1,""smooth"",""down"",""down"",""good_move"",4348.7,2706.9,2275.7,1641.8,431.2,""smooth"",""down"",""down"",""good_move"",6916.7,2566.9,2071.3,4349.8,495.6,""smooth"",""down"",""down"",""good_move"",9189.7,2272.4,1870.2,6917.3,402.2,""smooth"",""left"",""left"",""good_move"",12566.2,3375.7,2956.7,9190.6,418.9,""smooth"",""left"",""left"",""good_move"",16113.2,3546.8,3155.6,12566.5,391.2,""oops"",""left"",""up"",""bad_move"",22587.8,6472.9,2302.5,19833.2,452.1,""smooth"",""left"",""left"",""good_move"",29012,6420.1,2301.7,26089.3,621,""oops"",""down"",""right"",""bad_move"",31855,2842,2450,29013,392,""smooth"",""left"",""left"",""good_move"",39304.3,7448.9,2876.8,36047.9,379.6,""smooth"",""down"",""down"",""good_move""]","",""
"2071","","<div style=""width:500px;"">
  <p>What determined the result of this run?</p>
  </div>","14","html-slider-response","20","245035","0.0-5.0-1.2","153","1","2025-07-23 06:34:17","1f75c3e559b7213887762d5229550c2b","78.137.213.1","Mozilla/5.0 (Windows NT 10.0; Win64; x64) AppleWebKit/537.36 (KHTML, like Gecko) Chrome/138.0.0.0 Safari/537.36","WebKit","Chrome","138.0.0.0","Windows","10.0","https://app.prolific.com/","pt-PT,pt;q=0.9,en-US;q=0.8,en;q=0.7,es;q=0.6,de;q=0.5,it;q=0.4","66aea8fcd9cd711541bf63e5","683db9eb0562dbf637994deb","6880821d012ef9b969b5e475","2","1","66aea8fcd9cd711541bf63e5","2","1","2025-07-23T06:38:23.620Z","","","","","","","","","","","AttribQ","","50","","","","","","","","","","","","","","","","","","","","","","","","","","","","",""
"2724","","<div style=""width:500px;"">
  <p>How much control did you have over the ball?</p>
  </div>","31","html-slider-response","21","247761","0.0-5.0-2.2","153","1","2025-07-23 06:34:17","1f75c3e559b7213887762d5229550c2b","78.137.213.1","Mozilla/5.0 (Windows NT 10.0; Win64; x64) AppleWebKit/537.36 (KHTML, like Gecko) Chrome/138.0.0.0 Safari/537.36","WebKit","Chrome","138.0.0.0","Windows","10.0","https://app.prolific.com/","pt-PT,pt;q=0.9,en-US;q=0.8,en;q=0.7,es;q=0.6,de;q=0.5,it;q=0.4","66aea8fcd9cd711541bf63e5","683db9eb0562dbf637994deb","6880821d012ef9b969b5e475","2","1","66aea8fcd9cd711541bf63e5","2","1","2025-07-23T06:38:26.346Z","","","","","","","","","","","ControlQ","","50","","","","","","","","","","","","","","","","","","","","","","","","","","","","",""
"4115","","<div style=""width:500px;"">
  <p>How would you describe your current emotional state?</p>
  </div>","39","html-slider-response","22","251879","0.0-5.0-3.2","153","1","2025-07-23 06:34:17","1f75c3e559b7213887762d5229550c2b","78.137.213.1","Mozilla/5.0 (Windows NT 10.0; Win64; x64) AppleWebKit/537.36 (KHTML, like Gecko) Chrome/138.0.0.0 Safari/537.36","WebKit","Chrome","138.0.0.0","Windows","10.0","https://app.prolific.com/","pt-PT,pt;q=0.9,en-US;q=0.8,en;q=0.7,es;q=0.6,de;q=0.5,it;q=0.4","66aea8fcd9cd711541bf63e5","683db9eb0562dbf637994deb","6880821d012ef9b969b5e475","2","1","66aea8fcd9cd711541bf63e5","2","1","2025-07-23T06:38:30.465Z","","","","","","","","","","","StressQ","","50","","","","","","","","","","","","","","","","","","","","","","","","","","","","",""
"3100","","<div style=""width:500px;"">
  <p>What best describes how you currently feel?</p>
  </div>","60","html-slider-response","23","254982","0.0-5.0-4.2","153","1","2025-07-23 06:34:17","1f75c3e559b7213887762d5229550c2b","78.137.213.1","Mozilla/5.0 (Windows NT 10.0; Win64; x64) AppleWebKit/537.36 (KHTML, like Gecko) Chrome/138.0.0.0 Safari/537.36","WebKit","Chrome","138.0.0.0","Windows","10.0","https://app.prolific.com/","pt-PT,pt;q=0.9,en-US;q=0.8,en;q=0.7,es;q=0.6,de;q=0.5,it;q=0.4","66aea8fcd9cd711541bf63e5","683db9eb0562dbf637994deb","6880821d012ef9b969b5e475","2","1","66aea8fcd9cd711541bf63e5","2","1","2025-07-23T06:38:33.567Z","","","","","","","","","","","MotivationQ","","50","","","","","","","","","","","","","","","","","","","","","","","","","","","","",""
"","","","","ctl-task-cpt","24","281524","0.0-5.0-0.3","153","1","2025-07-23 06:34:17","1f75c3e559b7213887762d5229550c2b","78.137.213.1","Mozilla/5.0 (Windows NT 10.0; Win64; x64) AppleWebKit/537.36 (KHTML, like Gecko) Chrome/138.0.0.0 Safari/537.36","WebKit","Chrome","138.0.0.0","Windows","10.0","https://app.prolific.com/","pt-PT,pt;q=0.9,en-US;q=0.8,en;q=0.7,es;q=0.6,de;q=0.5,it;q=0.4","66aea8fcd9cd711541bf63e5","683db9eb0562dbf637994deb","6880821d012ef9b969b5e475","2","1","66aea8fcd9cd711541bf63e5","2","1","2025-07-23T06:39:00.109Z","","","","","","","","","","","","","","win-only","0","g1:NW,g2:SE","0.7","4","0","256730.1","1382.5","6388","23527.9","1","4","4","6","1","1","1","18","17","0.13636363636363635","1188.1","3000","1655","[""left"",""up""]","{""num_key_presses"":4,""num_perfect"":4,""num_errors"":0,""num_randdir"":0,""num_randdir_good_moves"":0,""num_whilered"":0,""num_whileblue"":0,""num_blue"":2,""num_good_moves"":4}","[420.3214133126395,417.82142761775424,0.7,420.3214133126395,417.82142761775424,103.7,420.3214133126395,417.82142761775424,213.5,420.3214133126395,417.82142761775424,313.6,420.3214133126395,417.82142761775424,415.5,420.3214133126395,417.82142761775424,530.6,420.3214133126395,417.82142761775424,634.7,305.3214133126395,284.07142761775424,735,127.8214133126395,101.57142761775425,840.8,127.8214133126395,101.57142761775425,948.4,126.5714133126395,100.32142761775425,1050.5,90.3214133126395,69.07142761775425,1150.6,90.3214133126395,69.07142761775425,1258.8,90.3214133126395,69.07142761775425,1365.3,15.321413312639507,151.57142761775424,1465.5,-325.9285866873605,525.3214276177542,1568.2,-325.9285866873605,525.3214276177542,1668.6,-325.9285866873605,525.3214276177542,1769.8,-325.9285866873605,525.3214276177542,1873.6,-325.9285866873605,525.3214276177542,1980.2,-325.9285866873605,525.3214276177542,2090.6,-325.9285866873605,525.3214276177542,2193.4,-325.9285866873605,525.3214276177542,2307.4,-325.9285866873605,525.3214276177542,2413.8,-325.9285866873605,525.3214276177542,2522.9,-325.9285866873605,525.3214276177542,2622.9,-325.9285866873605,525.3214276177542,2732.5,-325.9285866873605,525.3214276177542,2833.1,-325.9285866873605,525.3214276177542,2933.4,-325.9285866873605,525.3214276177542,3034.3,-325.9285866873605,525.3214276177542,3145,-325.9285866873605,525.3214276177542,3254,-325.9285866873605,525.3214276177542,3362.9,-325.9285866873605,525.3214276177542,3466.8,-325.9285866873605,525.3214276177542,3573.3,-325.9285866873605,525.3214276177542,3676.3,-325.9285866873605,525.3214276177542,3780.1,-325.9285866873605,525.3214276177542,3880.3,-325.9285866873605,525.3214276177542,3993.4,-325.9285866873605,525.3214276177542,4106.6,-325.9285866873605,525.3214276177542,4213.9,-325.9285866873605,525.3214276177542,4316,-325.9285866873605,525.3214276177542,4416.8,-325.9285866873605,525.3214276177542,4528.7,-325.9285866873605,525.3214276177542,4636,-325.9285866873605,525.3214276177542,4743.7,-325.9285866873605,525.3214276177542,4853.5,-325.9285866873605,525.3214276177542,4955.6]","[5484.8,5484.9,2895.9,2011.8,577.3,""smooth"",""left"",""left"",""good_move"",11222.1,5728.7,2042.8,8760.7,418.6,""smooth"",""left"",""left"",""good_move"",14338.2,3115.6,2619.7,11222.6,495.9,""smooth"",""up"",""up"",""good_move"",16992.8,2652.8,1776.8,14340.2,875.9,""smooth"",""up"",""up"",""good_move""]","",""
"3709","","<div style=""width:500px;"">
  <p>What determined the result of this run?</p>
  </div>","17","html-slider-response","25","285236","0.0-5.0-1.3","153","1","2025-07-23 06:34:17","1f75c3e559b7213887762d5229550c2b","78.137.213.1","Mozilla/5.0 (Windows NT 10.0; Win64; x64) AppleWebKit/537.36 (KHTML, like Gecko) Chrome/138.0.0.0 Safari/537.36","WebKit","Chrome","138.0.0.0","Windows","10.0","https://app.prolific.com/","pt-PT,pt;q=0.9,en-US;q=0.8,en;q=0.7,es;q=0.6,de;q=0.5,it;q=0.4","66aea8fcd9cd711541bf63e5","683db9eb0562dbf637994deb","6880821d012ef9b969b5e475","2","1","66aea8fcd9cd711541bf63e5","2","1","2025-07-23T06:39:03.821Z","","","","","","","","","","","AttribQ","","50","","","","","","","","","","","","","","","","","","","","","","","","","","","","",""
"3625","","<div style=""width:500px;"">
  <p>How much control did you have over the ball?</p>
  </div>","100","html-slider-response","26","288863","0.0-5.0-2.3","153","1","2025-07-23 06:34:17","1f75c3e559b7213887762d5229550c2b","78.137.213.1","Mozilla/5.0 (Windows NT 10.0; Win64; x64) AppleWebKit/537.36 (KHTML, like Gecko) Chrome/138.0.0.0 Safari/537.36","WebKit","Chrome","138.0.0.0","Windows","10.0","https://app.prolific.com/","pt-PT,pt;q=0.9,en-US;q=0.8,en;q=0.7,es;q=0.6,de;q=0.5,it;q=0.4","66aea8fcd9cd711541bf63e5","683db9eb0562dbf637994deb","6880821d012ef9b969b5e475","2","1","66aea8fcd9cd711541bf63e5","2","1","2025-07-23T06:39:07.448Z","","","","","","","","","","","ControlQ","","50","","","","","","","","","","","","","","","","","","","","","","","","","","","","",""
"1982","","<div style=""width:500px;"">
  <p>How would you describe your current emotional state?</p>
  </div>","32","html-slider-response","27","290850","0.0-5.0-3.3","153","1","2025-07-23 06:34:17","1f75c3e559b7213887762d5229550c2b","78.137.213.1","Mozilla/5.0 (Windows NT 10.0; Win64; x64) AppleWebKit/537.36 (KHTML, like Gecko) Chrome/138.0.0.0 Safari/537.36","WebKit","Chrome","138.0.0.0","Windows","10.0","https://app.prolific.com/","pt-PT,pt;q=0.9,en-US;q=0.8,en;q=0.7,es;q=0.6,de;q=0.5,it;q=0.4","66aea8fcd9cd711541bf63e5","683db9eb0562dbf637994deb","6880821d012ef9b969b5e475","2","1","66aea8fcd9cd711541bf63e5","2","1","2025-07-23T06:39:09.435Z","","","","","","","","","","","StressQ","","50","","","","","","","","","","","","","","","","","","","","","","","","","","","","",""
"2567","","<div style=""width:500px;"">
  <p>What best describes how you currently feel?</p>
  </div>","67","html-slider-response","28","293422","0.0-5.0-4.3","153","1","2025-07-23 06:34:17","1f75c3e559b7213887762d5229550c2b","78.137.213.1","Mozilla/5.0 (Windows NT 10.0; Win64; x64) AppleWebKit/537.36 (KHTML, like Gecko) Chrome/138.0.0.0 Safari/537.36","WebKit","Chrome","138.0.0.0","Windows","10.0","https://app.prolific.com/","pt-PT,pt;q=0.9,en-US;q=0.8,en;q=0.7,es;q=0.6,de;q=0.5,it;q=0.4","66aea8fcd9cd711541bf63e5","683db9eb0562dbf637994deb","6880821d012ef9b969b5e475","2","1","66aea8fcd9cd711541bf63e5","2","1","2025-07-23T06:39:12.007Z","","","","","","","","","","","MotivationQ","","50","","","","","","","","","","","","","","","","","","","","","","","","","","","","",""
"","","","","ctl-task-cpt","29","344726","0.0-5.0-0.4","153","1","2025-07-23 06:34:17","1f75c3e559b7213887762d5229550c2b","78.137.213.1","Mozilla/5.0 (Windows NT 10.0; Win64; x64) AppleWebKit/537.36 (KHTML, like Gecko) Chrome/138.0.0.0 Safari/537.36","WebKit","Chrome","138.0.0.0","Windows","10.0","https://app.prolific.com/","pt-PT,pt;q=0.9,en-US;q=0.8,en;q=0.7,es;q=0.6,de;q=0.5,it;q=0.4","66aea8fcd9cd711541bf63e5","683db9eb0562dbf637994deb","6880821d012ef9b969b5e475","2","1","66aea8fcd9cd711541bf63e5","2","1","2025-07-23T06:40:03.311Z","","","","","","","","","","","","","","win-only","1","g1:NE,g2:SW","0.6","5","0","295172.6","1560.6","6563.4","48283.7","1","4","8","6","2","8","8","26","18","0.19696969696969696","1911.9","3000","260","[""down"",""left""]","{""num_key_presses"":12,""num_perfect"":8,""num_errors"":0,""num_randdir"":4,""num_randdir_good_moves"":1,""num_whilered"":0,""num_whileblue"":0,""num_blue"":2,""num_good_moves"":9}","[416.5714133126395,404.07142761775424,0.9,416.5714133126395,404.07142761775424,102.4,416.5714133126395,404.07142761775424,206.3,416.5714133126395,404.07142761775424,314.1,416.5714133126395,404.07142761775424,416.2,416.5714133126395,404.07142761775424,521.2,416.5714133126395,404.07142761775424,624.5,475.3214133126395,336.57142761775424,725.9,666.5714133126395,136.57142761775424,827.6,680.3214133126395,122.82142761775425,927.7,695.3214133126395,117.82142761775425,1028,752.8214133126395,82.82142761775425,1129.9,780.3214133126395,65.32142761775425,1230.1,771.5714133126395,75.32142761775425,1331.2,31.571413312639507,806.5714276177542,1431.5,-9.678586687360493,842.8214276177542,1535.8,-9.678586687360493,842.8214276177542,1636.6,-13.428586687360493,841.5714276177542,1744.8,34.07141331263951,791.5714276177542,1847.6,44.07141331263951,786.5714276177542,1950.6,44.07141331263951,786.5714276177542,2054,44.07141331263951,786.5714276177542,2162.5,-164.6785866873605,721.5714276177542,2266.5,-203.4285866873605,715.3214276177542,2368,-203.4285866873605,715.3214276177542,2491,-203.4285866873605,715.3214276177542,2595.3,-203.4285866873605,715.3214276177542,2707.5,-203.4285866873605,715.3214276177542,2810.9,-203.4285866873605,715.3214276177542,2918.4,-203.4285866873605,715.3214276177542,3019.7,-203.4285866873605,715.3214276177542,3123.3,-203.4285866873605,715.3214276177542,3226.6,-203.4285866873605,715.3214276177542,3330.8,-203.4285866873605,715.3214276177542,3439.9,-203.4285866873605,715.3214276177542,3541.5,-203.4285866873605,715.3214276177542,3642.5,-203.4285866873605,715.3214276177542,3742.6,-203.4285866873605,715.3214276177542,3857.4,-203.4285866873605,715.3214276177542,3960.6,-203.4285866873605,715.3214276177542,4061.5,-203.4285866873605,715.3214276177542,4171.7,-203.4285866873605,715.3214276177542,4276.5,-203.4285866873605,715.3214276177542,4390,-203.4285866873605,715.3214276177542,4502,-203.4285866873605,715.3214276177542,4607.3,-203.4285866873605,715.3214276177542,4718.5,-203.4285866873605,715.3214276177542,4825.4,-203.4285866873605,715.3214276177542,4927.9]","[1480.3,1480.3,1000,0,480.3,""smooth"",""down"",""down"",""good_move"",4799.2,3318,2910.9,1481.3,407.1,""smooth"",""down"",""down"",""good_move"",15235.2,10435.2,2723.3,12004.7,507.2,""smooth"",""down"",""down"",""good_move"",18479.3,3243.6,2834.6,15235.7,409,""oops"",""left"",""right"",""bad_move"",20971.6,2489.3,2083,18482.3,406.3,""smooth"",""left"",""left"",""good_move"",24331.4,3359.1,2979.9,20972.3,379.2,""oops"",""left"",""right"",""bad_move"",26999.3,2667.1,2341.7,24332.2,325.4,""smooth"",""left"",""left"",""good_move"",30007.7,3008,2646.4,26999.7,361.6,""smooth"",""left"",""left"",""good_move"",33084.3,3076.2,2668.6,30008.2,407.6,""oops"",""left"",""left"",""good_move"",36145.2,3057.4,2678.7,33087.8,378.7,""oops"",""left"",""up"",""bad_move"",38712.6,2565.6,2170.1,36147,395.5,""smooth"",""left"",""left"",""good_move"",41560.4,2846.2,2467.8,38714.3,378.3,""smooth"",""down"",""down"",""good_move""]","",""
"2673","","<div style=""width:500px;"">
  <p>What determined the result of this run?</p>
  </div>","0","html-slider-response","30","347400","0.0-5.0-1.4","153","1","2025-07-23 06:34:17","1f75c3e559b7213887762d5229550c2b","78.137.213.1","Mozilla/5.0 (Windows NT 10.0; Win64; x64) AppleWebKit/537.36 (KHTML, like Gecko) Chrome/138.0.0.0 Safari/537.36","WebKit","Chrome","138.0.0.0","Windows","10.0","https://app.prolific.com/","pt-PT,pt;q=0.9,en-US;q=0.8,en;q=0.7,es;q=0.6,de;q=0.5,it;q=0.4","66aea8fcd9cd711541bf63e5","683db9eb0562dbf637994deb","6880821d012ef9b969b5e475","2","1","66aea8fcd9cd711541bf63e5","2","1","2025-07-23T06:40:05.986Z","","","","","","","","","","","AttribQ","","50","","","","","","","","","","","","","","","","","","","","","","","","","","","","",""
"4845","","<div style=""width:500px;"">
  <p>How much control did you have over the ball?</p>
  </div>","43","html-slider-response","31","352251","0.0-5.0-2.4","153","1","2025-07-23 06:34:17","1f75c3e559b7213887762d5229550c2b","78.137.213.1","Mozilla/5.0 (Windows NT 10.0; Win64; x64) AppleWebKit/537.36 (KHTML, like Gecko) Chrome/138.0.0.0 Safari/537.36","WebKit","Chrome","138.0.0.0","Windows","10.0","https://app.prolific.com/","pt-PT,pt;q=0.9,en-US;q=0.8,en;q=0.7,es;q=0.6,de;q=0.5,it;q=0.4","66aea8fcd9cd711541bf63e5","683db9eb0562dbf637994deb","6880821d012ef9b969b5e475","2","1","66aea8fcd9cd711541bf63e5","2","1","2025-07-23T06:40:10.837Z","","","","","","","","","","","ControlQ","","50","","","","","","","","","","","","","","","","","","","","","","","","","","","","",""
"2561","","<div style=""width:500px;"">
  <p>How would you describe your current emotional state?</p>
  </div>","61","html-slider-response","32","354814","0.0-5.0-3.4","153","1","2025-07-23 06:34:17","1f75c3e559b7213887762d5229550c2b","78.137.213.1","Mozilla/5.0 (Windows NT 10.0; Win64; x64) AppleWebKit/537.36 (KHTML, like Gecko) Chrome/138.0.0.0 Safari/537.36","WebKit","Chrome","138.0.0.0","Windows","10.0","https://app.prolific.com/","pt-PT,pt;q=0.9,en-US;q=0.8,en;q=0.7,es;q=0.6,de;q=0.5,it;q=0.4","66aea8fcd9cd711541bf63e5","683db9eb0562dbf637994deb","6880821d012ef9b969b5e475","2","1","66aea8fcd9cd711541bf63e5","2","1","2025-07-23T06:40:13.399Z","","","","","","","","","","","StressQ","","50","","","","","","","","","","","","","","","","","","","","","","","","","","","","",""
"2348","","<div style=""width:500px;"">
  <p>What best describes how you currently feel?</p>
  </div>","41","html-slider-response","33","357165","0.0-5.0-4.4","153","1","2025-07-23 06:34:17","1f75c3e559b7213887762d5229550c2b","78.137.213.1","Mozilla/5.0 (Windows NT 10.0; Win64; x64) AppleWebKit/537.36 (KHTML, like Gecko) Chrome/138.0.0.0 Safari/537.36","WebKit","Chrome","138.0.0.0","Windows","10.0","https://app.prolific.com/","pt-PT,pt;q=0.9,en-US;q=0.8,en;q=0.7,es;q=0.6,de;q=0.5,it;q=0.4","66aea8fcd9cd711541bf63e5","683db9eb0562dbf637994deb","6880821d012ef9b969b5e475","2","1","66aea8fcd9cd711541bf63e5","2","1","2025-07-23T06:40:15.751Z","","","","","","","","","","","MotivationQ","","50","","","","","","","","","","","","","","","","","","","","","","","","","","","","",""
"","","","","ctl-task-cpt","34","395082","0.0-5.0-0.5","153","1","2025-07-23 06:34:17","1f75c3e559b7213887762d5229550c2b","78.137.213.1","Mozilla/5.0 (Windows NT 10.0; Win64; x64) AppleWebKit/537.36 (KHTML, like Gecko) Chrome/138.0.0.0 Safari/537.36","WebKit","Chrome","138.0.0.0","Windows","10.0","https://app.prolific.com/","pt-PT,pt;q=0.9,en-US;q=0.8,en;q=0.7,es;q=0.6,de;q=0.5,it;q=0.4","66aea8fcd9cd711541bf63e5","683db9eb0562dbf637994deb","6880821d012ef9b969b5e475","2","1","66aea8fcd9cd711541bf63e5","2","1","2025-07-23T06:40:53.667Z","","","","","","","","","","","","","","win-only","2","g1:SE,g2:NW","0.5","6","0","358918.6","1210.9","6225.6","34897.4","1","4","4","6","1","1","1","27","26","0.20454545454545456","1405.1","3000","860","[""down"",""right""]","{""num_key_presses"":8,""num_perfect"":4,""num_errors"":0,""num_randdir"":4,""num_randdir_good_moves"":2,""num_whilered"":0,""num_whileblue"":0,""num_blue"":2,""num_good_moves"":6}","[426.5714133126395,410.32142761775424,0.9,426.5714133126395,410.32142761775424,110.9,426.5714133126395,410.32142761775424,215.1,426.5714133126395,410.32142761775424,316.9,426.5714133126395,410.32142761775424,417,426.5714133126395,410.32142761775424,530.4,426.5714133126395,410.32142761775424,633.7,426.5714133126395,410.32142761775424,736.1,460.3214133126395,456.57142761775424,842.6,646.5714133126395,652.8214276177542,946,687.8214133126395,690.3214276177542,1050.9,701.5714133126395,700.3214276177542,1154,705.3214133126395,710.3214276177542,1272.3,716.5714133126395,719.0714276177542,1383.6,716.5714133126395,720.3214276177542,1484.7,716.5714133126395,720.3214276177542,1585.1,851.5714133126395,659.0714276177542,1686.6,1120.3214133126396,566.5714276177542,1795.9,1120.3214133126396,566.5714276177542,1899.1,1120.3214133126396,566.5714276177542,2017.9,1120.3214133126396,566.5714276177542,2120.2,1120.3214133126396,566.5714276177542,2221,1120.3214133126396,566.5714276177542,2333.9,1120.3214133126396,566.5714276177542,2435.3,1120.3214133126396,566.5714276177542,2549.2,1120.3214133126396,566.5714276177542,2660.3,1120.3214133126396,566.5714276177542,2765.1,1120.3214133126396,566.5714276177542,2866.1,1120.3214133126396,566.5714276177542,2985.8,1120.3214133126396,566.5714276177542,3096.5,1120.3214133126396,566.5714276177542,3198.3,1120.3214133126396,566.5714276177542,3300.2,1120.3214133126396,566.5714276177542,3400.5,1120.3214133126396,566.5714276177542,3513.7,1120.3214133126396,566.5714276177542,3615.9,1120.3214133126396,566.5714276177542,3721,1120.3214133126396,566.5714276177542,3821.5,1120.3214133126396,566.5714276177542,3922.7,1120.3214133126396,566.5714276177542,4033.5,1120.3214133126396,566.5714276177542,4144.6,1120.3214133126396,566.5714276177542,4264.8,1120.3214133126396,566.5714276177542,4372.5,1120.3214133126396,566.5714276177542,4475.7,1120.3214133126396,566.5714276177542,4586.3,1120.3214133126396,566.5714276177542,4695.4,1120.3214133126396,566.5714276177542,4811.8,1120.3214133126396,566.5714276177542,4915]","[1625.6,1625.6,1000,0,625.6,""oops"",""down"",""up"",""bad_move"",5180.7,3552.9,2965.3,1627.8,587.6,""oops"",""right"",""left"",""bad_move"",11362.3,6180.3,2152.1,8716.5,493.7,""smooth"",""down"",""down"",""good_move"",13914.9,2551.9,2175.9,11363.1,375.9,""smooth"",""down"",""down"",""good_move"",16764.6,2849.4,2487.7,13915.2,361.7,""smooth"",""down"",""down"",""good_move"",22463,5697.6,2126.1,19817,519.9,""oops"",""right"",""right"",""good_move"",25354,2889.9,2475.7,22464.2,414.1,""oops"",""right"",""right"",""good_move"",28503.6,3149.1,2762.5,25354.6,386.6,""smooth"",""right"",""right"",""good_move""]","",""
"2480","","<div style=""width:500px;"">
  <p>What determined the result of this run?</p>
  </div>","11","html-slider-response","35","397566","0.0-5.0-1.5","153","1","2025-07-23 06:34:17","1f75c3e559b7213887762d5229550c2b","78.137.213.1","Mozilla/5.0 (Windows NT 10.0; Win64; x64) AppleWebKit/537.36 (KHTML, like Gecko) Chrome/138.0.0.0 Safari/537.36","WebKit","Chrome","138.0.0.0","Windows","10.0","https://app.prolific.com/","pt-PT,pt;q=0.9,en-US;q=0.8,en;q=0.7,es;q=0.6,de;q=0.5,it;q=0.4","66aea8fcd9cd711541bf63e5","683db9eb0562dbf637994deb","6880821d012ef9b969b5e475","2","1","66aea8fcd9cd711541bf63e5","2","1","2025-07-23T06:40:56.152Z","","","","","","","","","","","AttribQ","","50","","","","","","","","","","","","","","","","","","","","","","","","","","","","",""
"4052","","<div style=""width:500px;"">
  <p>How much control did you have over the ball?</p>
  </div>","39","html-slider-response","36","401623","0.0-5.0-2.5","153","1","2025-07-23 06:34:17","1f75c3e559b7213887762d5229550c2b","78.137.213.1","Mozilla/5.0 (Windows NT 10.0; Win64; x64) AppleWebKit/537.36 (KHTML, like Gecko) Chrome/138.0.0.0 Safari/537.36","WebKit","Chrome","138.0.0.0","Windows","10.0","https://app.prolific.com/","pt-PT,pt;q=0.9,en-US;q=0.8,en;q=0.7,es;q=0.6,de;q=0.5,it;q=0.4","66aea8fcd9cd711541bf63e5","683db9eb0562dbf637994deb","6880821d012ef9b969b5e475","2","1","66aea8fcd9cd711541bf63e5","2","1","2025-07-23T06:41:00.208Z","","","","","","","","","","","ControlQ","","50","","","","","","","","","","","","","","","","","","","","","","","","","","","","",""
"2518","","<div style=""width:500px;"">
  <p>How would you describe your current emotional state?</p>
  </div>","67","html-slider-response","37","404145","0.0-5.0-3.5","153","1","2025-07-23 06:34:17","1f75c3e559b7213887762d5229550c2b","78.137.213.1","Mozilla/5.0 (Windows NT 10.0; Win64; x64) AppleWebKit/537.36 (KHTML, like Gecko) Chrome/138.0.0.0 Safari/537.36","WebKit","Chrome","138.0.0.0","Windows","10.0","https://app.prolific.com/","pt-PT,pt;q=0.9,en-US;q=0.8,en;q=0.7,es;q=0.6,de;q=0.5,it;q=0.4","66aea8fcd9cd711541bf63e5","683db9eb0562dbf637994deb","6880821d012ef9b969b5e475","2","1","66aea8fcd9cd711541bf63e5","2","1","2025-07-23T06:41:02.730Z","","","","","","","","","","","StressQ","","50","","","","","","","","","","","","","","","","","","","","","","","","","","","","",""
"2081","","<div style=""width:500px;"">
  <p>What best describes how you currently feel?</p>
  </div>","35","html-slider-response","38","406229","0.0-5.0-4.5","153","1","2025-07-23 06:34:17","1f75c3e559b7213887762d5229550c2b","78.137.213.1","Mozilla/5.0 (Windows NT 10.0; Win64; x64) AppleWebKit/537.36 (KHTML, like Gecko) Chrome/138.0.0.0 Safari/537.36","WebKit","Chrome","138.0.0.0","Windows","10.0","https://app.prolific.com/","pt-PT,pt;q=0.9,en-US;q=0.8,en;q=0.7,es;q=0.6,de;q=0.5,it;q=0.4","66aea8fcd9cd711541bf63e5","683db9eb0562dbf637994deb","6880821d012ef9b969b5e475","2","1","66aea8fcd9cd711541bf63e5","2","1","2025-07-23T06:41:04.814Z","","","","","","","","","","","MotivationQ","","50","","","","","","","","","","","","","","","","","","","","","","","","","","","","",""
"","","","","ctl-task-cpt","39","448589","0.0-5.0-0.6","153","1","2025-07-23 06:34:17","1f75c3e559b7213887762d5229550c2b","78.137.213.1","Mozilla/5.0 (Windows NT 10.0; Win64; x64) AppleWebKit/537.36 (KHTML, like Gecko) Chrome/138.0.0.0 Safari/537.36","WebKit","Chrome","138.0.0.0","Windows","10.0","https://app.prolific.com/","pt-PT,pt;q=0.9,en-US;q=0.8,en;q=0.7,es;q=0.6,de;q=0.5,it;q=0.4","66aea8fcd9cd711541bf63e5","683db9eb0562dbf637994deb","6880821d012ef9b969b5e475","2","1","66aea8fcd9cd711541bf63e5","2","1","2025-07-23T06:41:47.174Z","","","","","","","","","","","","","","win-only","0","g1:NW,g2:SE","0.4","7","0","407979.6","1042.9","6046.4","39342.7","1","4","8","6","2","8","8","35","27","0.26515151515151514","1373.4","3000","530","[""down"",""right""]","{""num_key_presses"":10,""num_perfect"":4,""num_errors"":0,""num_randdir"":6,""num_randdir_good_moves"":4,""num_whilered"":0,""num_whileblue"":0,""num_blue"":2,""num_good_moves"":8}","[417.8214133126395,411.57142761775424,0.5,417.8214133126395,411.57142761775424,102.9,417.8214133126395,411.57142761775424,213.8,417.8214133126395,411.57142761775424,314.7,417.8214133126395,411.57142761775424,416.5,417.8214133126395,411.57142761775424,518.6,417.8214133126395,411.57142761775424,620.3,417.8214133126395,411.57142761775424,730.2,417.8214133126395,411.57142761775424,831.3,647.8214133126395,615.3214276177542,943.8,775.3214133126395,811.5714276177542,1046.1,775.3214133126395,812.8214276177542,1149.8,775.3214133126395,812.8214276177542,1257.5,775.3214133126395,812.8214276177542,1382.2,775.3214133126395,812.8214276177542,1501.9,775.3214133126395,812.8214276177542,1604.3,971.5714133126395,689.0714276177542,1712.1,1106.5714133126396,636.5714276177542,1826.9,1106.5714133126396,636.5714276177542,1927.2,1106.5714133126396,636.5714276177542,2028.5,1106.5714133126396,636.5714276177542,2131.2,1106.5714133126396,636.5714276177542,2236.4,1106.5714133126396,636.5714276177542,2348.6,1106.5714133126396,636.5714276177542,2453.5,1106.5714133126396,636.5714276177542,2553.6,1106.5714133126396,636.5714276177542,2666.3,1106.5714133126396,636.5714276177542,2768.2,1106.5714133126396,636.5714276177542,2874,1106.5714133126396,636.5714276177542,2978.4,1106.5714133126396,636.5714276177542,3101.1,1106.5714133126396,636.5714276177542,3202.4,1106.5714133126396,636.5714276177542,3302.5,1106.5714133126396,636.5714276177542,3407.9,1106.5714133126396,636.5714276177542,3533.6,1106.5714133126396,636.5714276177542,3647.7,1106.5714133126396,636.5714276177542,3750.8,1106.5714133126396,636.5714276177542,3860.4,1106.5714133126396,636.5714276177542,3966.2,1106.5714133126396,636.5714276177542,4081.5,1106.5714133126396,636.5714276177542,4183.9,1106.5714133126396,636.5714276177542,4284,1106.5714133126396,636.5714276177542,4384.7,1106.5714133126396,636.5714276177542,4496.5,1106.5714133126396,636.5714276177542,4600.4,1106.5714133126396,636.5714276177542,4703.4,1106.5714133126396,636.5714276177542,4811,1106.5714133126396,636.5714276177542,4912.1]","[1780.9,1780.9,1000,0,780.9,""oops"",""down"",""down"",""good_move"",4718.7,2936.5,2506.6,1782.2,429.9,""smooth"",""down"",""down"",""good_move"",7996.6,3276.8,2888.9,4719.9,387.8,""oops"",""down"",""up"",""bad_move"",11013.2,3015.7,2597.3,7997.6,418.4,""smooth"",""down"",""down"",""good_move"",13109.9,2095.4,1658,11014.6,437.4,""smooth"",""down"",""down"",""good_move"",19314.6,6204.1,2674.2,16239.3,401.1,""smooth"",""right"",""right"",""good_move"",22065.9,2750.4,2335.2,19315.6,415.1,""oops"",""right"",""up"",""bad_move"",25055.3,2988.6,2610.2,22066.7,378.4,""oops"",""right"",""right"",""good_move"",27230.2,2174,1747.3,25056.3,426.7,""oops"",""right"",""down"",""good_move"",33159,5927.7,2194.9,30469.3,494.8,""oops"",""right"",""right"",""good_move""]","",""
"2041","","<div style=""width:500px;"">
  <p>What determined the result of this run?</p>
  </div>","20","html-slider-response","40","450633","0.0-5.0-1.6","153","1","2025-07-23 06:34:17","1f75c3e559b7213887762d5229550c2b","78.137.213.1","Mozilla/5.0 (Windows NT 10.0; Win64; x64) AppleWebKit/537.36 (KHTML, like Gecko) Chrome/138.0.0.0 Safari/537.36","WebKit","Chrome","138.0.0.0","Windows","10.0","https://app.prolific.com/","pt-PT,pt;q=0.9,en-US;q=0.8,en;q=0.7,es;q=0.6,de;q=0.5,it;q=0.4","66aea8fcd9cd711541bf63e5","683db9eb0562dbf637994deb","6880821d012ef9b969b5e475","2","1","66aea8fcd9cd711541bf63e5","2","1","2025-07-23T06:41:49.218Z","","","","","","","","","","","AttribQ","","50","","","","","","","","","","","","","","","","","","","","","","","","","","","","",""
"3164","","<div style=""width:500px;"">
  <p>How much control did you have over the ball?</p>
  </div>","42","html-slider-response","41","453801","0.0-5.0-2.6","153","1","2025-07-23 06:34:17","1f75c3e559b7213887762d5229550c2b","78.137.213.1","Mozilla/5.0 (Windows NT 10.0; Win64; x64) AppleWebKit/537.36 (KHTML, like Gecko) Chrome/138.0.0.0 Safari/537.36","WebKit","Chrome","138.0.0.0","Windows","10.0","https://app.prolific.com/","pt-PT,pt;q=0.9,en-US;q=0.8,en;q=0.7,es;q=0.6,de;q=0.5,it;q=0.4","66aea8fcd9cd711541bf63e5","683db9eb0562dbf637994deb","6880821d012ef9b969b5e475","2","1","66aea8fcd9cd711541bf63e5","2","1","2025-07-23T06:41:52.387Z","","","","","","","","","","","ControlQ","","50","","","","","","","","","","","","","","","","","","","","","","","","","","","","",""
"1960","","<div style=""width:500px;"">
  <p>How would you describe your current emotional state?</p>
  </div>","65","html-slider-response","42","455767","0.0-5.0-3.6","153","1","2025-07-23 06:34:17","1f75c3e559b7213887762d5229550c2b","78.137.213.1","Mozilla/5.0 (Windows NT 10.0; Win64; x64) AppleWebKit/537.36 (KHTML, like Gecko) Chrome/138.0.0.0 Safari/537.36","WebKit","Chrome","138.0.0.0","Windows","10.0","https://app.prolific.com/","pt-PT,pt;q=0.9,en-US;q=0.8,en;q=0.7,es;q=0.6,de;q=0.5,it;q=0.4","66aea8fcd9cd711541bf63e5","683db9eb0562dbf637994deb","6880821d012ef9b969b5e475","2","1","66aea8fcd9cd711541bf63e5","2","1","2025-07-23T06:41:54.352Z","","","","","","","","","","","StressQ","","50","","","","","","","","","","","","","","","","","","","","","","","","","","","","",""
"1689","","<div style=""width:500px;"">
  <p>What best describes how you currently feel?</p>
  </div>","35","html-slider-response","43","457458","0.0-5.0-4.6","153","1","2025-07-23 06:34:17","1f75c3e559b7213887762d5229550c2b","78.137.213.1","Mozilla/5.0 (Windows NT 10.0; Win64; x64) AppleWebKit/537.36 (KHTML, like Gecko) Chrome/138.0.0.0 Safari/537.36","WebKit","Chrome","138.0.0.0","Windows","10.0","https://app.prolific.com/","pt-PT,pt;q=0.9,en-US;q=0.8,en;q=0.7,es;q=0.6,de;q=0.5,it;q=0.4","66aea8fcd9cd711541bf63e5","683db9eb0562dbf637994deb","6880821d012ef9b969b5e475","2","1","66aea8fcd9cd711541bf63e5","2","1","2025-07-23T06:41:56.043Z","","","","","","","","","","","MotivationQ","","50","","","","","","","","","","","","","","","","","","","","","","","","","","","","",""
"","","","","ctl-task-cpt","44","485913","0.0-5.0-0.7","153","1","2025-07-23 06:34:17","1f75c3e559b7213887762d5229550c2b","78.137.213.1","Mozilla/5.0 (Windows NT 10.0; Win64; x64) AppleWebKit/537.36 (KHTML, like Gecko) Chrome/138.0.0.0 Safari/537.36","WebKit","Chrome","138.0.0.0","Windows","10.0","https://app.prolific.com/","pt-PT,pt;q=0.9,en-US;q=0.8,en;q=0.7,es;q=0.6,de;q=0.5,it;q=0.4","66aea8fcd9cd711541bf63e5","683db9eb0562dbf637994deb","6880821d012ef9b969b5e475","2","1","66aea8fcd9cd711541bf63e5","2","1","2025-07-23T06:42:24.498Z","","","","","","","","","","","","","","win-only","1","g1:NE,g2:SW","0.3","8","0","459212.1","893.7","5905.9","25419.4","1","4","4","6","1","1","1","36","35","0.2727272727272727","1291.5","3000","2020","[""up"",""right""]","{""num_key_presses"":4,""num_perfect"":1,""num_errors"":0,""num_randdir"":3,""num_randdir_good_moves"":3,""num_whilered"":0,""num_whileblue"":0,""num_blue"":3,""num_good_moves"":4}","[422.8214133126395,406.57142761775424,0.6,421.5714133126395,406.57142761775424,103.4,421.5714133126395,406.57142761775424,207.3,421.5714133126395,406.57142761775424,321.5,421.5714133126395,406.57142761775424,427.9,421.5714133126395,406.57142761775424,533.6,421.5714133126395,406.57142761775424,646.2,421.5714133126395,406.57142761775424,758.9,421.5714133126395,406.57142761775424,876.6,542.8214133126395,285.32142761775424,981.8,685.3214133126395,164.07142761775424,1088.8,710.3214133126395,132.82142761775424,1192.3,754.0714133126395,77.82142761775425,1314.6,754.0714133126395,77.82142761775425,1415.7,754.0714133126395,77.82142761775425,1527.4,969.0714133126395,182.82142761775424,1638.6,1067.8214133126396,251.57142761775424,1740.5,1067.8214133126396,251.57142761775424,1859.9,1067.8214133126396,251.57142761775424,1962.2,1067.8214133126396,251.57142761775424,2065.4,1067.8214133126396,251.57142761775424,2170.9,1067.8214133126396,251.57142761775424,2297.7,1067.8214133126396,251.57142761775424,2406.8,1067.8214133126396,251.57142761775424,2510.3,1067.8214133126396,251.57142761775424,2615.8,1067.8214133126396,251.57142761775424,2723,1067.8214133126396,251.57142761775424,2828.5,1067.8214133126396,251.57142761775424,2931.1,1067.8214133126396,251.57142761775424,3037.7,1067.8214133126396,251.57142761775424,3141.2,1067.8214133126396,251.57142761775424,3241.4,1067.8214133126396,251.57142761775424,3342.9,1067.8214133126396,251.57142761775424,3458.9,1067.8214133126396,251.57142761775424,3578.9,1067.8214133126396,251.57142761775424,3683,1067.8214133126396,251.57142761775424,3800.3,1067.8214133126396,251.57142761775424,3906.3,1067.8214133126396,251.57142761775424,4007.5,1067.8214133126396,251.57142761775424,4108.5,1067.8214133126396,251.57142761775424,4209.2,1067.8214133126396,251.57142761775424,4311.8,1067.8214133126396,251.57142761775424,4418.6,1067.8214133126396,251.57142761775424,4522.3,1067.8214133126396,251.57142761775424,4623.2,1067.8214133126396,251.57142761775424,4755.3,1067.8214133126396,251.57142761775424,4856.3,1067.8214133126396,251.57142761775424,4957.1]","[8595.8,8595.8,1989.1,6031.7,575.1,""smooth"",""up"",""up"",""good_move"",13860.2,5263.2,2105.2,11275.9,479.1,""oops"",""up"",""right"",""good_move"",16845.9,2985.2,2476.6,13860.7,508.6,""oops"",""up"",""up"",""good_move"",19337.3,2490.8,2087.5,16846.5,403.4,""oops"",""right"",""right"",""good_move""]","",""
"2629","","<div style=""width:500px;"">
  <p>What determined the result of this run?</p>
  </div>","35","html-slider-response","45","488544","0.0-5.0-1.7","153","1","2025-07-23 06:34:17","1f75c3e559b7213887762d5229550c2b","78.137.213.1","Mozilla/5.0 (Windows NT 10.0; Win64; x64) AppleWebKit/537.36 (KHTML, like Gecko) Chrome/138.0.0.0 Safari/537.36","WebKit","Chrome","138.0.0.0","Windows","10.0","https://app.prolific.com/","pt-PT,pt;q=0.9,en-US;q=0.8,en;q=0.7,es;q=0.6,de;q=0.5,it;q=0.4","66aea8fcd9cd711541bf63e5","683db9eb0562dbf637994deb","6880821d012ef9b969b5e475","2","1","66aea8fcd9cd711541bf63e5","2","1","2025-07-23T06:42:27.129Z","","","","","","","","","","","AttribQ","","50","","","","","","","","","","","","","","","","","","","","","","","","","","","","",""
"3923","","<div style=""width:500px;"">
  <p>How much control did you have over the ball?</p>
  </div>","46","html-slider-response","46","492471","0.0-5.0-2.7","153","1","2025-07-23 06:34:17","1f75c3e559b7213887762d5229550c2b","78.137.213.1","Mozilla/5.0 (Windows NT 10.0; Win64; x64) AppleWebKit/537.36 (KHTML, like Gecko) Chrome/138.0.0.0 Safari/537.36","WebKit","Chrome","138.0.0.0","Windows","10.0","https://app.prolific.com/","pt-PT,pt;q=0.9,en-US;q=0.8,en;q=0.7,es;q=0.6,de;q=0.5,it;q=0.4","66aea8fcd9cd711541bf63e5","683db9eb0562dbf637994deb","6880821d012ef9b969b5e475","2","1","66aea8fcd9cd711541bf63e5","2","1","2025-07-23T06:42:31.056Z","","","","","","","","","","","ControlQ","","50","","","","","","","","","","","","","","","","","","","","","","","","","","","","",""
"2323","","<div style=""width:500px;"">
  <p>How would you describe your current emotional state?</p>
  </div>","67","html-slider-response","47","494798","0.0-5.0-3.7","153","1","2025-07-23 06:34:17","1f75c3e559b7213887762d5229550c2b","78.137.213.1","Mozilla/5.0 (Windows NT 10.0; Win64; x64) AppleWebKit/537.36 (KHTML, like Gecko) Chrome/138.0.0.0 Safari/537.36","WebKit","Chrome","138.0.0.0","Windows","10.0","https://app.prolific.com/","pt-PT,pt;q=0.9,en-US;q=0.8,en;q=0.7,es;q=0.6,de;q=0.5,it;q=0.4","66aea8fcd9cd711541bf63e5","683db9eb0562dbf637994deb","6880821d012ef9b969b5e475","2","1","66aea8fcd9cd711541bf63e5","2","1","2025-07-23T06:42:33.383Z","","","","","","","","","","","StressQ","","50","","","","","","","","","","","","","","","","","","","","","","","","","","","","",""
"2533","","<div style=""width:500px;"">
  <p>What best describes how you currently feel?</p>
  </div>","38","html-slider-response","48","497334","0.0-5.0-4.7","153","1","2025-07-23 06:34:17","1f75c3e559b7213887762d5229550c2b","78.137.213.1","Mozilla/5.0 (Windows NT 10.0; Win64; x64) AppleWebKit/537.36 (KHTML, like Gecko) Chrome/138.0.0.0 Safari/537.36","WebKit","Chrome","138.0.0.0","Windows","10.0","https://app.prolific.com/","pt-PT,pt;q=0.9,en-US;q=0.8,en;q=0.7,es;q=0.6,de;q=0.5,it;q=0.4","66aea8fcd9cd711541bf63e5","683db9eb0562dbf637994deb","6880821d012ef9b969b5e475","2","1","66aea8fcd9cd711541bf63e5","2","1","2025-07-23T06:42:35.920Z","","","","","","","","","","","MotivationQ","","50","","","","","","","","","","","","","","","","","","","","","","","","","","","","",""
"","","","","ctl-task-cpt","49","518609","0.0-5.0-0.8","153","1","2025-07-23 06:34:17","1f75c3e559b7213887762d5229550c2b","78.137.213.1","Mozilla/5.0 (Windows NT 10.0; Win64; x64) AppleWebKit/537.36 (KHTML, like Gecko) Chrome/138.0.0.0 Safari/537.36","WebKit","Chrome","138.0.0.0","Windows","10.0","https://app.prolific.com/","pt-PT,pt;q=0.9,en-US;q=0.8,en;q=0.7,es;q=0.6,de;q=0.5,it;q=0.4","66aea8fcd9cd711541bf63e5","683db9eb0562dbf637994deb","6880821d012ef9b969b5e475","2","1","66aea8fcd9cd711541bf63e5","2","1","2025-07-23T06:42:57.195Z","","","","","","","","","","","","","","win-only","0","g1:NW,g2:SE","0.2","9","0","499086.2","3059","8060.9","18253.5","1","4","4","6","1","1","1","37","36","0.2803030303030303","1163.8","3000","2105","[""left"",""up""]","{""num_key_presses"":4,""num_perfect"":2,""num_errors"":0,""num_randdir"":2,""num_randdir_good_moves"":2,""num_whilered"":0,""num_whileblue"":0,""num_blue"":0,""num_good_moves"":4}","[419.0714133126395,416.57142761775424,0.8,419.0714133126395,416.57142761775424,121.2,419.0714133126395,416.57142761775424,221.9,419.0714133126395,416.57142761775424,330,419.0714133126395,416.57142761775424,460.9,419.0714133126395,414.07142761775424,572.6,430.3214133126395,355.32142761775424,674.6,382.8214133126395,325.32142761775424,775.1,105.3214133126395,162.82142761775424,882.6,85.3214133126395,132.82142761775424,1009.4,86.5714133126395,132.82142761775424,1114.8,86.5714133126395,132.82142761775424,1220.6,86.5714133126395,132.82142761775424,1332.1,86.5714133126395,132.82142761775424,1435.6,-94.6785866873605,272.82142761775424,1538.8,-105.9285866873605,284.07142761775424,1642.8,-105.9285866873605,284.07142761775424,1743.5,-105.9285866873605,284.07142761775424,1872.3,-105.9285866873605,284.07142761775424,1985.3,-105.9285866873605,284.07142761775424,2088.5,-105.9285866873605,284.07142761775424,2217,-105.9285866873605,284.07142761775424,2332.4,-105.9285866873605,284.07142761775424,2435.9,-105.9285866873605,284.07142761775424,2541.7,-105.9285866873605,284.07142761775424,2648.6,-105.9285866873605,284.07142761775424,2752.3,-105.9285866873605,284.07142761775424,2877.8,-105.9285866873605,284.07142761775424,2992.4,-105.9285866873605,284.07142761775424,3093.1,-105.9285866873605,284.07142761775424,3198.2,-105.9285866873605,284.07142761775424,3303,-105.9285866873605,284.07142761775424,3415.7,-105.9285866873605,284.07142761775424,3518.3,-105.9285866873605,284.07142761775424,3626.1,-105.9285866873605,284.07142761775424,3733.2,-105.9285866873605,284.07142761775424,3837.5,-105.9285866873605,284.07142761775424,3963.1,-105.9285866873605,284.07142761775424,4089.4,-105.9285866873605,284.07142761775424,4196.9,-105.9285866873605,284.07142761775424,4305.5,-105.9285866873605,284.07142761775424,4410.5,-105.9285866873605,284.07142761775424,4535,-105.9285866873605,284.07142761775424,4636.4,-105.9285866873605,284.07142761775424,4753.8,-105.9285866873605,284.07142761775424,4860.6,-105.9285866873605,284.07142761775424,4965.3]","[1506.2,1506.2,1000,0,506.2,""smooth"",""left"",""left"",""good_move"",3885.4,2377.8,1967.3,1507.6,410.5,""oops"",""left"",""up"",""good_move"",6828.2,2941,2307.5,3887.2,633.5,""smooth"",""left"",""left"",""good_move"",10003.8,3174.6,2739.4,6829.5,434.9,""oops"",""up"",""up"",""good_move""]","",""
"2037","","<div style=""width:500px;"">
  <p>What determined the result of this run?</p>
  </div>","25","html-slider-response","50","520648","0.0-5.0-1.8","153","1","2025-07-23 06:34:17","1f75c3e559b7213887762d5229550c2b","78.137.213.1","Mozilla/5.0 (Windows NT 10.0; Win64; x64) AppleWebKit/537.36 (KHTML, like Gecko) Chrome/138.0.0.0 Safari/537.36","WebKit","Chrome","138.0.0.0","Windows","10.0","https://app.prolific.com/","pt-PT,pt;q=0.9,en-US;q=0.8,en;q=0.7,es;q=0.6,de;q=0.5,it;q=0.4","66aea8fcd9cd711541bf63e5","683db9eb0562dbf637994deb","6880821d012ef9b969b5e475","2","1","66aea8fcd9cd711541bf63e5","2","1","2025-07-23T06:42:59.234Z","","","","","","","","","","","AttribQ","","50","","","","","","","","","","","","","","","","","","","","","","","","","","","","",""
"2921","","<div style=""width:500px;"">
  <p>How much control did you have over the ball?</p>
  </div>","100","html-slider-response","51","523576","0.0-5.0-2.8","153","1","2025-07-23 06:34:17","1f75c3e559b7213887762d5229550c2b","78.137.213.1","Mozilla/5.0 (Windows NT 10.0; Win64; x64) AppleWebKit/537.36 (KHTML, like Gecko) Chrome/138.0.0.0 Safari/537.36","WebKit","Chrome","138.0.0.0","Windows","10.0","https://app.prolific.com/","pt-PT,pt;q=0.9,en-US;q=0.8,en;q=0.7,es;q=0.6,de;q=0.5,it;q=0.4","66aea8fcd9cd711541bf63e5","683db9eb0562dbf637994deb","6880821d012ef9b969b5e475","2","1","66aea8fcd9cd711541bf63e5","2","1","2025-07-23T06:43:02.162Z","","","","","","","","","","","ControlQ","","50","","","","","","","","","","","","","","","","","","","","","","","","","","","","",""
"2996","","<div style=""width:500px;"">
  <p>How would you describe your current emotional state?</p>
  </div>","73","html-slider-response","52","526576","0.0-5.0-3.8","153","1","2025-07-23 06:34:17","1f75c3e559b7213887762d5229550c2b","78.137.213.1","Mozilla/5.0 (Windows NT 10.0; Win64; x64) AppleWebKit/537.36 (KHTML, like Gecko) Chrome/138.0.0.0 Safari/537.36","WebKit","Chrome","138.0.0.0","Windows","10.0","https://app.prolific.com/","pt-PT,pt;q=0.9,en-US;q=0.8,en;q=0.7,es;q=0.6,de;q=0.5,it;q=0.4","66aea8fcd9cd711541bf63e5","683db9eb0562dbf637994deb","6880821d012ef9b969b5e475","2","1","66aea8fcd9cd711541bf63e5","2","1","2025-07-23T06:43:05.162Z","","","","","","","","","","","StressQ","","50","","","","","","","","","","","","","","","","","","","","","","","","","","","","",""
"1583","","<div style=""width:500px;"">
  <p>What best describes how you currently feel?</p>
  </div>","27","html-slider-response","53","528163","0.0-5.0-4.8","153","1","2025-07-23 06:34:17","1f75c3e559b7213887762d5229550c2b","78.137.213.1","Mozilla/5.0 (Windows NT 10.0; Win64; x64) AppleWebKit/537.36 (KHTML, like Gecko) Chrome/138.0.0.0 Safari/537.36","WebKit","Chrome","138.0.0.0","Windows","10.0","https://app.prolific.com/","pt-PT,pt;q=0.9,en-US;q=0.8,en;q=0.7,es;q=0.6,de;q=0.5,it;q=0.4","66aea8fcd9cd711541bf63e5","683db9eb0562dbf637994deb","6880821d012ef9b969b5e475","2","1","66aea8fcd9cd711541bf63e5","2","1","2025-07-23T06:43:06.750Z","","","","","","","","","","","MotivationQ","","50","","","","","","","","","","","","","","","","","","","","","","","","","","","","",""
"","","","","ctl-task-cpt","54","554890","0.0-5.0-0.9","153","1","2025-07-23 06:34:17","1f75c3e559b7213887762d5229550c2b","78.137.213.1","Mozilla/5.0 (Windows NT 10.0; Win64; x64) AppleWebKit/537.36 (KHTML, like Gecko) Chrome/138.0.0.0 Safari/537.36","WebKit","Chrome","138.0.0.0","Windows","10.0","https://app.prolific.com/","pt-PT,pt;q=0.9,en-US;q=0.8,en;q=0.7,es;q=0.6,de;q=0.5,it;q=0.4","66aea8fcd9cd711541bf63e5","683db9eb0562dbf637994deb","6880821d012ef9b969b5e475","2","1","66aea8fcd9cd711541bf63e5","2","1","2025-07-23T06:43:33.476Z","","","","","","","","","","","","","","win-only","2","g1:SE,g2:NW","0.4","10","0","529919.4","3996.8","9007.9","23692.4","1","4","8","6","1","1","1","38","37","0.2878787878787879","1246","3000","1935","[""down"",""right""]","{""num_key_presses"":4,""num_perfect"":2,""num_errors"":0,""num_randdir"":2,""num_randdir_good_moves"":2,""num_whilered"":0,""num_whileblue"":0,""num_blue"":1,""num_good_moves"":4}","[416.5714133126395,402.82142761775424,0.7,416.5714133126395,404.07142761775424,103.5,416.5714133126395,404.07142761775424,204.4,416.5714133126395,404.07142761775424,323.6,416.5714133126395,404.07142761775424,445.8,416.5714133126395,404.07142761775424,550.7,416.5714133126395,404.07142761775424,653.5,491.5714133126395,504.07142761775424,773.3,642.8214133126395,670.3214276177542,885.8,671.5714133126395,675.3214276177542,990.9,687.8214133126395,689.0714276177542,1128.3,711.5714133126395,706.5714276177542,1233.6,714.0714133126395,709.0714276177542,1339.2,714.0714133126395,709.0714276177542,1444.9,714.0714133126395,709.0714276177542,1547.1,770.3214133126395,686.5714276177542,1648.9,1010.3214133126395,587.8214276177542,1798.4,1010.3214133126395,587.8214276177542,1915.1,1010.3214133126395,587.8214276177542,2042.9,1010.3214133126395,587.8214276177542,2156.6,1010.3214133126395,587.8214276177542,2259.4,1010.3214133126395,587.8214276177542,2363,1010.3214133126395,587.8214276177542,2464.3,1010.3214133126395,587.8214276177542,2564.6,1010.3214133126395,587.8214276177542,2673.4,1010.3214133126395,587.8214276177542,2799.3,1010.3214133126395,587.8214276177542,2901.3,1010.3214133126395,587.8214276177542,3002.5,1010.3214133126395,587.8214276177542,3110,1010.3214133126395,587.8214276177542,3213.9,1010.3214133126395,587.8214276177542,3318,1010.3214133126395,587.8214276177542,3428.8,1010.3214133126395,587.8214276177542,3530.9,1010.3214133126395,587.8214276177542,3638.7,1010.3214133126395,587.8214276177542,3741.4,1010.3214133126395,587.8214276177542,3842.9,1010.3214133126395,587.8214276177542,3943.7,1010.3214133126395,587.8214276177542,4044.7,1010.3214133126395,587.8214276177542,4144.7,1010.3214133126395,587.8214276177542,4245.8,1010.3214133126395,587.8214276177542,4346.6,1010.3214133126395,587.8214276177542,4447.8,1010.3214133126395,587.8214276177542,4550.2,1010.3214133126395,587.8214276177542,4692.4,1010.3214133126395,587.8214276177542,4814.4,1010.3214133126395,587.8214276177542,4914.6]","[1715.1,1715.1,1000,0,715.1,""oops"",""right"",""down"",""good_move"",4929.1,3212.7,2768.8,1716.5,443.9,""smooth"",""right"",""right"",""good_move"",12043.7,7113.6,2349.5,9264.6,429.6,""smooth"",""right"",""right"",""good_move"",14499.5,2455.4,1649.5,12044.3,805.8,""oops"",""down"",""down"",""good_move""]","",""
"6269","","<div style=""width:500px;"">
  <p>What determined the result of this run?</p>
  </div>","24","html-slider-response","55","561162","0.0-5.0-1.9","153","1","2025-07-23 06:34:17","1f75c3e559b7213887762d5229550c2b","78.137.213.1","Mozilla/5.0 (Windows NT 10.0; Win64; x64) AppleWebKit/537.36 (KHTML, like Gecko) Chrome/138.0.0.0 Safari/537.36","WebKit","Chrome","138.0.0.0","Windows","10.0","https://app.prolific.com/","pt-PT,pt;q=0.9,en-US;q=0.8,en;q=0.7,es;q=0.6,de;q=0.5,it;q=0.4","66aea8fcd9cd711541bf63e5","683db9eb0562dbf637994deb","6880821d012ef9b969b5e475","2","1","66aea8fcd9cd711541bf63e5","2","1","2025-07-23T06:43:39.748Z","","","","","","","","","","","AttribQ","","50","","","","","","","","","","","","","","","","","","","","","","","","","","","","",""
"3019","","<div style=""width:500px;"">
  <p>How much control did you have over the ball?</p>
  </div>","64","html-slider-response","56","564188","0.0-5.0-2.9","153","1","2025-07-23 06:34:17","1f75c3e559b7213887762d5229550c2b","78.137.213.1","Mozilla/5.0 (Windows NT 10.0; Win64; x64) AppleWebKit/537.36 (KHTML, like Gecko) Chrome/138.0.0.0 Safari/537.36","WebKit","Chrome","138.0.0.0","Windows","10.0","https://app.prolific.com/","pt-PT,pt;q=0.9,en-US;q=0.8,en;q=0.7,es;q=0.6,de;q=0.5,it;q=0.4","66aea8fcd9cd711541bf63e5","683db9eb0562dbf637994deb","6880821d012ef9b969b5e475","2","1","66aea8fcd9cd711541bf63e5","2","1","2025-07-23T06:43:42.774Z","","","","","","","","","","","ControlQ","","50","","","","","","","","","","","","","","","","","","","","","","","","","","","","",""
"2508","","<div style=""width:500px;"">
  <p>How would you describe your current emotional state?</p>
  </div>","75","html-slider-response","57","566699","0.0-5.0-3.9","153","1","2025-07-23 06:34:17","1f75c3e559b7213887762d5229550c2b","78.137.213.1","Mozilla/5.0 (Windows NT 10.0; Win64; x64) AppleWebKit/537.36 (KHTML, like Gecko) Chrome/138.0.0.0 Safari/537.36","WebKit","Chrome","138.0.0.0","Windows","10.0","https://app.prolific.com/","pt-PT,pt;q=0.9,en-US;q=0.8,en;q=0.7,es;q=0.6,de;q=0.5,it;q=0.4","66aea8fcd9cd711541bf63e5","683db9eb0562dbf637994deb","6880821d012ef9b969b5e475","2","1","66aea8fcd9cd711541bf63e5","2","1","2025-07-23T06:43:45.285Z","","","","","","","","","","","StressQ","","50","","","","","","","","","","","","","","","","","","","","","","","","","","","","",""
"1763","","<div style=""width:500px;"">
  <p>What best describes how you currently feel?</p>
  </div>","25","html-slider-response","58","568468","0.0-5.0-4.9","153","1","2025-07-23 06:34:17","1f75c3e559b7213887762d5229550c2b","78.137.213.1","Mozilla/5.0 (Windows NT 10.0; Win64; x64) AppleWebKit/537.36 (KHTML, like Gecko) Chrome/138.0.0.0 Safari/537.36","WebKit","Chrome","138.0.0.0","Windows","10.0","https://app.prolific.com/","pt-PT,pt;q=0.9,en-US;q=0.8,en;q=0.7,es;q=0.6,de;q=0.5,it;q=0.4","66aea8fcd9cd711541bf63e5","683db9eb0562dbf637994deb","6880821d012ef9b969b5e475","2","1","66aea8fcd9cd711541bf63e5","2","1","2025-07-23T06:43:47.053Z","","","","","","","","","","","MotivationQ","","50","","","","","","","","","","","","","","","","","","","","","","","","","","","","",""
"","","","","ctl-task-cpt","59","611537","0.0-5.0-0.10","153","1","2025-07-23 06:34:17","1f75c3e559b7213887762d5229550c2b","78.137.213.1","Mozilla/5.0 (Windows NT 10.0; Win64; x64) AppleWebKit/537.36 (KHTML, like Gecko) Chrome/138.0.0.0 Safari/537.36","WebKit","Chrome","138.0.0.0","Windows","10.0","https://app.prolific.com/","pt-PT,pt;q=0.9,en-US;q=0.8,en;q=0.7,es;q=0.6,de;q=0.5,it;q=0.4","66aea8fcd9cd711541bf63e5","683db9eb0562dbf637994deb","6880821d012ef9b969b5e475","2","1","66aea8fcd9cd711541bf63e5","2","1","2025-07-23T06:44:30.122Z","","","","","","","","","","","","","","win-only","1","g1:NE,g2:SW","0.5","11","0","570218","9523.8","14559.8","40045.8","1","4","8","6","1","1","1","39","38","0.29545454545454547","963.8","3000","1595","[""up"",""right""]","{""num_key_presses"":8,""num_perfect"":3,""num_errors"":0,""num_randdir"":5,""num_randdir_good_moves"":3,""num_whilered"":0,""num_whileblue"":0,""num_blue"":1,""num_good_moves"":6}","[419.0714133126395,421.57142761775424,0.9,420.3214133126395,421.57142761775424,116,420.3214133126395,421.57142761775424,219,420.3214133126395,421.57142761775424,319.5,420.3214133126395,421.57142761775424,430.7,687.8214133126395,140.32142761775424,562.2,687.8214133126395,140.32142761775424,663.4,687.8214133126395,137.82142761775424,763.9,744.0714133126395,87.82142761775425,889.9,746.5714133126395,87.82142761775425,996.7,746.5714133126395,87.82142761775425,1102.3,746.5714133126395,87.82142761775425,1203.4,746.5714133126395,87.82142761775425,1311.5,746.5714133126395,87.82142761775425,1413.3,746.5714133126395,87.82142761775425,1516.7,746.5714133126395,87.82142761775425,1618.4,746.5714133126395,87.82142761775425,1720.9,746.5714133126395,87.82142761775425,1830.9,746.5714133126395,87.82142761775425,1972.3,746.5714133126395,87.82142761775425,2078.4,746.5714133126395,87.82142761775425,2182.9,746.5714133126395,87.82142761775425,2285.3,746.5714133126395,87.82142761775425,2398.2,746.5714133126395,87.82142761775425,2499.6,746.5714133126395,87.82142761775425,2627.8,746.5714133126395,87.82142761775425,2732.2,746.5714133126395,87.82142761775425,2864.1,746.5714133126395,87.82142761775425,2969.1,746.5714133126395,87.82142761775425,3071.7,746.5714133126395,87.82142761775425,3176.8,746.5714133126395,87.82142761775425,3297.5,746.5714133126395,87.82142761775425,3412.7,746.5714133126395,87.82142761775425,3517.5,746.5714133126395,87.82142761775425,3624.3,746.5714133126395,87.82142761775425,3728.9,746.5714133126395,87.82142761775425,3833.1,746.5714133126395,87.82142761775425,3945.6,746.5714133126395,87.82142761775425,4048.3,746.5714133126395,87.82142761775425,4160.7,746.5714133126395,87.82142761775425,4270.9,746.5714133126395,87.82142761775425,4385.1,746.5714133126395,87.82142761775425,4494,746.5714133126395,87.82142761775425,4598.3,746.5714133126395,87.82142761775425,4699.4,746.5714133126395,87.82142761775425,4855,746.5714133126395,87.82142761775425,4955.5]","[1682.1,1682.1,1000,0,682.1,""smooth"",""up"",""up"",""good_move"",4607.8,2924.6,2501.1,1683.2,423.5,""smooth"",""up"",""up"",""good_move"",7237.2,2628.8,2197.3,4608.4,431.5,""oops"",""right"",""right"",""good_move"",10443.5,3205.5,2797.9,7238.1,407.6,""oops"",""right"",""left"",""bad_move"",13558.6,3113.6,2612.8,10445,500.8,""oops"",""right"",""right"",""good_move"",15634.1,2074.9,1701.5,13559.2,373.4,""oops"",""right"",""left"",""bad_move"",19150.9,3516.1,3160.2,15634.9,355.9,""smooth"",""right"",""right"",""good_move"",25261.2,6109.4,2483.7,22381.5,396,""oops"",""right"",""right"",""good_move""]","",""
"2387","","<div style=""width:500px;"">
  <p>What determined the result of this run?</p>
  </div>","18","html-slider-response","60","613929","0.0-5.0-1.10","153","1","2025-07-23 06:34:17","1f75c3e559b7213887762d5229550c2b","78.137.213.1","Mozilla/5.0 (Windows NT 10.0; Win64; x64) AppleWebKit/537.36 (KHTML, like Gecko) Chrome/138.0.0.0 Safari/537.36","WebKit","Chrome","138.0.0.0","Windows","10.0","https://app.prolific.com/","pt-PT,pt;q=0.9,en-US;q=0.8,en;q=0.7,es;q=0.6,de;q=0.5,it;q=0.4","66aea8fcd9cd711541bf63e5","683db9eb0562dbf637994deb","6880821d012ef9b969b5e475","2","1","66aea8fcd9cd711541bf63e5","2","1","2025-07-23T06:44:32.514Z","","","","","","","","","","","AttribQ","","50","","","","","","","","","","","","","","","","","","","","","","","","","","","","",""
"2499","","<div style=""width:500px;"">
  <p>How much control did you have over the ball?</p>
  </div>","19","html-slider-response","61","616430","0.0-5.0-2.10","153","1","2025-07-23 06:34:17","1f75c3e559b7213887762d5229550c2b","78.137.213.1","Mozilla/5.0 (Windows NT 10.0; Win64; x64) AppleWebKit/537.36 (KHTML, like Gecko) Chrome/138.0.0.0 Safari/537.36","WebKit","Chrome","138.0.0.0","Windows","10.0","https://app.prolific.com/","pt-PT,pt;q=0.9,en-US;q=0.8,en;q=0.7,es;q=0.6,de;q=0.5,it;q=0.4","66aea8fcd9cd711541bf63e5","683db9eb0562dbf637994deb","6880821d012ef9b969b5e475","2","1","66aea8fcd9cd711541bf63e5","2","1","2025-07-23T06:44:35.016Z","","","","","","","","","","","ControlQ","","50","","","","","","","","","","","","","","","","","","","","","","","","","","","","",""
"1907","","<div style=""width:500px;"">
  <p>How would you describe your current emotional state?</p>
  </div>","78","html-slider-response","62","618341","0.0-5.0-3.10","153","1","2025-07-23 06:34:17","1f75c3e559b7213887762d5229550c2b","78.137.213.1","Mozilla/5.0 (Windows NT 10.0; Win64; x64) AppleWebKit/537.36 (KHTML, like Gecko) Chrome/138.0.0.0 Safari/537.36","WebKit","Chrome","138.0.0.0","Windows","10.0","https://app.prolific.com/","pt-PT,pt;q=0.9,en-US;q=0.8,en;q=0.7,es;q=0.6,de;q=0.5,it;q=0.4","66aea8fcd9cd711541bf63e5","683db9eb0562dbf637994deb","6880821d012ef9b969b5e475","2","1","66aea8fcd9cd711541bf63e5","2","1","2025-07-23T06:44:36.927Z","","","","","","","","","","","StressQ","","50","","","","","","","","","","","","","","","","","","","","","","","","","","","","",""
"1613","","<div style=""width:500px;"">
  <p>What best describes how you currently feel?</p>
  </div>","16","html-slider-response","63","619959","0.0-5.0-4.10","153","1","2025-07-23 06:34:17","1f75c3e559b7213887762d5229550c2b","78.137.213.1","Mozilla/5.0 (Windows NT 10.0; Win64; x64) AppleWebKit/537.36 (KHTML, like Gecko) Chrome/138.0.0.0 Safari/537.36","WebKit","Chrome","138.0.0.0","Windows","10.0","https://app.prolific.com/","pt-PT,pt;q=0.9,en-US;q=0.8,en;q=0.7,es;q=0.6,de;q=0.5,it;q=0.4","66aea8fcd9cd711541bf63e5","683db9eb0562dbf637994deb","6880821d012ef9b969b5e475","2","1","66aea8fcd9cd711541bf63e5","2","1","2025-07-23T06:44:38.544Z","","","","","","","","","","","MotivationQ","","50","","","","","","","","","","","","","","","","","","","","","","","","","","","","",""
"","","","","ctl-task-cpt","64","653512","0.0-5.0-0.11","153","1","2025-07-23 06:34:17","1f75c3e559b7213887762d5229550c2b","78.137.213.1","Mozilla/5.0 (Windows NT 10.0; Win64; x64) AppleWebKit/537.36 (KHTML, like Gecko) Chrome/138.0.0.0 Safari/537.36","WebKit","Chrome","138.0.0.0","Windows","10.0","https://app.prolific.com/","pt-PT,pt;q=0.9,en-US;q=0.8,en;q=0.7,es;q=0.6,de;q=0.5,it;q=0.4","66aea8fcd9cd711541bf63e5","683db9eb0562dbf637994deb","6880821d012ef9b969b5e475","2","1","66aea8fcd9cd711541bf63e5","2","1","2025-07-23T06:45:12.097Z","","","","","","","","","","","","","","win-only","3","g1:SW,g2:NE","0.6","12","0","621709.3","6175.2","11177.1","30533.1","1","4","4","6","1","1","1","40","39","0.30303030303030304","1493.7","3000","2420","[""down"",""left""]","{""num_key_presses"":6,""num_perfect"":3,""num_errors"":0,""num_randdir"":3,""num_randdir_good_moves"":2,""num_whilered"":0,""num_whileblue"":0,""num_blue"":0,""num_good_moves"":5}","[424.0714133126395,406.57142761775424,0.5,424.0714133126395,406.57142761775424,117.1,424.0714133126395,406.57142761775424,217.7,424.0714133126395,406.57142761775424,320.7,424.0714133126395,406.57142761775424,440.3,424.0714133126395,406.57142761775424,545.9,424.0714133126395,406.57142761775424,652.6,422.8214133126395,407.82142761775424,764.4,211.5714133126395,654.0714276177542,867.5,199.0714133126395,660.3214276177542,968.1,150.3214133126395,667.8214276177542,1084.4,111.5714133126395,686.5714276177542,1186.4,105.3214133126395,687.8214276177542,1299,91.5714133126395,702.8214276177542,1405.9,77.8214133126395,724.0714276177542,1534.5,77.8214133126395,724.0714276177542,1642,77.8214133126395,724.0714276177542,1757.5,59.07141331263951,702.8214276177542,1863,-154.6785866873605,569.0714276177542,1966.7,-154.6785866873605,569.0714276177542,2073,-154.6785866873605,569.0714276177542,2184.3,-154.6785866873605,569.0714276177542,2306,-154.6785866873605,569.0714276177542,2407.7,-154.6785866873605,569.0714276177542,2517.9,-154.6785866873605,569.0714276177542,2635.3,-154.6785866873605,569.0714276177542,2736.5,-154.6785866873605,569.0714276177542,2867.8,-154.6785866873605,569.0714276177542,3015.5,-154.6785866873605,569.0714276177542,3119.1,-154.6785866873605,569.0714276177542,3223.7,-154.6785866873605,569.0714276177542,3328.7,-154.6785866873605,569.0714276177542,3434.1,-154.6785866873605,569.0714276177542,3534.1,-154.6785866873605,569.0714276177542,3638.6,-154.6785866873605,569.0714276177542,3744.5,-154.6785866873605,569.0714276177542,3871.6,-154.6785866873605,569.0714276177542,3988.2,-154.6785866873605,569.0714276177542,4101.5,-154.6785866873605,569.0714276177542,4213.7,-154.6785866873605,569.0714276177542,4322.8,-154.6785866873605,569.0714276177542,4440.5,-154.6785866873605,569.0714276177542,4550.8,-154.6785866873605,569.0714276177542,4665.3,-154.6785866873605,569.0714276177542,4777.1,-154.6785866873605,569.0714276177542,4883.4,-154.6785866873605,569.0714276177542,4983.9]","[1480.7,1480.8,1000,0,480.8,""smooth"",""left"",""left"",""good_move"",4875.5,3392.7,2958.3,1482.8,434.5,""smooth"",""left"",""left"",""good_move"",8862.4,3985.4,2595,4877,1390.4,""oops"",""down"",""up"",""bad_move"",12915.5,4052.3,1924.9,8863.2,2127.4,""oops"",""down"",""down"",""good_move"",15586.6,2670,2288.6,12916.6,381.4,""smooth"",""down"",""down"",""good_move"",18956.8,3369.3,3002.6,15587.6,366.6,""oops"",""down"",""down"",""good_move""]","",""
"2641","","<div style=""width:500px;"">
  <p>What determined the result of this run?</p>
  </div>","19","html-slider-response","65","656158","0.0-5.0-1.11","153","1","2025-07-23 06:34:17","1f75c3e559b7213887762d5229550c2b","78.137.213.1","Mozilla/5.0 (Windows NT 10.0; Win64; x64) AppleWebKit/537.36 (KHTML, like Gecko) Chrome/138.0.0.0 Safari/537.36","WebKit","Chrome","138.0.0.0","Windows","10.0","https://app.prolific.com/","pt-PT,pt;q=0.9,en-US;q=0.8,en;q=0.7,es;q=0.6,de;q=0.5,it;q=0.4","66aea8fcd9cd711541bf63e5","683db9eb0562dbf637994deb","6880821d012ef9b969b5e475","2","1","66aea8fcd9cd711541bf63e5","2","1","2025-07-23T06:45:14.744Z","","","","","","","","","","","AttribQ","","50","","","","","","","","","","","","","","","","","","","","","","","","","","","","",""
"4213","","<div style=""width:500px;"">
  <p>How much control did you have over the ball?</p>
  </div>","42","html-slider-response","66","660377","0.0-5.0-2.11","153","1","2025-07-23 06:34:17","1f75c3e559b7213887762d5229550c2b","78.137.213.1","Mozilla/5.0 (Windows NT 10.0; Win64; x64) AppleWebKit/537.36 (KHTML, like Gecko) Chrome/138.0.0.0 Safari/537.36","WebKit","Chrome","138.0.0.0","Windows","10.0","https://app.prolific.com/","pt-PT,pt;q=0.9,en-US;q=0.8,en;q=0.7,es;q=0.6,de;q=0.5,it;q=0.4","66aea8fcd9cd711541bf63e5","683db9eb0562dbf637994deb","6880821d012ef9b969b5e475","2","1","66aea8fcd9cd711541bf63e5","2","1","2025-07-23T06:45:18.962Z","","","","","","","","","","","ControlQ","","50","","","","","","","","","","","","","","","","","","","","","","","","","","","","",""
"2159","","<div style=""width:500px;"">
  <p>How would you describe your current emotional state?</p>
  </div>","67","html-slider-response","67","662540","0.0-5.0-3.11","153","1","2025-07-23 06:34:17","1f75c3e559b7213887762d5229550c2b","78.137.213.1","Mozilla/5.0 (Windows NT 10.0; Win64; x64) AppleWebKit/537.36 (KHTML, like Gecko) Chrome/138.0.0.0 Safari/537.36","WebKit","Chrome","138.0.0.0","Windows","10.0","https://app.prolific.com/","pt-PT,pt;q=0.9,en-US;q=0.8,en;q=0.7,es;q=0.6,de;q=0.5,it;q=0.4","66aea8fcd9cd711541bf63e5","683db9eb0562dbf637994deb","6880821d012ef9b969b5e475","2","1","66aea8fcd9cd711541bf63e5","2","1","2025-07-23T06:45:21.125Z","","","","","","","","","","","StressQ","","50","","","","","","","","","","","","","","","","","","","","","","","","","","","","",""
"1633","","<div style=""width:500px;"">
  <p>What best describes how you currently feel?</p>
  </div>","27","html-slider-response","68","664176","0.0-5.0-4.11","153","1","2025-07-23 06:34:17","1f75c3e559b7213887762d5229550c2b","78.137.213.1","Mozilla/5.0 (Windows NT 10.0; Win64; x64) AppleWebKit/537.36 (KHTML, like Gecko) Chrome/138.0.0.0 Safari/537.36","WebKit","Chrome","138.0.0.0","Windows","10.0","https://app.prolific.com/","pt-PT,pt;q=0.9,en-US;q=0.8,en;q=0.7,es;q=0.6,de;q=0.5,it;q=0.4","66aea8fcd9cd711541bf63e5","683db9eb0562dbf637994deb","6880821d012ef9b969b5e475","2","1","66aea8fcd9cd711541bf63e5","2","1","2025-07-23T06:45:22.761Z","","","","","","","","","","","MotivationQ","","50","","","","","","","","","","","","","","","","","","","","","","","","","","","","",""
"","","","","ctl-task-cpt","69","692314","0.0-5.0-0.12","153","1","2025-07-23 06:34:17","1f75c3e559b7213887762d5229550c2b","78.137.213.1","Mozilla/5.0 (Windows NT 10.0; Win64; x64) AppleWebKit/537.36 (KHTML, like Gecko) Chrome/138.0.0.0 Safari/537.36","WebKit","Chrome","138.0.0.0","Windows","10.0","https://app.prolific.com/","pt-PT,pt;q=0.9,en-US;q=0.8,en;q=0.7,es;q=0.6,de;q=0.5,it;q=0.4","66aea8fcd9cd711541bf63e5","683db9eb0562dbf637994deb","6880821d012ef9b969b5e475","2","1","66aea8fcd9cd711541bf63e5","2","1","2025-07-23T06:45:50.899Z","","","","","","","","","","","","","","win-only","0","g1:NW,g2:SE","0.7","13","0","665927.1","898.2","5909.5","25080.4","1","4","4","6","1","1","1","41","40","0.3106060606060606","939.9","3000","2680","[""left"",""up""]","{""num_key_presses"":4,""num_perfect"":4,""num_errors"":0,""num_randdir"":0,""num_randdir_good_moves"":0,""num_whilered"":0,""num_whileblue"":0,""num_blue"":0,""num_good_moves"":4}","[407.8214133126395,426.57142761775424,2.3,415.3214133126395,434.07142761775424,128.2,415.3214133126395,434.07142761775424,240.5,415.3214133126395,434.07142761775424,356.6,415.3214133126395,434.07142761775424,476.5,415.3214133126395,427.82142761775424,604.9,141.5714133126395,200.32142761775424,711.3,135.3214133126395,157.82142761775424,831.4,135.3214133126395,136.57142761775424,959.9,135.3214133126395,136.57142761775424,1070,134.0714133126395,136.57142761775424,1192.4,116.5714133126395,122.82142761775425,1293.7,-39.67858668736049,164.07142761775424,1396.6,-298.4285866873605,372.82142761775424,1502.6,-298.4285866873605,372.82142761775424,1621.8,-298.4285866873605,372.82142761775424,1738.8,-298.4285866873605,372.82142761775424,1859.2,-298.4285866873605,372.82142761775424,1961.5,-298.4285866873605,372.82142761775424,2073.8,-298.4285866873605,372.82142761775424,2186,-298.4285866873605,372.82142761775424,2296.2,-298.4285866873605,372.82142761775424,2408.5,-298.4285866873605,372.82142761775424,2511.3,-298.4285866873605,372.82142761775424,2624.9,-298.4285866873605,372.82142761775424,2742.3,-298.4285866873605,372.82142761775424,2843.2,-298.4285866873605,372.82142761775424,2958.3,-298.4285866873605,372.82142761775424,3074.8,-298.4285866873605,372.82142761775424,3189.2,-298.4285866873605,372.82142761775424,3308.4,-298.4285866873605,372.82142761775424,3438.4,-298.4285866873605,372.82142761775424,3557.5,-298.4285866873605,372.82142761775424,3671.5,-298.4285866873605,372.82142761775424,3797.2,-298.4285866873605,372.82142761775424,3915.9,-298.4285866873605,372.82142761775424,4016.1,-298.4285866873605,372.82142761775424,4122.9,-298.4285866873605,372.82142761775424,4226.3,-298.4285866873605,372.82142761775424,4339.3,-298.4285866873605,372.82142761775424,4448.3,-298.4285866873605,372.82142761775424,4571.8,-298.4285866873605,372.82142761775424,4682.9,-298.4285866873605,372.82142761775424,4793,-298.4285866873605,372.82142761775424,4909.6]","[1577.8,1577.8,1000,0,577.8,""smooth"",""left"",""left"",""good_move"",6128.9,4550,2090,1579,2459.9,""smooth"",""left"",""left"",""good_move"",12242.1,6112.9,1431,6129.2,4681.9,""smooth"",""up"",""up"",""good_move"",18514.2,6271.4,2477.9,12242.8,3793.5,""smooth"",""up"",""up"",""good_move""]","",""
"1455","","<div style=""width:500px;"">
  <p>What determined the result of this run?</p>
  </div>","26","html-slider-response","70","693775","0.0-5.0-1.12","153","1","2025-07-23 06:34:17","1f75c3e559b7213887762d5229550c2b","78.137.213.1","Mozilla/5.0 (Windows NT 10.0; Win64; x64) AppleWebKit/537.36 (KHTML, like Gecko) Chrome/138.0.0.0 Safari/537.36","WebKit","Chrome","138.0.0.0","Windows","10.0","https://app.prolific.com/","pt-PT,pt;q=0.9,en-US;q=0.8,en;q=0.7,es;q=0.6,de;q=0.5,it;q=0.4","66aea8fcd9cd711541bf63e5","683db9eb0562dbf637994deb","6880821d012ef9b969b5e475","2","1","66aea8fcd9cd711541bf63e5","2","1","2025-07-23T06:45:52.361Z","","","","","","","","","","","AttribQ","","50","","","","","","","","","","","","","","","","","","","","","","","","","","","","",""
"2812","","<div style=""width:500px;"">
  <p>How much control did you have over the ball?</p>
  </div>","74","html-slider-response","71","696595","0.0-5.0-2.12","153","1","2025-07-23 06:34:17","1f75c3e559b7213887762d5229550c2b","78.137.213.1","Mozilla/5.0 (Windows NT 10.0; Win64; x64) AppleWebKit/537.36 (KHTML, like Gecko) Chrome/138.0.0.0 Safari/537.36","WebKit","Chrome","138.0.0.0","Windows","10.0","https://app.prolific.com/","pt-PT,pt;q=0.9,en-US;q=0.8,en;q=0.7,es;q=0.6,de;q=0.5,it;q=0.4","66aea8fcd9cd711541bf63e5","683db9eb0562dbf637994deb","6880821d012ef9b969b5e475","2","1","66aea8fcd9cd711541bf63e5","2","1","2025-07-23T06:45:55.180Z","","","","","","","","","","","ControlQ","","50","","","","","","","","","","","","","","","","","","","","","","","","","","","","",""
"2260","","<div style=""width:500px;"">
  <p>How would you describe your current emotional state?</p>
  </div>","82","html-slider-response","72","698861","0.0-5.0-3.12","153","1","2025-07-23 06:34:17","1f75c3e559b7213887762d5229550c2b","78.137.213.1","Mozilla/5.0 (Windows NT 10.0; Win64; x64) AppleWebKit/537.36 (KHTML, like Gecko) Chrome/138.0.0.0 Safari/537.36","WebKit","Chrome","138.0.0.0","Windows","10.0","https://app.prolific.com/","pt-PT,pt;q=0.9,en-US;q=0.8,en;q=0.7,es;q=0.6,de;q=0.5,it;q=0.4","66aea8fcd9cd711541bf63e5","683db9eb0562dbf637994deb","6880821d012ef9b969b5e475","2","1","66aea8fcd9cd711541bf63e5","2","1","2025-07-23T06:45:57.446Z","","","","","","","","","","","StressQ","","50","","","","","","","","","","","","","","","","","","","","","","","","","","","","",""
"2413","","<div style=""width:500px;"">
  <p>What best describes how you currently feel?</p>
  </div>","0","html-slider-response","73","701279","0.0-5.0-4.12","153","1","2025-07-23 06:34:17","1f75c3e559b7213887762d5229550c2b","78.137.213.1","Mozilla/5.0 (Windows NT 10.0; Win64; x64) AppleWebKit/537.36 (KHTML, like Gecko) Chrome/138.0.0.0 Safari/537.36","WebKit","Chrome","138.0.0.0","Windows","10.0","https://app.prolific.com/","pt-PT,pt;q=0.9,en-US;q=0.8,en;q=0.7,es;q=0.6,de;q=0.5,it;q=0.4","66aea8fcd9cd711541bf63e5","683db9eb0562dbf637994deb","6880821d012ef9b969b5e475","2","1","66aea8fcd9cd711541bf63e5","2","1","2025-07-23T06:45:59.864Z","","","","","","","","","","","MotivationQ","","50","","","","","","","","","","","","","","","","","","","","","","","","","","","","",""
"","","","","ctl-task-cpt","74","728884","0.0-5.0-0.13","153","1","2025-07-23 06:34:17","1f75c3e559b7213887762d5229550c2b","78.137.213.1","Mozilla/5.0 (Windows NT 10.0; Win64; x64) AppleWebKit/537.36 (KHTML, like Gecko) Chrome/138.0.0.0 Safari/537.36","WebKit","Chrome","138.0.0.0","Windows","10.0","https://app.prolific.com/","pt-PT,pt;q=0.9,en-US;q=0.8,en;q=0.7,es;q=0.6,de;q=0.5,it;q=0.4","66aea8fcd9cd711541bf63e5","683db9eb0562dbf637994deb","6880821d012ef9b969b5e475","2","1","66aea8fcd9cd711541bf63e5","2","1","2025-07-23T06:46:27.470Z","","","","","","","","","","","","","","win-only","3","g1:SW,g2:NE","0.8","14","0","703030.1","1030.3","6053.8","24570.5","1","4","8","6","1","1","1","42","41","0.3181818181818182","1401.4","3000","2385","[""down"",""left""]","{""num_key_presses"":4,""num_perfect"":3,""num_errors"":0,""num_randdir"":1,""num_randdir_good_moves"":1,""num_whilered"":0,""num_whileblue"":0,""num_blue"":2,""num_good_moves"":4}","[416.5714133126395,416.57142761775424,0.8,416.5714133126395,416.57142761775424,134.9,416.5714133126395,416.57142761775424,248.9,416.5714133126395,416.57142761775424,356.5,416.5714133126395,416.57142761775424,483.8,416.5714133126395,416.57142761775424,595.4,416.5714133126395,416.57142761775424,712.9,279.0714133126395,531.5714276177542,843.5,184.0714133126395,629.0714276177542,972.8,169.0714133126395,639.0714276177542,1097.5,40.32141331263951,726.5714276177542,1230.1,27.821413312639507,734.0714276177542,1349.8,27.821413312639507,734.0714276177542,1487.3,27.821413312639507,734.0714276177542,1597.9,27.821413312639507,734.0714276177542,1721.6,-324.6785866873605,646.5714276177542,1841.6,-335.9285866873605,645.3214276177542,1965.2,-335.9285866873605,645.3214276177542,2080.5,-335.9285866873605,645.3214276177542,2210.1,-335.9285866873605,645.3214276177542,2323.7,-335.9285866873605,645.3214276177542,2435.7,-335.9285866873605,645.3214276177542,2556.7,-335.9285866873605,645.3214276177542,2672.6,-335.9285866873605,645.3214276177542,2785.8,-335.9285866873605,645.3214276177542,2904.1,-335.9285866873605,645.3214276177542,3022,-335.9285866873605,645.3214276177542,3142.7,-335.9285866873605,645.3214276177542,3257,-335.9285866873605,645.3214276177542,3377.7,-335.9285866873605,645.3214276177542,3490.7,-335.9285866873605,645.3214276177542,3610.3,-335.9285866873605,645.3214276177542,3727.9,-335.9285866873605,645.3214276177542,3842.4,-335.9285866873605,645.3214276177542,3963.9,-335.9285866873605,645.3214276177542,4080.3,-335.9285866873605,645.3214276177542,4205.8,-335.9285866873605,645.3214276177542,4323.9,-335.9285866873605,645.3214276177542,4433.4,-335.9285866873605,645.3214276177542,4558,-335.9285866873605,645.3214276177542,4671,-335.9285866873605,645.3214276177542,4787.6,-335.9285866873605,645.3214276177542,4906.4]","[1624.6,1624.6,1000,0,624.6,""smooth"",""left"",""left"",""good_move"",8445.7,6819.2,2133.6,5764.2,547.9,""smooth"",""left"",""left"",""good_move"",12101.1,3654.5,3205.3,8446.6,449.2,""oops"",""down"",""down"",""good_move"",18241.3,6139.2,2412.8,15316.6,511.9,""smooth"",""down"",""down"",""good_move""]","",""
"3247","","<div style=""width:500px;"">
  <p>What determined the result of this run?</p>
