"rt","response_timestamp","stimulus","response","trial_type","trial_index","time_elapsed","internal_node_id","run_id","condition","recorded_at","source_code_version","ip","user_agent","device","browser","browser_version","platform","platform_version","referer","accept_language","PROLIFIC_PID","STUDY_ID","SESSION_ID","WEEK","prolific_id","week","realtime","success","responses","item_order","radio_event_ids","radio_event_times","key_event_times","mouse_event_times","straightlining","zigzagging","honeypot","eventType","view_history","slider_start","which_type","canvas_config","goals_layout","control_level","trial_number","tutorial_trial_number","trial_start_time","phase1_start_time","phase2_start_time","phase3_start_time","goal_1_value","goal_1_distance","goal_2_value","goal_2_distance","goal_selected","outcome","outcome_total","participant_final_score","participant_initial_score","participant_final_score_prop","goal_choice_rt","allocated_time","allocated_time_remaining","goal_direction","counts","mouse_movements","key_presses","question_order","question_id"
"57349","1752050391927","<p style='font-size:40px;line-height:1.25'><strong>Welcome to the experiment!</strong></p><p style='font-size:1.1em;line-height:1.25'>Thank you for participanting in our experiment again! You will be asked to play the Dysfunctional Ball Game again. We will briefly recap the rules before we start.</p><p style='font-size:1.1em;line-height:1.25'>Press <strong>Next</strong> to continue.</p>","0","custom-html-button-response","0","57353","0.0-0.0","5","1","2025-07-09 08:38:54","01610cd0009c79a99da7d0a3353eb402","41.193.169.17","Mozilla/5.0 (Windows NT 10.0; Win64; x64) AppleWebKit/537.36 (KHTML, like Gecko) Chrome/137.0.0.0 Safari/537.36","WebKit","Chrome","137.0.0.0","Windows","10.0","https://app.prolific.com/","en-US,en;q=0.9,ar;q=0.8,ja;q=0.7","66a4f108a03ede09bb40255c","683db7602f5db6a34d12d064","686e2a78734006c000fbe9ed","1","66a4f108a03ede09bb40255c","1","2025-07-09T08:39:51.928Z","","","","","","","","","","","","","","","","","","","","","","","","","","","","","","","","","","","","","","","","","",""
"9361","","","","fullscreen","1","67729","0.0-1.0","5","1","2025-07-09 08:38:54","01610cd0009c79a99da7d0a3353eb402","41.193.169.17","Mozilla/5.0 (Windows NT 10.0; Win64; x64) AppleWebKit/537.36 (KHTML, like Gecko) Chrome/137.0.0.0 Safari/537.36","WebKit","Chrome","137.0.0.0","Windows","10.0","https://app.prolific.com/","en-US,en;q=0.9,ar;q=0.8,ja;q=0.7","66a4f108a03ede09bb40255c","683db7602f5db6a34d12d064","686e2a78734006c000fbe9ed","1","66a4f108a03ede09bb40255c","1","","true","","","","","","","","","","","","","","","","","","","","","","","","","","","","","","","","","","","","","","","","",""
"3786","1752050406091","<p style='font-size:1.1em;line-height:1.25'>In the following, we will ask you a few questions relating to your feelings in the last 24 hours.<br></p><p style='font-size:1.1em;line-height:1.25'>Press the <strong>Next</strong> button to continue.</p>","0","custom-html-button-response","2","71517","0.0-2.0-0.0","5","1","2025-07-09 08:38:54","01610cd0009c79a99da7d0a3353eb402","41.193.169.17","Mozilla/5.0 (Windows NT 10.0; Win64; x64) AppleWebKit/537.36 (KHTML, like Gecko) Chrome/137.0.0.0 Safari/537.36","WebKit","Chrome","137.0.0.0","Windows","10.0","https://app.prolific.com/","en-US,en;q=0.9,ar;q=0.8,ja;q=0.7","66a4f108a03ede09bb40255c","683db7602f5db6a34d12d064","686e2a78734006c000fbe9ed","1","66a4f108a03ede09bb40255c","1","2025-07-09T08:40:06.092Z","","","","","","","","","","","","","","","","","","","","","","","","","","","","","","","","","","","","","","","","","",""
"315248.59999990463","","","","survey-template","3","386771","0.0-2.0-1.0","5","1","2025-07-09 08:38:54","01610cd0009c79a99da7d0a3353eb402","41.193.169.17","Mozilla/5.0 (Windows NT 10.0; Win64; x64) AppleWebKit/537.36 (KHTML, like Gecko) Chrome/137.0.0.0 Safari/537.36","WebKit","Chrome","137.0.0.0","Windows","10.0","https://app.prolific.com/","en-US,en;q=0.9,ar;q=0.8,ja;q=0.7","66a4f108a03ede09bb40255c","683db7602f5db6a34d12d064","686e2a78734006c000fbe9ed","1","66a4f108a03ede09bb40255c","1","2025-07-09T08:45:21.346Z","","{""Q01"":""0"",""Q02"":""0"",""Q03"":""0"",""Q04"":""0"",""Q05"":""2"",""Q06"":""1"",""Q07"":""2"",""Q08"":""1"",""Q09"":""0"",""Q10"":""0"",""Q11"":""3"",""Q12"":""2"",""Q13"":""5"",""Q14"":""5"",""Q15"":""4"",""Q16"":""1"",""Q17"":""2"",""Q18"":""0"",""Q19"":""2"",""Q20"":""0"",""Q21"":""0"",""Q22"":""0""}","[0,1,2,3,4,5,6,7,8,9,10,11,12,13,14,15,16,17,18,19,20,21]","[""Q01"",""Q02"",""Q03"",""Q04"",""Q05"",""Q06"",""Q07"",""Q08"",""Q09"",""Q10"",""Q11"",""Q12"",""Q13"",""Q14"",""Q15"",""Q16"",""Q17"",""Q18"",""Q20"",""Q21"",""Q22"",""Q19"",""Q19""]","[19493.799999952316,20708.099999904633,22077.299999952316,23183.099999904633,24946.699999928474,28013.5,31172.699999928474,35959.39999997616,38324.59999990463,40190.699999928474,42642,44940.89999997616,47387.299999952316,193139.09999990463,197372,228119.39999997616,233543,250366,267416,272016.59999990463,276180,312093.59999990463,313284.6999999285]","[]","[0.19999992847442627,19493.799999952316,20708.099999904633,22077.299999952316,23183.099999904633,24946.699999928474,28013.5,31172.699999928474,35959.39999997616,38324.59999990463,40190.699999928474,42642,44940.89999997616,47387.299999952316,193139.09999990463,197372,224803.39999997616,226286.19999992847,228119.39999997616,233543,250366,253017.79999995232,259962.19999992847,265746.39999997616,267416,270902.39999997616,272016.59999990463,276180,305582.6999999285,310494.5,312093.59999990463,313284.6999999285,315242.2999999523]","0.45454545454545453","0.3333333333333333","0","drsp","","","","","","","","","","","","","","","","","","","","","","","","","","","","","","",""
"18855.5","","","","survey-template","4","405628","0.0-2.0-2.0","5","1","2025-07-09 08:38:54","01610cd0009c79a99da7d0a3353eb402","41.193.169.17","Mozilla/5.0 (Windows NT 10.0; Win64; x64) AppleWebKit/537.36 (KHTML, like Gecko) Chrome/137.0.0.0 Safari/537.36","WebKit","Chrome","137.0.0.0","Windows","10.0","https://app.prolific.com/","en-US,en;q=0.9,ar;q=0.8,ja;q=0.7","66a4f108a03ede09bb40255c","683db7602f5db6a34d12d064","686e2a78734006c000fbe9ed","1","66a4f108a03ede09bb40255c","1","2025-07-09T08:45:40.203Z","","{""Q01"":""1"",""Q02"":""0"",""Q03"":""0""}","[0,1,2]","[""Q01"",""Q02"",""Q03""]","[4542.299999952316,11889.099999904633,16910.599999904633]","[]","[4542.299999952316,11889.099999904633,15806.5,16910.599999904633,18854.899999976158]","0.3333333333333333","0.5","0","stress","","","","","","","","","","","","","","","","","","","","","","","","","","","","","","",""
"174180","","","","instructions","5","579808","0.0-3.0-0.0","5","1","2025-07-09 08:38:54","01610cd0009c79a99da7d0a3353eb402","41.193.169.17","Mozilla/5.0 (Windows NT 10.0; Win64; x64) AppleWebKit/537.36 (KHTML, like Gecko) Chrome/137.0.0.0 Safari/537.36","WebKit","Chrome","137.0.0.0","Windows","10.0","https://app.prolific.com/","en-US,en;q=0.9,ar;q=0.8,ja;q=0.7","66a4f108a03ede09bb40255c","683db7602f5db6a34d12d064","686e2a78734006c000fbe9ed","1","66a4f108a03ede09bb40255c","1","","","","","","","","","","","","","[{""page_index"":0,""viewing_time"":174180}]","","","","","","","","","","","","","","","","","","","","","","","","","","","","","",""
"6702","","<p>Before you start with this game please answer the following three questions yourself. </p>
  <p>Through this game, we measure several aspects of your cognitive performance, such as reaction times, multi-tasking capabilities </p>
  <p>and the ability to assess the situation you are in.</p>
  <p></p>
  <p><b>How good do you usually are in such tasks?</b></p>","49","html-slider-response","6","586511","0.0-4.0-0.0","5","1","2025-07-09 08:38:54","01610cd0009c79a99da7d0a3353eb402","41.193.169.17","Mozilla/5.0 (Windows NT 10.0; Win64; x64) AppleWebKit/537.36 (KHTML, like Gecko) Chrome/137.0.0.0 Safari/537.36","WebKit","Chrome","137.0.0.0","Windows","10.0","https://app.prolific.com/","en-US,en;q=0.9,ar;q=0.8,ja;q=0.7","66a4f108a03ede09bb40255c","683db7602f5db6a34d12d064","686e2a78734006c000fbe9ed","1","66a4f108a03ede09bb40255c","1","2025-07-09T08:48:41.086Z","","","","","","","","","","","PreSkillQ","","50","","","","","","","","","","","","","","","","","","","","","","","","","","","","",""
"6594","","<div style=""width:500px;"">
  <p>How well do you think you will perform in this task compared to other participants?</p>
  </div>","49","html-slider-response","7","593106","0.0-4.0-1.0","5","1","2025-07-09 08:38:54","01610cd0009c79a99da7d0a3353eb402","41.193.169.17","Mozilla/5.0 (Windows NT 10.0; Win64; x64) AppleWebKit/537.36 (KHTML, like Gecko) Chrome/137.0.0.0 Safari/537.36","WebKit","Chrome","137.0.0.0","Windows","10.0","https://app.prolific.com/","en-US,en;q=0.9,ar;q=0.8,ja;q=0.7","66a4f108a03ede09bb40255c","683db7602f5db6a34d12d064","686e2a78734006c000fbe9ed","1","66a4f108a03ede09bb40255c","1","2025-07-09T08:48:47.682Z","","","","","","","","","","","PrePerfQ","","50","","","","","","","","","","","","","","","","","","","","","","","","","","","","",""
"6280","","<div style=""width:500px;"">
  <p>What best describes how you currently feel?</p>
  </div>","94","html-slider-response","8","599389","0.0-4.0-2.0","5","1","2025-07-09 08:38:54","01610cd0009c79a99da7d0a3353eb402","41.193.169.17","Mozilla/5.0 (Windows NT 10.0; Win64; x64) AppleWebKit/537.36 (KHTML, like Gecko) Chrome/137.0.0.0 Safari/537.36","WebKit","Chrome","137.0.0.0","Windows","10.0","https://app.prolific.com/","en-US,en;q=0.9,ar;q=0.8,ja;q=0.7","66a4f108a03ede09bb40255c","683db7602f5db6a34d12d064","686e2a78734006c000fbe9ed","1","66a4f108a03ede09bb40255c","1","2025-07-09T08:48:53.964Z","","","","","","","","","","","PreMotivationQ","","50","","","","","","","","","","","","","","","","","","","","","","","","","","","","",""
"","","","","ctl-task-cpt","9","639980","0.0-5.0-0.0","5","1","2025-07-09 08:38:54","01610cd0009c79a99da7d0a3353eb402","41.193.169.17","Mozilla/5.0 (Windows NT 10.0; Win64; x64) AppleWebKit/537.36 (KHTML, like Gecko) Chrome/137.0.0.0 Safari/537.36","WebKit","Chrome","137.0.0.0","Windows","10.0","https://app.prolific.com/","en-US,en;q=0.9,ar;q=0.8,ja;q=0.7","66a4f108a03ede09bb40255c","683db7602f5db6a34d12d064","686e2a78734006c000fbe9ed","1","66a4f108a03ede09bb40255c","1","2025-07-09T08:49:34.555Z","","","","","","","","","","","","","","win-only","3","g1:SW,g2:NE","1","1","0","601387.8","3232.5","8236.4","37583.6","1","4","4","6","1","1","0","0","0","0","5003.8","3000","935","[""down"",""left""]","{""num_key_presses"":5,""num_perfect"":4,""num_errors"":1,""num_randdir"":0,""num_randdir_good_moves"":0,""num_whilered"":0,""num_whileblue"":0,""num_blue"":5,""num_good_moves"":4}","[418.07142857142856,414.6808016640799,0.2,418.07142857142856,414.6808016640799,103.8,418.07142857142856,414.6808016640799,208.3,418.07142857142856,414.6808016640799,314.4,418.07142857142856,414.6808016640799,417.8,418.07142857142856,414.6808016640799,517.8,418.07142857142856,414.6808016640799,617.8,418.07142857142856,414.6808016640799,717.9,418.07142857142856,414.6808016640799,818.2,418.07142857142856,414.6808016640799,924.3,418.07142857142856,414.6808016640799,1028.8,418.07142857142856,414.6808016640799,1129,418.07142857142856,414.6808016640799,1234.4,418.07142857142856,414.6808016640799,1334.6,418.07142857142856,414.6808016640799,1438.5,418.07142857142856,414.6808016640799,1543.9,418.07142857142856,414.6808016640799,1644.2,418.07142857142856,414.6808016640799,1748.4,418.07142857142856,414.6808016640799,1848.9,418.07142857142856,414.6808016640799,1952.8,418.07142857142856,414.6808016640799,2053.4,418.07142857142856,414.6808016640799,2154.4,418.07142857142856,414.6808016640799,2258.3,418.07142857142856,414.6808016640799,2358.5,418.07142857142856,414.6808016640799,2464,418.07142857142856,414.6808016640799,2567.9,418.07142857142856,414.6808016640799,2668,418.07142857142856,414.6808016640799,2768,418.07142857142856,414.6808016640799,2873.6,418.07142857142856,414.6808016640799,2980,418.07142857142856,414.6808016640799,3084,418.07142857142856,414.6808016640799,3187.9,418.07142857142856,414.6808016640799,3288,418.07142857142856,414.6808016640799,3388.8,418.07142857142856,414.6808016640799,3493.3,418.07142857142856,414.6808016640799,3593.8,418.07142857142856,414.6808016640799,3694.5,418.07142857142856,414.6808016640799,3798.6,418.07142857142856,414.6808016640799,3903.8,418.07142857142856,414.6808016640799,4008.9,418.07142857142856,414.6808016640799,4113.7,418.07142857142856,414.6808016640799,4218,418.07142857142856,414.6808016640799,4318.3,418.07142857142856,414.6808016640799,4423.2,418.07142857142856,414.6808016640799,4528.9,418.07142857142856,414.6808016640799,4630,418.07142857142856,414.6808016640799,4734.6,418.07142857142856,414.6808016640799,4838.2,418.07142857142856,414.6808016640799,4938.7]","[353.2,353.2,1000,0,-646.8,""error"",""-"",""-"",""no_move"",8310,7956.6,2813.6,4699.6,796.9,""smooth"",""down"",""down"",""good_move"",14327,6016.3,2195,11579.2,552.8,""smooth"",""down"",""down"",""good_move"",19979.8,5652.7,2070.6,17534.3,374.9,""smooth"",""left"",""left"",""good_move"",29203.5,9223.4,2180.9,26549.6,473,""smooth"",""left"",""left"",""good_move""]","",""
"7079","","<div style=""width:500px;"">
  <p>What determined the result of this run?</p>
  </div>","100","html-slider-response","10","647060","0.0-5.0-1.0","5","1","2025-07-09 08:38:54","01610cd0009c79a99da7d0a3353eb402","41.193.169.17","Mozilla/5.0 (Windows NT 10.0; Win64; x64) AppleWebKit/537.36 (KHTML, like Gecko) Chrome/137.0.0.0 Safari/537.36","WebKit","Chrome","137.0.0.0","Windows","10.0","https://app.prolific.com/","en-US,en;q=0.9,ar;q=0.8,ja;q=0.7","66a4f108a03ede09bb40255c","683db7602f5db6a34d12d064","686e2a78734006c000fbe9ed","1","66a4f108a03ede09bb40255c","1","2025-07-09T08:49:41.635Z","","","","","","","","","","","AttribQ","","50","","","","","","","","","","","","","","","","","","","","","","","","","","","","",""
"7207","","<div style=""width:500px;"">
  <p>How much control did you have over the ball?</p>
  </div>","100","html-slider-response","11","654268","0.0-5.0-2.0","5","1","2025-07-09 08:38:54","01610cd0009c79a99da7d0a3353eb402","41.193.169.17","Mozilla/5.0 (Windows NT 10.0; Win64; x64) AppleWebKit/537.36 (KHTML, like Gecko) Chrome/137.0.0.0 Safari/537.36","WebKit","Chrome","137.0.0.0","Windows","10.0","https://app.prolific.com/","en-US,en;q=0.9,ar;q=0.8,ja;q=0.7","66a4f108a03ede09bb40255c","683db7602f5db6a34d12d064","686e2a78734006c000fbe9ed","1","66a4f108a03ede09bb40255c","1","2025-07-09T08:49:48.843Z","","","","","","","","","","","ControlQ","","50","","","","","","","","","","","","","","","","","","","","","","","","","","","","",""
"5991","","<div style=""width:500px;"">
  <p>How would you describe your current emotional state?</p>
  </div>","0","html-slider-response","12","660261","0.0-5.0-3.0","5","1","2025-07-09 08:38:54","01610cd0009c79a99da7d0a3353eb402","41.193.169.17","Mozilla/5.0 (Windows NT 10.0; Win64; x64) AppleWebKit/537.36 (KHTML, like Gecko) Chrome/137.0.0.0 Safari/537.36","WebKit","Chrome","137.0.0.0","Windows","10.0","https://app.prolific.com/","en-US,en;q=0.9,ar;q=0.8,ja;q=0.7","66a4f108a03ede09bb40255c","683db7602f5db6a34d12d064","686e2a78734006c000fbe9ed","1","66a4f108a03ede09bb40255c","1","2025-07-09T08:49:54.836Z","","","","","","","","","","","StressQ","","50","","","","","","","","","","","","","","","","","","","","","","","","","","","","",""
"4541","","<div style=""width:500px;"">
  <p>What best describes how you currently feel?</p>
  </div>","100","html-slider-response","13","664804","0.0-5.0-4.0","5","1","2025-07-09 08:38:54","01610cd0009c79a99da7d0a3353eb402","41.193.169.17","Mozilla/5.0 (Windows NT 10.0; Win64; x64) AppleWebKit/537.36 (KHTML, like Gecko) Chrome/137.0.0.0 Safari/537.36","WebKit","Chrome","137.0.0.0","Windows","10.0","https://app.prolific.com/","en-US,en;q=0.9,ar;q=0.8,ja;q=0.7","66a4f108a03ede09bb40255c","683db7602f5db6a34d12d064","686e2a78734006c000fbe9ed","1","66a4f108a03ede09bb40255c","1","2025-07-09T08:49:59.379Z","","","","","","","","","","","MotivationQ","","50","","","","","","","","","","","","","","","","","","","","","","","","","","","","",""
"","","","","ctl-task-cpt","14","691674","0.0-5.0-0.1","5","1","2025-07-09 08:38:54","01610cd0009c79a99da7d0a3353eb402","41.193.169.17","Mozilla/5.0 (Windows NT 10.0; Win64; x64) AppleWebKit/537.36 (KHTML, like Gecko) Chrome/137.0.0.0 Safari/537.36","WebKit","Chrome","137.0.0.0","Windows","10.0","https://app.prolific.com/","en-US,en;q=0.9,ar;q=0.8,ja;q=0.7","66a4f108a03ede09bb40255c","683db7602f5db6a34d12d064","686e2a78734006c000fbe9ed","1","66a4f108a03ede09bb40255c","1","2025-07-09T08:50:26.249Z","","","","","","","","","","","","","","win-only","2","g1:SE,g2:NW","0.9","2","0","666801.9","4832.4","9835.8","23861.8","1","4","8","6","2","-8","-8","0","0","0","5003.4","3000","-2690","[""left"",""up""]","{""num_key_presses"":4,""num_perfect"":3,""num_errors"":0,""num_randdir"":1,""num_randdir_good_moves"":1,""num_whilered"":0,""num_whileblue"":0,""num_blue"":0,""num_good_moves"":4}","[415.07142857142856,414.6808016640799,0.2,415.07142857142856,414.6808016640799,104,415.07142857142856,414.6808016640799,209.4,415.07142857142856,414.6808016640799,314.8,415.07142857142856,414.6808016640799,414.9,415.07142857142856,414.6808016640799,515.2,415.07142857142856,414.6808016640799,615.5,415.07142857142856,414.6808016640799,718.7,415.07142857142856,414.6808016640799,823.7,415.07142857142856,414.6808016640799,931.7,415.07142857142856,414.6808016640799,1034,415.07142857142856,414.6808016640799,1134.2,415.07142857142856,414.6808016640799,1234.2,415.07142857142856,414.6808016640799,1334.5,415.07142857142856,414.6808016640799,1439,415.07142857142856,414.6808016640799,1548.7,415.07142857142856,414.6808016640799,1653.4,415.07142857142856,414.6808016640799,1758.9,415.07142857142856,414.6808016640799,1859.1,415.07142857142856,414.6808016640799,1959.4,415.07142857142856,414.6808016640799,2065.3,415.07142857142856,414.6808016640799,2168.1,415.07142857142856,414.6808016640799,2268.5,415.07142857142856,414.6808016640799,2368.7,415.07142857142856,414.6808016640799,2469,415.07142857142856,414.6808016640799,2573,415.07142857142856,414.6808016640799,2673.7,415.07142857142856,414.6808016640799,2780.8,415.07142857142856,414.6808016640799,2881.4,415.07142857142856,414.6808016640799,2983.8,415.07142857142856,414.6808016640799,3084,415.07142857142856,414.6808016640799,3188.5,415.07142857142856,414.6808016640799,3288.6,415.07142857142856,414.6808016640799,3398.8,415.07142857142856,414.6808016640799,3504,415.07142857142856,414.6808016640799,3608,415.07142857142856,414.6808016640799,3715.4,415.07142857142856,414.6808016640799,3818,415.07142857142856,414.6808016640799,3918.5,415.07142857142856,414.6808016640799,4023.2,415.07142857142856,414.6808016640799,4124,415.07142857142856,414.6808016640799,4231.1,415.07142857142856,414.6808016640799,4331.8,415.07142857142856,414.6808016640799,4433.4,415.07142857142856,414.6808016640799,4534.1,415.07142857142856,414.6808016640799,4634.1,415.07142857142856,414.6808016640799,4738.3,415.07142857142856,414.6808016640799,4839.3,415.07142857142856,414.6808016640799,4948]","[2677.6,2677.6,1000,0,1677.6,""oops"",""up"",""up"",""good_move"",6060.7,3382.9,2817.2,2677.9,565.7,""smooth"",""up"",""up"",""good_move"",8743.5,2682.6,2108.7,6060.9,573.9,""smooth"",""up"",""up"",""good_move"",10959.5,2215.7,1827.1,8743.8,388.6,""smooth"",""left"",""left"",""good_move""]","",""
"6877","","<div style=""width:500px;"">
  <p>What determined the result of this run?</p>
  </div>","100","html-slider-response","15","698552","0.0-5.0-1.1","5","1","2025-07-09 08:38:54","01610cd0009c79a99da7d0a3353eb402","41.193.169.17","Mozilla/5.0 (Windows NT 10.0; Win64; x64) AppleWebKit/537.36 (KHTML, like Gecko) Chrome/137.0.0.0 Safari/537.36","WebKit","Chrome","137.0.0.0","Windows","10.0","https://app.prolific.com/","en-US,en;q=0.9,ar;q=0.8,ja;q=0.7","66a4f108a03ede09bb40255c","683db7602f5db6a34d12d064","686e2a78734006c000fbe9ed","1","66a4f108a03ede09bb40255c","1","2025-07-09T08:50:33.128Z","","","","","","","","","","","AttribQ","","50","","","","","","","","","","","","","","","","","","","","","","","","","","","","",""
"6587","","<div style=""width:500px;"">
  <p>How much control did you have over the ball?</p>
  </div>","100","html-slider-response","16","705141","0.0-5.0-2.1","5","1","2025-07-09 08:38:54","01610cd0009c79a99da7d0a3353eb402","41.193.169.17","Mozilla/5.0 (Windows NT 10.0; Win64; x64) AppleWebKit/537.36 (KHTML, like Gecko) Chrome/137.0.0.0 Safari/537.36","WebKit","Chrome","137.0.0.0","Windows","10.0","https://app.prolific.com/","en-US,en;q=0.9,ar;q=0.8,ja;q=0.7","66a4f108a03ede09bb40255c","683db7602f5db6a34d12d064","686e2a78734006c000fbe9ed","1","66a4f108a03ede09bb40255c","1","2025-07-09T08:50:39.716Z","","","","","","","","","","","ControlQ","","50","","","","","","","","","","","","","","","","","","","","","","","","","","","","",""
"7148","","<div style=""width:500px;"">
  <p>How would you describe your current emotional state?</p>
  </div>","0","html-slider-response","17","712291","0.0-5.0-3.1","5","1","2025-07-09 08:38:54","01610cd0009c79a99da7d0a3353eb402","41.193.169.17","Mozilla/5.0 (Windows NT 10.0; Win64; x64) AppleWebKit/537.36 (KHTML, like Gecko) Chrome/137.0.0.0 Safari/537.36","WebKit","Chrome","137.0.0.0","Windows","10.0","https://app.prolific.com/","en-US,en;q=0.9,ar;q=0.8,ja;q=0.7","66a4f108a03ede09bb40255c","683db7602f5db6a34d12d064","686e2a78734006c000fbe9ed","1","66a4f108a03ede09bb40255c","1","2025-07-09T08:50:46.866Z","","","","","","","","","","","StressQ","","50","","","","","","","","","","","","","","","","","","","","","","","","","","","","",""
"6277","","<div style=""width:500px;"">
  <p>What best describes how you currently feel?</p>
  </div>","100","html-slider-response","18","718570","0.0-5.0-4.1","5","1","2025-07-09 08:38:54","01610cd0009c79a99da7d0a3353eb402","41.193.169.17","Mozilla/5.0 (Windows NT 10.0; Win64; x64) AppleWebKit/537.36 (KHTML, like Gecko) Chrome/137.0.0.0 Safari/537.36","WebKit","Chrome","137.0.0.0","Windows","10.0","https://app.prolific.com/","en-US,en;q=0.9,ar;q=0.8,ja;q=0.7","66a4f108a03ede09bb40255c","683db7602f5db6a34d12d064","686e2a78734006c000fbe9ed","1","66a4f108a03ede09bb40255c","1","2025-07-09T08:50:53.145Z","","","","","","","","","","","MotivationQ","","50","","","","","","","","","","","","","","","","","","","","","","","","","","","","",""
"","","","","ctl-task-cpt","19","755379","0.0-5.0-0.2","5","1","2025-07-09 08:38:54","01610cd0009c79a99da7d0a3353eb402","41.193.169.17","Mozilla/5.0 (Windows NT 10.0; Win64; x64) AppleWebKit/537.36 (KHTML, like Gecko) Chrome/137.0.0.0 Safari/537.36","WebKit","Chrome","137.0.0.0","Windows","10.0","https://app.prolific.com/","en-US,en;q=0.9,ar;q=0.8,ja;q=0.7","66a4f108a03ede09bb40255c","683db7602f5db6a34d12d064","686e2a78734006c000fbe9ed","1","66a4f108a03ede09bb40255c","1","2025-07-09T08:51:29.954Z","","","","","","","","","","","","","","win-only","0","g1:NW,g2:SE","0.8","3","0","720568.2","3044.8","8045.3","33790.9","1","4","8","6","2","-8","-9","0","0","0","5000.5","3000","-2705","[""down"",""right""]","{""num_key_presses"":7,""num_perfect"":6,""num_errors"":1,""num_randdir"":0,""num_randdir_good_moves"":0,""num_whilered"":0,""num_whileblue"":1,""num_blue"":2,""num_good_moves"":4}","[418.07142857142856,420.6808016640799,0.1,418.07142857142856,420.6808016640799,101.4,418.07142857142856,420.6808016640799,206.4,418.07142857142856,420.6808016640799,315.2,418.07142857142856,420.6808016640799,416.5,418.07142857142856,420.6808016640799,520.6,418.07142857142856,420.6808016640799,625.7,418.07142857142856,420.6808016640799,726.3,418.07142857142856,420.6808016640799,831.5,418.07142857142856,420.6808016640799,931.6,418.07142857142856,420.6808016640799,1032.3,418.07142857142856,420.6808016640799,1135.3,418.07142857142856,420.6808016640799,1236.4,418.07142857142856,420.6808016640799,1340.6,418.07142857142856,420.6808016640799,1440.9,418.07142857142856,420.6808016640799,1541.3,418.07142857142856,420.6808016640799,1647.5,418.07142857142856,420.6808016640799,1748.6,418.07142857142856,420.6808016640799,1850.6,418.07142857142856,420.6808016640799,1956.4,418.07142857142856,420.6808016640799,2065.1,418.07142857142856,420.6808016640799,2165.5,418.07142857142856,420.6808016640799,2266.6,418.07142857142856,420.6808016640799,2370.7,418.07142857142856,420.6808016640799,2481.7,418.07142857142856,420.6808016640799,2586.3,418.07142857142856,420.6808016640799,2690.8,418.07142857142856,420.6808016640799,2791,418.07142857142856,420.6808016640799,2898.5,418.07142857142856,420.6808016640799,2998.7,418.07142857142856,420.6808016640799,3099.1,418.07142857142856,420.6808016640799,3200.5,418.07142857142856,420.6808016640799,3300.9,418.07142857142856,420.6808016640799,3400.9,418.07142857142856,420.6808016640799,3505.8,418.07142857142856,420.6808016640799,3614.9,418.07142857142856,420.6808016640799,3715.2,418.07142857142856,420.6808016640799,3815.4,418.07142857142856,420.6808016640799,3920.8,418.07142857142856,420.6808016640799,4021,418.07142857142856,420.6808016640799,4121,418.07142857142856,420.6808016640799,4221,418.07142857142856,420.6808016640799,4321.1,418.07142857142856,420.6808016640799,4431.5,418.07142857142856,420.6808016640799,4536.2,418.07142857142856,420.6808016640799,4636.6,418.07142857142856,420.6808016640799,4740.4,418.07142857142856,420.6808016640799,4841.1,418.07142857142856,420.6808016640799,4948]","[5630,5630,3172.5,2005.3,452.2,""smooth"",""up"",""up"",""bad_move"",8846.2,3215.9,2413,5630.3,802.9,""smooth"",""up"",""up"",""bad_move"",11229.3,2382.9,1963.4,8846.4,419.5,""smooth"",""left"",""left"",""bad_move"",14311.6,3082,2735.3,11229.6,346.7,""while_blue"",""left"",""right"",""good_move"",16885.9,2574.1,1926.1,14311.8,648,""smooth"",""down"",""down"",""good_move"",20044.4,3158.2,2696.9,16886.2,461.3,""smooth"",""down"",""down"",""good_move"",23149.2,3104.6,2721.9,20044.6,382.7,""smooth"",""right"",""right"",""good_move""]","",""
"9851","","<div style=""width:500px;"">
  <p>What determined the result of this run?</p>
  </div>","100","html-slider-response","20","765231","0.0-5.0-1.2","5","1","2025-07-09 08:38:54","01610cd0009c79a99da7d0a3353eb402","41.193.169.17","Mozilla/5.0 (Windows NT 10.0; Win64; x64) AppleWebKit/537.36 (KHTML, like Gecko) Chrome/137.0.0.0 Safari/537.36","WebKit","Chrome","137.0.0.0","Windows","10.0","https://app.prolific.com/","en-US,en;q=0.9,ar;q=0.8,ja;q=0.7","66a4f108a03ede09bb40255c","683db7602f5db6a34d12d064","686e2a78734006c000fbe9ed","1","66a4f108a03ede09bb40255c","1","2025-07-09T08:51:39.807Z","","","","","","","","","","","AttribQ","","50","","","","","","","","","","","","","","","","","","","","","","","","","","","","",""
"4181","","<div style=""width:500px;"">
  <p>How much control did you have over the ball?</p>
  </div>","0","html-slider-response","21","769414","0.0-5.0-2.2","5","1","2025-07-09 08:38:54","01610cd0009c79a99da7d0a3353eb402","41.193.169.17","Mozilla/5.0 (Windows NT 10.0; Win64; x64) AppleWebKit/537.36 (KHTML, like Gecko) Chrome/137.0.0.0 Safari/537.36","WebKit","Chrome","137.0.0.0","Windows","10.0","https://app.prolific.com/","en-US,en;q=0.9,ar;q=0.8,ja;q=0.7","66a4f108a03ede09bb40255c","683db7602f5db6a34d12d064","686e2a78734006c000fbe9ed","1","66a4f108a03ede09bb40255c","1","2025-07-09T08:51:43.989Z","","","","","","","","","","","ControlQ","","50","","","","","","","","","","","","","","","","","","","","","","","","","","","","",""
"7178","","<div style=""width:500px;"">
  <p>How would you describe your current emotional state?</p>
  </div>","0","html-slider-response","22","776593","0.0-5.0-3.2","5","1","2025-07-09 08:38:54","01610cd0009c79a99da7d0a3353eb402","41.193.169.17","Mozilla/5.0 (Windows NT 10.0; Win64; x64) AppleWebKit/537.36 (KHTML, like Gecko) Chrome/137.0.0.0 Safari/537.36","WebKit","Chrome","137.0.0.0","Windows","10.0","https://app.prolific.com/","en-US,en;q=0.9,ar;q=0.8,ja;q=0.7","66a4f108a03ede09bb40255c","683db7602f5db6a34d12d064","686e2a78734006c000fbe9ed","1","66a4f108a03ede09bb40255c","1","2025-07-09T08:51:51.168Z","","","","","","","","","","","StressQ","","50","","","","","","","","","","","","","","","","","","","","","","","","","","","","",""
"18404","","<div style=""width:500px;"">
  <p>What best describes how you currently feel?</p>
  </div>","100","html-slider-response","23","794998","0.0-5.0-4.2","5","1","2025-07-09 08:38:54","01610cd0009c79a99da7d0a3353eb402","41.193.169.17","Mozilla/5.0 (Windows NT 10.0; Win64; x64) AppleWebKit/537.36 (KHTML, like Gecko) Chrome/137.0.0.0 Safari/537.36","WebKit","Chrome","137.0.0.0","Windows","10.0","https://app.prolific.com/","en-US,en;q=0.9,ar;q=0.8,ja;q=0.7","66a4f108a03ede09bb40255c","683db7602f5db6a34d12d064","686e2a78734006c000fbe9ed","1","66a4f108a03ede09bb40255c","1","2025-07-09T08:52:09.574Z","","","","","","","","","","","MotivationQ","","50","","","","","","","","","","","","","","","","","","","","","","","","","","","","",""
"","","","","ctl-task-cpt","24","837604","0.0-5.0-0.3","5","1","2025-07-09 08:38:54","01610cd0009c79a99da7d0a3353eb402","41.193.169.17","Mozilla/5.0 (Windows NT 10.0; Win64; x64) AppleWebKit/537.36 (KHTML, like Gecko) Chrome/137.0.0.0 Safari/537.36","WebKit","Chrome","137.0.0.0","Windows","10.0","https://app.prolific.com/","en-US,en;q=0.9,ar;q=0.8,ja;q=0.7","66a4f108a03ede09bb40255c","683db7602f5db6a34d12d064","686e2a78734006c000fbe9ed","1","66a4f108a03ede09bb40255c","1","2025-07-09T08:52:52.179Z","","","","","","","","","","","","","","win-only","1","g1:NE,g2:SW","0.7","4","0","796999.5","2407.1","7410.8","39591.1","1","4","4","6","2","-4","-6","0","0","0","5003.7","3000","-2705","[""down"",""left""]","{""num_key_presses"":9,""num_perfect"":5,""num_errors"":2,""num_randdir"":2,""num_randdir_good_moves"":1,""num_whilered"":0,""num_whileblue"":2,""num_blue"":3,""num_good_moves"":6}","[419.57142857142856,410.1808016640799,0.3,419.57142857142856,410.1808016640799,104.1,419.57142857142856,410.1808016640799,212.7,419.57142857142856,410.1808016640799,313.7,419.57142857142856,410.1808016640799,413.8,419.57142857142856,410.1808016640799,518.2,419.57142857142856,410.1808016640799,619.1,419.57142857142856,410.1808016640799,724.2,419.57142857142856,410.1808016640799,829.6,419.57142857142856,410.1808016640799,930.5,419.57142857142856,410.1808016640799,1033.9,419.57142857142856,410.1808016640799,1134.4,419.57142857142856,410.1808016640799,1235,419.57142857142856,410.1808016640799,1339.2,419.57142857142856,410.1808016640799,1439.6,419.57142857142856,410.1808016640799,1546.8,419.57142857142856,410.1808016640799,1647.2,419.57142857142856,410.1808016640799,1748.6,419.57142857142856,410.1808016640799,1849,419.57142857142856,410.1808016640799,1953.4,419.57142857142856,410.1808016640799,2054.2,419.57142857142856,410.1808016640799,2154.3,419.57142857142856,410.1808016640799,2263.1,419.57142857142856,410.1808016640799,2369.4,419.57142857142856,410.1808016640799,2479.8,419.57142857142856,410.1808016640799,2579.8,419.57142857142856,410.1808016640799,2680.6,419.57142857142856,410.1808016640799,2784.3,419.57142857142856,410.1808016640799,2885,419.57142857142856,410.1808016640799,2989.3,419.57142857142856,410.1808016640799,3097.4,419.57142857142856,410.1808016640799,3199.4,419.57142857142856,410.1808016640799,3303.8,419.57142857142856,410.1808016640799,3404,419.57142857142856,410.1808016640799,3513.3,419.57142857142856,410.1808016640799,3618.8,419.57142857142856,410.1808016640799,3729.6,419.57142857142856,410.1808016640799,3830.3,419.57142857142856,410.1808016640799,3933.8,419.57142857142856,410.1808016640799,4034.3,419.57142857142856,410.1808016640799,4139.2,419.57142857142856,410.1808016640799,4246.7,419.57142857142856,410.1808016640799,4347.2,419.57142857142856,410.1808016640799,4448.9,419.57142857142856,410.1808016640799,4549,419.57142857142856,410.1808016640799,4653.5,419.57142857142856,410.1808016640799,4753.7,419.57142857142856,410.1808016640799,4854,419.57142857142856,410.1808016640799,4963.2]","[1565.4,1565.4,1000,0,565.4,""smooth"",""down"",""down"",""good_move"",4275.8,2710.2,2263.6,1565.6,446.6,""smooth"",""left"",""left"",""good_move"",7976,3699.8,3260.6,4276.2,439.2,""oops"",""left"",""right"",""bad_move"",15257.5,7281.2,2779.9,11945.4,532.2,""oops"",""down"",""down"",""good_move"",18798.6,3540.9,2944.2,15257.7,596.7,""smooth"",""down"",""down"",""good_move"",21829.9,3031.2,2629.9,18798.7,401.3,""smooth"",""left"",""left"",""good_move"",24799.9,2969.8,2611.8,21830.1,358,""smooth"",""left"",""left"",""good_move"",27077.8,2277.7,1973.4,24800.1,304.3,""while_blue"",""left"",""right"",""bad_move"",29788.8,2710.6,2345.1,27078.2,365.5,""while_blue"",""left"",""right"",""bad_move""]","",""
"7267","","<div style=""width:500px;"">
  <p>What determined the result of this run?</p>
  </div>","0","html-slider-response","25","844873","0.0-5.0-1.3","5","1","2025-07-09 08:38:54","01610cd0009c79a99da7d0a3353eb402","41.193.169.17","Mozilla/5.0 (Windows NT 10.0; Win64; x64) AppleWebKit/537.36 (KHTML, like Gecko) Chrome/137.0.0.0 Safari/537.36","WebKit","Chrome","137.0.0.0","Windows","10.0","https://app.prolific.com/","en-US,en;q=0.9,ar;q=0.8,ja;q=0.7","66a4f108a03ede09bb40255c","683db7602f5db6a34d12d064","686e2a78734006c000fbe9ed","1","66a4f108a03ede09bb40255c","1","2025-07-09T08:52:59.448Z","","","","","","","","","","","AttribQ","","50","","","","","","","","","","","","","","","","","","","","","","","","","","","","",""
"5956","","<div style=""width:500px;"">
  <p>How much control did you have over the ball?</p>
  </div>","100","html-slider-response","26","850830","0.0-5.0-2.3","5","1","2025-07-09 08:38:54","01610cd0009c79a99da7d0a3353eb402","41.193.169.17","Mozilla/5.0 (Windows NT 10.0; Win64; x64) AppleWebKit/537.36 (KHTML, like Gecko) Chrome/137.0.0.0 Safari/537.36","WebKit","Chrome","137.0.0.0","Windows","10.0","https://app.prolific.com/","en-US,en;q=0.9,ar;q=0.8,ja;q=0.7","66a4f108a03ede09bb40255c","683db7602f5db6a34d12d064","686e2a78734006c000fbe9ed","1","66a4f108a03ede09bb40255c","1","2025-07-09T08:53:05.405Z","","","","","","","","","","","ControlQ","","50","","","","","","","","","","","","","","","","","","","","","","","","","","","","",""
"12959","","<div style=""width:500px;"">
  <p>How would you describe your current emotional state?</p>
  </div>","0","html-slider-response","27","863790","0.0-5.0-3.3","5","1","2025-07-09 08:38:54","01610cd0009c79a99da7d0a3353eb402","41.193.169.17","Mozilla/5.0 (Windows NT 10.0; Win64; x64) AppleWebKit/537.36 (KHTML, like Gecko) Chrome/137.0.0.0 Safari/537.36","WebKit","Chrome","137.0.0.0","Windows","10.0","https://app.prolific.com/","en-US,en;q=0.9,ar;q=0.8,ja;q=0.7","66a4f108a03ede09bb40255c","683db7602f5db6a34d12d064","686e2a78734006c000fbe9ed","1","66a4f108a03ede09bb40255c","1","2025-07-09T08:53:18.365Z","","","","","","","","","","","StressQ","","50","","","","","","","","","","","","","","","","","","","","","","","","","","","","",""
"4508","","<div style=""width:500px;"">
  <p>What best describes how you currently feel?</p>
  </div>","100","html-slider-response","28","868299","0.0-5.0-4.3","5","1","2025-07-09 08:38:54","01610cd0009c79a99da7d0a3353eb402","41.193.169.17","Mozilla/5.0 (Windows NT 10.0; Win64; x64) AppleWebKit/537.36 (KHTML, like Gecko) Chrome/137.0.0.0 Safari/537.36","WebKit","Chrome","137.0.0.0","Windows","10.0","https://app.prolific.com/","en-US,en;q=0.9,ar;q=0.8,ja;q=0.7","66a4f108a03ede09bb40255c","683db7602f5db6a34d12d064","686e2a78734006c000fbe9ed","1","66a4f108a03ede09bb40255c","1","2025-07-09T08:53:22.874Z","","","","","","","","","","","MotivationQ","","50","","","","","","","","","","","","","","","","","","","","","","","","","","","","",""
"","","","","ctl-task-cpt","29","896899","0.0-5.0-0.4","5","1","2025-07-09 08:38:54","01610cd0009c79a99da7d0a3353eb402","41.193.169.17","Mozilla/5.0 (Windows NT 10.0; Win64; x64) AppleWebKit/537.36 (KHTML, like Gecko) Chrome/137.0.0.0 Safari/537.36","WebKit","Chrome","137.0.0.0","Windows","10.0","https://app.prolific.com/","en-US,en;q=0.9,ar;q=0.8,ja;q=0.7","66a4f108a03ede09bb40255c","683db7602f5db6a34d12d064","686e2a78734006c000fbe9ed","1","66a4f108a03ede09bb40255c","1","2025-07-09T08:53:51.474Z","","","","","","","","","","","","","","win-only","0","g1:NW,g2:SE","0.6","5","0","870295.9","1799.7","6801.3","25575.7","1","4","4","6","2","-4","-4","0","0","0","5001.6","3000","-3015","[""down"",""right""]","{""num_key_presses"":5,""num_perfect"":4,""num_errors"":0,""num_randdir"":1,""num_randdir_good_moves"":0,""num_whilered"":0,""num_whileblue"":0,""num_blue"":1,""num_good_moves"":4}","[413.57142857142856,417.6808016640799,0.1,413.57142857142856,417.6808016640799,100.2,413.57142857142856,417.6808016640799,201.3,413.57142857142856,417.6808016640799,306.5,413.57142857142856,417.6808016640799,417.2,413.57142857142856,417.6808016640799,519.6,413.57142857142856,417.6808016640799,621.1,413.57142857142856,417.6808016640799,727.5,413.57142857142856,417.6808016640799,828.9,413.57142857142856,417.6808016640799,933.7,413.57142857142856,417.6808016640799,1034.2,413.57142857142856,417.6808016640799,1136.5,413.57142857142856,417.6808016640799,1240.5,413.57142857142856,417.6808016640799,1341.6,413.57142857142856,417.6808016640799,1449.6,413.57142857142856,417.6808016640799,1550.2,413.57142857142856,417.6808016640799,1650.4,413.57142857142856,417.6808016640799,1751.3,413.57142857142856,417.6808016640799,1851.3,413.57142857142856,417.6808016640799,1956.2,413.57142857142856,417.6808016640799,2056.7,413.57142857142856,417.6808016640799,2166.3,413.57142857142856,417.6808016640799,2271.3,413.57142857142856,417.6808016640799,2371.6,413.57142857142856,417.6808016640799,2476,413.57142857142856,417.6808016640799,2576.5,413.57142857142856,417.6808016640799,2684.3,413.57142857142856,417.6808016640799,2784.6,413.57142857142856,417.6808016640799,2886.6,413.57142857142856,417.6808016640799,2991.4,413.57142857142856,417.6808016640799,3091.7,413.57142857142856,417.6808016640799,3200.4,413.57142857142856,417.6808016640799,3300.4,413.57142857142856,417.6808016640799,3401.7,413.57142857142856,417.6808016640799,3506.9,413.57142857142856,417.6808016640799,3615.9,413.57142857142856,417.6808016640799,3719.4,413.57142857142856,417.6808016640799,3821.2,413.57142857142856,417.6808016640799,3921.3,413.57142857142856,417.6808016640799,4025.6,413.57142857142856,417.6808016640799,4133.8,413.57142857142856,417.6808016640799,4235.7,413.57142857142856,417.6808016640799,4337.3,413.57142857142856,417.6808016640799,4441,413.57142857142856,417.6808016640799,4541.3,413.57142857142856,417.6808016640799,4641.5,413.57142857142856,417.6808016640799,4750,413.57142857142856,417.6808016640799,4850.9,413.57142857142856,417.6808016640799,4956.9]","[1580.6,1580.6,1000,0,580.6,""smooth"",""down"",""down"",""good_move"",4254.6,2673.6,2216.3,1581,457.3,""smooth"",""right"",""right"",""good_move"",10531,6276.1,2503,7681.3,346.7,""smooth"",""right"",""right"",""good_move"",13405.7,2874.5,2112.1,10531.2,762.4,""oops"",""right"",""up"",""bad_move"",16521.5,3115.5,2261.1,13406,854.4,""smooth"",""right"",""right"",""good_move""]","",""
"5066","","<div style=""width:500px;"">
  <p>What determined the result of this run?</p>
  </div>","0","html-slider-response","30","901966","0.0-5.0-1.4","5","1","2025-07-09 08:38:54","01610cd0009c79a99da7d0a3353eb402","41.193.169.17","Mozilla/5.0 (Windows NT 10.0; Win64; x64) AppleWebKit/537.36 (KHTML, like Gecko) Chrome/137.0.0.0 Safari/537.36","WebKit","Chrome","137.0.0.0","Windows","10.0","https://app.prolific.com/","en-US,en;q=0.9,ar;q=0.8,ja;q=0.7","66a4f108a03ede09bb40255c","683db7602f5db6a34d12d064","686e2a78734006c000fbe9ed","1","66a4f108a03ede09bb40255c","1","2025-07-09T08:53:56.541Z","","","","","","","","","","","AttribQ","","50","","","","","","","","","","","","","","","","","","","","","","","","","","","","",""
"51390","","<div style=""width:500px;"">
  <p>How much control did you have over the ball?</p>
  </div>","0","html-slider-response","31","953361","0.0-5.0-2.4","5","1","2025-07-09 08:38:54","01610cd0009c79a99da7d0a3353eb402","41.193.169.17","Mozilla/5.0 (Windows NT 10.0; Win64; x64) AppleWebKit/537.36 (KHTML, like Gecko) Chrome/137.0.0.0 Safari/537.36","WebKit","Chrome","137.0.0.0","Windows","10.0","https://app.prolific.com/","en-US,en;q=0.9,ar;q=0.8,ja;q=0.7","66a4f108a03ede09bb40255c","683db7602f5db6a34d12d064","686e2a78734006c000fbe9ed","1","66a4f108a03ede09bb40255c","1","2025-07-09T08:54:47.936Z","","","","","","","","","","","ControlQ","","50","","","","","","","","","","","","","","","","","","","","","","","","","","","","",""
"89413","","<div style=""width:500px;"">
  <p>How would you describe your current emotional state?</p>
  </div>","39","html-slider-response","32","1042780","0.0-5.0-3.4","5","1","2025-07-09 08:38:54","01610cd0009c79a99da7d0a3353eb402","41.193.169.17","Mozilla/5.0 (Windows NT 10.0; Win64; x64) AppleWebKit/537.36 (KHTML, like Gecko) Chrome/137.0.0.0 Safari/537.36","WebKit","Chrome","137.0.0.0","Windows","10.0","https://app.prolific.com/","en-US,en;q=0.9,ar;q=0.8,ja;q=0.7","66a4f108a03ede09bb40255c","683db7602f5db6a34d12d064","686e2a78734006c000fbe9ed","1","66a4f108a03ede09bb40255c","1","2025-07-09T08:56:17.355Z","","","","","","","","","","","StressQ","","50","","","","","","","","","","","","","","","","","","","","","","","","","","","","",""
"11720","","<div style=""width:500px;"">
  <p>What best describes how you currently feel?</p>
  </div>","100","html-slider-response","33","1054502","0.0-5.0-4.4","5","1","2025-07-09 08:38:54","01610cd0009c79a99da7d0a3353eb402","41.193.169.17","Mozilla/5.0 (Windows NT 10.0; Win64; x64) AppleWebKit/537.36 (KHTML, like Gecko) Chrome/137.0.0.0 Safari/537.36","WebKit","Chrome","137.0.0.0","Windows","10.0","https://app.prolific.com/","en-US,en;q=0.9,ar;q=0.8,ja;q=0.7","66a4f108a03ede09bb40255c","683db7602f5db6a34d12d064","686e2a78734006c000fbe9ed","1","66a4f108a03ede09bb40255c","1","2025-07-09T08:56:29.077Z","","","","","","","","","","","MotivationQ","","50","","","","","","","","","","","","","","","","","","","","","","","","","","","","",""
"","","","","ctl-task-cpt","34","1083223","0.0-5.0-0.5","5","1","2025-07-09 08:38:54","01610cd0009c79a99da7d0a3353eb402","41.193.169.17","Mozilla/5.0 (Windows NT 10.0; Win64; x64) AppleWebKit/537.36 (KHTML, like Gecko) Chrome/137.0.0.0 Safari/537.36","WebKit","Chrome","137.0.0.0","Windows","10.0","https://app.prolific.com/","en-US,en;q=0.9,ar;q=0.8,ja;q=0.7","66a4f108a03ede09bb40255c","683db7602f5db6a34d12d064","686e2a78734006c000fbe9ed","1","66a4f108a03ede09bb40255c","1","2025-07-09T08:56:57.798Z","","","","","","","","","","","","","","win-only","1","g1:NE,g2:SW","0.5","6","0","1056500.9","5247.6","10260","25707.7","1","4","8","6","2","8","8","8","0","0.06060606060606061","5012.4","3000","375","[""down"",""left""]","{""num_key_presses"":6,""num_perfect"":2,""num_errors"":0,""num_randdir"":4,""num_randdir_good_moves"":4,""num_whilered"":0,""num_whileblue"":0,""num_blue"":0,""num_good_moves"":6}","[416.57142857142856,411.6808016640799,0.3,416.57142857142856,411.6808016640799,101.9,416.57142857142856,411.6808016640799,209.4,416.57142857142856,411.6808016640799,313.8,416.57142857142856,411.6808016640799,420.4,416.57142857142856,411.6808016640799,526.5,416.57142857142856,411.6808016640799,627.2,416.57142857142856,411.6808016640799,729.7,422.57142857142856,374.1808016640799,832,434.57142857142856,332.1808016640799,934.8,436.07142857142856,326.1808016640799,1034.8,437.57142857142856,321.6808016640799,1138.8,437.57142857142856,321.6808016640799,1243.4,437.57142857142856,321.6808016640799,1345.5,437.57142857142856,321.6808016640799,1449.2,437.57142857142856,321.6808016640799,1557.2,437.57142857142856,321.6808016640799,1659.7,437.57142857142856,321.6808016640799,1768.8,437.57142857142856,321.6808016640799,1878.4,437.57142857142856,321.6808016640799,1978.4,437.57142857142856,321.6808016640799,2083.7,437.57142857142856,321.6808016640799,2188.5,437.57142857142856,321.6808016640799,2293.4,437.57142857142856,321.6808016640799,2393.6,437.57142857142856,321.6808016640799,2500.6,437.57142857142856,321.6808016640799,2610.3,437.57142857142856,321.6808016640799,2719.2,437.57142857142856,321.6808016640799,2820.6,437.57142857142856,321.6808016640799,2925.6,437.57142857142856,321.6808016640799,3028.6,437.57142857142856,321.6808016640799,3129.6,437.57142857142856,321.6808016640799,3229.8,437.57142857142856,321.6808016640799,3331,437.57142857142856,321.6808016640799,3435.8,437.57142857142856,321.6808016640799,3537.9,437.57142857142856,321.6808016640799,3638.5,437.57142857142856,321.6808016640799,3738.8,437.57142857142856,321.6808016640799,3839.6,437.57142857142856,321.6808016640799,3944,437.57142857142856,321.6808016640799,4045.9,437.57142857142856,321.6808016640799,4148.7,437.57142857142856,321.6808016640799,4253.5,437.57142857142856,321.6808016640799,4355.5,437.57142857142856,321.6808016640799,4460.8,437.57142857142856,321.6808016640799,4562.7,437.57142857142856,321.6808016640799,4663.4,437.57142857142856,321.6808016640799,4766.6,437.57142857142856,321.6808016640799,4871.1,437.57142857142856,321.6808016640799,4978]","[1689,1689,1000,0,689,""oops"",""down"",""left"",""good_move"",4928.1,3238.4,2296.6,1689.7,941.8,""oops"",""down"",""left"",""good_move"",7393.8,2465.4,1941.4,4928.4,524,""oops"",""down"",""left"",""good_move"",10038.4,2643.8,2171.2,7394.7,472.5,""smooth"",""down"",""down"",""good_move"",12795.5,2756.7,2229.2,10038.8,527.5,""smooth"",""down"",""down"",""good_move"",15336.8,2541.2,2097.6,12795.6,443.6,""oops"",""down"",""down"",""good_move""]","",""
"8463","","<div style=""width:500px;"">
  <p>What determined the result of this run?</p>
  </div>","100","html-slider-response","35","1091687","0.0-5.0-1.5","5","1","2025-07-09 08:38:54","01610cd0009c79a99da7d0a3353eb402","41.193.169.17","Mozilla/5.0 (Windows NT 10.0; Win64; x64) AppleWebKit/537.36 (KHTML, like Gecko) Chrome/137.0.0.0 Safari/537.36","WebKit","Chrome","137.0.0.0","Windows","10.0","https://app.prolific.com/","en-US,en;q=0.9,ar;q=0.8,ja;q=0.7","66a4f108a03ede09bb40255c","683db7602f5db6a34d12d064","686e2a78734006c000fbe9ed","1","66a4f108a03ede09bb40255c","1","2025-07-09T08:57:06.262Z","","","","","","","","","","","AttribQ","","50","","","","","","","","","","","","","","","","","","","","","","","","","","","","",""
"5334","","<div style=""width:500px;"">
  <p>How much control did you have over the ball?</p>
  </div>","100","html-slider-response","36","1097024","0.0-5.0-2.5","5","1","2025-07-09 08:38:54","01610cd0009c79a99da7d0a3353eb402","41.193.169.17","Mozilla/5.0 (Windows NT 10.0; Win64; x64) AppleWebKit/537.36 (KHTML, like Gecko) Chrome/137.0.0.0 Safari/537.36","WebKit","Chrome","137.0.0.0","Windows","10.0","https://app.prolific.com/","en-US,en;q=0.9,ar;q=0.8,ja;q=0.7","66a4f108a03ede09bb40255c","683db7602f5db6a34d12d064","686e2a78734006c000fbe9ed","1","66a4f108a03ede09bb40255c","1","2025-07-09T08:57:11.599Z","","","","","","","","","","","ControlQ","","50","","","","","","","","","","","","","","","","","","","","","","","","","","","","",""
"9602","","<div style=""width:500px;"">
  <p>How would you describe your current emotional state?</p>
  </div>","0","html-slider-response","37","1106628","0.0-5.0-3.5","5","1","2025-07-09 08:38:54","01610cd0009c79a99da7d0a3353eb402","41.193.169.17","Mozilla/5.0 (Windows NT 10.0; Win64; x64) AppleWebKit/537.36 (KHTML, like Gecko) Chrome/137.0.0.0 Safari/537.36","WebKit","Chrome","137.0.0.0","Windows","10.0","https://app.prolific.com/","en-US,en;q=0.9,ar;q=0.8,ja;q=0.7","66a4f108a03ede09bb40255c","683db7602f5db6a34d12d064","686e2a78734006c000fbe9ed","1","66a4f108a03ede09bb40255c","1","2025-07-09T08:57:21.203Z","","","","","","","","","","","StressQ","","50","","","","","","","","","","","","","","","","","","","","","","","","","","","","",""
"16890","","<div style=""width:500px;"">
  <p>What best describes how you currently feel?</p>
  </div>","100","html-slider-response","38","1123522","0.0-5.0-4.5","5","1","2025-07-09 08:38:54","01610cd0009c79a99da7d0a3353eb402","41.193.169.17","Mozilla/5.0 (Windows NT 10.0; Win64; x64) AppleWebKit/537.36 (KHTML, like Gecko) Chrome/137.0.0.0 Safari/537.36","WebKit","Chrome","137.0.0.0","Windows","10.0","https://app.prolific.com/","en-US,en;q=0.9,ar;q=0.8,ja;q=0.7","66a4f108a03ede09bb40255c","683db7602f5db6a34d12d064","686e2a78734006c000fbe9ed","1","66a4f108a03ede09bb40255c","1","2025-07-09T08:57:38.097Z","","","","","","","","","","","MotivationQ","","50","","","","","","","","","","","","","","","","","","","","","","","","","","","","",""
"","","","","ctl-task-cpt","39","1159186","0.0-5.0-0.6","5","1","2025-07-09 08:38:54","01610cd0009c79a99da7d0a3353eb402","41.193.169.17","Mozilla/5.0 (Windows NT 10.0; Win64; x64) AppleWebKit/537.36 (KHTML, like Gecko) Chrome/137.0.0.0 Safari/537.36","WebKit","Chrome","137.0.0.0","Windows","10.0","https://app.prolific.com/","en-US,en;q=0.9,ar;q=0.8,ja;q=0.7","66a4f108a03ede09bb40255c","683db7602f5db6a34d12d064","686e2a78734006c000fbe9ed","1","66a4f108a03ede09bb40255c","1","2025-07-09T08:58:13.761Z","","","","","","","","","","","","","","win-only","0","g1:NW,g2:SE","0.4","7","0","1125527.5","2212","7219.6","32639.3","1","4","4","6","2","-4","-5","3","8","0.022727272727272728","5007.6","3000","-2200","[""down"",""right""]","{""num_key_presses"":8,""num_perfect"":3,""num_errors"":1,""num_randdir"":4,""num_randdir_good_moves"":2,""num_whilered"":0,""num_whileblue"":0,""num_blue"":0,""num_good_moves"":5}","[419.57142857142856,410.1808016640799,0.3,419.57142857142856,410.1808016640799,107.6,419.57142857142856,410.1808016640799,207.8,419.57142857142856,410.1808016640799,312.8,419.57142857142856,410.1808016640799,416.9,419.57142857142856,410.1808016640799,520.6,419.57142857142856,410.1808016640799,630,419.57142857142856,410.1808016640799,734.2,419.57142857142856,410.1808016640799,839.1,419.57142857142856,410.1808016640799,945.6,419.57142857142856,410.1808016640799,1048.3,419.57142857142856,410.1808016640799,1149.2,419.57142857142856,410.1808016640799,1259.3,419.57142857142856,410.1808016640799,1363.3,419.57142857142856,410.1808016640799,1464.9,419.57142857142856,410.1808016640799,1568.9,419.57142857142856,410.1808016640799,1670.2,419.57142857142856,410.1808016640799,1774.4,419.57142857142856,410.1808016640799,1881.3,419.57142857142856,410.1808016640799,1987.7,419.57142857142856,410.1808016640799,2097.6,419.57142857142856,410.1808016640799,2202.1,419.57142857142856,410.1808016640799,2312.9,419.57142857142856,410.1808016640799,2414.2,419.57142857142856,410.1808016640799,2520.8,419.57142857142856,410.1808016640799,2623.5,419.57142857142856,410.1808016640799,2724.8,419.57142857142856,410.1808016640799,2831.9,419.57142857142856,410.1808016640799,2940.2,419.57142857142856,410.1808016640799,3042.1,419.57142857142856,410.1808016640799,3146.7,419.57142857142856,410.1808016640799,3248.7,419.57142857142856,410.1808016640799,3349,419.57142857142856,410.1808016640799,3449.8,419.57142857142856,410.1808016640799,3555.7,419.57142857142856,410.1808016640799,3657.6,419.57142857142856,410.1808016640799,3764.9,419.57142857142856,410.1808016640799,3865,419.57142857142856,410.1808016640799,3973.9,419.57142857142856,410.1808016640799,4073.9,419.57142857142856,410.1808016640799,4178.8,419.57142857142856,410.1808016640799,4286.4,419.57142857142856,410.1808016640799,4391.5,419.57142857142856,410.1808016640799,4492.3,419.57142857142856,410.1808016640799,4594.5,419.57142857142856,410.1808016640799,4696.4,419.57142857142856,410.1808016640799,4805.3,419.57142857142856,410.1808016640799,4905.6]","[807.5,807.6,1000,0,-192.4,""error"",""-"",""-"",""no_move"",4537.3,3729.4,1984.3,1809.8,743.2,""smooth"",""down"",""down"",""good_move"",7610.6,3072.2,2355.7,4538.4,716.5,""oops"",""down"",""up"",""bad_move"",10917.5,3306.3,2771.1,7611.2,535.2,""oops"",""right"",""right"",""good_move"",14137.9,3220,2762,10917.9,458,""smooth"",""right"",""right"",""good_move"",16833.9,2695.7,2290.6,14138.2,405.1,""oops"",""right"",""up"",""bad_move"",19140.4,2305.5,1508.2,16834.9,797.3,""smooth"",""right"",""right"",""good_move"",21967.2,2826.5,2413.5,19140.7,413,""oops"",""down"",""down"",""good_move""]","",""
"3976","","<div style=""width:500px;"">
  <p>What determined the result of this run?</p>
  </div>","0","html-slider-response","40","1163165","0.0-5.0-1.6","5","1","2025-07-09 08:38:54","01610cd0009c79a99da7d0a3353eb402","41.193.169.17","Mozilla/5.0 (Windows NT 10.0; Win64; x64) AppleWebKit/537.36 (KHTML, like Gecko) Chrome/137.0.0.0 Safari/537.36","WebKit","Chrome","137.0.0.0","Windows","10.0","https://app.prolific.com/","en-US,en;q=0.9,ar;q=0.8,ja;q=0.7","66a4f108a03ede09bb40255c","683db7602f5db6a34d12d064","686e2a78734006c000fbe9ed","1","66a4f108a03ede09bb40255c","1","2025-07-09T08:58:17.740Z","","","","","","","","","","","AttribQ","","50","","","","","","","","","","","","","","","","","","","","","","","","","","","","",""
"4017","","<div style=""width:500px;"">
  <p>How much control did you have over the ball?</p>
  </div>","0","html-slider-response","41","1167185","0.0-5.0-2.6","5","1","2025-07-09 08:38:54","01610cd0009c79a99da7d0a3353eb402","41.193.169.17","Mozilla/5.0 (Windows NT 10.0; Win64; x64) AppleWebKit/537.36 (KHTML, like Gecko) Chrome/137.0.0.0 Safari/537.36","WebKit","Chrome","137.0.0.0","Windows","10.0","https://app.prolific.com/","en-US,en;q=0.9,ar;q=0.8,ja;q=0.7","66a4f108a03ede09bb40255c","683db7602f5db6a34d12d064","686e2a78734006c000fbe9ed","1","66a4f108a03ede09bb40255c","1","2025-07-09T08:58:21.760Z","","","","","","","","","","","ControlQ","","50","","","","","","","","","","","","","","","","","","","","","","","","","","","","",""
"4348","","<div style=""width:500px;"">
  <p>How would you describe your current emotional state?</p>
  </div>","3","html-slider-response","42","1171534","0.0-5.0-3.6","5","1","2025-07-09 08:38:54","01610cd0009c79a99da7d0a3353eb402","41.193.169.17","Mozilla/5.0 (Windows NT 10.0; Win64; x64) AppleWebKit/537.36 (KHTML, like Gecko) Chrome/137.0.0.0 Safari/537.36","WebKit","Chrome","137.0.0.0","Windows","10.0","https://app.prolific.com/","en-US,en;q=0.9,ar;q=0.8,ja;q=0.7","66a4f108a03ede09bb40255c","683db7602f5db6a34d12d064","686e2a78734006c000fbe9ed","1","66a4f108a03ede09bb40255c","1","2025-07-09T08:58:26.109Z","","","","","","","","","","","StressQ","","50","","","","","","","","","","","","","","","","","","","","","","","","","","","","",""
"5689","","<div style=""width:500px;"">
  <p>What best describes how you currently feel?</p>
  </div>","65","html-slider-response","43","1177225","0.0-5.0-4.6","5","1","2025-07-09 08:38:54","01610cd0009c79a99da7d0a3353eb402","41.193.169.17","Mozilla/5.0 (Windows NT 10.0; Win64; x64) AppleWebKit/537.36 (KHTML, like Gecko) Chrome/137.0.0.0 Safari/537.36","WebKit","Chrome","137.0.0.0","Windows","10.0","https://app.prolific.com/","en-US,en;q=0.9,ar;q=0.8,ja;q=0.7","66a4f108a03ede09bb40255c","683db7602f5db6a34d12d064","686e2a78734006c000fbe9ed","1","66a4f108a03ede09bb40255c","1","2025-07-09T08:58:31.800Z","","","","","","","","","","","MotivationQ","","50","","","","","","","","","","","","","","","","","","","","","","","","","","","","",""
"","","","","ctl-task-cpt","44","1216803","0.0-5.0-0.7","5","1","2025-07-09 08:38:54","01610cd0009c79a99da7d0a3353eb402","41.193.169.17","Mozilla/5.0 (Windows NT 10.0; Win64; x64) AppleWebKit/537.36 (KHTML, like Gecko) Chrome/137.0.0.0 Safari/537.36","WebKit","Chrome","137.0.0.0","Windows","10.0","https://app.prolific.com/","en-US,en;q=0.9,ar;q=0.8,ja;q=0.7","66a4f108a03ede09bb40255c","683db7602f5db6a34d12d064","686e2a78734006c000fbe9ed","1","66a4f108a03ede09bb40255c","1","2025-07-09T08:59:11.378Z","","","","","","","","","","","","","","win-only","3","g1:SW,g2:NE","0.3","8","0","1179223.1","4025.4","9027.3","36556.5","1","4","8","6","2","-8","-8","0","3","0","5001.9","3000","-2110","[""up"",""right""]","{""num_key_presses"":8,""num_perfect"":3,""num_errors"":0,""num_randdir"":5,""num_randdir_good_moves"":2,""num_whilered"":0,""num_whileblue"":0,""num_blue"":1,""num_good_moves"":4}","[422.57142857142856,410.1808016640799,0.3,422.57142857142856,410.1808016640799,101,422.57142857142856,410.1808016640799,201.4,422.57142857142856,410.1808016640799,307,422.57142857142856,410.1808016640799,420.8,422.57142857142856,410.1808016640799,527.3,422.57142857142856,410.1808016640799,635.1,422.57142857142856,410.1808016640799,738,422.57142857142856,410.1808016640799,841.4,422.57142857142856,410.1808016640799,950.1,422.57142857142856,410.1808016640799,1054.9,422.57142857142856,410.1808016640799,1157,422.57142857142856,410.1808016640799,1260.7,422.57142857142856,410.1808016640799,1368.3,422.57142857142856,410.1808016640799,1476.1,422.57142857142856,410.1808016640799,1578.3,422.57142857142856,410.1808016640799,1678.3,422.57142857142856,410.1808016640799,1781.9,422.57142857142856,410.1808016640799,1886.2,422.57142857142856,410.1808016640799,1987.9,422.57142857142856,410.1808016640799,2092.9,422.57142857142856,410.1808016640799,2195,422.57142857142856,410.1808016640799,2300.4,422.57142857142856,410.1808016640799,2401.4,422.57142857142856,410.1808016640799,2502.6,422.57142857142856,410.1808016640799,2606.2,422.57142857142856,410.1808016640799,2707.6,422.57142857142856,410.1808016640799,2807.7,422.57142857142856,410.1808016640799,2915.6,422.57142857142856,410.1808016640799,3020.2,422.57142857142856,410.1808016640799,3122.7,422.57142857142856,410.1808016640799,3225.7,422.57142857142856,410.1808016640799,3332.6,422.57142857142856,410.1808016640799,3435.8,422.57142857142856,410.1808016640799,3536,422.57142857142856,410.1808016640799,3643.2,422.57142857142856,410.1808016640799,3747,422.57142857142856,410.1808016640799,3850.5,422.57142857142856,410.1808016640799,3954,422.57142857142856,410.1808016640799,4066.6,422.57142857142856,410.1808016640799,4171.8,422.57142857142856,410.1808016640799,4276,422.57142857142856,410.1808016640799,4376.3,422.57142857142856,410.1808016640799,4484.5,422.57142857142856,410.1808016640799,4588.3,422.57142857142856,410.1808016640799,4691.8,422.57142857142856,410.1808016640799,4802.4,422.57142857142856,410.1808016640799,4909.3]","[2041,2041.1,1000,0,1041.1,""smooth"",""down"",""down"",""bad_move"",4426.4,2384.5,1920.3,2041.9,464.2,""smooth"",""up"",""up"",""good_move"",6864.8,2438.1,2074.9,4426.7,363.2,""oops"",""up"",""right"",""good_move"",9740,2874.3,2444,6865.7,430.3,""oops"",""up"",""down"",""bad_move"",12643.7,2903.2,2253.2,9740.5,650,""smooth"",""right"",""right"",""good_move"",19593.5,6949.6,2860.8,16328,404.7,""oops"",""right"",""right"",""good_move"",22292.3,2698.5,2235.1,19593.8,463.4,""oops"",""up"",""down"",""bad_move"",24907,2614.3,2034.4,22292.7,579.9,""oops"",""up"",""left"",""bad_move""]","",""
"9869","","<div style=""width:500px;"">
  <p>What determined the result of this run?</p>
  </div>","0","html-slider-response","45","1226674","0.0-5.0-1.7","5","1","2025-07-09 08:38:54","01610cd0009c79a99da7d0a3353eb402","41.193.169.17","Mozilla/5.0 (Windows NT 10.0; Win64; x64) AppleWebKit/537.36 (KHTML, like Gecko) Chrome/137.0.0.0 Safari/537.36","WebKit","Chrome","137.0.0.0","Windows","10.0","https://app.prolific.com/","en-US,en;q=0.9,ar;q=0.8,ja;q=0.7","66a4f108a03ede09bb40255c","683db7602f5db6a34d12d064","686e2a78734006c000fbe9ed","1","66a4f108a03ede09bb40255c","1","2025-07-09T08:59:21.249Z","","","","","","","","","","","AttribQ","","50","","","","","","","","","","","","","","","","","","","","","","","","","","","","",""
"3635","","<div style=""width:500px;"">
  <p>How much control did you have over the ball?</p>
  </div>","0","html-slider-response","46","1230312","0.0-5.0-2.7","5","1","2025-07-09 08:38:54","01610cd0009c79a99da7d0a3353eb402","41.193.169.17","Mozilla/5.0 (Windows NT 10.0; Win64; x64) AppleWebKit/537.36 (KHTML, like Gecko) Chrome/137.0.0.0 Safari/537.36","WebKit","Chrome","137.0.0.0","Windows","10.0","https://app.prolific.com/","en-US,en;q=0.9,ar;q=0.8,ja;q=0.7","66a4f108a03ede09bb40255c","683db7602f5db6a34d12d064","686e2a78734006c000fbe9ed","1","66a4f108a03ede09bb40255c","1","2025-07-09T08:59:24.887Z","","","","","","","","","","","ControlQ","","50","","","","","","","","","","","","","","","","","","","","","","","","","","","","",""
"18518","","<div style=""width:500px;"">
  <p>How would you describe your current emotional state?</p>
  </div>","0","html-slider-response","47","1248832","0.0-5.0-3.7","5","1","2025-07-09 08:38:54","01610cd0009c79a99da7d0a3353eb402","41.193.169.17","Mozilla/5.0 (Windows NT 10.0; Win64; x64) AppleWebKit/537.36 (KHTML, like Gecko) Chrome/137.0.0.0 Safari/537.36","WebKit","Chrome","137.0.0.0","Windows","10.0","https://app.prolific.com/","en-US,en;q=0.9,ar;q=0.8,ja;q=0.7","66a4f108a03ede09bb40255c","683db7602f5db6a34d12d064","686e2a78734006c000fbe9ed","1","66a4f108a03ede09bb40255c","1","2025-07-09T08:59:43.407Z","","","","","","","","","","","StressQ","","50","","","","","","","","","","","","","","","","","","","","","","","","","","","","",""
"8816","","<div style=""width:500px;"">
  <p>What best describes how you currently feel?</p>
  </div>","100","html-slider-response","48","1257650","0.0-5.0-4.7","5","1","2025-07-09 08:38:54","01610cd0009c79a99da7d0a3353eb402","41.193.169.17","Mozilla/5.0 (Windows NT 10.0; Win64; x64) AppleWebKit/537.36 (KHTML, like Gecko) Chrome/137.0.0.0 Safari/537.36","WebKit","Chrome","137.0.0.0","Windows","10.0","https://app.prolific.com/","en-US,en;q=0.9,ar;q=0.8,ja;q=0.7","66a4f108a03ede09bb40255c","683db7602f5db6a34d12d064","686e2a78734006c000fbe9ed","1","66a4f108a03ede09bb40255c","1","2025-07-09T08:59:52.226Z","","","","","","","","","","","MotivationQ","","50","","","","","","","","","","","","","","","","","","","","","","","","","","","","",""
"","","","","ctl-task-cpt","49","1293725","0.0-5.0-0.8","5","1","2025-07-09 08:38:54","01610cd0009c79a99da7d0a3353eb402","41.193.169.17","Mozilla/5.0 (Windows NT 10.0; Win64; x64) AppleWebKit/537.36 (KHTML, like Gecko) Chrome/137.0.0.0 Safari/537.36","WebKit","Chrome","137.0.0.0","Windows","10.0","https://app.prolific.com/","en-US,en;q=0.9,ar;q=0.8,ja;q=0.7","66a4f108a03ede09bb40255c","683db7602f5db6a34d12d064","686e2a78734006c000fbe9ed","1","66a4f108a03ede09bb40255c","1","2025-07-09T09:00:28.300Z","","","","","","","","","","","","","","win-only","2","g1:SE,g2:NW","0.2","9","0","1259652.9","4582.6","9585.6","33040.8","1","4","8","6","2","-8","-8","0","0","0","5003","3000","-2045","[""left"",""up""]","{""num_key_presses"":6,""num_perfect"":1,""num_errors"":0,""num_randdir"":5,""num_randdir_good_moves"":3,""num_whilered"":0,""num_whileblue"":0,""num_blue"":1,""num_good_moves"":4}","[418.07142857142856,414.6808016640799,0.3,418.07142857142856,414.6808016640799,105.8,418.07142857142856,414.6808016640799,206.2,418.07142857142856,414.6808016640799,313.5,418.07142857142856,414.6808016640799,420.2,418.07142857142856,414.6808016640799,520.7,418.07142857142856,414.6808016640799,631.6,418.07142857142856,414.6808016640799,738.6,437.57142857142856,479.1808016640799,839.1,458.57142857142856,599.1808016640799,952,458.57142857142856,599.1808016640799,1052,458.57142857142856,599.1808016640799,1161.4,458.57142857142856,599.1808016640799,1269.8,458.57142857142856,599.1808016640799,1374.8,458.57142857142856,599.1808016640799,1479.1,458.57142857142856,599.1808016640799,1579.1,458.57142857142856,599.1808016640799,1679.4,458.57142857142856,599.1808016640799,1784.8,458.57142857142856,599.1808016640799,1888.6,458.57142857142856,599.1808016640799,1989,458.57142857142856,599.1808016640799,2095.2,458.57142857142856,599.1808016640799,2199.7,458.57142857142856,599.1808016640799,2305,458.57142857142856,599.1808016640799,2422.6,458.57142857142856,599.1808016640799,2528.5,458.57142857142856,599.1808016640799,2629.7,458.57142857142856,599.1808016640799,2735.4,458.57142857142856,599.1808016640799,2838.4,458.57142857142856,599.1808016640799,2940.1,458.57142857142856,599.1808016640799,3048.5,458.57142857142856,599.1808016640799,3158.6,458.57142857142856,599.1808016640799,3261.7,458.57142857142856,599.1808016640799,3363.1,458.57142857142856,599.1808016640799,3472.8,458.57142857142856,599.1808016640799,3575.3,458.57142857142856,599.1808016640799,3686.7,458.57142857142856,599.1808016640799,3788.8,458.57142857142856,599.1808016640799,3889.1,458.57142857142856,599.1808016640799,3991.5,458.57142857142856,599.1808016640799,4092.2,458.57142857142856,599.1808016640799,4202.1,458.57142857142856,599.1808016640799,4302.6,458.57142857142856,599.1808016640799,4402.7,458.57142857142856,599.1808016640799,4502.8,458.57142857142856,599.1808016640799,4604,458.57142857142856,599.1808016640799,4704.2,458.57142857142856,599.1808016640799,4812.3,458.57142857142856,599.1808016640799,4914.2]","[4479.4,4479.4,1926.4,2011.4,541.6,""oops"",""up"",""left"",""good_move"",7563.3,3082.5,2513.3,4481,569,""oops"",""up"",""up"",""good_move"",11598.7,4035,3522,7563.7,513,""smooth"",""up"",""up"",""good_move"",14648.2,3048.8,2636.2,11599.4,412.6,""oops"",""up"",""right"",""bad_move"",18295.3,3646.4,2638.2,14648.9,1008.2,""oops"",""up"",""right"",""bad_move"",21500.7,3205.3,1899.1,18295.4,1306.2,""oops"",""up"",""up"",""good_move""]","",""
"4090","","<div style=""width:500px;"">
  <p>What determined the result of this run?</p>
  </div>","0","html-slider-response","50","1297816","0.0-5.0-1.8","5","1","2025-07-09 08:38:54","01610cd0009c79a99da7d0a3353eb402","41.193.169.17","Mozilla/5.0 (Windows NT 10.0; Win64; x64) AppleWebKit/537.36 (KHTML, like Gecko) Chrome/137.0.0.0 Safari/537.36","WebKit","Chrome","137.0.0.0","Windows","10.0","https://app.prolific.com/","en-US,en;q=0.9,ar;q=0.8,ja;q=0.7","66a4f108a03ede09bb40255c","683db7602f5db6a34d12d064","686e2a78734006c000fbe9ed","1","66a4f108a03ede09bb40255c","1","2025-07-09T09:00:32.391Z","","","","","","","","","","","AttribQ","","50","","","","","","","","","","","","","","","","","","","","","","","","","","","","",""
"10855","","<div style=""width:500px;"">
  <p>How much control did you have over the ball?</p>
  </div>","0","html-slider-response","51","1308673","0.0-5.0-2.8","5","1","2025-07-09 08:38:54","01610cd0009c79a99da7d0a3353eb402","41.193.169.17","Mozilla/5.0 (Windows NT 10.0; Win64; x64) AppleWebKit/537.36 (KHTML, like Gecko) Chrome/137.0.0.0 Safari/537.36","WebKit","Chrome","137.0.0.0","Windows","10.0","https://app.prolific.com/","en-US,en;q=0.9,ar;q=0.8,ja;q=0.7","66a4f108a03ede09bb40255c","683db7602f5db6a34d12d064","686e2a78734006c000fbe9ed","1","66a4f108a03ede09bb40255c","1","2025-07-09T09:00:43.248Z","","","","","","","","","","","ControlQ","","50","","","","","","","","","","","","","","","","","","","","","","","","","","","","",""
"4908","","<div style=""width:500px;"">
  <p>How would you describe your current emotional state?</p>
  </div>","0","html-slider-response","52","1313583","0.0-5.0-3.8","5","1","2025-07-09 08:38:54","01610cd0009c79a99da7d0a3353eb402","41.193.169.17","Mozilla/5.0 (Windows NT 10.0; Win64; x64) AppleWebKit/537.36 (KHTML, like Gecko) Chrome/137.0.0.0 Safari/537.36","WebKit","Chrome","137.0.0.0","Windows","10.0","https://app.prolific.com/","en-US,en;q=0.9,ar;q=0.8,ja;q=0.7","66a4f108a03ede09bb40255c","683db7602f5db6a34d12d064","686e2a78734006c000fbe9ed","1","66a4f108a03ede09bb40255c","1","2025-07-09T09:00:48.159Z","","","","","","","","","","","StressQ","","50","","","","","","","","","","","","","","","","","","","","","","","","","","","","",""
"20235","","<div style=""width:500px;"">
  <p>What best describes how you currently feel?</p>
  </div>","100","html-slider-response","53","1333820","0.0-5.0-4.8","5","1","2025-07-09 08:38:54","01610cd0009c79a99da7d0a3353eb402","41.193.169.17","Mozilla/5.0 (Windows NT 10.0; Win64; x64) AppleWebKit/537.36 (KHTML, like Gecko) Chrome/137.0.0.0 Safari/537.36","WebKit","Chrome","137.0.0.0","Windows","10.0","https://app.prolific.com/","en-US,en;q=0.9,ar;q=0.8,ja;q=0.7","66a4f108a03ede09bb40255c","683db7602f5db6a34d12d064","686e2a78734006c000fbe9ed","1","66a4f108a03ede09bb40255c","1","2025-07-09T09:01:08.395Z","","","","","","","","","","","MotivationQ","","50","","","","","","","","","","","","","","","","","","","","","","","","","","","","",""
"","","","","ctl-task-cpt","54","1361845","0.0-5.0-0.9","5","1","2025-07-09 08:38:54","01610cd0009c79a99da7d0a3353eb402","41.193.169.17","Mozilla/5.0 (Windows NT 10.0; Win64; x64) AppleWebKit/537.36 (KHTML, like Gecko) Chrome/137.0.0.0 Safari/537.36","WebKit","Chrome","137.0.0.0","Windows","10.0","https://app.prolific.com/","en-US,en;q=0.9,ar;q=0.8,ja;q=0.7","66a4f108a03ede09bb40255c","683db7602f5db6a34d12d064","686e2a78734006c000fbe9ed","1","66a4f108a03ede09bb40255c","1","2025-07-09T09:01:36.421Z","","","","","","","","","","","","","","win-only","1","g1:NE,g2:SW","0.4","10","0","1335821.7","1799.3","6800.3","25001.9","1","4","4","6","2","-4","-4","0","0","0","5001","3000","-2350","[""down"",""left""]","{""num_key_presses"":4,""num_perfect"":3,""num_errors"":0,""num_randdir"":1,""num_randdir_good_moves"":0,""num_whilered"":0,""num_whileblue"":0,""num_blue"":1,""num_good_moves"":3}","[409.07142857142856,411.6808016640799,0.2,409.07142857142856,411.6808016640799,102.5,409.07142857142856,411.6808016640799,202.5,409.07142857142856,411.6808016640799,302.5,409.07142857142856,411.6808016640799,410.7,409.07142857142856,411.6808016640799,515.6,409.07142857142856,411.6808016640799,617.1,409.07142857142856,411.6808016640799,717.3,409.07142857142856,411.6808016640799,829.4,409.07142857142856,411.6808016640799,936,409.07142857142856,411.6808016640799,1037.1,409.07142857142856,411.6808016640799,1139.5,409.07142857142856,411.6808016640799,1244.7,409.07142857142856,411.6808016640799,1349.9,409.07142857142856,411.6808016640799,1451.5,409.07142857142856,411.6808016640799,1556.6,409.07142857142856,411.6808016640799,1659,409.07142857142856,411.6808016640799,1767.7,409.07142857142856,411.6808016640799,1877.7,409.07142857142856,411.6808016640799,1983.3,409.07142857142856,411.6808016640799,2090.9,409.07142857142856,411.6808016640799,2193.2,409.07142857142856,411.6808016640799,2298.7,409.07142857142856,411.6808016640799,2400,409.07142857142856,411.6808016640799,2504.6,409.07142857142856,411.6808016640799,2610.6,409.07142857142856,411.6808016640799,2712.9,409.07142857142856,411.6808016640799,2817.4,409.07142857142856,411.6808016640799,2917.7,409.07142857142856,411.6808016640799,3026.2,409.07142857142856,411.6808016640799,3126.9,409.07142857142856,411.6808016640799,3233.3,409.07142857142856,411.6808016640799,3337.1,409.07142857142856,411.6808016640799,3437.7,409.07142857142856,411.6808016640799,3544.3,409.07142857142856,411.6808016640799,3647.6,409.07142857142856,411.6808016640799,3752.3,409.07142857142856,411.6808016640799,3864.1,409.07142857142856,411.6808016640799,3967.9,409.07142857142856,411.6808016640799,4073.6,409.07142857142856,411.6808016640799,4178.3,409.07142857142856,411.6808016640799,4294,409.07142857142856,411.6808016640799,4400.1,409.07142857142856,411.6808016640799,4510,409.07142857142856,411.6808016640799,4617.1,409.07142857142856,411.6808016640799,4726.5,409.07142857142856,411.6808016640799,4826.5,409.07142857142856,411.6808016640799,4932.9]","[3048.4,3048.4,1000,0,2048.4,""smooth"",""down"",""down"",""good_move"",6226.6,3177.7,2791.7,3048.9,386,""smooth"",""down"",""down"",""good_move"",8958,2731.1,1890.7,6226.9,840.4,""smooth"",""down"",""down"",""good_move"",14519.3,5561,2444.6,11644,430.7,""oops"",""left"",""right"",""bad_move""]","",""
"7535","","<div style=""width:500px;"">
  <p>What determined the result of this run?</p>
  </div>","0","html-slider-response","55","1369384","0.0-5.0-1.9","5","1","2025-07-09 08:38:54","01610cd0009c79a99da7d0a3353eb402","41.193.169.17","Mozilla/5.0 (Windows NT 10.0; Win64; x64) AppleWebKit/537.36 (KHTML, like Gecko) Chrome/137.0.0.0 Safari/537.36","WebKit","Chrome","137.0.0.0","Windows","10.0","https://app.prolific.com/","en-US,en;q=0.9,ar;q=0.8,ja;q=0.7","66a4f108a03ede09bb40255c","683db7602f5db6a34d12d064","686e2a78734006c000fbe9ed","1","66a4f108a03ede09bb40255c","1","2025-07-09T09:01:43.959Z","","","","","","","","","","","AttribQ","","50","","","","","","","","","","","","","","","","","","","","","","","","","","","","",""
"22210","","<div style=""width:500px;"">
  <p>How much control did you have over the ball?</p>
  </div>","0","html-slider-response","56","1391595","0.0-5.0-2.9","5","1","2025-07-09 08:38:54","01610cd0009c79a99da7d0a3353eb402","41.193.169.17","Mozilla/5.0 (Windows NT 10.0; Win64; x64) AppleWebKit/537.36 (KHTML, like Gecko) Chrome/137.0.0.0 Safari/537.36","WebKit","Chrome","137.0.0.0","Windows","10.0","https://app.prolific.com/","en-US,en;q=0.9,ar;q=0.8,ja;q=0.7","66a4f108a03ede09bb40255c","683db7602f5db6a34d12d064","686e2a78734006c000fbe9ed","1","66a4f108a03ede09bb40255c","1","2025-07-09T09:02:06.170Z","","","","","","","","","","","ControlQ","","50","","","","","","","","","","","","","","","","","","","","","","","","","","","","",""
"21728","","<div style=""width:500px;"">
  <p>How would you describe your current emotional state?</p>
  </div>","2","html-slider-response","57","1413327","0.0-5.0-3.9","5","1","2025-07-09 08:38:54","01610cd0009c79a99da7d0a3353eb402","41.193.169.17","Mozilla/5.0 (Windows NT 10.0; Win64; x64) AppleWebKit/537.36 (KHTML, like Gecko) Chrome/137.0.0.0 Safari/537.36","WebKit","Chrome","137.0.0.0","Windows","10.0","https://app.prolific.com/","en-US,en;q=0.9,ar;q=0.8,ja;q=0.7","66a4f108a03ede09bb40255c","683db7602f5db6a34d12d064","686e2a78734006c000fbe9ed","1","66a4f108a03ede09bb40255c","1","2025-07-09T09:02:27.902Z","","","","","","","","","","","StressQ","","50","","","","","","","","","","","","","","","","","","","","","","","","","","","","",""
"20631","","<div style=""width:500px;"">
  <p>What best describes how you currently feel?</p>
  </div>","2","html-slider-response","58","1433962","0.0-5.0-4.9","5","1","2025-07-09 08:38:54","01610cd0009c79a99da7d0a3353eb402","41.193.169.17","Mozilla/5.0 (Windows NT 10.0; Win64; x64) AppleWebKit/537.36 (KHTML, like Gecko) Chrome/137.0.0.0 Safari/537.36","WebKit","Chrome","137.0.0.0","Windows","10.0","https://app.prolific.com/","en-US,en;q=0.9,ar;q=0.8,ja;q=0.7","66a4f108a03ede09bb40255c","683db7602f5db6a34d12d064","686e2a78734006c000fbe9ed","1","66a4f108a03ede09bb40255c","1","2025-07-09T09:02:48.537Z","","","","","","","","","","","MotivationQ","","50","","","","","","","","","","","","","","","","","","","","","","","","","","","","",""
"","","","","ctl-task-cpt","59","1487906","0.0-5.0-0.10","5","1","2025-07-09 08:38:54","01610cd0009c79a99da7d0a3353eb402","41.193.169.17","Mozilla/5.0 (Windows NT 10.0; Win64; x64) AppleWebKit/537.36 (KHTML, like Gecko) Chrome/137.0.0.0 Safari/537.36","WebKit","Chrome","137.0.0.0","Windows","10.0","https://app.prolific.com/","en-US,en;q=0.9,ar;q=0.8,ja;q=0.7","66a4f108a03ede09bb40255c","683db7602f5db6a34d12d064","686e2a78734006c000fbe9ed","1","66a4f108a03ede09bb40255c","1","2025-07-09T09:03:42.481Z","","","","","","","","","","","","","","win-only","1","g1:NE,g2:SW","0.5","11","0","1435961","5137.8","10139.3","50918.1","1","4","8","6","1","-1","-2","0","0","0","5001.5","3000","-2410","[""up"",""right""]","{""num_key_presses"":8,""num_perfect"":4,""num_errors"":1,""num_randdir"":3,""num_randdir_good_moves"":1,""num_whilered"":0,""num_whileblue"":0,""num_blue"":4,""num_good_moves"":4}","[412.07142857142856,410.1808016640799,0.2,412.07142857142856,410.1808016640799,105.9,412.07142857142856,410.1808016640799,207,412.07142857142856,410.1808016640799,309.1,412.07142857142856,410.1808016640799,410.8,412.07142857142856,410.1808016640799,513.7,412.07142857142856,410.1808016640799,616.8,412.07142857142856,410.1808016640799,722.4,412.07142857142856,410.1808016640799,826,412.07142857142856,410.1808016640799,930.1,412.07142857142856,410.1808016640799,1030.6,412.07142857142856,410.1808016640799,1131.3,412.07142857142856,410.1808016640799,1232.2,412.07142857142856,410.1808016640799,1335.1,412.07142857142856,410.1808016640799,1435.4,412.07142857142856,410.1808016640799,1536.7,412.07142857142856,410.1808016640799,1641.2,412.07142857142856,410.1808016640799,1745.8,412.07142857142856,410.1808016640799,1846.6,412.07142857142856,410.1808016640799,1947.4,412.07142857142856,410.1808016640799,2047.4,412.07142857142856,410.1808016640799,2155.2,412.07142857142856,410.1808016640799,2260.9,412.07142857142856,410.1808016640799,2367.6,412.07142857142856,410.1808016640799,2471.6,412.07142857142856,410.1808016640799,2576.1,412.07142857142856,410.1808016640799,2688,412.07142857142856,410.1808016640799,2795.4,412.07142857142856,410.1808016640799,2895.9,412.07142857142856,410.1808016640799,2996.1,412.07142857142856,410.1808016640799,3096.5,412.07142857142856,410.1808016640799,3201.2,412.07142857142856,410.1808016640799,3309.2,412.07142857142856,410.1808016640799,3414.2,412.07142857142856,410.1808016640799,3520.1,412.07142857142856,410.1808016640799,3622.6,412.07142857142856,410.1808016640799,3725.3,412.07142857142856,410.1808016640799,3830.9,412.07142857142856,410.1808016640799,3933.5,412.07142857142856,410.1808016640799,4037.1,412.07142857142856,410.1808016640799,4139.4,412.07142857142856,410.1808016640799,4242.1,412.07142857142856,410.1808016640799,4345.6,412.07142857142856,410.1808016640799,4448.4,412.07142857142856,410.1808016640799,4548.5,412.07142857142856,410.1808016640799,4650.6,412.07142857142856,410.1808016640799,4752.1,412.07142857142856,410.1808016640799,4852.2,412.07142857142856,410.1808016640799,4957.3]","[925.3,925.3,1000,0,-74.7,""error"",""-"",""-"",""no_move"",15798.2,14872.6,2738.1,12476,584.1,""oops"",""right"",""down"",""bad_move"",21561.4,5762.9,1734,19284.5,542.9,""smooth"",""up"",""up"",""good_move"",25390,3828.2,3346.6,21561.8,481.6,""smooth"",""up"",""up"",""good_move"",28776,3385.8,2908.2,25390.3,477.5,""smooth"",""up"",""up"",""good_move"",31754.1,2977.8,2314.1,28776.3,663.7,""oops"",""right"",""right"",""good_move"",34829.7,3075.4,2580,31754.3,495.4,""oops"",""right"",""left"",""bad_move"",37802.9,2972,2432.9,34830.9,539.1,""smooth"",""left"",""left"",""bad_move""]","",""
"69979","","<div style=""width:500px;"">
  <p>What determined the result of this run?</p>
  </div>","0","html-slider-response","60","1557887","0.0-5.0-1.10","5","1","2025-07-09 08:38:54","01610cd0009c79a99da7d0a3353eb402","41.193.169.17","Mozilla/5.0 (Windows NT 10.0; Win64; x64) AppleWebKit/537.36 (KHTML, like Gecko) Chrome/137.0.0.0 Safari/537.36","WebKit","Chrome","137.0.0.0","Windows","10.0","https://app.prolific.com/","en-US,en;q=0.9,ar;q=0.8,ja;q=0.7","66a4f108a03ede09bb40255c","683db7602f5db6a34d12d064","686e2a78734006c000fbe9ed","1","66a4f108a03ede09bb40255c","1","2025-07-09T09:04:52.462Z","","","","","","","","","","","AttribQ","","50","","","","","","","","","","","","","","","","","","","","","","","","","","","","",""
"6857","","<div style=""width:500px;"">
  <p>How much control did you have over the ball?</p>
  </div>","19","html-slider-response","61","1564746","0.0-5.0-2.10","5","1","2025-07-09 08:38:54","01610cd0009c79a99da7d0a3353eb402","41.193.169.17","Mozilla/5.0 (Windows NT 10.0; Win64; x64) AppleWebKit/537.36 (KHTML, like Gecko) Chrome/137.0.0.0 Safari/537.36","WebKit","Chrome","137.0.0.0","Windows","10.0","https://app.prolific.com/","en-US,en;q=0.9,ar;q=0.8,ja;q=0.7","66a4f108a03ede09bb40255c","683db7602f5db6a34d12d064","686e2a78734006c000fbe9ed","1","66a4f108a03ede09bb40255c","1","2025-07-09T09:04:59.321Z","","","","","","","","","","","ControlQ","","50","","","","","","","","","","","","","","","","","","","","","","","","","","","","",""
"72158","","<div style=""width:500px;"">
  <p>How would you describe your current emotional state?</p>
  </div>","0","html-slider-response","62","1636904","0.0-5.0-3.10","5","1","2025-07-09 08:38:54","01610cd0009c79a99da7d0a3353eb402","41.193.169.17","Mozilla/5.0 (Windows NT 10.0; Win64; x64) AppleWebKit/537.36 (KHTML, like Gecko) Chrome/137.0.0.0 Safari/537.36","WebKit","Chrome","137.0.0.0","Windows","10.0","https://app.prolific.com/","en-US,en;q=0.9,ar;q=0.8,ja;q=0.7","66a4f108a03ede09bb40255c","683db7602f5db6a34d12d064","686e2a78734006c000fbe9ed","1","66a4f108a03ede09bb40255c","1","2025-07-09T09:06:11.480Z","","","","","","","","","","","StressQ","","50","","","","","","","","","","","","","","","","","","","","","","","","","","","","",""
"5658","","<div style=""width:500px;"">
  <p>What best describes how you currently feel?</p>
  </div>","78","html-slider-response","63","1642563","0.0-5.0-4.10","5","1","2025-07-09 08:38:54","01610cd0009c79a99da7d0a3353eb402","41.193.169.17","Mozilla/5.0 (Windows NT 10.0; Win64; x64) AppleWebKit/537.36 (KHTML, like Gecko) Chrome/137.0.0.0 Safari/537.36","WebKit","Chrome","137.0.0.0","Windows","10.0","https://app.prolific.com/","en-US,en;q=0.9,ar;q=0.8,ja;q=0.7","66a4f108a03ede09bb40255c","683db7602f5db6a34d12d064","686e2a78734006c000fbe9ed","1","66a4f108a03ede09bb40255c","1","2025-07-09T09:06:17.138Z","","","","","","","","","","","MotivationQ","","50","","","","","","","","","","","","","","","","","","","","","","","","","","","","",""
"","","","","ctl-task-cpt","64","1676238","0.0-5.0-0.11","5","1","2025-07-09 08:38:54","01610cd0009c79a99da7d0a3353eb402","41.193.169.17","Mozilla/5.0 (Windows NT 10.0; Win64; x64) AppleWebKit/537.36 (KHTML, like Gecko) Chrome/137.0.0.0 Safari/537.36","WebKit","Chrome","137.0.0.0","Windows","10.0","https://app.prolific.com/","en-US,en;q=0.9,ar;q=0.8,ja;q=0.7","66a4f108a03ede09bb40255c","683db7602f5db6a34d12d064","686e2a78734006c000fbe9ed","1","66a4f108a03ede09bb40255c","1","2025-07-09T09:06:50.813Z","","","","","","","","","","","","","","win-only","0","g1:NW,g2:SE","0.6","12","0","1644560.3","2465.1","7468.3","30653.6","1","4","4","6","2","-4","-4","0","0","0","5003.2","3000","-2800","[""down"",""right""]","{""num_key_presses"":5,""num_perfect"":3,""num_errors"":0,""num_randdir"":2,""num_randdir_good_moves"":1,""num_whilered"":0,""num_whileblue"":0,""num_blue"":2,""num_good_moves"":4}","[419.57142857142856,410.1808016640799,0.1,419.57142857142856,410.1808016640799,102.5,419.57142857142856,410.1808016640799,206.4,419.57142857142856,410.1808016640799,306.6,419.57142857142856,410.1808016640799,407.4,419.57142857142856,410.1808016640799,511.5,419.57142857142856,410.1808016640799,611.9,419.57142857142856,410.1808016640799,713.4,428.57142857142856,437.1808016640799,818.5,434.57142857142856,453.6808016640799,922.1,434.57142857142856,453.6808016640799,1026.1,434.57142857142856,453.6808016640799,1132.2,434.57142857142856,453.6808016640799,1234.2,434.57142857142856,453.6808016640799,1337.6,434.57142857142856,453.6808016640799,1441.2,434.57142857142856,453.6808016640799,1542.1,434.57142857142856,453.6808016640799,1647.1,434.57142857142856,453.6808016640799,1750.2,434.57142857142856,453.6808016640799,1851.3,434.57142857142856,453.6808016640799,1952.6,434.57142857142856,453.6808016640799,2052.8,434.57142857142856,453.6808016640799,2156,434.57142857142856,453.6808016640799,2257.6,434.57142857142856,453.6808016640799,2364.6,434.57142857142856,453.6808016640799,2469.4,434.57142857142856,453.6808016640799,2570.4,434.57142857142856,453.6808016640799,2674.4,434.57142857142856,453.6808016640799,2777.9,434.57142857142856,453.6808016640799,2878.4,434.57142857142856,453.6808016640799,2982.7,434.57142857142856,453.6808016640799,3083.4,434.57142857142856,453.6808016640799,3186.9,434.57142857142856,453.6808016640799,3291.4,434.57142857142856,453.6808016640799,3391.6,434.57142857142856,453.6808016640799,3498.2,434.57142857142856,453.6808016640799,3598.5,434.57142857142856,453.6808016640799,3698.8,434.57142857142856,453.6808016640799,3798.9,434.57142857142856,453.6808016640799,3901,434.57142857142856,453.6808016640799,4003,434.57142857142856,453.6808016640799,4106.9,434.57142857142856,453.6808016640799,4212.6,434.57142857142856,453.6808016640799,4317.5,434.57142857142856,453.6808016640799,4419.3,434.57142857142856,453.6808016640799,4520.2,434.57142857142856,453.6808016640799,4622.8,434.57142857142856,453.6808016640799,4722.8,434.57142857142856,453.6808016640799,4823,434.57142857142856,453.6808016640799,4929.6]","[1620.9,1620.9,1000,0,620.9,""smooth"",""down"",""down"",""good_move"",7999.4,6378.2,2456.7,5098.4,444.3,""oops"",""right"",""right"",""good_move"",10498,2498.4,1969.4,7999.6,529,""smooth"",""right"",""right"",""good_move"",17041.7,6543.5,2631.4,13926.1,484.2,""oops"",""right"",""up"",""bad_move"",20032.6,2990.5,2478,17042.1,512.5,""smooth"",""down"",""down"",""good_move""]","",""
"14189","","<div style=""width:500px;"">
  <p>What determined the result of this run?</p>
  </div>","0","html-slider-response","65","1690429","0.0-5.0-1.11","5","1","2025-07-09 08:38:54","01610cd0009c79a99da7d0a3353eb402","41.193.169.17","Mozilla/5.0 (Windows NT 10.0; Win64; x64) AppleWebKit/537.36 (KHTML, like Gecko) Chrome/137.0.0.0 Safari/537.36","WebKit","Chrome","137.0.0.0","Windows","10.0","https://app.prolific.com/","en-US,en;q=0.9,ar;q=0.8,ja;q=0.7","66a4f108a03ede09bb40255c","683db7602f5db6a34d12d064","686e2a78734006c000fbe9ed","1","66a4f108a03ede09bb40255c","1","2025-07-09T09:07:05.004Z","","","","","","","","","","","AttribQ","","50","","","","","","","","","","","","","","","","","","","","","","","","","","","","",""
"13645","","<div style=""width:500px;"">
  <p>How much control did you have over the ball?</p>
  </div>","0","html-slider-response","66","1704075","0.0-5.0-2.11","5","1","2025-07-09 08:38:54","01610cd0009c79a99da7d0a3353eb402","41.193.169.17","Mozilla/5.0 (Windows NT 10.0; Win64; x64) AppleWebKit/537.36 (KHTML, like Gecko) Chrome/137.0.0.0 Safari/537.36","WebKit","Chrome","137.0.0.0","Windows","10.0","https://app.prolific.com/","en-US,en;q=0.9,ar;q=0.8,ja;q=0.7","66a4f108a03ede09bb40255c","683db7602f5db6a34d12d064","686e2a78734006c000fbe9ed","1","66a4f108a03ede09bb40255c","1","2025-07-09T09:07:18.650Z","","","","","","","","","","","ControlQ","","50","","","","","","","","","","","","","","","","","","","","","","","","","","","","",""
"11000","","<div style=""width:500px;"">
  <p>How would you describe your current emotional state?</p>
  </div>","0","html-slider-response","67","1715076","0.0-5.0-3.11","5","1","2025-07-09 08:38:54","01610cd0009c79a99da7d0a3353eb402","41.193.169.17","Mozilla/5.0 (Windows NT 10.0; Win64; x64) AppleWebKit/537.36 (KHTML, like Gecko) Chrome/137.0.0.0 Safari/537.36","WebKit","Chrome","137.0.0.0","Windows","10.0","https://app.prolific.com/","en-US,en;q=0.9,ar;q=0.8,ja;q=0.7","66a4f108a03ede09bb40255c","683db7602f5db6a34d12d064","686e2a78734006c000fbe9ed","1","66a4f108a03ede09bb40255c","1","2025-07-09T09:07:29.651Z","","","","","","","","","","","StressQ","","50","","","","","","","","","","","","","","","","","","","","","","","","","","","","",""
"7342","","<div style=""width:500px;"">
  <p>What best describes how you currently feel?</p>
  </div>","100","html-slider-response","68","1722419","0.0-5.0-4.11","5","1","2025-07-09 08:38:54","01610cd0009c79a99da7d0a3353eb402","41.193.169.17","Mozilla/5.0 (Windows NT 10.0; Win64; x64) AppleWebKit/537.36 (KHTML, like Gecko) Chrome/137.0.0.0 Safari/537.36","WebKit","Chrome","137.0.0.0","Windows","10.0","https://app.prolific.com/","en-US,en;q=0.9,ar;q=0.8,ja;q=0.7","66a4f108a03ede09bb40255c","683db7602f5db6a34d12d064","686e2a78734006c000fbe9ed","1","66a4f108a03ede09bb40255c","1","2025-07-09T09:07:36.994Z","","","","","","","","","","","MotivationQ","","50","","","","","","","","","","","","","","","","","","","","","","","","","","","","",""
"","","","","ctl-task-cpt","69","1746265","0.0-5.0-0.12","5","1","2025-07-09 08:38:54","01610cd0009c79a99da7d0a3353eb402","41.193.169.17","Mozilla/5.0 (Windows NT 10.0; Win64; x64) AppleWebKit/537.36 (KHTML, like Gecko) Chrome/137.0.0.0 Safari/537.36","WebKit","Chrome","137.0.0.0","Windows","10.0","https://app.prolific.com/","en-US,en;q=0.9,ar;q=0.8,ja;q=0.7","66a4f108a03ede09bb40255c","683db7602f5db6a34d12d064","686e2a78734006c000fbe9ed","1","66a4f108a03ede09bb40255c","1","2025-07-09T09:08:00.840Z","","","","","","","","","","","","","","win-only","2","g1:SE,g2:NW","0.7","13","0","1724415.1","3331.6","8334.3","20821.9","1","4","8","6","1","1","1","1","0","0.007575757575757576","5002.7","3000","1150","[""down"",""right""]","{""num_key_presses"":4,""num_perfect"":4,""num_errors"":0,""num_randdir"":0,""num_randdir_good_moves"":0,""num_whilered"":0,""num_whileblue"":0,""num_blue"":0,""num_good_moves"":4}","[425.57142857142856,420.6808016640799,0.2,425.57142857142856,420.6808016640799,101.4,425.57142857142856,420.6808016640799,204.3,425.57142857142856,420.6808016640799,310.4,425.57142857142856,420.6808016640799,416.7,425.57142857142856,420.6808016640799,522.3,425.57142857142856,420.6808016640799,628.6,425.57142857142856,420.6808016640799,733.4,425.57142857142856,420.6808016640799,834.1,425.57142857142856,417.6808016640799,934.4,440.57142857142856,389.1808016640799,1044.3,451.07142857142856,369.6808016640799,1145,455.57142857142856,363.6808016640799,1255,457.07142857142856,362.1808016640799,1360,457.07142857142856,362.1808016640799,1462.9,457.07142857142856,362.1808016640799,1563,457.07142857142856,362.1808016640799,1669.6,457.07142857142856,362.1808016640799,1773.8,457.07142857142856,362.1808016640799,1877.1,457.07142857142856,362.1808016640799,1983.2,457.07142857142856,362.1808016640799,2088.1,457.07142857142856,362.1808016640799,2191.7,457.07142857142856,362.1808016640799,2291.9,457.07142857142856,362.1808016640799,2392.2,457.07142857142856,362.1808016640799,2492.3,457.07142857142856,362.1808016640799,2593.2,457.07142857142856,362.1808016640799,2693.5,457.07142857142856,362.1808016640799,2800.6,457.07142857142856,362.1808016640799,2905.9,457.07142857142856,362.1808016640799,3007.5,457.07142857142856,362.1808016640799,3115.1,457.07142857142856,362.1808016640799,3219,457.07142857142856,362.1808016640799,3319,457.07142857142856,362.1808016640799,3424.4,457.07142857142856,362.1808016640799,3526.4,457.07142857142856,362.1808016640799,3627.7,457.07142857142856,362.1808016640799,3729.9,457.07142857142856,362.1808016640799,3832.3,457.07142857142856,362.1808016640799,3936.7,457.07142857142856,362.1808016640799,4042.9,457.07142857142856,362.1808016640799,4147.8,457.07142857142856,362.1808016640799,4253.2,457.07142857142856,362.1808016640799,4357.5,457.07142857142856,362.1808016640799,4461.2,457.07142857142856,362.1808016640799,4563.8,457.07142857142856,362.1808016640799,4665.3,457.07142857142856,362.1808016640799,4767.5,457.07142857142856,362.1808016640799,4868,457.07142857142856,362.1808016640799,4972.5]","[2186.2,2186.2,1000,0,1186.2,""smooth"",""down"",""down"",""good_move"",5374.4,3187.9,2777.3,2186.5,410.6,""smooth"",""right"",""right"",""good_move"",9221.3,3846.6,3339.2,5374.7,507.4,""smooth"",""right"",""right"",""good_move"",12378,3156.5,2730.7,9221.5,425.8,""smooth"",""down"",""down"",""good_move""]","",""
"4007","","<div style=""width:500px;"">
  <p>What determined the result of this run?</p>
  </div>","100","html-slider-response","70","1750272","0.0-5.0-1.12","5","1","2025-07-09 08:38:54","01610cd0009c79a99da7d0a3353eb402","41.193.169.17","Mozilla/5.0 (Windows NT 10.0; Win64; x64) AppleWebKit/537.36 (KHTML, like Gecko) Chrome/137.0.0.0 Safari/537.36","WebKit","Chrome","137.0.0.0","Windows","10.0","https://app.prolific.com/","en-US,en;q=0.9,ar;q=0.8,ja;q=0.7","66a4f108a03ede09bb40255c","683db7602f5db6a34d12d064","686e2a78734006c000fbe9ed","1","66a4f108a03ede09bb40255c","1","2025-07-09T09:08:04.847Z","","","","","","","","","","","AttribQ","","50","","","","","","","","","","","","","","","","","","","","","","","","","","","","",""
"6697","","<div style=""width:500px;"">
  <p>How much control did you have over the ball?</p>
  </div>","100","html-slider-response","71","1756971","0.0-5.0-2.12","5","1","2025-07-09 08:38:54","01610cd0009c79a99da7d0a3353eb402","41.193.169.17","Mozilla/5.0 (Windows NT 10.0; Win64; x64) AppleWebKit/537.36 (KHTML, like Gecko) Chrome/137.0.0.0 Safari/537.36","WebKit","Chrome","137.0.0.0","Windows","10.0","https://app.prolific.com/","en-US,en;q=0.9,ar;q=0.8,ja;q=0.7","66a4f108a03ede09bb40255c","683db7602f5db6a34d12d064","686e2a78734006c000fbe9ed","1","66a4f108a03ede09bb40255c","1","2025-07-09T09:08:11.546Z","","","","","","","","","","","ControlQ","","50","","","","","","","","","","","","","","","","","","","","","","","","","","","","",""
"10723","","<div style=""width:500px;"">
  <p>How would you describe your current emotional state?</p>
  </div>","0","html-slider-response","72","1767695","0.0-5.0-3.12","5","1","2025-07-09 08:38:54","01610cd0009c79a99da7d0a3353eb402","41.193.169.17","Mozilla/5.0 (Windows NT 10.0; Win64; x64) AppleWebKit/537.36 (KHTML, like Gecko) Chrome/137.0.0.0 Safari/537.36","WebKit","Chrome","137.0.0.0","Windows","10.0","https://app.prolific.com/","en-US,en;q=0.9,ar;q=0.8,ja;q=0.7","66a4f108a03ede09bb40255c","683db7602f5db6a34d12d064","686e2a78734006c000fbe9ed","1","66a4f108a03ede09bb40255c","1","2025-07-09T09:08:22.270Z","","","","","","","","","","","StressQ","","50","","","","","","","","","","","","","","","","","","","","","","","","","","","","",""
"173540","","<div style=""width:500px;"">
  <p>What best describes how you currently feel?</p>
  </div>","100","html-slider-response","73","1941237","0.0-5.0-4.12","5","1","2025-07-09 08:38:54","01610cd0009c79a99da7d0a3353eb402","41.193.169.17","Mozilla/5.0 (Windows NT 10.0; Win64; x64) AppleWebKit/537.36 (KHTML, like Gecko) Chrome/137.0.0.0 Safari/537.36","WebKit","Chrome","137.0.0.0","Windows","10.0","https://app.prolific.com/","en-US,en;q=0.9,ar;q=0.8,ja;q=0.7","66a4f108a03ede09bb40255c","683db7602f5db6a34d12d064","686e2a78734006c000fbe9ed","1","66a4f108a03ede09bb40255c","1","2025-07-09T09:11:15.812Z","","","","","","","","","","","MotivationQ","","50","","","","","","","","","","","","","","","","","","","","","","","","","","","","",""
"","","","","ctl-task-cpt","74","1975935","0.0-5.0-0.13","5","1","2025-07-09 08:38:54","01610cd0009c79a99da7d0a3353eb402","41.193.169.17","Mozilla/5.0 (Windows NT 10.0; Win64; x64) AppleWebKit/537.36 (KHTML, like Gecko) Chrome/137.0.0.0 Safari/537.36","WebKit","Chrome","137.0.0.0","Windows","10.0","https://app.prolific.com/","en-US,en;q=0.9,ar;q=0.8,ja;q=0.7","66a4f108a03ede09bb40255c","683db7602f5db6a34d12d064","686e2a78734006c000fbe9ed","1","66a4f108a03ede09bb40255c","1","2025-07-09T09:11:50.510Z","","","","","","","","","","","","","","win-only","1","g1:NE,g2:SW","0.8","14","0","1943236.6","1828.3","6853.3","31671.7","1","4","4","6","2","4","4","5","1","0.03787878787878788","5025","3000","2050","[""down"",""left""]","{""num_key_presses"":6,""num_perfect"":5,""num_errors"":0,""num_randdir"":1,""num_randdir_good_moves"":1,""num_whilered"":0,""num_whileblue"":0,""num_blue"":2,""num_good_moves"":6}","[330.9642857142857,338.5736597606114,0.2,330.9642857142857,338.5736597606114,110.7,330.9642857142857,338.5736597606114,220.4,330.9642857142857,338.5736597606114,338.4,330.9642857142857,338.5736597606114,439.6,330.9642857142857,338.5736597606114,550.9,330.9642857142857,338.5736597606114,680.6,467.4642857142857,391.0736597606114,805.8,560.4642857142857,385.0736597606114,924.8,560.4642857142857,385.0736597606114,1036.8,560.4642857142857,385.0736597606114,1143.8,560.4642857142857,385.0736597606114,1262.4,560.4642857142857,385.0736597606114,1368.1,560.4642857142857,385.0736597606114,1471.9,560.4642857142857,385.0736597606114,1573.3,560.4642857142857,385.0736597606114,1681.8,560.4642857142857,385.0736597606114,1800.3,560.4642857142857,385.0736597606114,1919.5,560.4642857142857,385.0736597606114,2044.4,560.4642857142857,385.0736597606114,2154,560.4642857142857,385.0736597606114,2265,560.4642857142857,385.0736597606114,2383.9,560.4642857142857,385.0736597606114,2488,560.4642857142857,385.0736597606114,2606.7,560.4642857142857,385.0736597606114,2711.1,560.4642857142857,385.0736597606114,2811.6,560.4642857142857,385.0736597606114,2928.4,560.4642857142857,385.0736597606114,3041.5,560.4642857142857,385.0736597606114,3170.8,560.4642857142857,385.0736597606114,3284.8,560.4642857142857,385.0736597606114,3400.9,560.4642857142857,385.0736597606114,3511,560.4642857142857,385.0736597606114,3622,560.4642857142857,385.0736597606114,3733.3,560.4642857142857,385.0736597606114,3857.8,560.4642857142857,385.0736597606114,3963,560.4642857142857,385.0736597606114,4070.3,560.4642857142857,385.0736597606114,4170.8,560.4642857142857,385.0736597606114,4288.7,560.4642857142857,385.0736597606114,4403.8,560.4642857142857,385.0736597606114,4507.8,560.4642857142857,385.0736597606114,4609.2,560.4642857142857,385.0736597606114,4719.5,560.4642857142857,385.0736597606114,4821.1,560.4642857142857,385.0736597606114,4932.4]","[1600.3,1600.3,1000,0,600.3,""smooth"",""down"",""down"",""good_move"",4789.3,3188.5,2663.9,1600.8,524.6,""smooth"",""down"",""down"",""good_move"",11285.8,6496.2,2465.9,8358,461.9,""smooth"",""down"",""down"",""good_move"",14808.3,3522.3,3026.3,11286.1,496,""smooth"",""left"",""left"",""good_move"",21795.2,6986.1,2473.5,18831.8,489.9,""oops"",""left"",""left"",""good_move"",24694.7,2899.2,2477.8,21795.5,421.4,""smooth"",""left"",""left"",""good_move""]","",""
"15370","","<div style=""width:500px;"">
  <p>What determined the result of this run?</p>
  </div>","100","html-slider-response","75","1991306","0.0-5.0-1.13","5","1","2025-07-09 08:38:54","01610cd0009c79a99da7d0a3353eb402","41.193.169.17","Mozilla/5.0 (Windows NT 10.0; Win64; x64) AppleWebKit/537.36 (KHTML, like Gecko) Chrome/137.0.0.0 Safari/537.36","WebKit","Chrome","137.0.0.0","Windows","10.0","https://app.prolific.com/","en-US,en;q=0.9,ar;q=0.8,ja;q=0.7","66a4f108a03ede09bb40255c","683db7602f5db6a34d12d064","686e2a78734006c000fbe9ed","1","66a4f108a03ede09bb40255c","1","2025-07-09T09:12:05.881Z","","","","","","","","","","","AttribQ","","50","","","","","","","","","","","","","","","","","","","","","","","","","","","","",""
"3673","","<div style=""width:500px;"">
  <p>How much control did you have over the ball?</p>
  </div>","100","html-slider-response","76","1994981","0.0-5.0-2.13","5","1","2025-07-09 08:38:54","01610cd0009c79a99da7d0a3353eb402","41.193.169.17","Mozilla/5.0 (Windows NT 10.0; Win64; x64) AppleWebKit/537.36 (KHTML, like Gecko) Chrome/137.0.0.0 Safari/537.36","WebKit","Chrome","137.0.0.0","Windows","10.0","https://app.prolific.com/","en-US,en;q=0.9,ar;q=0.8,ja;q=0.7","66a4f108a03ede09bb40255c","683db7602f5db6a34d12d064","686e2a78734006c000fbe9ed","1","66a4f108a03ede09bb40255c","1","2025-07-09T09:12:09.556Z","","","","","","","","","","","ControlQ","","50","","","","","","","","","","","","","","","","","","","","","","","","","","","","",""
"3963","","<div style=""width:500px;"">
  <p>How would you describe your current emotional state?</p>
  </div>","0","html-slider-response","77","1998945","0.0-5.0-3.13","5","1","2025-07-09 08:38:54","01610cd0009c79a99da7d0a3353eb402","41.193.169.17","Mozilla/5.0 (Windows NT 10.0; Win64; x64) AppleWebKit/537.36 (KHTML, like Gecko) Chrome/137.0.0.0 Safari/537.36","WebKit","Chrome","137.0.0.0","Windows","10.0","https://app.prolific.com/","en-US,en;q=0.9,ar;q=0.8,ja;q=0.7","66a4f108a03ede09bb40255c","683db7602f5db6a34d12d064","686e2a78734006c000fbe9ed","1","66a4f108a03ede09bb40255c","1","2025-07-09T09:12:13.520Z","","","","","","","","","","","StressQ","","50","","","","","","","","","","","","","","","","","","","","","","","","","","","","",""
"4149","","<div style=""width:500px;"">
  <p>What best describes how you currently feel?</p>
