"rt","response_timestamp","stimulus","response","trial_type","trial_index","time_elapsed","internal_node_id","run_id","condition","recorded_at","source_code_version","ip","user_agent","device","browser","browser_version","platform","platform_version","referer","accept_language","PROLIFIC_PID","STUDY_ID","SESSION_ID","WEEK","BATCH","prolific_id","week","batch","realtime","success","responses","item_order","radio_event_ids","radio_event_times","key_event_times","mouse_event_times","straightlining","zigzagging","honeypot","eventType","view_history","slider_start","which_type","canvas_config","goals_layout","control_level","trial_number","tutorial_trial_number","trial_start_time","phase1_start_time","phase2_start_time","phase3_start_time","goal_1_value","goal_1_distance","goal_2_value","goal_2_distance","goal_selected","outcome","outcome_total","participant_final_score","participant_initial_score","participant_final_score_prop","goal_choice_rt","allocated_time","allocated_time_remaining","goal_direction","counts","mouse_movements","key_presses","question_order","question_id"
"4205","1753252224000","<p style='font-size:40px;line-height:1.25'><strong>Welcome to the experiment!</strong></p><p style='font-size:1.1em;line-height:1.25'>Thank you for participanting in our experiment again! You will be asked to play the Dysfunctional Ball Game again. We will briefly recap the rules before we start.</p><p style='font-size:1.1em;line-height:1.25'>Press <strong>Next</strong> to continue.</p>","0","custom-html-button-response","0","4206","0.0-0.0","141","1","2025-07-23 06:30:17","1f75c3e559b7213887762d5229550c2b","154.0.11.214","Mozilla/5.0 (Windows NT 10.0; Win64; x64) AppleWebKit/537.36 (KHTML, like Gecko) Chrome/138.0.0.0 Safari/537.36","WebKit","Chrome","138.0.0.0","Windows","10.0","https://app.prolific.com/","en-GB,en-US;q=0.9,en;q=0.8","669a686f263cbcb8e321ed85","683db9eb0562dbf637994deb","6880816bc5a1b77d87ee1370","2","1","669a686f263cbcb8e321ed85","2","1","2025-07-23T06:30:24.000Z","","","","","","","","","","","","","","","","","","","","","","","","","","","","","","","","","","","","","","","","","",""
"1742","","","","fullscreen","1","6954","0.0-1.0","141","1","2025-07-23 06:30:17","1f75c3e559b7213887762d5229550c2b","154.0.11.214","Mozilla/5.0 (Windows NT 10.0; Win64; x64) AppleWebKit/537.36 (KHTML, like Gecko) Chrome/138.0.0.0 Safari/537.36","WebKit","Chrome","138.0.0.0","Windows","10.0","https://app.prolific.com/","en-GB,en-US;q=0.9,en;q=0.8","669a686f263cbcb8e321ed85","683db9eb0562dbf637994deb","6880816bc5a1b77d87ee1370","2","1","669a686f263cbcb8e321ed85","2","1","","true","","","","","","","","","","","","","","","","","","","","","","","","","","","","","","","","","","","","","","","","",""
"2650","1753252229399","<p style='font-size:1.1em;line-height:1.25'>In the following, we will ask you a few questions relating to your feelings in the last 24 hours.<br></p><p style='font-size:1.1em;line-height:1.25'>Press the <strong>Next</strong> button to continue.</p>","0","custom-html-button-response","2","9605","0.0-2.0-0.0","141","1","2025-07-23 06:30:17","1f75c3e559b7213887762d5229550c2b","154.0.11.214","Mozilla/5.0 (Windows NT 10.0; Win64; x64) AppleWebKit/537.36 (KHTML, like Gecko) Chrome/138.0.0.0 Safari/537.36","WebKit","Chrome","138.0.0.0","Windows","10.0","https://app.prolific.com/","en-GB,en-US;q=0.9,en;q=0.8","669a686f263cbcb8e321ed85","683db9eb0562dbf637994deb","6880816bc5a1b77d87ee1370","2","1","669a686f263cbcb8e321ed85","2","1","2025-07-23T06:30:29.399Z","","","","","","","","","","","","","","","","","","","","","","","","","","","","","","","","","","","","","","","","","",""
"64930.700000047684","","","","survey-template","3","74539","0.0-2.0-1.0","141","1","2025-07-23 06:30:17","1f75c3e559b7213887762d5229550c2b","154.0.11.214","Mozilla/5.0 (Windows NT 10.0; Win64; x64) AppleWebKit/537.36 (KHTML, like Gecko) Chrome/138.0.0.0 Safari/537.36","WebKit","Chrome","138.0.0.0","Windows","10.0","https://app.prolific.com/","en-GB,en-US;q=0.9,en;q=0.8","669a686f263cbcb8e321ed85","683db9eb0562dbf637994deb","6880816bc5a1b77d87ee1370","2","1","669a686f263cbcb8e321ed85","2","1","2025-07-23T06:31:34.333Z","","{""Q01"":""3"",""Q02"":""3"",""Q03"":""3"",""Q04"":""2"",""Q05"":""2"",""Q06"":""1"",""Q07"":""1"",""Q08"":""2"",""Q09"":""1"",""Q10"":""1"",""Q11"":""2"",""Q12"":""1"",""Q13"":""2"",""Q14"":""1"",""Q15"":""2"",""Q16"":""1"",""Q17"":""1"",""Q18"":""2"",""Q19"":""2"",""Q20"":""1"",""Q21"":""2"",""Q22"":""2""}","[0,1,2,3,4,5,6,7,8,9,10,11,12,13,14,15,16,17,18,19,20,21]","[""Q01"",""Q01"",""Q02"",""Q03"",""Q04"",""Q05"",""Q06"",""Q07"",""Q08"",""Q09"",""Q10"",""Q11"",""Q12"",""Q13"",""Q14"",""Q15"",""Q17"",""Q16"",""Q18"",""Q19"",""Q20"",""Q21"",""Q22""]","[13894.100000023842,17678.100000023842,21670,24662,25822,28182.200000047684,30942.100000023842,34758,35822.39999997616,36957.800000071526,38830,41709.89999997616,42926.10000002384,44286.200000047684,45894,47125.89999997616,52630.10000002384,53902,55101.800000071526,56126.200000047684,57230,62046,64110.10000002384]","[]","[0.10000002384185791,13894.100000023842,17678.100000023842,21670,24662,25822,26614.100000023842,27365.800000071526,28182.200000047684,29294.100000023842,30942.100000023842,33229.89999997616,34758,35822.39999997616,36957.800000071526,38830,39942,41709.89999997616,42926.10000002384,44286.200000047684,45894,47125.89999997616,50037.89999997616,52630.10000002384,53902,55101.800000071526,56126.200000047684,57230,62046,64110.10000002384,64926.10000002384]","0.45454545454545453","0.6190476190476191","0","drsp","","","","","","","","","","","","","","","","","","","","","","","","","","","","","","",""
"6687.599999904633","","","","survey-template","4","81230","0.0-2.0-2.0","141","1","2025-07-23 06:30:17","1f75c3e559b7213887762d5229550c2b","154.0.11.214","Mozilla/5.0 (Windows NT 10.0; Win64; x64) AppleWebKit/537.36 (KHTML, like Gecko) Chrome/138.0.0.0 Safari/537.36","WebKit","Chrome","138.0.0.0","Windows","10.0","https://app.prolific.com/","en-GB,en-US;q=0.9,en;q=0.8","669a686f263cbcb8e321ed85","683db9eb0562dbf637994deb","6880816bc5a1b77d87ee1370","2","1","669a686f263cbcb8e321ed85","2","1","2025-07-23T06:31:41.024Z","","{""Q01"":""1"",""Q02"":""4"",""Q03"":""2""}","[0,1,2]","[""Q01"",""Q02"",""Q03""]","[2430.6999999284744,4670.899999976158,5774.599999904633]","[]","[2430.6999999284744,4670.899999976158,5774.599999904633,6686.799999952316]","0.6666666666666666","0.5","0","stress","","","","","","","","","","","","","","","","","","","","","","","","","","","","","","",""
"2918","","","","instructions","5","84149","0.0-3.0-0.0","141","1","2025-07-23 06:30:17","1f75c3e559b7213887762d5229550c2b","154.0.11.214","Mozilla/5.0 (Windows NT 10.0; Win64; x64) AppleWebKit/537.36 (KHTML, like Gecko) Chrome/138.0.0.0 Safari/537.36","WebKit","Chrome","138.0.0.0","Windows","10.0","https://app.prolific.com/","en-GB,en-US;q=0.9,en;q=0.8","669a686f263cbcb8e321ed85","683db9eb0562dbf637994deb","6880816bc5a1b77d87ee1370","2","1","669a686f263cbcb8e321ed85","2","1","","","","","","","","","","","","","[{""page_index"":0,""viewing_time"":2918}]","","","","","","","","","","","","","","","","","","","","","","","","","","","","","",""
"12702","","<p>Before you start with this game please answer the following three questions yourself. </p>
  <p>Through this game, we measure several aspects of your cognitive performance, such as reaction times, multi-tasking capabilities </p>
  <p>and the ability to assess the situation you are in.</p>
  <p></p>
  <p><b>How good do you usually are in such tasks?</b></p>","71","html-slider-response","6","96853","0.0-4.0-0.0","141","1","2025-07-23 06:30:17","1f75c3e559b7213887762d5229550c2b","154.0.11.214","Mozilla/5.0 (Windows NT 10.0; Win64; x64) AppleWebKit/537.36 (KHTML, like Gecko) Chrome/138.0.0.0 Safari/537.36","WebKit","Chrome","138.0.0.0","Windows","10.0","https://app.prolific.com/","en-GB,en-US;q=0.9,en;q=0.8","669a686f263cbcb8e321ed85","683db9eb0562dbf637994deb","6880816bc5a1b77d87ee1370","2","1","669a686f263cbcb8e321ed85","2","1","2025-07-23T06:31:56.648Z","","","","","","","","","","","PreSkillQ","","50","","","","","","","","","","","","","","","","","","","","","","","","","","","","",""
"4767","","<div style=""width:500px;"">
  <p>How well do you think you will perform in this task compared to other participants?</p>
  </div>","75","html-slider-response","7","101621","0.0-4.0-1.0","141","1","2025-07-23 06:30:17","1f75c3e559b7213887762d5229550c2b","154.0.11.214","Mozilla/5.0 (Windows NT 10.0; Win64; x64) AppleWebKit/537.36 (KHTML, like Gecko) Chrome/138.0.0.0 Safari/537.36","WebKit","Chrome","138.0.0.0","Windows","10.0","https://app.prolific.com/","en-GB,en-US;q=0.9,en;q=0.8","669a686f263cbcb8e321ed85","683db9eb0562dbf637994deb","6880816bc5a1b77d87ee1370","2","1","669a686f263cbcb8e321ed85","2","1","2025-07-23T06:32:01.415Z","","","","","","","","","","","PrePerfQ","","50","","","","","","","","","","","","","","","","","","","","","","","","","","","","",""
"7727","","<div style=""width:500px;"">
  <p>What best describes how you currently feel?</p>
  </div>","42","html-slider-response","8","109349","0.0-4.0-2.0","141","1","2025-07-23 06:30:17","1f75c3e559b7213887762d5229550c2b","154.0.11.214","Mozilla/5.0 (Windows NT 10.0; Win64; x64) AppleWebKit/537.36 (KHTML, like Gecko) Chrome/138.0.0.0 Safari/537.36","WebKit","Chrome","138.0.0.0","Windows","10.0","https://app.prolific.com/","en-GB,en-US;q=0.9,en;q=0.8","669a686f263cbcb8e321ed85","683db9eb0562dbf637994deb","6880816bc5a1b77d87ee1370","2","1","669a686f263cbcb8e321ed85","2","1","2025-07-23T06:32:09.143Z","","","","","","","","","","","PreMotivationQ","","50","","","","","","","","","","","","","","","","","","","","","","","","","","","","",""
"","","","","ctl-task-cpt","9","134629","0.0-5.0-0.0","141","1","2025-07-23 06:30:17","1f75c3e559b7213887762d5229550c2b","154.0.11.214","Mozilla/5.0 (Windows NT 10.0; Win64; x64) AppleWebKit/537.36 (KHTML, like Gecko) Chrome/138.0.0.0 Safari/537.36","WebKit","Chrome","138.0.0.0","Windows","10.0","https://app.prolific.com/","en-GB,en-US;q=0.9,en;q=0.8","669a686f263cbcb8e321ed85","683db9eb0562dbf637994deb","6880816bc5a1b77d87ee1370","2","1","669a686f263cbcb8e321ed85","2","1","2025-07-23T06:32:34.423Z","","","","","","","","","","","","","","win-only","1","g1:NE,g2:SW","1","1","0","111884.6","1694.2","6696.5","22273","1","4","4","6","1","1","-1","0","0","0","1984.5","3000","1155","[""up"",""right""]","{""num_key_presses"":6,""num_perfect"":4,""num_errors"":2,""num_randdir"":0,""num_randdir_good_moves"":0,""num_whilered"":0,""num_whileblue"":2,""num_blue"":2,""num_good_moves"":5}","[415.57142857142856,417.47767857142856,0.2,415.57142857142856,417.47767857142856,101.7,415.57142857142856,417.47767857142856,206.6,426.57142857142856,437.47767857142856,306.9,433.57142857142856,485.47767857142856,407.4,375.57142857142856,587.4776785714286,511.1,267.57142857142856,695.4776785714286,616,188.57142857142856,741.4776785714286,716.8,177.57142857142856,742.4776785714286,821.4,140.57142857142856,741.4776785714286,921.4,105.57142857142857,743.4776785714286,1021.6,99.57142857142857,743.4776785714286,1126.9,342.57142857142856,596.4776785714286,1231.7,1041.5714285714287,-67.52232142857143,1331.7,1054.5714285714287,-97.52232142857143,1437.8,964.5714285714286,-77.52232142857143,1537.9,779.5714285714286,-2.5223214285714306,1641.6,769.5714285714286,34.47767857142857,1741.9,769.5714285714286,34.47767857142857,1842,767.5714285714286,41.47767857142857,1946.8,768.5714285714286,41.47767857142857,2046.8,768.5714285714286,40.47767857142857,2148.1,742.5714285714286,96.47767857142857,2251.3,654.5714285714286,385.47767857142856,2357.2,634.5714285714286,432.47767857142856,2461.4,608.5714285714286,474.47767857142856,2562.2,608.5714285714286,471.47767857142856,2667.2,613.5714285714286,426.47767857142856,2767.2,613.5714285714286,418.47767857142856,2871.4,613.5714285714286,417.47767857142856,2976.9,595.5714285714286,412.47767857142856,3076.9,553.5714285714286,393.47767857142856,3177.8,550.5714285714286,393.47767857142856,3281.8,531.5714285714286,406.47767857142856,3382.4,520.5714285714286,408.47767857142856,3487.2,512.5714285714286,394.47767857142856,3591.9,504.57142857142856,408.47767857142856,3692,497.57142857142856,426.47767857142856,3792.1,497.57142857142856,426.47767857142856,3896.6,497.57142857142856,421.47767857142856,3997.3,497.57142857142856,415.47767857142856,4101.4,499.57142857142856,408.47767857142856,4201.7,544.5714285714286,406.47767857142856,4307.2,544.5714285714286,406.47767857142856,4411.3,536.5714285714286,402.47767857142856,4513.4,536.5714285714286,403.47767857142856,4617,538.5714285714286,408.47767857142856,4721.3,538.5714285714286,408.47767857142856,4821.5,538.5714285714286,408.47767857142856,4927]","[1551.5,1551.4,1003.9,0.1,547.5,""while_blue"",""up"",""left"",""bad_move"",4013,2461.2,2292,1551.9,169.1,""while_blue"",""up"",""right"",""good_move"",7101.9,3088.7,2600.9,4013.3,487.8,""smooth"",""up"",""up"",""good_move"",10367.9,3265.6,2797,7102.3,468.6,""smooth"",""up"",""up"",""good_move"",12540.9,2172.9,1690.7,10368,482.2,""smooth"",""right"",""right"",""good_move"",15485.2,2944,2488.8,12541.2,455.2,""smooth"",""right"",""right"",""good_move""]","",""
"2776","","<div style=""width:500px;"">
  <p>What determined the result of this run?</p>
  </div>","65","html-slider-response","10","137405","0.0-5.0-1.0","141","1","2025-07-23 06:30:17","1f75c3e559b7213887762d5229550c2b","154.0.11.214","Mozilla/5.0 (Windows NT 10.0; Win64; x64) AppleWebKit/537.36 (KHTML, like Gecko) Chrome/138.0.0.0 Safari/537.36","WebKit","Chrome","138.0.0.0","Windows","10.0","https://app.prolific.com/","en-GB,en-US;q=0.9,en;q=0.8","669a686f263cbcb8e321ed85","683db9eb0562dbf637994deb","6880816bc5a1b77d87ee1370","2","1","669a686f263cbcb8e321ed85","2","1","2025-07-23T06:32:37.199Z","","","","","","","","","","","AttribQ","","50","","","","","","","","","","","","","","","","","","","","","","","","","","","","",""
"1479","","<div style=""width:500px;"">
  <p>How much control did you have over the ball?</p>
  </div>","75","html-slider-response","11","138885","0.0-5.0-2.0","141","1","2025-07-23 06:30:17","1f75c3e559b7213887762d5229550c2b","154.0.11.214","Mozilla/5.0 (Windows NT 10.0; Win64; x64) AppleWebKit/537.36 (KHTML, like Gecko) Chrome/138.0.0.0 Safari/537.36","WebKit","Chrome","138.0.0.0","Windows","10.0","https://app.prolific.com/","en-GB,en-US;q=0.9,en;q=0.8","669a686f263cbcb8e321ed85","683db9eb0562dbf637994deb","6880816bc5a1b77d87ee1370","2","1","669a686f263cbcb8e321ed85","2","1","2025-07-23T06:32:38.679Z","","","","","","","","","","","ControlQ","","50","","","","","","","","","","","","","","","","","","","","","","","","","","","","",""
"3519","","<div style=""width:500px;"">
  <p>How would you describe your current emotional state?</p>
  </div>","54","html-slider-response","12","142405","0.0-5.0-3.0","141","1","2025-07-23 06:30:17","1f75c3e559b7213887762d5229550c2b","154.0.11.214","Mozilla/5.0 (Windows NT 10.0; Win64; x64) AppleWebKit/537.36 (KHTML, like Gecko) Chrome/138.0.0.0 Safari/537.36","WebKit","Chrome","138.0.0.0","Windows","10.0","https://app.prolific.com/","en-GB,en-US;q=0.9,en;q=0.8","669a686f263cbcb8e321ed85","683db9eb0562dbf637994deb","6880816bc5a1b77d87ee1370","2","1","669a686f263cbcb8e321ed85","2","1","2025-07-23T06:32:42.199Z","","","","","","","","","","","StressQ","","50","","","","","","","","","","","","","","","","","","","","","","","","","","","","",""
"1960","","<div style=""width:500px;"">
  <p>What best describes how you currently feel?</p>
  </div>","78","html-slider-response","13","144365","0.0-5.0-4.0","141","1","2025-07-23 06:30:17","1f75c3e559b7213887762d5229550c2b","154.0.11.214","Mozilla/5.0 (Windows NT 10.0; Win64; x64) AppleWebKit/537.36 (KHTML, like Gecko) Chrome/138.0.0.0 Safari/537.36","WebKit","Chrome","138.0.0.0","Windows","10.0","https://app.prolific.com/","en-GB,en-US;q=0.9,en;q=0.8","669a686f263cbcb8e321ed85","683db9eb0562dbf637994deb","6880816bc5a1b77d87ee1370","2","1","669a686f263cbcb8e321ed85","2","1","2025-07-23T06:32:44.159Z","","","","","","","","","","","MotivationQ","","50","","","","","","","","","","","","","","","","","","","","","","","","","","","","",""
"","","","","ctl-task-cpt","14","179003","0.0-5.0-0.1","141","1","2025-07-23 06:30:17","1f75c3e559b7213887762d5229550c2b","154.0.11.214","Mozilla/5.0 (Windows NT 10.0; Win64; x64) AppleWebKit/537.36 (KHTML, like Gecko) Chrome/138.0.0.0 Safari/537.36","WebKit","Chrome","138.0.0.0","Windows","10.0","https://app.prolific.com/","en-GB,en-US;q=0.9,en;q=0.8","669a686f263cbcb8e321ed85","683db9eb0562dbf637994deb","6880816bc5a1b77d87ee1370","2","1","669a686f263cbcb8e321ed85","2","1","2025-07-23T06:33:18.797Z","","","","","","","","","","","","","","win-only","2","g1:SE,g2:NW","0.9","2","0","146899.4","1713.9","6716.5","31630.9","1","4","8","6","1","-1","-4","0","0","0","1565.2","3000","-2990","[""down"",""right""]","{""num_key_presses"":6,""num_perfect"":2,""num_errors"":3,""num_randdir"":1,""num_randdir_good_moves"":0,""num_whilered"":0,""num_whileblue"":1,""num_blue"":2,""num_good_moves"":3}","[410.57142857142856,413.47767857142856,0.1,412.57142857142856,413.47767857142856,102.2,475.57142857142856,420.47767857142856,207.8,635.5714285714286,415.47767857142856,312.7,627.5714285714286,384.47767857142856,412.7,521.5714285714286,346.47767857142856,516.7,508.57142857142856,347.47767857142856,617.3,500.57142857142856,433.47767857142856,722.3,676.5714285714286,648.4776785714286,822.3,692.5714285714286,690.4776785714286,926.9,736.5714285714286,736.4776785714286,1032.2,776.5714285714286,763.4776785714286,1132.2,776.5714285714286,762.4776785714286,1236.8,776.5714285714286,762.4776785714286,1342.3,776.5714285714286,761.4776785714286,1442.5,775.5714285714286,760.4776785714286,1547.2,775.5714285714286,760.4776785714286,1653.7,773.5714285714286,754.4776785714286,1756.4,785.5714285714286,747.4776785714286,1857.2,785.5714285714286,745.4776785714286,1961.4,1000.5714285714286,659.4776785714286,2062.3,1250.5714285714287,430.47767857142856,2166.7,1193.5714285714287,319.47767857142856,2268.5,1157.5714285714287,292.47767857142856,2371.6,1143.5714285714287,311.47767857142856,2476.7,1143.5714285714287,312.47767857142856,2577.2,1143.5714285714287,312.47767857142856,2677.2,1143.5714285714287,312.47767857142856,2777.3,1143.5714285714287,312.47767857142856,2883.3,1143.5714285714287,312.47767857142856,2986.7,1143.5714285714287,312.47767857142856,3086.7,1143.5714285714287,312.47767857142856,3186.7,1143.5714285714287,312.47767857142856,3286.8,1143.5714285714287,312.47767857142856,3392.2,1143.5714285714287,312.47767857142856,3497,1143.5714285714287,312.47767857142856,3601.3,1143.5714285714287,312.47767857142856,3701.8,1143.5714285714287,312.47767857142856,3806.3,1143.5714285714287,312.47767857142856,3907.3,1143.5714285714287,312.47767857142856,4007.3,1143.5714285714287,312.47767857142856,4111.7,1143.5714285714287,312.47767857142856,4216.9,1143.5714285714287,312.47767857142856,4322.4,1143.5714285714287,312.47767857142856,4427.1,1143.5714285714287,312.47767857142856,4532.3,1143.5714285714287,312.47767857142856,4633.2,1143.5714285714287,312.47767857142856,4736.8,1143.5714285714287,312.47767857142856,4836.8,1143.5714285714287,312.47767857142856,4936.9]","[1794.1,1794.1,1000,0,794.1,""oops"",""down"",""left"",""bad_move"",4467.3,2673,2898.3,1794.3,-225.3,""error"",""-"",""-"",""no_move"",8626.2,4158.7,2675,5470.1,481.2,""smooth"",""down"",""down"",""good_move"",11442.3,2815.9,2267.4,8626.4,548.5,""smooth"",""down"",""down"",""good_move"",14386.5,2944.1,2527.1,11442.5,417,""while_blue"",""right"",""right"",""good_move"",17186.5,2799.5,2977.3,14387,-177.8,""error"",""-"",""-"",""no_move""]","",""
"24065","","<div style=""width:500px;"">
  <p>What determined the result of this run?</p>
  </div>","87","html-slider-response","15","203069","0.0-5.0-1.1","141","1","2025-07-23 06:30:17","1f75c3e559b7213887762d5229550c2b","154.0.11.214","Mozilla/5.0 (Windows NT 10.0; Win64; x64) AppleWebKit/537.36 (KHTML, like Gecko) Chrome/138.0.0.0 Safari/537.36","WebKit","Chrome","138.0.0.0","Windows","10.0","https://app.prolific.com/","en-GB,en-US;q=0.9,en;q=0.8","669a686f263cbcb8e321ed85","683db9eb0562dbf637994deb","6880816bc5a1b77d87ee1370","2","1","669a686f263cbcb8e321ed85","2","1","2025-07-23T06:33:42.863Z","","","","","","","","","","","AttribQ","","50","","","","","","","","","","","","","","","","","","","","","","","","","","","","",""
"6015","","<div style=""width:500px;"">
  <p>How much control did you have over the ball?</p>
  </div>","34","html-slider-response","16","209085","0.0-5.0-2.1","141","1","2025-07-23 06:30:17","1f75c3e559b7213887762d5229550c2b","154.0.11.214","Mozilla/5.0 (Windows NT 10.0; Win64; x64) AppleWebKit/537.36 (KHTML, like Gecko) Chrome/138.0.0.0 Safari/537.36","WebKit","Chrome","138.0.0.0","Windows","10.0","https://app.prolific.com/","en-GB,en-US;q=0.9,en;q=0.8","669a686f263cbcb8e321ed85","683db9eb0562dbf637994deb","6880816bc5a1b77d87ee1370","2","1","669a686f263cbcb8e321ed85","2","1","2025-07-23T06:33:48.879Z","","","","","","","","","","","ControlQ","","50","","","","","","","","","","","","","","","","","","","","","","","","","","","","",""
"5815","","<div style=""width:500px;"">
  <p>How would you describe your current emotional state?</p>
  </div>","64","html-slider-response","17","214901","0.0-5.0-3.1","141","1","2025-07-23 06:30:17","1f75c3e559b7213887762d5229550c2b","154.0.11.214","Mozilla/5.0 (Windows NT 10.0; Win64; x64) AppleWebKit/537.36 (KHTML, like Gecko) Chrome/138.0.0.0 Safari/537.36","WebKit","Chrome","138.0.0.0","Windows","10.0","https://app.prolific.com/","en-GB,en-US;q=0.9,en;q=0.8","669a686f263cbcb8e321ed85","683db9eb0562dbf637994deb","6880816bc5a1b77d87ee1370","2","1","669a686f263cbcb8e321ed85","2","1","2025-07-23T06:33:54.695Z","","","","","","","","","","","StressQ","","50","","","","","","","","","","","","","","","","","","","","","","","","","","","","",""
"6647","","<div style=""width:500px;"">
  <p>What best describes how you currently feel?</p>
  </div>","85","html-slider-response","18","221549","0.0-5.0-4.1","141","1","2025-07-23 06:30:17","1f75c3e559b7213887762d5229550c2b","154.0.11.214","Mozilla/5.0 (Windows NT 10.0; Win64; x64) AppleWebKit/537.36 (KHTML, like Gecko) Chrome/138.0.0.0 Safari/537.36","WebKit","Chrome","138.0.0.0","Windows","10.0","https://app.prolific.com/","en-GB,en-US;q=0.9,en;q=0.8","669a686f263cbcb8e321ed85","683db9eb0562dbf637994deb","6880816bc5a1b77d87ee1370","2","1","669a686f263cbcb8e321ed85","2","1","2025-07-23T06:34:01.344Z","","","","","","","","","","","MotivationQ","","50","","","","","","","","","","","","","","","","","","","","","","","","","","","","",""
"","","","","ctl-task-cpt","19","253357","0.0-5.0-0.2","141","1","2025-07-23 06:30:17","1f75c3e559b7213887762d5229550c2b","154.0.11.214","Mozilla/5.0 (Windows NT 10.0; Win64; x64) AppleWebKit/537.36 (KHTML, like Gecko) Chrome/138.0.0.0 Safari/537.36","WebKit","Chrome","138.0.0.0","Windows","10.0","https://app.prolific.com/","en-GB,en-US;q=0.9,en;q=0.8","669a686f263cbcb8e321ed85","683db9eb0562dbf637994deb","6880816bc5a1b77d87ee1370","2","1","669a686f263cbcb8e321ed85","2","1","2025-07-23T06:34:33.152Z","","","","","","","","","","","","","","win-only","2","g1:SE,g2:NW","0.8","3","0","224084.2","1600","6602.5","28790.5","1","4","8","6","1","-1","-2","0","0","0","1470.2","3000","-3005","[""down"",""right""]","{""num_key_presses"":5,""num_perfect"":3,""num_errors"":1,""num_randdir"":1,""num_randdir_good_moves"":0,""num_whilered"":0,""num_whileblue"":0,""num_blue"":2,""num_good_moves"":3}","[417.57142857142856,417.47767857142856,0.4,417.57142857142856,417.47767857142856,100.5,431.57142857142856,415.47767857142856,203.9,467.57142857142856,418.47767857142856,305.8,468.57142857142856,418.47767857142856,411.5,481.57142857142856,447.47767857142856,519.9,622.5714285714286,564.4776785714286,620.4,651.5714285714286,596.4776785714286,720.6,689.5714285714286,637.4776785714286,825.6,799.5714285714286,735.4776785714286,925.8,910.5714285714286,819.4776785714286,1030.6,870.5714285714286,816.4776785714286,1131.5,821.5714285714286,797.4776785714286,1235.8,772.5714285714286,766.4776785714286,1340.4,767.5714285714286,762.4776785714286,1441.7,768.5714285714286,762.4776785714286,1546.4,773.5714285714286,757.4776785714286,1651.5,793.5714285714286,757.4776785714286,1755.6,819.5714285714286,634.4776785714286,1856.2,595.5714285714286,327.47767857142856,1960.5,360.57142857142856,159.47767857142856,2065.3,461.57142857142856,133.47767857142856,2166.8,434.57142857142856,120.47767857142857,2270.7,410.57142857142856,119.47767857142857,2371.3,474.57142857142856,172.47767857142856,2476.8,593.5714285714286,426.47767857142856,2580.4,647.5714285714286,547.4776785714286,2680.4,648.5714285714286,556.4776785714286,2780.6,1375.5714285714287,454.47767857142856,2885.6,1375.5714285714287,375.47767857142856,2990.3,1375.5714285714287,380.47767857142856,3090.4,1375.5714285714287,384.47767857142856,3190.6,1375.5714285714287,386.47767857142856,3296.2,1375.5714285714287,386.47767857142856,3400.7,1375.5714285714287,386.47767857142856,3503.2,1375.5714285714287,386.47767857142856,3605.7,1375.5714285714287,386.47767857142856,3711.4,1375.5714285714287,386.47767857142856,3816,1375.5714285714287,386.47767857142856,3916.1,1375.5714285714287,386.47767857142856,4021.3,1375.5714285714287,386.47767857142856,4125.5,1375.5714285714287,386.47767857142856,4226.8,1375.5714285714287,386.47767857142856,4330.4,1375.5714285714287,386.47767857142856,4432.2,1375.5714285714287,386.47767857142856,4535.4,1375.5714285714287,386.47767857142856,4638.8,1375.5714285714287,386.47767857142856,4740.4,1375.5714285714287,386.47767857142856,4840.5,1375.5714285714287,386.47767857142856,4940.9]","[1877.5,1877.5,1000,0,877.5,""smooth"",""down"",""down"",""good_move"",4819.3,2941.5,2429.4,1877.8,512.1,""smooth"",""down"",""down"",""good_move"",11251.3,6431.8,2562.3,11038,-2349,""error"",""-"",""-"",""no_move"",15491.9,4240.4,2627.1,12251.6,613.2,""oops"",""right"",""left"",""bad_move"",18965,3472.8,2732.4,15492.2,740.4,""smooth"",""right"",""right"",""good_move""]","",""
"3583","","<div style=""width:500px;"">
  <p>What determined the result of this run?</p>
  </div>","30","html-slider-response","20","256941","0.0-5.0-1.2","141","1","2025-07-23 06:30:17","1f75c3e559b7213887762d5229550c2b","154.0.11.214","Mozilla/5.0 (Windows NT 10.0; Win64; x64) AppleWebKit/537.36 (KHTML, like Gecko) Chrome/138.0.0.0 Safari/537.36","WebKit","Chrome","138.0.0.0","Windows","10.0","https://app.prolific.com/","en-GB,en-US;q=0.9,en;q=0.8","669a686f263cbcb8e321ed85","683db9eb0562dbf637994deb","6880816bc5a1b77d87ee1370","2","1","669a686f263cbcb8e321ed85","2","1","2025-07-23T06:34:36.735Z","","","","","","","","","","","AttribQ","","50","","","","","","","","","","","","","","","","","","","","","","","","","","","","",""
"2759","","<div style=""width:500px;"">
  <p>How much control did you have over the ball?</p>
  </div>","64","html-slider-response","21","259701","0.0-5.0-2.2","141","1","2025-07-23 06:30:17","1f75c3e559b7213887762d5229550c2b","154.0.11.214","Mozilla/5.0 (Windows NT 10.0; Win64; x64) AppleWebKit/537.36 (KHTML, like Gecko) Chrome/138.0.0.0 Safari/537.36","WebKit","Chrome","138.0.0.0","Windows","10.0","https://app.prolific.com/","en-GB,en-US;q=0.9,en;q=0.8","669a686f263cbcb8e321ed85","683db9eb0562dbf637994deb","6880816bc5a1b77d87ee1370","2","1","669a686f263cbcb8e321ed85","2","1","2025-07-23T06:34:39.495Z","","","","","","","","","","","ControlQ","","50","","","","","","","","","","","","","","","","","","","","","","","","","","","","",""
"3431","","<div style=""width:500px;"">
  <p>How would you describe your current emotional state?</p>
  </div>","74","html-slider-response","22","263133","0.0-5.0-3.2","141","1","2025-07-23 06:30:17","1f75c3e559b7213887762d5229550c2b","154.0.11.214","Mozilla/5.0 (Windows NT 10.0; Win64; x64) AppleWebKit/537.36 (KHTML, like Gecko) Chrome/138.0.0.0 Safari/537.36","WebKit","Chrome","138.0.0.0","Windows","10.0","https://app.prolific.com/","en-GB,en-US;q=0.9,en;q=0.8","669a686f263cbcb8e321ed85","683db9eb0562dbf637994deb","6880816bc5a1b77d87ee1370","2","1","669a686f263cbcb8e321ed85","2","1","2025-07-23T06:34:42.928Z","","","","","","","","","","","StressQ","","50","","","","","","","","","","","","","","","","","","","","","","","","","","","","",""
"3455","","<div style=""width:500px;"">
  <p>What best describes how you currently feel?</p>
  </div>","73","html-slider-response","23","266589","0.0-5.0-4.2","141","1","2025-07-23 06:30:17","1f75c3e559b7213887762d5229550c2b","154.0.11.214","Mozilla/5.0 (Windows NT 10.0; Win64; x64) AppleWebKit/537.36 (KHTML, like Gecko) Chrome/138.0.0.0 Safari/537.36","WebKit","Chrome","138.0.0.0","Windows","10.0","https://app.prolific.com/","en-GB,en-US;q=0.9,en;q=0.8","669a686f263cbcb8e321ed85","683db9eb0562dbf637994deb","6880816bc5a1b77d87ee1370","2","1","669a686f263cbcb8e321ed85","2","1","2025-07-23T06:34:46.383Z","","","","","","","","","","","MotivationQ","","50","","","","","","","","","","","","","","","","","","","","","","","","","","","","",""
"","","","","ctl-task-cpt","24","296323","0.0-5.0-0.3","141","1","2025-07-23 06:30:17","1f75c3e559b7213887762d5229550c2b","154.0.11.214","Mozilla/5.0 (Windows NT 10.0; Win64; x64) AppleWebKit/537.36 (KHTML, like Gecko) Chrome/138.0.0.0 Safari/537.36","WebKit","Chrome","138.0.0.0","Windows","10.0","https://app.prolific.com/","en-GB,en-US;q=0.9,en;q=0.8","669a686f263cbcb8e321ed85","683db9eb0562dbf637994deb","6880816bc5a1b77d87ee1370","2","1","669a686f263cbcb8e321ed85","2","1","2025-07-23T06:35:16.117Z","","","","","","","","","","","","","","win-only","3","g1:SW,g2:NE","0.7","4","0","269123.9","1519","6522.1","26729.2","1","4","4","6","1","-1","-1","0","0","0","1555.4","3000","-2800","[""down"",""left""]","{""num_key_presses"":5,""num_perfect"":4,""num_errors"":0,""num_randdir"":1,""num_randdir_good_moves"":0,""num_whilered"":0,""num_whileblue"":0,""num_blue"":1,""num_good_moves"":4}","[429.57142857142856,417.47767857142856,0.2,429.57142857142856,417.47767857142856,104.1,429.57142857142856,417.47767857142856,206.2,429.57142857142856,417.47767857142856,307,518.5714285714286,395.47767857142856,408.1,583.5714285714286,332.47767857142856,508.5,481.57142857142856,395.47767857142856,611.7,311.57142857142856,573.4776785714286,712.1,252.57142857142856,682.4776785714286,812.8,188.57142857142856,702.4776785714286,916.9,119.57142857142857,705.4776785714286,1016.9,65.57142857142857,721.4776785714286,1121.6,36.57142857142857,743.4776785714286,1222,36.57142857142857,744.4776785714286,1328.2,36.57142857142857,744.4776785714286,1431.8,38.57142857142857,744.4776785714286,1532,39.57142857142857,745.4776785714286,1640.5,40.57142857142857,744.4776785714286,1743.3,150.57142857142856,728.4776785714286,1846.3,899.5714285714286,574.4776785714286,1947.9,1244.5714285714287,383.47767857142856,2052.6,1242.5714285714287,371.47767857142856,2157,1291.5714285714287,391.47767857142856,2257.1,1286.5714285714287,402.47767857142856,2357.8,1255.5714285714287,427.47767857142856,2464.5,1253.5714285714287,429.47767857142856,2567.6,1253.5714285714287,429.47767857142856,2671.9,1253.5714285714287,429.47767857142856,2771.9,1253.5714285714287,429.47767857142856,2876.3,1253.5714285714287,429.47767857142856,2977.6,1244.5714285714287,428.47767857142856,3079.3,1246.5714285714287,430.47767857142856,3180,1249.5714285714287,434.47767857142856,3282,1249.5714285714287,434.47767857142856,3386.6,1249.5714285714287,434.47767857142856,3487.8,1249.5714285714287,434.47767857142856,3590.2,1249.5714285714287,434.47767857142856,3693.9,1249.5714285714287,434.47767857142856,3797.3,1249.5714285714287,434.47767857142856,3902.6,1249.5714285714287,434.47767857142856,4009.9,1249.5714285714287,434.47767857142856,4111.9,1249.5714285714287,434.47767857142856,4212.1,1249.5714285714287,434.47767857142856,4316.7,1249.5714285714287,434.47767857142856,4421.2,1249.5714285714287,434.47767857142856,4521.7,1249.5714285714287,434.47767857142856,4621.9,1249.5714285714287,434.47767857142856,4727.3,1249.5714285714287,434.47767857142856,4827.4,1249.5714285714287,434.47767857142856,4932]","[1667.9,1667.9,1000,0,667.9,""smooth"",""down"",""down"",""good_move"",4181.4,2513.2,2045.9,1668.2,467.3,""smooth"",""down"",""down"",""good_move"",7541.8,3360.1,2851.2,4181.7,508.9,""oops"",""left"",""right"",""bad_move"",10742.1,3199.6,2748.7,7542.5,450.9,""smooth"",""left"",""left"",""good_move"",16964.2,6221.4,2076.5,14273.4,614.3,""smooth"",""left"",""left"",""good_move""]","",""
"5055","","<div style=""width:500px;"">
  <p>What determined the result of this run?</p>
  </div>","79","html-slider-response","25","301380","0.0-5.0-1.3","141","1","2025-07-23 06:30:17","1f75c3e559b7213887762d5229550c2b","154.0.11.214","Mozilla/5.0 (Windows NT 10.0; Win64; x64) AppleWebKit/537.36 (KHTML, like Gecko) Chrome/138.0.0.0 Safari/537.36","WebKit","Chrome","138.0.0.0","Windows","10.0","https://app.prolific.com/","en-GB,en-US;q=0.9,en;q=0.8","669a686f263cbcb8e321ed85","683db9eb0562dbf637994deb","6880816bc5a1b77d87ee1370","2","1","669a686f263cbcb8e321ed85","2","1","2025-07-23T06:35:21.174Z","","","","","","","","","","","AttribQ","","50","","","","","","","","","","","","","","","","","","","","","","","","","","","","",""
"4915","","<div style=""width:500px;"">
  <p>How much control did you have over the ball?</p>
  </div>","82","html-slider-response","26","306299","0.0-5.0-2.3","141","1","2025-07-23 06:30:17","1f75c3e559b7213887762d5229550c2b","154.0.11.214","Mozilla/5.0 (Windows NT 10.0; Win64; x64) AppleWebKit/537.36 (KHTML, like Gecko) Chrome/138.0.0.0 Safari/537.36","WebKit","Chrome","138.0.0.0","Windows","10.0","https://app.prolific.com/","en-GB,en-US;q=0.9,en;q=0.8","669a686f263cbcb8e321ed85","683db9eb0562dbf637994deb","6880816bc5a1b77d87ee1370","2","1","669a686f263cbcb8e321ed85","2","1","2025-07-23T06:35:26.093Z","","","","","","","","","","","ControlQ","","50","","","","","","","","","","","","","","","","","","","","","","","","","","","","",""
"7972","","<div style=""width:500px;"">
  <p>How would you describe your current emotional state?</p>
  </div>","84","html-slider-response","27","314278","0.0-5.0-3.3","141","1","2025-07-23 06:30:17","1f75c3e559b7213887762d5229550c2b","154.0.11.214","Mozilla/5.0 (Windows NT 10.0; Win64; x64) AppleWebKit/537.36 (KHTML, like Gecko) Chrome/138.0.0.0 Safari/537.36","WebKit","Chrome","138.0.0.0","Windows","10.0","https://app.prolific.com/","en-GB,en-US;q=0.9,en;q=0.8","669a686f263cbcb8e321ed85","683db9eb0562dbf637994deb","6880816bc5a1b77d87ee1370","2","1","669a686f263cbcb8e321ed85","2","1","2025-07-23T06:35:34.072Z","","","","","","","","","","","StressQ","","50","","","","","","","","","","","","","","","","","","","","","","","","","","","","",""
"3507","","<div style=""width:500px;"">
  <p>What best describes how you currently feel?</p>
  </div>","84","html-slider-response","28","317789","0.0-5.0-4.3","141","1","2025-07-23 06:30:17","1f75c3e559b7213887762d5229550c2b","154.0.11.214","Mozilla/5.0 (Windows NT 10.0; Win64; x64) AppleWebKit/537.36 (KHTML, like Gecko) Chrome/138.0.0.0 Safari/537.36","WebKit","Chrome","138.0.0.0","Windows","10.0","https://app.prolific.com/","en-GB,en-US;q=0.9,en;q=0.8","669a686f263cbcb8e321ed85","683db9eb0562dbf637994deb","6880816bc5a1b77d87ee1370","2","1","669a686f263cbcb8e321ed85","2","1","2025-07-23T06:35:37.583Z","","","","","","","","","","","MotivationQ","","50","","","","","","","","","","","","","","","","","","","","","","","","","","","","",""
"","","","","ctl-task-cpt","29","337524","0.0-5.0-0.4","141","1","2025-07-23 06:30:17","1f75c3e559b7213887762d5229550c2b","154.0.11.214","Mozilla/5.0 (Windows NT 10.0; Win64; x64) AppleWebKit/537.36 (KHTML, like Gecko) Chrome/138.0.0.0 Safari/537.36","WebKit","Chrome","138.0.0.0","Windows","10.0","https://app.prolific.com/","en-GB,en-US;q=0.9,en;q=0.8","669a686f263cbcb8e321ed85","683db9eb0562dbf637994deb","6880816bc5a1b77d87ee1370","2","1","669a686f263cbcb8e321ed85","2","1","2025-07-23T06:35:57.318Z","","","","","","","","","","","","","","win-only","2","g1:SE,g2:NW","0.6","5","0","320324","1297.1","6304","16710.5","1","4","4","6","1","-1","-1","0","0","0","1472.1","3000","-2900","[""down"",""right""]","{""num_key_presses"":3,""num_perfect"":3,""num_errors"":0,""num_randdir"":0,""num_randdir_good_moves"":0,""num_whilered"":0,""num_whileblue"":0,""num_blue"":0,""num_good_moves"":3}","[421.57142857142856,418.47767857142856,0.4,418.57142857142856,417.47767857142856,104.8,418.57142857142856,416.47767857142856,209.9,421.57142857142856,404.47767857142856,320.3,421.57142857142856,387.47767857142856,420.5,421.57142857142856,386.47767857142856,523.9,651.5714285714286,526.4776785714286,632.2,686.5714285714286,551.4776785714286,735.4,715.5714285714286,718.4776785714286,838.7,759.5714285714286,773.4776785714286,938.8,798.5714285714286,804.4776785714286,1039.4,800.5714285714286,800.4776785714286,1144.9,793.5714285714286,788.4776785714286,1248.5,789.5714285714286,784.4776785714286,1351,788.5714285714286,782.4776785714286,1454,788.5714285714286,782.4776785714286,1555.3,788.5714285714286,780.4776785714286,1658.7,885.5714285714286,775.4776785714286,1759.5,1112.5714285714287,688.4776785714286,1868.6,1375.5714285714287,528.4776785714286,1969.3,1375.5714285714287,409.47767857142856,2069.8,1375.5714285714287,462.47767857142856,2173.9,1375.5714285714287,463.47767857142856,2273.9,1375.5714285714287,463.47767857142856,2374.1,442.57142857142856,555.4776785714286,2481.5,-21.42857142857143,735.4776785714286,2586.9,236.57142857142856,825.4776785714286,2689,564.5714285714286,895.4776785714286,2793.8,960.5714285714286,920.4776785714286,2894.7,957.5714285714286,912.4776785714286,2998.6,891.5714285714286,839.4776785714286,3101,782.5714285714286,780.4776785714286,3204.5,782.5714285714286,778.4776785714286,3308.7,783.5714285714286,778.4776785714286,3410,784.5714285714286,795.4776785714286,3517.9,784.5714285714286,795.4776785714286,3619.9,784.5714285714286,795.4776785714286,3723.7,784.5714285714286,795.4776785714286,3823.7,784.5714285714286,795.4776785714286,3923.7,784.5714285714286,796.4776785714286,4023.7,783.5714285714286,801.4776785714286,4125,1177.5714285714287,801.4776785714286,4232.2,1375.5714285714287,886.4776785714286,4337.5,1375.5714285714287,875.4776785714286,4438,1370.5714285714287,849.4776785714286,4538.7,1370.5714285714287,849.4776785714286,4639.7,1370.5714285714287,849.4776785714286,4744.5,1370.5714285714287,849.4776785714286,4850.6,1370.5714285714287,849.4776785714286,4954.9]","[1841.4,1841.4,1000,0,841.4,""smooth"",""down"",""down"",""good_move"",4543.4,2701.3,1785.1,1842.1,916.2,""smooth"",""down"",""down"",""good_move"",7760.4,3216.5,2339.8,4544,876.7,""smooth"",""right"",""right"",""good_move""]","",""
"11078","","<div style=""width:500px;"">
  <p>What determined the result of this run?</p>
  </div>","79","html-slider-response","30","348605","0.0-5.0-1.4","141","1","2025-07-23 06:30:17","1f75c3e559b7213887762d5229550c2b","154.0.11.214","Mozilla/5.0 (Windows NT 10.0; Win64; x64) AppleWebKit/537.36 (KHTML, like Gecko) Chrome/138.0.0.0 Safari/537.36","WebKit","Chrome","138.0.0.0","Windows","10.0","https://app.prolific.com/","en-GB,en-US;q=0.9,en;q=0.8","669a686f263cbcb8e321ed85","683db9eb0562dbf637994deb","6880816bc5a1b77d87ee1370","2","1","669a686f263cbcb8e321ed85","2","1","2025-07-23T06:36:08.399Z","","","","","","","","","","","AttribQ","","50","","","","","","","","","","","","","","","","","","","","","","","","","","","","",""
"3512","","<div style=""width:500px;"">
  <p>How much control did you have over the ball?</p>
  </div>","77","html-slider-response","31","352124","0.0-5.0-2.4","141","1","2025-07-23 06:30:17","1f75c3e559b7213887762d5229550c2b","154.0.11.214","Mozilla/5.0 (Windows NT 10.0; Win64; x64) AppleWebKit/537.36 (KHTML, like Gecko) Chrome/138.0.0.0 Safari/537.36","WebKit","Chrome","138.0.0.0","Windows","10.0","https://app.prolific.com/","en-GB,en-US;q=0.9,en;q=0.8","669a686f263cbcb8e321ed85","683db9eb0562dbf637994deb","6880816bc5a1b77d87ee1370","2","1","669a686f263cbcb8e321ed85","2","1","2025-07-23T06:36:11.918Z","","","","","","","","","","","ControlQ","","50","","","","","","","","","","","","","","","","","","","","","","","","","","","","",""
"4051","","<div style=""width:500px;"">
  <p>How would you describe your current emotional state?</p>
  </div>","77","html-slider-response","32","356179","0.0-5.0-3.4","141","1","2025-07-23 06:30:17","1f75c3e559b7213887762d5229550c2b","154.0.11.214","Mozilla/5.0 (Windows NT 10.0; Win64; x64) AppleWebKit/537.36 (KHTML, like Gecko) Chrome/138.0.0.0 Safari/537.36","WebKit","Chrome","138.0.0.0","Windows","10.0","https://app.prolific.com/","en-GB,en-US;q=0.9,en;q=0.8","669a686f263cbcb8e321ed85","683db9eb0562dbf637994deb","6880816bc5a1b77d87ee1370","2","1","669a686f263cbcb8e321ed85","2","1","2025-07-23T06:36:15.973Z","","","","","","","","","","","StressQ","","50","","","","","","","","","","","","","","","","","","","","","","","","","","","","",""
"3210","","<div style=""width:500px;"">
  <p>What best describes how you currently feel?</p>
  </div>","86","html-slider-response","33","359396","0.0-5.0-4.4","141","1","2025-07-23 06:30:17","1f75c3e559b7213887762d5229550c2b","154.0.11.214","Mozilla/5.0 (Windows NT 10.0; Win64; x64) AppleWebKit/537.36 (KHTML, like Gecko) Chrome/138.0.0.0 Safari/537.36","WebKit","Chrome","138.0.0.0","Windows","10.0","https://app.prolific.com/","en-GB,en-US;q=0.9,en;q=0.8","669a686f263cbcb8e321ed85","683db9eb0562dbf637994deb","6880816bc5a1b77d87ee1370","2","1","669a686f263cbcb8e321ed85","2","1","2025-07-23T06:36:19.190Z","","","","","","","","","","","MotivationQ","","50","","","","","","","","","","","","","","","","","","","","","","","","","","","","",""
"","","","","ctl-task-cpt","34","378678","0.0-5.0-0.5","141","1","2025-07-23 06:30:17","1f75c3e559b7213887762d5229550c2b","154.0.11.214","Mozilla/5.0 (Windows NT 10.0; Win64; x64) AppleWebKit/537.36 (KHTML, like Gecko) Chrome/138.0.0.0 Safari/537.36","WebKit","Chrome","138.0.0.0","Windows","10.0","https://app.prolific.com/","en-GB,en-US;q=0.9,en;q=0.8","669a686f263cbcb8e321ed85","683db9eb0562dbf637994deb","6880816bc5a1b77d87ee1370","2","1","669a686f263cbcb8e321ed85","2","1","2025-07-23T06:36:38.472Z","","","","","","","","","","","","","","win-only","0","g1:NW,g2:SE","0.5","6","0","361936.3","1401.2","6406.7","16270.8","1","4","8","6","1","-1","-1","0","0","0","1545.3","3000","-2595","[""left"",""up""]","{""num_key_presses"":2,""num_perfect"":2,""num_errors"":0,""num_randdir"":0,""num_randdir_good_moves"":0,""num_whilered"":0,""num_whileblue"":0,""num_blue"":0,""num_good_moves"":2}","[410.57142857142856,418.47767857142856,0.8,410.57142857142856,418.47767857142856,105.5,410.57142857142856,418.47767857142856,205.7,451.57142857142856,426.47767857142856,307.3,452.57142857142856,434.47767857142856,408.7,489.57142857142856,485.47767857142856,509.2,467.57142857142856,408.47767857142856,609.7,-19.42857142857143,-1.5223214285714306,722.4,-20.42857142857143,-2.5223214285714306,822.9,-2.4285714285714306,24.47767857142857,924.4,23.57142857142857,41.47767857142857,1033.1,24.57142857142857,41.47767857142857,1137.2,24.57142857142857,42.47767857142857,1240.7,26.57142857142857,44.47767857142857,1344.4,31.57142857142857,46.47767857142857,1444.4,35.57142857142857,47.47767857142857,1546.7,35.57142857142857,47.47767857142857,1651.4,35.57142857142857,47.47767857142857,1755.7,36.57142857142857,47.47767857142857,1860,104.57142857142857,80.47767857142857,1966.4,537.5714285714286,211.47767857142856,2066.6,693.5714285714286,236.47767857142856,2168.8,697.5714285714286,238.47767857142856,2272.9,697.5714285714286,239.47767857142856,2374.3,1112.5714285714287,248.47767857142856,2475.6,1225.5714285714287,259.47767857142856,2579.2,1225.5714285714287,259.47767857142856,2679.9,1225.5714285714287,259.47767857142856,2783.5,1225.5714285714287,259.47767857142856,2886.4,1225.5714285714287,259.47767857142856,2990.2,1225.5714285714287,259.47767857142856,3095.1,1225.5714285714287,259.47767857142856,3195.3,1225.5714285714287,259.47767857142856,3300.4,1225.5714285714287,259.47767857142856,3402.8,1225.5714285714287,259.47767857142856,3507.2,1225.5714285714287,259.47767857142856,3610.2,1225.5714285714287,259.47767857142856,3710.8,1225.5714285714287,259.47767857142856,3821,1225.5714285714287,259.47767857142856,3921,1225.5714285714287,259.47767857142856,4021.8,1225.5714285714287,259.47767857142856,4125.2,1225.5714285714287,259.47767857142856,4229.5,1225.5714285714287,259.47767857142856,4335.2,1225.5714285714287,259.47767857142856,4436.4,1225.5714285714287,259.47767857142856,4540,1225.5714285714287,259.47767857142856,4644.6,1225.5714285714287,259.47767857142856,4753.7,1225.5714285714287,259.47767857142856,4856,1225.5714285714287,259.47767857142856,4957.3]","[1939.5,1939.6,1000,0,939.6,""smooth"",""up"",""up"",""good_move"",4651.3,2709,2211.2,1942.3,497.8,""smooth"",""left"",""left"",""good_move""]","",""
"33094","","<div style=""width:500px;"">
  <p>What determined the result of this run?</p>
  </div>","78","html-slider-response","35","411774","0.0-5.0-1.5","141","1","2025-07-23 06:30:17","1f75c3e559b7213887762d5229550c2b","154.0.11.214","Mozilla/5.0 (Windows NT 10.0; Win64; x64) AppleWebKit/537.36 (KHTML, like Gecko) Chrome/138.0.0.0 Safari/537.36","WebKit","Chrome","138.0.0.0","Windows","10.0","https://app.prolific.com/","en-GB,en-US;q=0.9,en;q=0.8","669a686f263cbcb8e321ed85","683db9eb0562dbf637994deb","6880816bc5a1b77d87ee1370","2","1","669a686f263cbcb8e321ed85","2","1","2025-07-23T06:37:11.569Z","","","","","","","","","","","AttribQ","","50","","","","","","","","","","","","","","","","","","","","","","","","","","","","",""
"15497","","<div style=""width:500px;"">
  <p>How much control did you have over the ball?</p>
  </div>","76","html-slider-response","36","427277","0.0-5.0-2.5","141","1","2025-07-23 06:30:17","1f75c3e559b7213887762d5229550c2b","154.0.11.214","Mozilla/5.0 (Windows NT 10.0; Win64; x64) AppleWebKit/537.36 (KHTML, like Gecko) Chrome/138.0.0.0 Safari/537.36","WebKit","Chrome","138.0.0.0","Windows","10.0","https://app.prolific.com/","en-GB,en-US;q=0.9,en;q=0.8","669a686f263cbcb8e321ed85","683db9eb0562dbf637994deb","6880816bc5a1b77d87ee1370","2","1","669a686f263cbcb8e321ed85","2","1","2025-07-23T06:37:27.071Z","","","","","","","","","","","ControlQ","","50","","","","","","","","","","","","","","","","","","","","","","","","","","","","",""
"18959","","<div style=""width:500px;"">
  <p>How would you describe your current emotional state?</p>
  </div>","83","html-slider-response","37","446238","0.0-5.0-3.5","141","1","2025-07-23 06:30:17","1f75c3e559b7213887762d5229550c2b","154.0.11.214","Mozilla/5.0 (Windows NT 10.0; Win64; x64) AppleWebKit/537.36 (KHTML, like Gecko) Chrome/138.0.0.0 Safari/537.36","WebKit","Chrome","138.0.0.0","Windows","10.0","https://app.prolific.com/","en-GB,en-US;q=0.9,en;q=0.8","669a686f263cbcb8e321ed85","683db9eb0562dbf637994deb","6880816bc5a1b77d87ee1370","2","1","669a686f263cbcb8e321ed85","2","1","2025-07-23T06:37:46.032Z","","","","","","","","","","","StressQ","","50","","","","","","","","","","","","","","","","","","","","","","","","","","","","",""
"2792","","<div style=""width:500px;"">
  <p>What best describes how you currently feel?</p>
  </div>","65","html-slider-response","38","449030","0.0-5.0-4.5","141","1","2025-07-23 06:30:17","1f75c3e559b7213887762d5229550c2b","154.0.11.214","Mozilla/5.0 (Windows NT 10.0; Win64; x64) AppleWebKit/537.36 (KHTML, like Gecko) Chrome/138.0.0.0 Safari/537.36","WebKit","Chrome","138.0.0.0","Windows","10.0","https://app.prolific.com/","en-GB,en-US;q=0.9,en;q=0.8","669a686f263cbcb8e321ed85","683db9eb0562dbf637994deb","6880816bc5a1b77d87ee1370","2","1","669a686f263cbcb8e321ed85","2","1","2025-07-23T06:37:48.824Z","","","","","","","","","","","MotivationQ","","50","","","","","","","","","","","","","","","","","","","","","","","","","","","","",""
"","","","","ctl-task-cpt","39","480361","0.0-5.0-0.6","141","1","2025-07-23 06:30:17","1f75c3e559b7213887762d5229550c2b","154.0.11.214","Mozilla/5.0 (Windows NT 10.0; Win64; x64) AppleWebKit/537.36 (KHTML, like Gecko) Chrome/138.0.0.0 Safari/537.36","WebKit","Chrome","138.0.0.0","Windows","10.0","https://app.prolific.com/","en-GB,en-US;q=0.9,en;q=0.8","669a686f263cbcb8e321ed85","683db9eb0562dbf637994deb","6880816bc5a1b77d87ee1370","2","1","669a686f263cbcb8e321ed85","2","1","2025-07-23T06:38:20.155Z","","","","","","","","","","","","","","win-only","3","g1:SW,g2:NE","0.4","7","0","451565","1175.7","6180","28310.1","1","4","4","6","1","-1","-1","0","0","0","1174.4","3000","-2155","[""down"",""left""]","{""num_key_presses"":5,""num_perfect"":2,""num_errors"":0,""num_randdir"":3,""num_randdir_good_moves"":1,""num_whilered"":0,""num_whileblue"":0,""num_blue"":1,""num_good_moves"":3}","[409.57142857142856,419.47767857142856,0.2,409.57142857142856,419.47767857142856,102.1,409.57142857142856,419.47767857142856,206.5,445.57142857142856,412.47767857142856,315,408.57142857142856,427.47767857142856,421.4,206.57142857142856,580.4776785714286,527.1,130.57142857142856,685.4776785714286,627.6,135.57142857142856,734.4776785714286,728.2,138.57142857142856,737.4776785714286,835.7,120.57142857142857,745.4776785714286,940.7,106.57142857142857,752.4776785714286,1042.8,99.57142857142857,750.4776785714286,1149.6,99.57142857142857,749.4776785714286,1249.7,99.57142857142857,745.4776785714286,1353.2,99.57142857142857,742.4776785714286,1457.1,174.57142857142856,752.4776785714286,1557.7,547.5714285714286,800.4776785714286,1665.1,581.5714285714286,768.4776785714286,1770.2,585.5714285714286,769.4776785714286,1877.9,585.5714285714286,769.4776785714286,1978.9,585.5714285714286,769.4776785714286,2085,585.5714285714286,769.4776785714286,2191.3,585.5714285714286,769.4776785714286,2299.9,585.5714285714286,769.4776785714286,2400.4,585.5714285714286,769.4776785714286,2506.2,585.5714285714286,769.4776785714286,2606.6,585.5714285714286,769.4776785714286,2707.2,585.5714285714286,769.4776785714286,2813.7,585.5714285714286,769.4776785714286,2915.5,585.5714285714286,769.4776785714286,3015.9,585.5714285714286,769.4776785714286,3120.8,585.5714285714286,769.4776785714286,3221.8,585.5714285714286,769.4776785714286,3328.5,585.5714285714286,769.4776785714286,3435.2,585.5714285714286,769.4776785714286,3540.9,585.5714285714286,769.4776785714286,3644.8,585.5714285714286,769.4776785714286,3749.9,585.5714285714286,769.4776785714286,3850.6,585.5714285714286,769.4776785714286,3951.4,585.5714285714286,769.4776785714286,4056.5,585.5714285714286,769.4776785714286,4160.8,585.5714285714286,769.4776785714286,4265.7,585.5714285714286,769.4776785714286,4372,585.5714285714286,769.4776785714286,4476.2,585.5714285714286,769.4776785714286,4584.6,585.5714285714286,769.4776785714286,4691.2,585.5714285714286,769.4776785714286,4791.4,585.5714285714286,769.4776785714286,4892.5,585.5714285714286,769.4776785714286,4999.3]","[1553.6,1553.6,1000,0,553.6,""oops"",""down"",""right"",""bad_move"",5569.5,4015.5,2687.7,1554,1327.8,""oops"",""down"",""left"",""good_move"",12833.7,7263.8,3175.8,9011.2,646.7,""smooth"",""down"",""down"",""good_move"",16065.9,3231.9,2743,12834,488.9,""smooth"",""down"",""down"",""good_move"",19650,3583.9,2386,16066.1,1197.9,""oops"",""left"",""up"",""bad_move""]","",""
"18021","","<div style=""width:500px;"">
  <p>What determined the result of this run?</p>
  </div>","78","html-slider-response","40","498382","0.0-5.0-1.6","141","1","2025-07-23 06:30:17","1f75c3e559b7213887762d5229550c2b","154.0.11.214","Mozilla/5.0 (Windows NT 10.0; Win64; x64) AppleWebKit/537.36 (KHTML, like Gecko) Chrome/138.0.0.0 Safari/537.36","WebKit","Chrome","138.0.0.0","Windows","10.0","https://app.prolific.com/","en-GB,en-US;q=0.9,en;q=0.8","669a686f263cbcb8e321ed85","683db9eb0562dbf637994deb","6880816bc5a1b77d87ee1370","2","1","669a686f263cbcb8e321ed85","2","1","2025-07-23T06:38:38.176Z","","","","","","","","","","","AttribQ","","50","","","","","","","","","","","","","","","","","","","","","","","","","","","","",""
"2582","","<div style=""width:500px;"">
  <p>How much control did you have over the ball?</p>
  </div>","74","html-slider-response","41","500965","0.0-5.0-2.6","141","1","2025-07-23 06:30:17","1f75c3e559b7213887762d5229550c2b","154.0.11.214","Mozilla/5.0 (Windows NT 10.0; Win64; x64) AppleWebKit/537.36 (KHTML, like Gecko) Chrome/138.0.0.0 Safari/537.36","WebKit","Chrome","138.0.0.0","Windows","10.0","https://app.prolific.com/","en-GB,en-US;q=0.9,en;q=0.8","669a686f263cbcb8e321ed85","683db9eb0562dbf637994deb","6880816bc5a1b77d87ee1370","2","1","669a686f263cbcb8e321ed85","2","1","2025-07-23T06:38:40.759Z","","","","","","","","","","","ControlQ","","50","","","","","","","","","","","","","","","","","","","","","","","","","","","","",""
"2439","","<div style=""width:500px;"">
  <p>How would you describe your current emotional state?</p>
  </div>","74","html-slider-response","42","503406","0.0-5.0-3.6","141","1","2025-07-23 06:30:17","1f75c3e559b7213887762d5229550c2b","154.0.11.214","Mozilla/5.0 (Windows NT 10.0; Win64; x64) AppleWebKit/537.36 (KHTML, like Gecko) Chrome/138.0.0.0 Safari/537.36","WebKit","Chrome","138.0.0.0","Windows","10.0","https://app.prolific.com/","en-GB,en-US;q=0.9,en;q=0.8","669a686f263cbcb8e321ed85","683db9eb0562dbf637994deb","6880816bc5a1b77d87ee1370","2","1","669a686f263cbcb8e321ed85","2","1","2025-07-23T06:38:43.200Z","","","","","","","","","","","StressQ","","50","","","","","","","","","","","","","","","","","","","","","","","","","","","","",""
"1985","","<div style=""width:500px;"">
  <p>What best describes how you currently feel?</p>
  </div>","77","html-slider-response","43","505391","0.0-5.0-4.6","141","1","2025-07-23 06:30:17","1f75c3e559b7213887762d5229550c2b","154.0.11.214","Mozilla/5.0 (Windows NT 10.0; Win64; x64) AppleWebKit/537.36 (KHTML, like Gecko) Chrome/138.0.0.0 Safari/537.36","WebKit","Chrome","138.0.0.0","Windows","10.0","https://app.prolific.com/","en-GB,en-US;q=0.9,en;q=0.8","669a686f263cbcb8e321ed85","683db9eb0562dbf637994deb","6880816bc5a1b77d87ee1370","2","1","669a686f263cbcb8e321ed85","2","1","2025-07-23T06:38:45.185Z","","","","","","","","","","","MotivationQ","","50","","","","","","","","","","","","","","","","","","","","","","","","","","","","",""
"","","","","ctl-task-cpt","44","543379","0.0-5.0-0.7","141","1","2025-07-23 06:30:17","1f75c3e559b7213887762d5229550c2b","154.0.11.214","Mozilla/5.0 (Windows NT 10.0; Win64; x64) AppleWebKit/537.36 (KHTML, like Gecko) Chrome/138.0.0.0 Safari/537.36","WebKit","Chrome","138.0.0.0","Windows","10.0","https://app.prolific.com/","en-GB,en-US;q=0.9,en;q=0.8","669a686f263cbcb8e321ed85","683db9eb0562dbf637994deb","6880816bc5a1b77d87ee1370","2","1","669a686f263cbcb8e321ed85","2","1","2025-07-23T06:39:23.173Z","","","","","","","","","","","","","","win-only","1","g1:NE,g2:SW","0.3","8","0","507925.5","1328.6","6331.8","34972.1","1","4","8","6","1","-1","-3","0","0","0","2389.6","3000","-2090","[""up"",""right""]","{""num_key_presses"":8,""num_perfect"":2,""num_errors"":2,""num_randdir"":4,""num_randdir_good_moves"":2,""num_whilered"":0,""num_whileblue"":2,""num_blue"":2,""num_good_moves"":5}","[417.57142857142856,411.47767857142856,0.2,417.57142857142856,411.47767857142856,102.9,417.57142857142856,411.47767857142856,208.4,417.57142857142856,411.47767857142856,314.2,461.57142857142856,400.47767857142856,416.9,595.5714285714286,298.47767857142856,523.7,647.5714285714286,237.47767857142856,628.3,640.5714285714286,231.47767857142856,728.4,724.5714285714286,174.47767857142856,829.4,736.5714285714286,144.47767857142856,938.5,777.5714285714286,100.47767857142857,1043.8,777.5714285714286,100.47767857142857,1153.3,776.5714285714286,96.47767857142857,1263,776.5714285714286,96.47767857142857,1365.6,776.5714285714286,95.47767857142857,1472.8,776.5714285714286,95.47767857142857,1573.5,776.5714285714286,95.47767857142857,1678,776.5714285714286,95.47767857142857,1778.3,776.5714285714286,95.47767857142857,1879.4,776.5714285714286,95.47767857142857,1987.1,776.5714285714286,95.47767857142857,2090.5,776.5714285714286,95.47767857142857,2193.3,776.5714285714286,95.47767857142857,2293.6,776.5714285714286,95.47767857142857,2403.6,776.5714285714286,95.47767857142857,2509.1,776.5714285714286,95.47767857142857,2612.8,776.5714285714286,96.47767857142857,2715.2,760.5714285714286,113.47767857142857,2815.5,743.5714285714286,169.47767857142856,2922.3,748.5714285714286,221.47767857142856,3022.6,756.5714285714286,243.47767857142856,3123,757.5714285714286,246.47767857142856,3228.8,758.5714285714286,250.47767857142856,3337.3,759.5714285714286,251.47767857142856,3438,749.5714285714286,283.47767857142856,3543.8,746.5714285714286,293.47767857142856,3644.8,746.5714285714286,304.47767857142856,3753.2,749.5714285714286,316.47767857142856,3854.5,750.5714285714286,317.47767857142856,3958.4,750.5714285714286,317.47767857142856,4060.8,750.5714285714286,317.47767857142856,4165.3,750.5714285714286,317.47767857142856,4265.4,750.5714285714286,317.47767857142856,4372.7,750.5714285714286,317.47767857142856,4474.8,750.5714285714286,317.47767857142856,4579.4,750.5714285714286,317.47767857142856,4688.4,750.5714285714286,317.47767857142856,4788.9,750.5714285714286,317.47767857142856,4893.2,750.5714285714286,317.47767857142856,4993.3]","[1921.7,1921.7,1004,0,917.7,""while_blue"",""up"",""right"",""good_move"",5218.7,3296.8,2643,1921.9,653.8,""oops"",""up"",""down"",""bad_move"",8995.7,3776.8,3099.4,5219,677.3,""oops"",""up"",""up"",""good_move"",12657.9,3661.8,2942.6,8996.1,719.2,""smooth"",""up"",""up"",""good_move"",15937.9,3279.9,1762.7,12658.1,1517.2,""oops"",""up"",""up"",""good_move"",18257.6,2319.5,2282.5,15938.1,37,""oops"",""right"",""left"",""bad_move"",21409.9,3152,2600.8,18257.9,551.2,""smooth"",""right"",""right"",""good_move"",24930.5,3519.5,2957.9,21411,561.6,""while_blue"",""right"",""down"",""bad_move""]","",""
"3675","","<div style=""width:500px;"">
  <p>What determined the result of this run?</p>
  </div>","80","html-slider-response","45","547054","0.0-5.0-1.7","141","1","2025-07-23 06:30:17","1f75c3e559b7213887762d5229550c2b","154.0.11.214","Mozilla/5.0 (Windows NT 10.0; Win64; x64) AppleWebKit/537.36 (KHTML, like Gecko) Chrome/138.0.0.0 Safari/537.36","WebKit","Chrome","138.0.0.0","Windows","10.0","https://app.prolific.com/","en-GB,en-US;q=0.9,en;q=0.8","669a686f263cbcb8e321ed85","683db9eb0562dbf637994deb","6880816bc5a1b77d87ee1370","2","1","669a686f263cbcb8e321ed85","2","1","2025-07-23T06:39:26.848Z","","","","","","","","","","","AttribQ","","50","","","","","","","","","","","","","","","","","","","","","","","","","","","","",""
"2856","","<div style=""width:500px;"">
  <p>How much control did you have over the ball?</p>
  </div>","73","html-slider-response","46","549911","0.0-5.0-2.7","141","1","2025-07-23 06:30:17","1f75c3e559b7213887762d5229550c2b","154.0.11.214","Mozilla/5.0 (Windows NT 10.0; Win64; x64) AppleWebKit/537.36 (KHTML, like Gecko) Chrome/138.0.0.0 Safari/537.36","WebKit","Chrome","138.0.0.0","Windows","10.0","https://app.prolific.com/","en-GB,en-US;q=0.9,en;q=0.8","669a686f263cbcb8e321ed85","683db9eb0562dbf637994deb","6880816bc5a1b77d87ee1370","2","1","669a686f263cbcb8e321ed85","2","1","2025-07-23T06:39:29.705Z","","","","","","","","","","","ControlQ","","50","","","","","","","","","","","","","","","","","","","","","","","","","","","","",""
"1976","","<div style=""width:500px;"">
  <p>How would you describe your current emotional state?</p>
  </div>","77","html-slider-response","47","551887","0.0-5.0-3.7","141","1","2025-07-23 06:30:17","1f75c3e559b7213887762d5229550c2b","154.0.11.214","Mozilla/5.0 (Windows NT 10.0; Win64; x64) AppleWebKit/537.36 (KHTML, like Gecko) Chrome/138.0.0.0 Safari/537.36","WebKit","Chrome","138.0.0.0","Windows","10.0","https://app.prolific.com/","en-GB,en-US;q=0.9,en;q=0.8","669a686f263cbcb8e321ed85","683db9eb0562dbf637994deb","6880816bc5a1b77d87ee1370","2","1","669a686f263cbcb8e321ed85","2","1","2025-07-23T06:39:31.681Z","","","","","","","","","","","StressQ","","50","","","","","","","","","","","","","","","","","","","","","","","","","","","","",""
"1582","","<div style=""width:500px;"">
  <p>What best describes how you currently feel?</p>
  </div>","84","html-slider-response","48","553471","0.0-5.0-4.7","141","1","2025-07-23 06:30:17","1f75c3e559b7213887762d5229550c2b","154.0.11.214","Mozilla/5.0 (Windows NT 10.0; Win64; x64) AppleWebKit/537.36 (KHTML, like Gecko) Chrome/138.0.0.0 Safari/537.36","WebKit","Chrome","138.0.0.0","Windows","10.0","https://app.prolific.com/","en-GB,en-US;q=0.9,en;q=0.8","669a686f263cbcb8e321ed85","683db9eb0562dbf637994deb","6880816bc5a1b77d87ee1370","2","1","669a686f263cbcb8e321ed85","2","1","2025-07-23T06:39:33.265Z","","","","","","","","","","","MotivationQ","","50","","","","","","","","","","","","","","","","","","","","","","","","","","","","",""
"","","","","ctl-task-cpt","49","592966","0.0-5.0-0.8","141","1","2025-07-23 06:30:17","1f75c3e559b7213887762d5229550c2b","154.0.11.214","Mozilla/5.0 (Windows NT 10.0; Win64; x64) AppleWebKit/537.36 (KHTML, like Gecko) Chrome/138.0.0.0 Safari/537.36","WebKit","Chrome","138.0.0.0","Windows","10.0","https://app.prolific.com/","en-GB,en-US;q=0.9,en;q=0.8","669a686f263cbcb8e321ed85","683db9eb0562dbf637994deb","6880816bc5a1b77d87ee1370","2","1","669a686f263cbcb8e321ed85","2","1","2025-07-23T06:40:12.760Z","","","","","","","","","","","","","","win-only","3","g1:SW,g2:NE","0.2","9","0","556005.2","1774","6782.1","36475.5","1","4","4","6","1","-1","-3","0","0","0","1065.7","3000","-1705","[""down"",""left""]","{""num_key_presses"":8,""num_perfect"":1,""num_errors"":2,""num_randdir"":5,""num_randdir_good_moves"":2,""num_whilered"":0,""num_whileblue"":1,""num_blue"":2,""num_good_moves"":4}","[410.57142857142856,409.47767857142856,0.2,410.57142857142856,409.47767857142856,100.7,410.57142857142856,409.47767857142856,205.7,437.57142857142856,408.47767857142856,307.7,496.57142857142856,379.47767857142856,408,394.57142857142856,359.47767857142856,514.6,128.57142857142856,657.4776785714286,614.6,122.57142857142857,761.4776785714286,716.2,91.57142857142857,790.4776785714286,821.6,72.57142857142857,790.4776785714286,926.2,66.57142857142857,776.4776785714286,1027.8,66.57142857142857,776.4776785714286,1129.4,74.57142857142857,769.4776785714286,1235.2,157.57142857142856,775.4776785714286,1343.9,292.57142857142856,790.4776785714286,1450.8,296.57142857142856,800.4776785714286,1551.5,306.57142857142856,819.4776785714286,1652.4,306.57142857142856,820.4776785714286,1757.8,306.57142857142856,820.4776785714286,1864.6,306.57142857142856,820.4776785714286,1965.5,306.57142857142856,820.4776785714286,2069.3,306.57142857142856,820.4776785714286,2176,306.57142857142856,820.4776785714286,2281.7,306.57142857142856,820.4776785714286,2383.3,306.57142857142856,820.4776785714286,2484,306.57142857142856,820.4776785714286,2590.4,306.57142857142856,820.4776785714286,2696.7,306.57142857142856,820.4776785714286,2800,306.57142857142856,820.4776785714286,2906.4,306.57142857142856,820.4776785714286,3011.7,306.57142857142856,820.4776785714286,3115.7,306.57142857142856,820.4776785714286,3218.8,306.57142857142856,820.4776785714286,3323.6,306.57142857142856,820.4776785714286,3432.3,306.57142857142856,820.4776785714286,3543.3,306.57142857142856,820.4776785714286,3650.7,306.57142857142856,820.4776785714286,3756.8,306.57142857142856,820.4776785714286,3862.9,306.57142857142856,820.4776785714286,3966.4,306.57142857142856,820.4776785714286,4076.1,306.57142857142856,820.4776785714286,4183.9,306.57142857142856,820.4776785714286,4295,306.57142857142856,820.4776785714286,4406.1,306.57142857142856,820.4776785714286,4513.5,306.57142857142856,820.4776785714286,4616.5,306.57142857142856,820.4776785714286,4719.7,306.57142857142856,820.4776785714286,4828.3,306.57142857142856,820.4776785714286,4934]","[1696.7,1696.7,1008.9,0,688,""while_blue"",""down"",""left"",""good_move"",5039.9,3342,2880.6,1697.9,461.4,""oops"",""down"",""up"",""bad_move"",8159.3,3119,2350.8,5040.3,768.2,""smooth"",""down"",""down"",""good_move"",11039.5,2879.7,2290.2,8159.8,589.5,""oops"",""down"",""down"",""good_move"",13984.1,2944.4,2380.8,11039.7,563.6,""oops"",""down"",""up"",""bad_move"",17217.2,3232.8,2734.2,13984.4,498.6,""oops"",""down"",""right"",""bad_move"",21264.7,4047.3,2163.1,20640.2,-1538.6,""error"",""-"",""-"",""no_move"",25888.2,4622.9,2962.7,22273,652.5,""oops"",""down"",""left"",""good_move""]","",""
"11224","","<div style=""width:500px;"">
  <p>What determined the result of this run?</p>
  </div>","78","html-slider-response","50","604190","0.0-5.0-1.8","141","1","2025-07-23 06:30:17","1f75c3e559b7213887762d5229550c2b","154.0.11.214","Mozilla/5.0 (Windows NT 10.0; Win64; x64) AppleWebKit/537.36 (KHTML, like Gecko) Chrome/138.0.0.0 Safari/537.36","WebKit","Chrome","138.0.0.0","Windows","10.0","https://app.prolific.com/","en-GB,en-US;q=0.9,en;q=0.8","669a686f263cbcb8e321ed85","683db9eb0562dbf637994deb","6880816bc5a1b77d87ee1370","2","1","669a686f263cbcb8e321ed85","2","1","2025-07-23T06:40:23.985Z","","","","","","","","","","","AttribQ","","50","","","","","","","","","","","","","","","","","","","","","","","","","","","","",""
"1767","","<div style=""width:500px;"">
  <p>How much control did you have over the ball?</p>
  </div>","87","html-slider-response","51","605958","0.0-5.0-2.8","141","1","2025-07-23 06:30:17","1f75c3e559b7213887762d5229550c2b","154.0.11.214","Mozilla/5.0 (Windows NT 10.0; Win64; x64) AppleWebKit/537.36 (KHTML, like Gecko) Chrome/138.0.0.0 Safari/537.36","WebKit","Chrome","138.0.0.0","Windows","10.0","https://app.prolific.com/","en-GB,en-US;q=0.9,en;q=0.8","669a686f263cbcb8e321ed85","683db9eb0562dbf637994deb","6880816bc5a1b77d87ee1370","2","1","669a686f263cbcb8e321ed85","2","1","2025-07-23T06:40:25.752Z","","","","","","","","","","","ControlQ","","50","","","","","","","","","","","","","","","","","","","","","","","","","","","","",""
"13775","","<div style=""width:500px;"">
  <p>How would you describe your current emotional state?</p>
  </div>","71","html-slider-response","52","619734","0.0-5.0-3.8","141","1","2025-07-23 06:30:17","1f75c3e559b7213887762d5229550c2b","154.0.11.214","Mozilla/5.0 (Windows NT 10.0; Win64; x64) AppleWebKit/537.36 (KHTML, like Gecko) Chrome/138.0.0.0 Safari/537.36","WebKit","Chrome","138.0.0.0","Windows","10.0","https://app.prolific.com/","en-GB,en-US;q=0.9,en;q=0.8","669a686f263cbcb8e321ed85","683db9eb0562dbf637994deb","6880816bc5a1b77d87ee1370","2","1","669a686f263cbcb8e321ed85","2","1","2025-07-23T06:40:39.529Z","","","","","","","","","","","StressQ","","50","","","","","","","","","","","","","","","","","","","","","","","","","","","","",""
"2327","","<div style=""width:500px;"">
  <p>What best describes how you currently feel?</p>
  </div>","79","html-slider-response","53","622062","0.0-5.0-4.8","141","1","2025-07-23 06:30:17","1f75c3e559b7213887762d5229550c2b","154.0.11.214","Mozilla/5.0 (Windows NT 10.0; Win64; x64) AppleWebKit/537.36 (KHTML, like Gecko) Chrome/138.0.0.0 Safari/537.36","WebKit","Chrome","138.0.0.0","Windows","10.0","https://app.prolific.com/","en-GB,en-US;q=0.9,en;q=0.8","669a686f263cbcb8e321ed85","683db9eb0562dbf637994deb","6880816bc5a1b77d87ee1370","2","1","669a686f263cbcb8e321ed85","2","1","2025-07-23T06:40:41.856Z","","","","","","","","","","","MotivationQ","","50","","","","","","","","","","","","","","","","","","","","","","","","","","","","",""
"","","","","ctl-task-cpt","54","643362","0.0-5.0-0.9","141","1","2025-07-23 06:30:17","1f75c3e559b7213887762d5229550c2b","154.0.11.214","Mozilla/5.0 (Windows NT 10.0; Win64; x64) AppleWebKit/537.36 (KHTML, like Gecko) Chrome/138.0.0.0 Safari/537.36","WebKit","Chrome","138.0.0.0","Windows","10.0","https://app.prolific.com/","en-GB,en-US;q=0.9,en;q=0.8","669a686f263cbcb8e321ed85","683db9eb0562dbf637994deb","6880816bc5a1b77d87ee1370","2","1","669a686f263cbcb8e321ed85","2","1","2025-07-23T06:41:03.156Z","","","","","","","","","","","","","","win-only","0","g1:NW,g2:SE","0.4","10","0","624597.5","1141.7","6158.5","18288.3","1","4","8","6","1","1","1","1","0","0.007575757575757576","1256.1","3000","1995","[""left"",""up""]","{""num_key_presses"":4,""num_perfect"":2,""num_errors"":0,""num_randdir"":2,""num_randdir_good_moves"":2,""num_whilered"":0,""num_whileblue"":0,""num_blue"":0,""num_good_moves"":4}","[420.57142857142856,415.47767857142856,0.1,420.57142857142856,415.47767857142856,109.1,420.57142857142856,415.47767857142856,217.2,420.57142857142856,415.47767857142856,325.1,411.57142857142856,418.47767857142856,434.8,369.57142857142856,483.47767857142856,551.9,412.57142857142856,451.47767857142856,666.5,205.57142857142856,238.47767857142856,778.8,156.57142857142856,172.47767857142856,893.4,106.57142857142857,109.47767857142857,1009.3,101.57142857142857,74.47767857142857,1109.9,97.57142857142857,72.47767857142857,1220.1,97.57142857142857,72.47767857142857,1320.1,97.57142857142857,73.47767857142857,1435.7,96.57142857142857,74.47767857142857,1542,89.57142857142857,85.47767857142857,1650.9,82.57142857142857,110.47767857142857,1766.5,413.57142857142856,171.47767857142856,1883.2,474.57142857142856,258.47767857142856,2001.1,572.5714285714286,318.47767857142856,2107.3,583.5714285714286,321.47767857142856,2217.5,583.5714285714286,321.47767857142856,2326.7,583.5714285714286,321.47767857142856,2441.8,583.5714285714286,321.47767857142856,2552.5,583.5714285714286,321.47767857142856,2654.7,583.5714285714286,321.47767857142856,2755.9,583.5714285714286,321.47767857142856,2865,583.5714285714286,321.47767857142856,2974.1,583.5714285714286,321.47767857142856,3077,583.5714285714286,321.47767857142856,3177.2,583.5714285714286,321.47767857142856,3298.2,583.5714285714286,321.47767857142856,3415.2,583.5714285714286,321.47767857142856,3518.7,583.5714285714286,321.47767857142856,3633.9,583.5714285714286,321.47767857142856,3752.2,583.5714285714286,321.47767857142856,3875.2,583.5714285714286,321.47767857142856,3976.2,583.5714285714286,321.47767857142856,4076.9,583.5714285714286,321.47767857142856,4196.8,583.5714285714286,321.47767857142856,4297.3,583.5714285714286,321.47767857142856,4402.7,583.5714285714286,321.47767857142856,4520.8,583.5714285714286,321.47767857142856,4623.4,583.5714285714286,321.47767857142856,4739,583.5714285714286,321.47767857142856,4858.8,583.5714285714286,321.47767857142856,4977.4]","[1648.7,1648.7,1000,0,648.7,""oops"",""left"",""up"",""good_move"",6064.8,4415.8,2959.2,1649,1456.6,""smooth"",""left"",""left"",""good_move"",9631.9,3566.8,2151.4,6065.1,1415.4,""smooth"",""left"",""left"",""good_move"",11951.6,2319.4,1907.8,9632.2,411.6,""oops"",""up"",""up"",""good_move""]","",""
"23588","","<div style=""width:500px;"">
  <p>What determined the result of this run?</p>
  </div>","74","html-slider-response","55","666951","0.0-5.0-1.9","141","1","2025-07-23 06:30:17","1f75c3e559b7213887762d5229550c2b","154.0.11.214","Mozilla/5.0 (Windows NT 10.0; Win64; x64) AppleWebKit/537.36 (KHTML, like Gecko) Chrome/138.0.0.0 Safari/537.36","WebKit","Chrome","138.0.0.0","Windows","10.0","https://app.prolific.com/","en-GB,en-US;q=0.9,en;q=0.8","669a686f263cbcb8e321ed85","683db9eb0562dbf637994deb","6880816bc5a1b77d87ee1370","2","1","669a686f263cbcb8e321ed85","2","1","2025-07-23T06:41:26.745Z","","","","","","","","","","","AttribQ","","50","","","","","","","","","","","","","","","","","","","","","","","","","","","","",""
"9926","","<div style=""width:500px;"">
  <p>How much control did you have over the ball?</p>
  </div>","77","html-slider-response","56","676878","0.0-5.0-2.9","141","1","2025-07-23 06:30:17","1f75c3e559b7213887762d5229550c2b","154.0.11.214","Mozilla/5.0 (Windows NT 10.0; Win64; x64) AppleWebKit/537.36 (KHTML, like Gecko) Chrome/138.0.0.0 Safari/537.36","WebKit","Chrome","138.0.0.0","Windows","10.0","https://app.prolific.com/","en-GB,en-US;q=0.9,en;q=0.8","669a686f263cbcb8e321ed85","683db9eb0562dbf637994deb","6880816bc5a1b77d87ee1370","2","1","669a686f263cbcb8e321ed85","2","1","2025-07-23T06:41:36.672Z","","","","","","","","","","","ControlQ","","50","","","","","","","","","","","","","","","","","","","","","","","","","","","","",""
"2031","","<div style=""width:500px;"">
  <p>How would you describe your current emotional state?</p>
  </div>","69","html-slider-response","57","678910","0.0-5.0-3.9","141","1","2025-07-23 06:30:17","1f75c3e559b7213887762d5229550c2b","154.0.11.214","Mozilla/5.0 (Windows NT 10.0; Win64; x64) AppleWebKit/537.36 (KHTML, like Gecko) Chrome/138.0.0.0 Safari/537.36","WebKit","Chrome","138.0.0.0","Windows","10.0","https://app.prolific.com/","en-GB,en-US;q=0.9,en;q=0.8","669a686f263cbcb8e321ed85","683db9eb0562dbf637994deb","6880816bc5a1b77d87ee1370","2","1","669a686f263cbcb8e321ed85","2","1","2025-07-23T06:41:38.704Z","","","","","","","","","","","StressQ","","50","","","","","","","","","","","","","","","","","","","","","","","","","","","","",""
"2127","","<div style=""width:500px;"">
  <p>What best describes how you currently feel?</p>
  </div>","72","html-slider-response","58","681038","0.0-5.0-4.9","141","1","2025-07-23 06:30:17","1f75c3e559b7213887762d5229550c2b","154.0.11.214","Mozilla/5.0 (Windows NT 10.0; Win64; x64) AppleWebKit/537.36 (KHTML, like Gecko) Chrome/138.0.0.0 Safari/537.36","WebKit","Chrome","138.0.0.0","Windows","10.0","https://app.prolific.com/","en-GB,en-US;q=0.9,en;q=0.8","669a686f263cbcb8e321ed85","683db9eb0562dbf637994deb","6880816bc5a1b77d87ee1370","2","1","669a686f263cbcb8e321ed85","2","1","2025-07-23T06:41:40.832Z","","","","","","","","","","","MotivationQ","","50","","","","","","","","","","","","","","","","","","","","","","","","","","","","",""
"","","","","ctl-task-cpt","59","725066","0.0-5.0-0.10","141","1","2025-07-23 06:30:17","1f75c3e559b7213887762d5229550c2b","154.0.11.214","Mozilla/5.0 (Windows NT 10.0; Win64; x64) AppleWebKit/537.36 (KHTML, like Gecko) Chrome/138.0.0.0 Safari/537.36","WebKit","Chrome","138.0.0.0","Windows","10.0","https://app.prolific.com/","en-GB,en-US;q=0.9,en;q=0.8","669a686f263cbcb8e321ed85","683db9eb0562dbf637994deb","6880816bc5a1b77d87ee1370","2","1","669a686f263cbcb8e321ed85","2","1","2025-07-23T06:42:24.860Z","","","","","","","","","","","","","","win-only","0","g1:NW,g2:SE","0.5","11","0","683572.6","2038.9","7039.3","41015.3","1","4","8","6","1","-1","-3","0","1","0","1488.2","3000","-1430","[""left"",""up""]","{""num_key_presses"":9,""num_perfect"":3,""num_errors"":2,""num_randdir"":4,""num_randdir_good_moves"":1,""num_whilered"":0,""num_whileblue"":0,""num_blue"":2,""num_good_moves"":4}","[408.57142857142856,417.47767857142856,0.2,408.57142857142856,417.47767857142856,105.9,408.57142857142856,417.47767857142856,215.7,421.57142857142856,419.47767857142856,320.1,375.57142857142856,400.47767857142856,420.4,321.57142857142856,348.47767857142856,520.9,154.57142857142856,240.47767857142856,630.1,136.57142857142856,209.47767857142856,735.2,113.57142857142857,168.47767857142856,842,106.57142857142857,137.47767857142856,947,88.57142857142857,121.47767857142857,1052.9,64.57142857142857,102.47767857142857,1158.1,63.57142857142857,98.47767857142857,1265,63.57142857142857,98.47767857142857,1373.5,63.57142857142857,98.47767857142857,1484.1,63.57142857142857,98.47767857142857,1600.3,63.57142857142857,98.47767857142857,1703.4,63.57142857142857,98.47767857142857,1807.1,179.57142857142856,152.47767857142856,1913.3,509.57142857142856,225.47767857142856,2019.4,542.5714285714286,363.47767857142856,2127.8,776.5714285714286,427.47767857142856,2234.2,781.5714285714286,440.47767857142856,2343.6,785.5714285714286,451.47767857142856,2452.9,785.5714285714286,451.47767857142856,2558.5,785.5714285714286,451.47767857142856,2667.5,785.5714285714286,451.47767857142856,2777.4,785.5714285714286,451.47767857142856,2880.7,785.5714285714286,451.47767857142856,2983.4,785.5714285714286,451.47767857142856,3085.6,785.5714285714286,451.47767857142856,3190.2,785.5714285714286,451.47767857142856,3297.3,785.5714285714286,451.47767857142856,3401.4,785.5714285714286,451.47767857142856,3501.9,785.5714285714286,451.47767857142856,3607.5,785.5714285714286,451.47767857142856,3716.7,785.5714285714286,451.47767857142856,3819.4,785.5714285714286,451.47767857142856,3929.4,785.5714285714286,451.47767857142856,4036.6,785.5714285714286,451.47767857142856,4147.5,785.5714285714286,451.47767857142856,4253.3,785.5714285714286,451.47767857142856,4363.8,786.5714285714286,453.47767857142856,4465.4,788.5714285714286,458.47767857142856,4569.3,789.5714285714286,464.47767857142856,4674.2,789.5714285714286,464.47767857142856,4782.7,789.5714285714286,464.47767857142856,4883.2,789.5714285714286,464.47767857142856,4990.4]","[1551.5,1551.5,1000,0,551.5,""oops"",""up"",""down"",""bad_move"",5166.7,3614.7,3100.2,1552,514.5,""oops"",""left"",""left"",""good_move"",8512.1,3345,2584.7,5167.1,760.3,""smooth"",""up"",""up"",""good_move"",11631,3118.1,2546.6,8512.9,571.5,""smooth"",""up"",""up"",""good_move"",15647,4015.6,2508.5,11631.4,1507.1,""oops"",""up"",""right"",""bad_move"",18799.1,3151.8,2980.4,18745.3,-2926.6,""error"",""-"",""-"",""no_move"",24224.9,5425.7,2883.3,19809.3,1532.4,""smooth"",""left"",""left"",""good_move"",27582.6,3356.6,2848.9,27469.4,-2735.7,""error"",""-"",""-"",""no_move"",31791.1,4208.4,2688,28593.4,509.7,""oops"",""left"",""right"",""bad_move""]","",""
"3916","","<div style=""width:500px;"">
  <p>What determined the result of this run?</p>
  </div>","77","html-slider-response","60","728982","0.0-5.0-1.10","141","1","2025-07-23 06:30:17","1f75c3e559b7213887762d5229550c2b","154.0.11.214","Mozilla/5.0 (Windows NT 10.0; Win64; x64) AppleWebKit/537.36 (KHTML, like Gecko) Chrome/138.0.0.0 Safari/537.36","WebKit","Chrome","138.0.0.0","Windows","10.0","https://app.prolific.com/","en-GB,en-US;q=0.9,en;q=0.8","669a686f263cbcb8e321ed85","683db9eb0562dbf637994deb","6880816bc5a1b77d87ee1370","2","1","669a686f263cbcb8e321ed85","2","1","2025-07-23T06:42:28.776Z","","","","","","","","","","","AttribQ","","50","","","","","","","","","","","","","","","","","","","","","","","","","","","","",""
"4112","","<div style=""width:500px;"">
  <p>How much control did you have over the ball?</p>
  </div>","78","html-slider-response","61","733094","0.0-5.0-2.10","141","1","2025-07-23 06:30:17","1f75c3e559b7213887762d5229550c2b","154.0.11.214","Mozilla/5.0 (Windows NT 10.0; Win64; x64) AppleWebKit/537.36 (KHTML, like Gecko) Chrome/138.0.0.0 Safari/537.36","WebKit","Chrome","138.0.0.0","Windows","10.0","https://app.prolific.com/","en-GB,en-US;q=0.9,en;q=0.8","669a686f263cbcb8e321ed85","683db9eb0562dbf637994deb","6880816bc5a1b77d87ee1370","2","1","669a686f263cbcb8e321ed85","2","1","2025-07-23T06:42:32.888Z","","","","","","","","","","","ControlQ","","50","","","","","","","","","","","","","","","","","","","","","","","","","","","","",""
"5911","","<div style=""width:500px;"">
  <p>How would you describe your current emotional state?</p>
  </div>","71","html-slider-response","62","739006","0.0-5.0-3.10","141","1","2025-07-23 06:30:17","1f75c3e559b7213887762d5229550c2b","154.0.11.214","Mozilla/5.0 (Windows NT 10.0; Win64; x64) AppleWebKit/537.36 (KHTML, like Gecko) Chrome/138.0.0.0 Safari/537.36","WebKit","Chrome","138.0.0.0","Windows","10.0","https://app.prolific.com/","en-GB,en-US;q=0.9,en;q=0.8","669a686f263cbcb8e321ed85","683db9eb0562dbf637994deb","6880816bc5a1b77d87ee1370","2","1","669a686f263cbcb8e321ed85","2","1","2025-07-23T06:42:38.800Z","","","","","","","","","","","StressQ","","50","","","","","","","","","","","","","","","","","","","","","","","","","","","","",""
"2279","","<div style=""width:500px;"">
  <p>What best describes how you currently feel?</p>
  </div>","76","html-slider-response","63","741286","0.0-5.0-4.10","141","1","2025-07-23 06:30:17","1f75c3e559b7213887762d5229550c2b","154.0.11.214","Mozilla/5.0 (Windows NT 10.0; Win64; x64) AppleWebKit/537.36 (KHTML, like Gecko) Chrome/138.0.0.0 Safari/537.36","WebKit","Chrome","138.0.0.0","Windows","10.0","https://app.prolific.com/","en-GB,en-US;q=0.9,en;q=0.8","669a686f263cbcb8e321ed85","683db9eb0562dbf637994deb","6880816bc5a1b77d87ee1370","2","1","669a686f263cbcb8e321ed85","2","1","2025-07-23T06:42:41.080Z","","","","","","","","","","","MotivationQ","","50","","","","","","","","","","","","","","","","","","","","","","","","","","","","",""
"","","","","ctl-task-cpt","64","766147","0.0-5.0-0.11","141","1","2025-07-23 06:30:17","1f75c3e559b7213887762d5229550c2b","154.0.11.214","Mozilla/5.0 (Windows NT 10.0; Win64; x64) AppleWebKit/537.36 (KHTML, like Gecko) Chrome/138.0.0.0 Safari/537.36","WebKit","Chrome","138.0.0.0","Windows","10.0","https://app.prolific.com/","en-GB,en-US;q=0.9,en;q=0.8","669a686f263cbcb8e321ed85","683db9eb0562dbf637994deb","6880816bc5a1b77d87ee1370","2","1","669a686f263cbcb8e321ed85","2","1","2025-07-23T06:43:05.941Z","","","","","","","","","","","","","","win-only","1","g1:NE,g2:SW","0.6","12","0","743820.4","2095.4","7097.8","21837.2","1","4","4","6","1","1","1","1","0","0.007575757575757576","1976.9","3000","1885","[""up"",""right""]","{""num_key_presses"":4,""num_perfect"":3,""num_errors"":0,""num_randdir"":1,""num_randdir_good_moves"":1,""num_whilered"":0,""num_whileblue"":0,""num_blue"":1,""num_good_moves"":4}","[421.57142857142856,423.47767857142856,0.2,421.57142857142856,416.47767857142856,100.9,421.57142857142856,415.47767857142856,206.8,420.57142857142856,415.47767857142856,313.5,428.57142857142856,408.47767857142856,414.1,426.57142857142856,404.47767857142856,523.3,341.57142857142856,423.47767857142856,623.6,310.57142857142856,460.47767857142856,734.7,277.57142857142856,531.4776785714286,839.3,277.57142857142856,541.4776785714286,943.4,295.57142857142856,544.4776785714286,1056,699.5714285714286,321.47767857142856,1157.8,813.5714285714286,235.47767857142856,1259.2,825.5714285714286,203.47767857142856,1365.6,768.5714285714286,136.47767857142856,1474.5,769.5714285714286,126.47767857142857,1575,787.5714285714286,111.47767857142857,1679.8,789.5714285714286,108.47767857142857,1782.1,789.5714285714286,108.47767857142857,1894.7,789.5714285714286,108.47767857142857,1996.1,789.5714285714286,108.47767857142857,2099,776.5714285714286,119.47767857142857,2202.6,879.5714285714286,286.47767857142856,2310.8,1299.5714285714287,329.47767857142856,2416.1,1309.5714285714287,334.47767857142856,2520.6,1315.5714285714287,369.47767857142856,2622.1,1316.5714285714287,373.47767857142856,2726.1,1316.5714285714287,374.47767857142856,2829,1316.5714285714287,374.47767857142856,2937.3,1316.5714285714287,374.47767857142856,3038.4,1316.5714285714287,374.47767857142856,3143.9,1316.5714285714287,374.47767857142856,3246,1316.5714285714287,374.47767857142856,3358,1316.5714285714287,374.47767857142856,3459.9,1316.5714285714287,374.47767857142856,3560.4,1316.5714285714287,374.47767857142856,3664.2,1316.5714285714287,374.47767857142856,3764.7,1316.5714285714287,374.47767857142856,3879.7,1316.5714285714287,374.47767857142856,3984.9,1316.5714285714287,374.47767857142856,4084.9,1316.5714285714287,374.47767857142856,4185.6,1316.5714285714287,374.47767857142856,4287.4,1316.5714285714287,374.47767857142856,4395.5,1316.5714285714287,374.47767857142856,4504.8,1316.5714285714287,374.47767857142856,4613.2,1316.5714285714287,374.47767857142856,4720.6,1316.5714285714287,374.47767857142856,4821.7,1316.5714285714287,374.47767857142856,4931.1]","[1693,1693,1000,0,693,""smooth"",""up"",""up"",""good_move"",8092.5,6399.1,2152.6,5429.9,510,""smooth"",""up"",""up"",""good_move"",10973.5,2880.8,2239.7,8092.7,641.1,""oops"",""right"",""right"",""good_move"",14557.5,3583.6,2978.7,10973.9,604.9,""smooth"",""right"",""right"",""good_move""]","",""
"4827","","<div style=""width:500px;"">
  <p>What determined the result of this run?</p>
  </div>","75","html-slider-response","65","770974","0.0-5.0-1.11","141","1","2025-07-23 06:30:17","1f75c3e559b7213887762d5229550c2b","154.0.11.214","Mozilla/5.0 (Windows NT 10.0; Win64; x64) AppleWebKit/537.36 (KHTML, like Gecko) Chrome/138.0.0.0 Safari/537.36","WebKit","Chrome","138.0.0.0","Windows","10.0","https://app.prolific.com/","en-GB,en-US;q=0.9,en;q=0.8","669a686f263cbcb8e321ed85","683db9eb0562dbf637994deb","6880816bc5a1b77d87ee1370","2","1","669a686f263cbcb8e321ed85","2","1","2025-07-23T06:43:10.768Z","","","","","","","","","","","AttribQ","","50","","","","","","","","","","","","","","","","","","","","","","","","","","","","",""
"7983","","<div style=""width:500px;"">
  <p>How much control did you have over the ball?</p>
  </div>","75","html-slider-response","66","778958","0.0-5.0-2.11","141","1","2025-07-23 06:30:17","1f75c3e559b7213887762d5229550c2b","154.0.11.214","Mozilla/5.0 (Windows NT 10.0; Win64; x64) AppleWebKit/537.36 (KHTML, like Gecko) Chrome/138.0.0.0 Safari/537.36","WebKit","Chrome","138.0.0.0","Windows","10.0","https://app.prolific.com/","en-GB,en-US;q=0.9,en;q=0.8","669a686f263cbcb8e321ed85","683db9eb0562dbf637994deb","6880816bc5a1b77d87ee1370","2","1","669a686f263cbcb8e321ed85","2","1","2025-07-23T06:43:18.752Z","","","","","","","","","","","ControlQ","","50","","","","","","","","","","","","","","","","","","","","","","","","","","","","",""
"5063","","<div style=""width:500px;"">
  <p>How would you describe your current emotional state?</p>
  </div>","77","html-slider-response","67","784022","0.0-5.0-3.11","141","1","2025-07-23 06:30:17","1f75c3e559b7213887762d5229550c2b","154.0.11.214","Mozilla/5.0 (Windows NT 10.0; Win64; x64) AppleWebKit/537.36 (KHTML, like Gecko) Chrome/138.0.0.0 Safari/537.36","WebKit","Chrome","138.0.0.0","Windows","10.0","https://app.prolific.com/","en-GB,en-US;q=0.9,en;q=0.8","669a686f263cbcb8e321ed85","683db9eb0562dbf637994deb","6880816bc5a1b77d87ee1370","2","1","669a686f263cbcb8e321ed85","2","1","2025-07-23T06:43:23.816Z","","","","","","","","","","","StressQ","","50","","","","","","","","","","","","","","","","","","","","","","","","","","","","",""
"2007","","<div style=""width:500px;"">
  <p>What best describes how you currently feel?</p>
  </div>","78","html-slider-response","68","786030","0.0-5.0-4.11","141","1","2025-07-23 06:30:17","1f75c3e559b7213887762d5229550c2b","154.0.11.214","Mozilla/5.0 (Windows NT 10.0; Win64; x64) AppleWebKit/537.36 (KHTML, like Gecko) Chrome/138.0.0.0 Safari/537.36","WebKit","Chrome","138.0.0.0","Windows","10.0","https://app.prolific.com/","en-GB,en-US;q=0.9,en;q=0.8","669a686f263cbcb8e321ed85","683db9eb0562dbf637994deb","6880816bc5a1b77d87ee1370","2","1","669a686f263cbcb8e321ed85","2","1","2025-07-23T06:43:25.824Z","","","","","","","","","","","MotivationQ","","50","","","","","","","","","","","","","","","","","","","","","","","","","","","","",""
"","","","","ctl-task-cpt","69","806837","0.0-5.0-0.12","141","1","2025-07-23 06:30:17","1f75c3e559b7213887762d5229550c2b","154.0.11.214","Mozilla/5.0 (Windows NT 10.0; Win64; x64) AppleWebKit/537.36 (KHTML, like Gecko) Chrome/138.0.0.0 Safari/537.36","WebKit","Chrome","138.0.0.0","Windows","10.0","https://app.prolific.com/","en-GB,en-US;q=0.9,en;q=0.8","669a686f263cbcb8e321ed85","683db9eb0562dbf637994deb","6880816bc5a1b77d87ee1370","2","1","669a686f263cbcb8e321ed85","2","1","2025-07-23T06:43:46.632Z","","","","","","","","","","","","","","win-only","3","g1:SW,g2:NE","0.7","13","0","788565","976.7","5983.1","17778.8","1","4","4","6","1","1","1","2","1","0.015151515151515152","1614.4","3000","1785","[""down"",""left""]","{""num_key_presses"":4,""num_perfect"":3,""num_errors"":0,""num_randdir"":1,""num_randdir_good_moves"":1,""num_whilered"":0,""num_whileblue"":0,""num_blue"":0,""num_good_moves"":4}","[418.57142857142856,413.47767857142856,0.2,418.57142857142856,413.47767857142856,101.9,417.57142857142856,413.47767857142856,203.8,416.57142857142856,413.47767857142856,304.1,432.57142857142856,396.47767857142856,413.7,554.5714285714286,229.47767857142856,525.1,307.57142857142856,234.47767857142856,637.2,234.57142857142856,342.47767857142856,739.4,522.5714285714286,320.47767857142856,841.9,434.57142857142856,312.47767857142856,953.2,158.57142857142856,662.4776785714286,1057.5,148.57142857142856,721.4776785714286,1165.7,98.57142857142857,744.4776785714286,1268.6,52.57142857142857,743.4776785714286,1372.5,48.57142857142857,743.4776785714286,1473.6,48.57142857142857,743.4776785714286,1585.6,48.57142857142857,743.4776785714286,1689.6,48.57142857142857,743.4776785714286,1801.8,48.57142857142857,743.4776785714286,1902.9,48.57142857142857,743.4776785714286,2004.9,59.57142857142857,744.4776785714286,2117,95.57142857142857,742.4776785714286,2223.4,234.57142857142856,723.4776785714286,2333.5,498.57142857142856,551.4776785714286,2440.7,722.5714285714286,465.47767857142856,2542.1,896.5714285714286,454.47767857142856,2648.9,900.5714285714286,457.47767857142856,2748.9,901.5714285714286,459.47767857142856,2855.9,901.5714285714286,459.47767857142856,2964,901.5714285714286,459.47767857142856,3066.4,901.5714285714286,459.47767857142856,3174.1,901.5714285714286,459.47767857142856,3284.8,901.5714285714286,459.47767857142856,3389,901.5714285714286,459.47767857142856,3496.6,901.5714285714286,459.47767857142856,3606.7,901.5714285714286,459.47767857142856,3715.1,901.5714285714286,459.47767857142856,3815.4,901.5714285714286,459.47767857142856,3922.2,901.5714285714286,459.47767857142856,4026.9,901.5714285714286,459.47767857142856,4131.5,901.5714285714286,459.47767857142856,4237.6,901.5714285714286,459.47767857142856,4346.1,901.5714285714286,459.47767857142856,4453.2,901.5714285714286,459.47767857142856,4557.4,901.5714285714286,459.47767857142856,4666.2,901.5714285714286,459.47767857142856,4767.7,901.5714285714286,459.47767857142856,4874.4,901.5714285714286,459.47767857142856,4983.8]","[1967,1967,1000,0,967,""oops"",""down"",""down"",""good_move"",4735.2,2767.8,2260.3,1967.4,507.5,""smooth"",""down"",""down"",""good_move"",7776.5,3041,2305.8,4735.6,735.1,""smooth"",""left"",""left"",""good_move"",11583,3805.9,3214.5,7777.1,591.4,""smooth"",""left"",""left"",""good_move""]","",""
"28544","","<div style=""width:500px;"">
  <p>What determined the result of this run?</p>
  </div>","80","html-slider-response","70","835382","0.0-5.0-1.12","141","1","2025-07-23 06:30:17","1f75c3e559b7213887762d5229550c2b","154.0.11.214","Mozilla/5.0 (Windows NT 10.0; Win64; x64) AppleWebKit/537.36 (KHTML, like Gecko) Chrome/138.0.0.0 Safari/537.36","WebKit","Chrome","138.0.0.0","Windows","10.0","https://app.prolific.com/","en-GB,en-US;q=0.9,en;q=0.8","669a686f263cbcb8e321ed85","683db9eb0562dbf637994deb","6880816bc5a1b77d87ee1370","2","1","669a686f263cbcb8e321ed85","2","1","2025-07-23T06:44:15.177Z","","","","","","","","","","","AttribQ","","50","","","","","","","","","","","","","","","","","","","","","","","","","","","","",""
"1431","","<div style=""width:500px;"">
  <p>How much control did you have over the ball?</p>
  </div>","80","html-slider-response","71","836814","0.0-5.0-2.12","141","1","2025-07-23 06:30:17","1f75c3e559b7213887762d5229550c2b","154.0.11.214","Mozilla/5.0 (Windows NT 10.0; Win64; x64) AppleWebKit/537.36 (KHTML, like Gecko) Chrome/138.0.0.0 Safari/537.36","WebKit","Chrome","138.0.0.0","Windows","10.0","https://app.prolific.com/","en-GB,en-US;q=0.9,en;q=0.8","669a686f263cbcb8e321ed85","683db9eb0562dbf637994deb","6880816bc5a1b77d87ee1370","2","1","669a686f263cbcb8e321ed85","2","1","2025-07-23T06:44:16.608Z","","","","","","","","","","","ControlQ","","50","","","","","","","","","","","","","","","","","","","","","","","","","","","","",""
"1463","","<div style=""width:500px;"">
  <p>How would you describe your current emotional state?</p>
  </div>","79","html-slider-response","72","838278","0.0-5.0-3.12","141","1","2025-07-23 06:30:17","1f75c3e559b7213887762d5229550c2b","154.0.11.214","Mozilla/5.0 (Windows NT 10.0; Win64; x64) AppleWebKit/537.36 (KHTML, like Gecko) Chrome/138.0.0.0 Safari/537.36","WebKit","Chrome","138.0.0.0","Windows","10.0","https://app.prolific.com/","en-GB,en-US;q=0.9,en;q=0.8","669a686f263cbcb8e321ed85","683db9eb0562dbf637994deb","6880816bc5a1b77d87ee1370","2","1","669a686f263cbcb8e321ed85","2","1","2025-07-23T06:44:18.072Z","","","","","","","","","","","StressQ","","50","","","","","","","","","","","","","","","","","","","","","","","","","","","","",""
"2144","","<div style=""width:500px;"">
  <p>What best describes how you currently feel?</p>
  </div>","64","html-slider-response","73","840422","0.0-5.0-4.12","141","1","2025-07-23 06:30:17","1f75c3e559b7213887762d5229550c2b","154.0.11.214","Mozilla/5.0 (Windows NT 10.0; Win64; x64) AppleWebKit/537.36 (KHTML, like Gecko) Chrome/138.0.0.0 Safari/537.36","WebKit","Chrome","138.0.0.0","Windows","10.0","https://app.prolific.com/","en-GB,en-US;q=0.9,en;q=0.8","669a686f263cbcb8e321ed85","683db9eb0562dbf637994deb","6880816bc5a1b77d87ee1370","2","1","669a686f263cbcb8e321ed85","2","1","2025-07-23T06:44:20.216Z","","","","","","","","","","","MotivationQ","","50","","","","","","","","","","","","","","","","","","","","","","","","","","","","",""
"","","","","ctl-task-cpt","74","864136","0.0-5.0-0.13","141","1","2025-07-23 06:30:17","1f75c3e559b7213887762d5229550c2b","154.0.11.214","Mozilla/5.0 (Windows NT 10.0; Win64; x64) AppleWebKit/537.36 (KHTML, like Gecko) Chrome/138.0.0.0 Safari/537.36","WebKit","Chrome","138.0.0.0","Windows","10.0","https://app.prolific.com/","en-GB,en-US;q=0.9,en;q=0.8","669a686f263cbcb8e321ed85","683db9eb0562dbf637994deb","6880816bc5a1b77d87ee1370","2","1","669a686f263cbcb8e321ed85","2","1","2025-07-23T06:44:43.930Z","","","","","","","","","","","","","","win-only","3","g1:SW,g2:NE","0.8","14","0","842956.9","1000.3","6008.6","20688.6","1","4","8","6","1","1","0","2","2","0.015151515151515152","1174.5","3000","2140","[""down"",""left""]","{""num_key_presses"":4,""num_perfect"":3,""num_errors"":1,""num_randdir"":0,""num_randdir_good_moves"":0,""num_whilered"":0,""num_whileblue"":1,""num_blue"":2,""num_good_moves"":4}","[413.57142857142856,413.47767857142856,0.2,414.57142857142856,412.47767857142856,103.3,414.57142857142856,412.47767857142856,212.7,415.57142857142856,409.47767857142856,321.4,338.57142857142856,363.47767857142856,427.2,283.57142857142856,386.47767857142856,537.2,122.57142857142857,659.4776785714286,642.2,129.57142857142856,779.4776785714286,754.5,124.57142857142857,792.4776785714286,856.3,91.57142857142857,788.4776785714286,966.6,88.57142857142857,785.4776785714286,1072.8,88.57142857142857,784.4776785714286,1179.5,88.57142857142857,784.4776785714286,1280.9,90.57142857142857,781.4776785714286,1387.5,176.57142857142856,768.4776785714286,1492.3,186.57142857142856,745.4776785714286,1602.6,228.57142857142856,584.4776785714286,1713.7,309.57142857142856,446.47767857142856,1823.1,385.57142857142856,374.47767857142856,1935.1,376.57142857142856,373.47767857142856,2045.7,376.57142857142856,373.47767857142856,2150.9,376.57142857142856,375.47767857142856,2256.7,379.57142857142856,387.47767857142856,2369.8,380.57142857142856,389.47767857142856,2475.5,380.57142857142856,389.47767857142856,2587.7,380.57142857142856,389.47767857142856,2692,380.57142857142856,389.47767857142856,2804.8,380.57142857142856,389.47767857142856,2905.5,380.57142857142856,389.47767857142856,3007.6,380.57142857142856,389.47767857142856,3119.2,380.57142857142856,389.47767857142856,3221.9,380.57142857142856,389.47767857142856,3325.2,380.57142857142856,389.47767857142856,3431.7,380.57142857142856,389.47767857142856,3537.2,380.57142857142856,389.47767857142856,3641.3,380.57142857142856,389.47767857142856,3746.3,380.57142857142856,389.47767857142856,3853,380.57142857142856,389.47767857142856,3958.9,380.57142857142856,389.47767857142856,4059.4,380.57142857142856,389.47767857142856,4171.1,380.57142857142856,389.47767857142856,4274.5,380.57142857142856,389.47767857142856,4384.9,380.57142857142856,389.47767857142856,4490.5,380.57142857142856,389.47767857142856,4592.4,380.57142857142856,389.47767857142856,4701,380.57142857142856,389.47767857142856,4808.4,380.57142857142856,389.47767857142856,4915.7]","[1918.5,1918.5,1000,0,918.5,""smooth"",""down"",""down"",""good_move"",5054.9,3135.8,2430.6,1919.2,705.1,""smooth"",""down"",""down"",""good_move"",8333.3,3278.3,2419.8,5055,858.5,""while_blue"",""left"",""left"",""good_move"",14461.6,6128,2548.4,11392.4,520.8,""smooth"",""left"",""left"",""good_move""]","",""
"4997","","<div style=""width:500px;"">
  <p>What determined the result of this run?</p>
  </div>","72","html-slider-response","75","869134","0.0-5.0-1.13","141","1","2025-07-23 06:30:17","1f75c3e559b7213887762d5229550c2b","154.0.11.214","Mozilla/5.0 (Windows NT 10.0; Win64; x64) AppleWebKit/537.36 (KHTML, like Gecko) Chrome/138.0.0.0 Safari/537.36","WebKit","Chrome","138.0.0.0","Windows","10.0","https://app.prolific.com/","en-GB,en-US;q=0.9,en;q=0.8","669a686f263cbcb8e321ed85","683db9eb0562dbf637994deb","6880816bc5a1b77d87ee1370","2","1","669a686f263cbcb8e321ed85","2","1","2025-07-23T06:44:48.928Z","","","","","","","","","","","AttribQ","","50","","","","","","","","","","","","","","","","","","","","","","","","","","","","",""
"2351","","<div style=""width:500px;"">
  <p>How much control did you have over the ball?</p>
  </div>","38","html-slider-response","76","871486","0.0-5.0-2.13","141","1","2025-07-23 06:30:17","1f75c3e559b7213887762d5229550c2b","154.0.11.214","Mozilla/5.0 (Windows NT 10.0; Win64; x64) AppleWebKit/537.36 (KHTML, like Gecko) Chrome/138.0.0.0 Safari/537.36","WebKit","Chrome","138.0.0.0","Windows","10.0","https://app.prolific.com/","en-GB,en-US;q=0.9,en;q=0.8","669a686f263cbcb8e321ed85","683db9eb0562dbf637994deb","6880816bc5a1b77d87ee1370","2","1","669a686f263cbcb8e321ed85","2","1","2025-07-23T06:44:51.280Z","","","","","","","","","","","ControlQ","","50","","","","","","","","","","","","","","","","","","","","","","","","","","","","",""
"3016","","<div style=""width:500px;"">
  <p>How would you describe your current emotional state?</p>
  </div>","31","html-slider-response","77","874502","0.0-5.0-3.13","141","1","2025-07-23 06:30:17","1f75c3e559b7213887762d5229550c2b","154.0.11.214","Mozilla/5.0 (Windows NT 10.0; Win64; x64) AppleWebKit/537.36 (KHTML, like Gecko) Chrome/138.0.0.0 Safari/537.36","WebKit","Chrome","138.0.0.0","Windows","10.0","https://app.prolific.com/","en-GB,en-US;q=0.9,en;q=0.8","669a686f263cbcb8e321ed85","683db9eb0562dbf637994deb","6880816bc5a1b77d87ee1370","2","1","669a686f263cbcb8e321ed85","2","1","2025-07-23T06:44:54.296Z","","","","","","","","","","","StressQ","","50","","","","","","","","","","","","","","","","","","","","","","","","","","","","",""
"1680","","<div style=""width:500px;"">
  <p>What best describes how you currently feel?</p>
  </div>","28","html-slider-response","78","876183","0.0-5.0-4.13","141","1","2025-07-23 06:30:17","1f75c3e559b7213887762d5229550c2b","154.0.11.214","Mozilla/5.0 (Windows NT 10.0; Win64; x64) AppleWebKit/537.36 (KHTML, like Gecko) Chrome/138.0.0.0 Safari/537.36","WebKit","Chrome","138.0.0.0","Windows","10.0","https://app.prolific.com/","en-GB,en-US;q=0.9,en;q=0.8","669a686f263cbcb8e321ed85","683db9eb0562dbf637994deb","6880816bc5a1b77d87ee1370","2","1","669a686f263cbcb8e321ed85","2","1","2025-07-23T06:44:55.977Z","","","","","","","","","","","MotivationQ","","50","","","","","","","","","","","","","","","","","","","","","","","","","","","","",""
