"rt","response_timestamp","stimulus","response","trial_type","trial_index","time_elapsed","internal_node_id","run_id","condition","recorded_at","source_code_version","ip","user_agent","device","browser","browser_version","platform","platform_version","referer","accept_language","PROLIFIC_PID","STUDY_ID","SESSION_ID","WEEK","prolific_id","week","realtime","success","responses","item_order","radio_event_ids","radio_event_times","key_event_times","mouse_event_times","straightlining","zigzagging","honeypot","eventType","view_history","slider_start","which_type","canvas_config","goals_layout","control_level","trial_number","tutorial_trial_number","trial_start_time","phase1_start_time","phase2_start_time","phase3_start_time","goal_1_value","goal_1_distance","goal_2_value","goal_2_distance","goal_selected","outcome","outcome_total","participant_final_score","participant_initial_score","participant_final_score_prop","goal_choice_rt","allocated_time","allocated_time_remaining","goal_direction","counts","mouse_movements","key_presses","question_order","question_id"
"8817","1752050563109","<p style='font-size:40px;line-height:1.25'><strong>Welcome to the experiment!</strong></p><p style='font-size:1.1em;line-height:1.25'>Thank you for participanting in our experiment again! You will be asked to play the Dysfunctional Ball Game again. We will briefly recap the rules before we start.</p><p style='font-size:1.1em;line-height:1.25'>Press <strong>Next</strong> to continue.</p>","0","custom-html-button-response","0","8822","0.0-0.0","16","1","2025-07-09 08:42:27","01610cd0009c79a99da7d0a3353eb402","216.120.189.225","Mozilla/5.0 (Windows NT 10.0; Win64; x64) AppleWebKit/537.36 (KHTML, like Gecko) Chrome/138.0.0.0 Safari/537.36","WebKit","Chrome","138.0.0.0","Windows","10.0","https://app.prolific.com/","en-US,en;q=0.9","663b638be7226d4e3fcc255f","683db7602f5db6a34d12d064","686e2a8d26b068379516095a","1","663b638be7226d4e3fcc255f","1","2025-07-09T08:42:43.111Z","","","","","","","","","","","","","","","","","","","","","","","","","","","","","","","","","","","","","","","","","",""
"17150","","","","fullscreen","1","26981","0.0-1.0","16","1","2025-07-09 08:42:27","01610cd0009c79a99da7d0a3353eb402","216.120.189.225","Mozilla/5.0 (Windows NT 10.0; Win64; x64) AppleWebKit/537.36 (KHTML, like Gecko) Chrome/138.0.0.0 Safari/537.36","WebKit","Chrome","138.0.0.0","Windows","10.0","https://app.prolific.com/","en-US,en;q=0.9","663b638be7226d4e3fcc255f","683db7602f5db6a34d12d064","686e2a8d26b068379516095a","1","663b638be7226d4e3fcc255f","1","","true","","","","","","","","","","","","","","","","","","","","","","","","","","","","","","","","","","","","","","","","",""
"5346","1752050586618","<p style='font-size:1.1em;line-height:1.25'>In the following, we will ask you a few questions relating to your feelings in the last 24 hours.<br></p><p style='font-size:1.1em;line-height:1.25'>Press the <strong>Next</strong> button to continue.</p>","0","custom-html-button-response","2","32331","0.0-2.0-0.0","16","1","2025-07-09 08:42:27","01610cd0009c79a99da7d0a3353eb402","216.120.189.225","Mozilla/5.0 (Windows NT 10.0; Win64; x64) AppleWebKit/537.36 (KHTML, like Gecko) Chrome/138.0.0.0 Safari/537.36","WebKit","Chrome","138.0.0.0","Windows","10.0","https://app.prolific.com/","en-US,en;q=0.9","663b638be7226d4e3fcc255f","683db7602f5db6a34d12d064","686e2a8d26b068379516095a","1","663b638be7226d4e3fcc255f","1","2025-07-09T08:43:06.620Z","","","","","","","","","","","","","","","","","","","","","","","","","","","","","","","","","","","","","","","","","",""
"134352.09999999404","","","","survey-template","3","166692","0.0-2.0-1.0","16","1","2025-07-09 08:42:27","01610cd0009c79a99da7d0a3353eb402","216.120.189.225","Mozilla/5.0 (Windows NT 10.0; Win64; x64) AppleWebKit/537.36 (KHTML, like Gecko) Chrome/138.0.0.0 Safari/537.36","WebKit","Chrome","138.0.0.0","Windows","10.0","https://app.prolific.com/","en-US,en;q=0.9","663b638be7226d4e3fcc255f","683db7602f5db6a34d12d064","686e2a8d26b068379516095a","1","663b638be7226d4e3fcc255f","1","2025-07-09T08:45:20.982Z","","{""Q01"":""0"",""Q02"":""0"",""Q03"":""0"",""Q04"":""0"",""Q05"":""0"",""Q06"":""0"",""Q07"":""0"",""Q08"":""0"",""Q09"":""0"",""Q10"":""0"",""Q11"":""1"",""Q12"":""0"",""Q13"":""5"",""Q14"":""3"",""Q15"":""0"",""Q16"":""0"",""Q17"":""0"",""Q18"":""0"",""Q19"":""0"",""Q20"":""0"",""Q21"":""0"",""Q22"":""0""}","[0,1,2,3,4,5,6,7,8,9,10,11,12,13,14,15,16,17,18,19,20,21]","[""Q01"",""Q02"",""Q03"",""Q04"",""Q05"",""Q06"",""Q07"",""Q08"",""Q09"",""Q10"",""Q11"",""Q12"",""Q13"",""Q14"",""Q15"",""Q16"",""Q17"",""Q18"",""Q19"",""Q20"",""Q21"",""Q22""]","[3129,6004.5,10199.5,11722.699999988079,14788,18715.69999998808,20103.29999998212,21606.399999976158,26115.69999998808,48362.09999999404,56195.5,59486.19999998808,63407,67609,79767.39999997616,89011.5,90797.19999998808,92234.39999997616,99501.89999997616,107043,119636.39999997616,132894.79999998212]","[]","[0.09999999403953552,3129,4428.399999976158,5611.5999999940395,6004.5,8635,10199.5,11722.699999988079,13432,14788,16747.79999998212,18715.69999998808,20103.29999998212,21606.399999976158,23649.69999998808,26115.69999998808,48362.09999999404,56195.5,59486.19999998808,63407,67609,79767.39999997616,89011.5,90797.19999998808,92234.39999997616,99501.89999997616,107043,118262.5,119636.39999997616,124182.29999998212,132003.89999997616,132894.79999998212,134340.29999998212]","0.8636363636363636","0.14285714285714285","0","drsp","","","","","","","","","","","","","","","","","","","","","","","","","","","","","","",""
"29860.600000023842","","","","survey-template","4","196559","0.0-2.0-2.0","16","1","2025-07-09 08:42:27","01610cd0009c79a99da7d0a3353eb402","216.120.189.225","Mozilla/5.0 (Windows NT 10.0; Win64; x64) AppleWebKit/537.36 (KHTML, like Gecko) Chrome/138.0.0.0 Safari/537.36","WebKit","Chrome","138.0.0.0","Windows","10.0","https://app.prolific.com/","en-US,en;q=0.9","663b638be7226d4e3fcc255f","683db7602f5db6a34d12d064","686e2a8d26b068379516095a","1","663b638be7226d4e3fcc255f","1","2025-07-09T08:45:50.848Z","","{""Q01"":""1"",""Q02"":""1"",""Q03"":""4""}","[0,1,2]","[""Q01"",""Q02"",""Q03""]","[14745,19911.5,28647.80000001192]","[]","[11292.700000017881,12408.100000023842,14745,19911.5,28647.80000001192,29857.600000023842]","0.6666666666666666","0","0","stress","","","","","","","","","","","","","","","","","","","","","","","","","","","","","","",""
"109231","","","","instructions","5","305793","0.0-3.0-0.0","16","1","2025-07-09 08:42:27","01610cd0009c79a99da7d0a3353eb402","216.120.189.225","Mozilla/5.0 (Windows NT 10.0; Win64; x64) AppleWebKit/537.36 (KHTML, like Gecko) Chrome/138.0.0.0 Safari/537.36","WebKit","Chrome","138.0.0.0","Windows","10.0","https://app.prolific.com/","en-US,en;q=0.9","663b638be7226d4e3fcc255f","683db7602f5db6a34d12d064","686e2a8d26b068379516095a","1","663b638be7226d4e3fcc255f","1","","","","","","","","","","","","","[{""page_index"":0,""viewing_time"":109231}]","","","","","","","","","","","","","","","","","","","","","","","","","","","","","",""
"33484","","<p>Before you start with this game please answer the following three questions yourself. </p>
  <p>Through this game, we measure several aspects of your cognitive performance, such as reaction times, multi-tasking capabilities </p>
  <p>and the ability to assess the situation you are in.</p>
  <p></p>
  <p><b>How good do you usually are in such tasks?</b></p>","86","html-slider-response","6","339285","0.0-4.0-0.0","16","1","2025-07-09 08:42:27","01610cd0009c79a99da7d0a3353eb402","216.120.189.225","Mozilla/5.0 (Windows NT 10.0; Win64; x64) AppleWebKit/537.36 (KHTML, like Gecko) Chrome/138.0.0.0 Safari/537.36","WebKit","Chrome","138.0.0.0","Windows","10.0","https://app.prolific.com/","en-US,en;q=0.9","663b638be7226d4e3fcc255f","683db7602f5db6a34d12d064","686e2a8d26b068379516095a","1","663b638be7226d4e3fcc255f","1","2025-07-09T08:48:13.574Z","","","","","","","","","","","PreSkillQ","","50","","","","","","","","","","","","","","","","","","","","","","","","","","","","",""
"7492","","<div style=""width:500px;"">
  <p>How well do you think you will perform in this task compared to other participants?</p>
  </div>","81","html-slider-response","7","346779","0.0-4.0-1.0","16","1","2025-07-09 08:42:27","01610cd0009c79a99da7d0a3353eb402","216.120.189.225","Mozilla/5.0 (Windows NT 10.0; Win64; x64) AppleWebKit/537.36 (KHTML, like Gecko) Chrome/138.0.0.0 Safari/537.36","WebKit","Chrome","138.0.0.0","Windows","10.0","https://app.prolific.com/","en-US,en;q=0.9","663b638be7226d4e3fcc255f","683db7602f5db6a34d12d064","686e2a8d26b068379516095a","1","663b638be7226d4e3fcc255f","1","2025-07-09T08:48:21.068Z","","","","","","","","","","","PrePerfQ","","50","","","","","","","","","","","","","","","","","","","","","","","","","","","","",""
"14302","","<div style=""width:500px;"">
  <p>What best describes how you currently feel?</p>
  </div>","100","html-slider-response","8","361083","0.0-4.0-2.0","16","1","2025-07-09 08:42:27","01610cd0009c79a99da7d0a3353eb402","216.120.189.225","Mozilla/5.0 (Windows NT 10.0; Win64; x64) AppleWebKit/537.36 (KHTML, like Gecko) Chrome/138.0.0.0 Safari/537.36","WebKit","Chrome","138.0.0.0","Windows","10.0","https://app.prolific.com/","en-US,en;q=0.9","663b638be7226d4e3fcc255f","683db7602f5db6a34d12d064","686e2a8d26b068379516095a","1","663b638be7226d4e3fcc255f","1","2025-07-09T08:48:35.372Z","","","","","","","","","","","PreMotivationQ","","50","","","","","","","","","","","","","","","","","","","","","","","","","","","","",""
"","","","","ctl-task-cpt","9","417704","0.0-5.0-0.0","16","1","2025-07-09 08:42:27","01610cd0009c79a99da7d0a3353eb402","216.120.189.225","Mozilla/5.0 (Windows NT 10.0; Win64; x64) AppleWebKit/537.36 (KHTML, like Gecko) Chrome/138.0.0.0 Safari/537.36","WebKit","Chrome","138.0.0.0","Windows","10.0","https://app.prolific.com/","en-US,en;q=0.9","663b638be7226d4e3fcc255f","683db7602f5db6a34d12d064","686e2a8d26b068379516095a","1","663b638be7226d4e3fcc255f","1","2025-07-09T08:49:31.993Z","","","","","","","","","","","","","","win-only","2","g1:SE,g2:NW","1","1","0","368656.5","14043.3","19048.2","53606.2","1","4","4","6","2","4","4","4","0","0.030303030303030304","2117.1","3000","1205","[""left"",""up""]","{""num_key_presses"":6,""num_perfect"":6,""num_errors"":0,""num_randdir"":0,""num_randdir_good_moves"":0,""num_whilered"":0,""num_whileblue"":0,""num_blue"":5,""num_good_moves"":6}","[298.22232142857143,294.12857142857143,1,298.22232142857143,294.12857142857143,102.6,298.22232142857143,294.12857142857143,207.3,298.22232142857143,294.12857142857143,309.7,298.22232142857143,294.12857142857143,417.8,298.22232142857143,294.12857142857143,523.9,298.22232142857143,294.12857142857143,626.9,298.22232142857143,294.12857142857143,731.3,298.22232142857143,294.12857142857143,836.4,298.22232142857143,294.12857142857143,936.9,298.22232142857143,294.12857142857143,1039.1,298.22232142857143,294.12857142857143,1144.9,298.22232142857143,294.12857142857143,1245.8,298.22232142857143,294.12857142857143,1351.7,266.22232142857143,260.12857142857143,1453.4,127.22232142857143,84.12857142857143,1561.4,96.22232142857143,71.12857142857143,1670,81.22232142857143,59.128571428571426,1770,70.22232142857143,58.128571428571426,1872.8,57.222321428571426,59.128571428571426,1976.2,57.222321428571426,59.128571428571426,2077.6,57.222321428571426,59.128571428571426,2177.9,57.222321428571426,59.128571428571426,2280.4,57.222321428571426,59.128571428571426,2380.6,57.222321428571426,59.128571428571426,2488.4,57.222321428571426,59.128571428571426,2588.4,57.222321428571426,59.128571428571426,2696.6,57.222321428571426,59.128571428571426,2797.7,57.222321428571426,59.128571428571426,2898.1,57.222321428571426,59.128571428571426,3001.4,57.222321428571426,59.128571428571426,3104.4,57.222321428571426,59.128571428571426,3204.9,57.222321428571426,59.128571428571426,3305.2,57.222321428571426,59.128571428571426,3411.9,57.222321428571426,59.128571428571426,3513.2,57.222321428571426,59.128571428571426,3618.2,57.222321428571426,59.128571428571426,3725.4,57.222321428571426,59.128571428571426,3830.1,57.222321428571426,59.128571428571426,3931.4,57.222321428571426,59.128571428571426,4034.3,57.222321428571426,59.128571428571426,4141,57.222321428571426,59.128571428571426,4247.2,57.222321428571426,59.128571428571426,4355,57.222321428571426,59.128571428571426,4463.3,57.222321428571426,59.128571428571426,4564.5,57.222321428571426,59.128571428571426,4665.1,57.222321428571426,59.128571428571426,4765.3,57.222321428571426,59.128571428571426,4868.1,57.222321428571426,59.128571428571426,4968.7]","[1424.7,1424.6,1000,0.1,424.6,""smooth"",""left"",""left"",""good_move"",11721.1,10294.4,3115.8,8211.2,394.1,""smooth"",""left"",""left"",""good_move"",14931.3,3209.9,2672.8,11721.5,537,""smooth"",""left"",""left"",""good_move"",28047.5,13115.6,2446.5,25187.7,413.3,""smooth"",""up"",""up"",""good_move"",31366.8,3317.7,2867.3,28049.1,450.4,""smooth"",""up"",""up"",""good_move"",34412.9,3044.4,2634.6,31368.5,409.8,""smooth"",""up"",""up"",""good_move""]","",""
"11741","","<div style=""width:500px;"">
  <p>What determined the result of this run?</p>
  </div>","100","html-slider-response","10","429448","0.0-5.0-1.0","16","1","2025-07-09 08:42:27","01610cd0009c79a99da7d0a3353eb402","216.120.189.225","Mozilla/5.0 (Windows NT 10.0; Win64; x64) AppleWebKit/537.36 (KHTML, like Gecko) Chrome/138.0.0.0 Safari/537.36","WebKit","Chrome","138.0.0.0","Windows","10.0","https://app.prolific.com/","en-US,en;q=0.9","663b638be7226d4e3fcc255f","683db7602f5db6a34d12d064","686e2a8d26b068379516095a","1","663b638be7226d4e3fcc255f","1","2025-07-09T08:49:43.737Z","","","","","","","","","","","AttribQ","","50","","","","","","","","","","","","","","","","","","","","","","","","","","","","",""
"4743","","<div style=""width:500px;"">
  <p>How much control did you have over the ball?</p>
  </div>","100","html-slider-response","11","434194","0.0-5.0-2.0","16","1","2025-07-09 08:42:27","01610cd0009c79a99da7d0a3353eb402","216.120.189.225","Mozilla/5.0 (Windows NT 10.0; Win64; x64) AppleWebKit/537.36 (KHTML, like Gecko) Chrome/138.0.0.0 Safari/537.36","WebKit","Chrome","138.0.0.0","Windows","10.0","https://app.prolific.com/","en-US,en;q=0.9","663b638be7226d4e3fcc255f","683db7602f5db6a34d12d064","686e2a8d26b068379516095a","1","663b638be7226d4e3fcc255f","1","2025-07-09T08:49:48.484Z","","","","","","","","","","","ControlQ","","50","","","","","","","","","","","","","","","","","","","","","","","","","","","","",""
"6139","","<div style=""width:500px;"">
  <p>How would you describe your current emotional state?</p>
  </div>","0","html-slider-response","12","440336","0.0-5.0-3.0","16","1","2025-07-09 08:42:27","01610cd0009c79a99da7d0a3353eb402","216.120.189.225","Mozilla/5.0 (Windows NT 10.0; Win64; x64) AppleWebKit/537.36 (KHTML, like Gecko) Chrome/138.0.0.0 Safari/537.36","WebKit","Chrome","138.0.0.0","Windows","10.0","https://app.prolific.com/","en-US,en;q=0.9","663b638be7226d4e3fcc255f","683db7602f5db6a34d12d064","686e2a8d26b068379516095a","1","663b638be7226d4e3fcc255f","1","2025-07-09T08:49:54.625Z","","","","","","","","","","","StressQ","","50","","","","","","","","","","","","","","","","","","","","","","","","","","","","",""
"24151","","<div style=""width:500px;"">
  <p>What best describes how you currently feel?</p>
  </div>","100","html-slider-response","13","464490","0.0-5.0-4.0","16","1","2025-07-09 08:42:27","01610cd0009c79a99da7d0a3353eb402","216.120.189.225","Mozilla/5.0 (Windows NT 10.0; Win64; x64) AppleWebKit/537.36 (KHTML, like Gecko) Chrome/138.0.0.0 Safari/537.36","WebKit","Chrome","138.0.0.0","Windows","10.0","https://app.prolific.com/","en-US,en;q=0.9","663b638be7226d4e3fcc255f","683db7602f5db6a34d12d064","686e2a8d26b068379516095a","1","663b638be7226d4e3fcc255f","1","2025-07-09T08:50:18.779Z","","","","","","","","","","","MotivationQ","","50","","","","","","","","","","","","","","","","","","","","","","","","","","","","",""
"","","","","ctl-task-cpt","14","499526","0.0-5.0-0.1","16","1","2025-07-09 08:42:27","01610cd0009c79a99da7d0a3353eb402","216.120.189.225","Mozilla/5.0 (Windows NT 10.0; Win64; x64) AppleWebKit/537.36 (KHTML, like Gecko) Chrome/138.0.0.0 Safari/537.36","WebKit","Chrome","138.0.0.0","Windows","10.0","https://app.prolific.com/","en-US,en;q=0.9","663b638be7226d4e3fcc255f","683db7602f5db6a34d12d064","686e2a8d26b068379516095a","1","663b638be7226d4e3fcc255f","1","2025-07-09T08:50:53.815Z","","","","","","","","","","","","","","win-only","2","g1:SE,g2:NW","0.9","2","0","472060.1","6851.8","11855.4","32028.1","1","4","8","6","2","8","8","12","4","0.09090909090909091","1663.5","3000","1305","[""left"",""up""]","{""num_key_presses"":6,""num_perfect"":6,""num_errors"":0,""num_randdir"":0,""num_randdir_good_moves"":0,""num_whilered"":0,""num_whileblue"":0,""num_blue"":1,""num_good_moves"":6}","[290.22232142857143,295.12857142857143,1.4,290.22232142857143,295.12857142857143,103.5,290.22232142857143,295.12857142857143,211.9,290.22232142857143,295.12857142857143,319.8,290.22232142857143,295.12857142857143,424.1,290.22232142857143,295.12857142857143,525.5,290.22232142857143,295.12857142857143,630.2,290.22232142857143,295.12857142857143,741.5,290.22232142857143,295.12857142857143,847.1,290.22232142857143,295.12857142857143,952.8,175.22232142857143,193.12857142857143,1060,140.22232142857143,159.12857142857143,1167.6,98.22232142857143,112.12857142857143,1271.3,77.22232142857143,93.12857142857143,1371.9,74.22232142857143,89.12857142857143,1475.8,74.22232142857143,89.12857142857143,1580.8,74.22232142857143,89.12857142857143,1685.5,74.22232142857143,89.12857142857143,1786.9,74.22232142857143,89.12857142857143,1898.9,74.22232142857143,89.12857142857143,2004.4,74.22232142857143,89.12857142857143,2111.3,53.222321428571426,81.12857142857143,2219,-63.777678571428574,54.128571428571426,2326.2,-163.77767857142857,77.12857142857143,2429.9,-197.77767857142857,103.12857142857143,2533.6,-197.77767857142857,103.12857142857143,2640.2,-197.77767857142857,103.12857142857143,2740.8,-197.77767857142857,103.12857142857143,2846.6,-197.77767857142857,103.12857142857143,2946.9,-197.77767857142857,103.12857142857143,3047,-197.77767857142857,103.12857142857143,3153.6,-197.77767857142857,103.12857142857143,3259.6,-197.77767857142857,103.12857142857143,3359.6,-197.77767857142857,103.12857142857143,3463.2,-197.77767857142857,103.12857142857143,3564.4,-197.77767857142857,103.12857142857143,3664.7,-197.77767857142857,103.12857142857143,3765,-197.77767857142857,103.12857142857143,3870.6,-197.77767857142857,103.12857142857143,3975.8,-197.77767857142857,103.12857142857143,4084,-197.77767857142857,103.12857142857143,4185.1,-197.77767857142857,103.12857142857143,4288.4,-197.77767857142857,103.12857142857143,4388.6,-197.77767857142857,103.12857142857143,4495,-197.77767857142857,103.12857142857143,4595.2,-197.77767857142857,103.12857142857143,4703.8,-197.77767857142857,103.12857142857143,4806.1,-197.77767857142857,103.12857142857143,4912.2]","[1460.4,1460.4,1000,0.1,460.4,""smooth"",""left"",""left"",""good_move"",4358.8,2897.3,2531.8,1461.6,365.4,""smooth"",""left"",""left"",""good_move"",7237,2877.3,2518.3,4359.7,359,""smooth"",""up"",""up"",""good_move"",14451.4,7212.9,3021,11045.8,384.6,""smooth"",""up"",""up"",""good_move"",17088.1,2635.5,2238.5,14452.6,397,""smooth"",""up"",""up"",""good_move"",20040.8,2951.6,2565.8,17089.3,385.8,""smooth"",""left"",""left"",""good_move""]","",""
"5352","","<div style=""width:500px;"">
  <p>What determined the result of this run?</p>
  </div>","100","html-slider-response","15","504880","0.0-5.0-1.1","16","1","2025-07-09 08:42:27","01610cd0009c79a99da7d0a3353eb402","216.120.189.225","Mozilla/5.0 (Windows NT 10.0; Win64; x64) AppleWebKit/537.36 (KHTML, like Gecko) Chrome/138.0.0.0 Safari/537.36","WebKit","Chrome","138.0.0.0","Windows","10.0","https://app.prolific.com/","en-US,en;q=0.9","663b638be7226d4e3fcc255f","683db7602f5db6a34d12d064","686e2a8d26b068379516095a","1","663b638be7226d4e3fcc255f","1","2025-07-09T08:50:59.170Z","","","","","","","","","","","AttribQ","","50","","","","","","","","","","","","","","","","","","","","","","","","","","","","",""
"4005","","<div style=""width:500px;"">
  <p>How much control did you have over the ball?</p>
  </div>","100","html-slider-response","16","508888","0.0-5.0-2.1","16","1","2025-07-09 08:42:27","01610cd0009c79a99da7d0a3353eb402","216.120.189.225","Mozilla/5.0 (Windows NT 10.0; Win64; x64) AppleWebKit/537.36 (KHTML, like Gecko) Chrome/138.0.0.0 Safari/537.36","WebKit","Chrome","138.0.0.0","Windows","10.0","https://app.prolific.com/","en-US,en;q=0.9","663b638be7226d4e3fcc255f","683db7602f5db6a34d12d064","686e2a8d26b068379516095a","1","663b638be7226d4e3fcc255f","1","2025-07-09T08:51:03.178Z","","","","","","","","","","","ControlQ","","50","","","","","","","","","","","","","","","","","","","","","","","","","","","","",""
"4753","","<div style=""width:500px;"">
  <p>How would you describe your current emotional state?</p>
  </div>","0","html-slider-response","17","513644","0.0-5.0-3.1","16","1","2025-07-09 08:42:27","01610cd0009c79a99da7d0a3353eb402","216.120.189.225","Mozilla/5.0 (Windows NT 10.0; Win64; x64) AppleWebKit/537.36 (KHTML, like Gecko) Chrome/138.0.0.0 Safari/537.36","WebKit","Chrome","138.0.0.0","Windows","10.0","https://app.prolific.com/","en-US,en;q=0.9","663b638be7226d4e3fcc255f","683db7602f5db6a34d12d064","686e2a8d26b068379516095a","1","663b638be7226d4e3fcc255f","1","2025-07-09T08:51:07.933Z","","","","","","","","","","","StressQ","","50","","","","","","","","","","","","","","","","","","","","","","","","","","","","",""
"4009","","<div style=""width:500px;"">
  <p>What best describes how you currently feel?</p>
  </div>","100","html-slider-response","18","517655","0.0-5.0-4.1","16","1","2025-07-09 08:42:27","01610cd0009c79a99da7d0a3353eb402","216.120.189.225","Mozilla/5.0 (Windows NT 10.0; Win64; x64) AppleWebKit/537.36 (KHTML, like Gecko) Chrome/138.0.0.0 Safari/537.36","WebKit","Chrome","138.0.0.0","Windows","10.0","https://app.prolific.com/","en-US,en;q=0.9","663b638be7226d4e3fcc255f","683db7602f5db6a34d12d064","686e2a8d26b068379516095a","1","663b638be7226d4e3fcc255f","1","2025-07-09T08:51:11.944Z","","","","","","","","","","","MotivationQ","","50","","","","","","","","","","","","","","","","","","","","","","","","","","","","",""
"","","","","ctl-task-cpt","19","545666","0.0-5.0-0.2","16","1","2025-07-09 08:42:27","01610cd0009c79a99da7d0a3353eb402","216.120.189.225","Mozilla/5.0 (Windows NT 10.0; Win64; x64) AppleWebKit/537.36 (KHTML, like Gecko) Chrome/138.0.0.0 Safari/537.36","WebKit","Chrome","138.0.0.0","Windows","10.0","https://app.prolific.com/","en-US,en;q=0.9","663b638be7226d4e3fcc255f","683db7602f5db6a34d12d064","686e2a8d26b068379516095a","1","663b638be7226d4e3fcc255f","1","2025-07-09T08:51:39.955Z","","","","","","","","","","","","","","win-only","0","g1:NW,g2:SE","0.8","3","0","525224.6","3428.3","8430.3","25004.3","1","4","8","6","2","8","8","20","12","0.15151515151515152","1507.2","3000","1305","[""down"",""right""]","{""num_key_presses"":6,""num_perfect"":5,""num_errors"":0,""num_randdir"":1,""num_randdir_good_moves"":1,""num_whilered"":0,""num_whileblue"":0,""num_blue"":0,""num_good_moves"":6}","[291.22232142857143,289.12857142857143,0.7,291.22232142857143,289.12857142857143,108.3,291.22232142857143,289.12857142857143,209.6,291.22232142857143,289.12857142857143,312,291.22232142857143,289.12857142857143,413,291.22232142857143,289.12857142857143,517.4,291.22232142857143,289.12857142857143,619.2,316.22232142857143,320.12857142857143,726.3,410.22232142857143,456.12857142857143,828.7,450.22232142857143,513.1285714285714,934.7,467.22232142857143,524.1285714285714,1034.8,493.22232142857143,526.1285714285714,1141.1,520.2223214285714,537.1285714285714,1243.3,531.2223214285714,538.1285714285714,1349.4,531.2223214285714,538.1285714285714,1454.7,531.2223214285714,538.1285714285714,1558.1,531.2223214285714,538.1285714285714,1658.2,531.2223214285714,538.1285714285714,1765.4,531.2223214285714,538.1285714285714,1871,531.2223214285714,538.1285714285714,1979.5,531.2223214285714,538.1285714285714,2081.4,531.2223214285714,538.1285714285714,2186.1,631.2223214285714,542.1285714285714,2288,705.2223214285714,529.1285714285714,2388.9,708.2223214285714,528.1285714285714,2491.8,707.2223214285714,527.1285714285714,2600.2,707.2223214285714,527.1285714285714,2705.9,707.2223214285714,527.1285714285714,2806.2,707.2223214285714,527.1285714285714,2911.6,707.2223214285714,527.1285714285714,3013.9,707.2223214285714,527.1285714285714,3118.3,707.2223214285714,527.1285714285714,3222,707.2223214285714,527.1285714285714,3324.7,707.2223214285714,527.1285714285714,3428.1,707.2223214285714,527.1285714285714,3532.6,707.2223214285714,527.1285714285714,3632.8,707.2223214285714,527.1285714285714,3738.1,707.2223214285714,527.1285714285714,3839.4,707.2223214285714,527.1285714285714,3949.3,707.2223214285714,527.1285714285714,4052.3,707.2223214285714,527.1285714285714,4153.4,707.2223214285714,527.1285714285714,4265.5,707.2223214285714,527.1285714285714,4372,707.2223214285714,527.1285714285714,4477.2,707.2223214285714,527.1285714285714,4583,707.2223214285714,527.1285714285714,4694.9,707.2223214285714,527.1285714285714,4799.9,707.2223214285714,527.1285714285714,4899.9]","[1360.9,1360.9,1000,0,360.9,""smooth"",""right"",""right"",""good_move"",3246.2,1884.4,1480.2,1361.8,404.2,""smooth"",""right"",""right"",""good_move"",6985.4,3738,3363.7,3247.4,374.3,""oops"",""down"",""right"",""good_move"",10187.5,3201.3,2802.2,6986.2,399.1,""smooth"",""down"",""down"",""good_move"",13728.1,3539.4,3170.8,10188.7,368.6,""smooth"",""down"",""down"",""good_move"",16447.5,2718.1,2321.7,13729.4,396.4,""smooth"",""down"",""down"",""good_move""]","",""
"6072","","<div style=""width:500px;"">
  <p>What determined the result of this run?</p>
  </div>","91","html-slider-response","20","551739","0.0-5.0-1.2","16","1","2025-07-09 08:42:27","01610cd0009c79a99da7d0a3353eb402","216.120.189.225","Mozilla/5.0 (Windows NT 10.0; Win64; x64) AppleWebKit/537.36 (KHTML, like Gecko) Chrome/138.0.0.0 Safari/537.36","WebKit","Chrome","138.0.0.0","Windows","10.0","https://app.prolific.com/","en-US,en;q=0.9","663b638be7226d4e3fcc255f","683db7602f5db6a34d12d064","686e2a8d26b068379516095a","1","663b638be7226d4e3fcc255f","1","2025-07-09T08:51:46.029Z","","","","","","","","","","","AttribQ","","50","","","","","","","","","","","","","","","","","","","","","","","","","","","","",""
"5096","","<div style=""width:500px;"">
  <p>How much control did you have over the ball?</p>
  </div>","87","html-slider-response","21","556838","0.0-5.0-2.2","16","1","2025-07-09 08:42:27","01610cd0009c79a99da7d0a3353eb402","216.120.189.225","Mozilla/5.0 (Windows NT 10.0; Win64; x64) AppleWebKit/537.36 (KHTML, like Gecko) Chrome/138.0.0.0 Safari/537.36","WebKit","Chrome","138.0.0.0","Windows","10.0","https://app.prolific.com/","en-US,en;q=0.9","663b638be7226d4e3fcc255f","683db7602f5db6a34d12d064","686e2a8d26b068379516095a","1","663b638be7226d4e3fcc255f","1","2025-07-09T08:51:51.127Z","","","","","","","","","","","ControlQ","","50","","","","","","","","","","","","","","","","","","","","","","","","","","","","",""
"4604","","<div style=""width:500px;"">
  <p>How would you describe your current emotional state?</p>
  </div>","0","html-slider-response","22","561444","0.0-5.0-3.2","16","1","2025-07-09 08:42:27","01610cd0009c79a99da7d0a3353eb402","216.120.189.225","Mozilla/5.0 (Windows NT 10.0; Win64; x64) AppleWebKit/537.36 (KHTML, like Gecko) Chrome/138.0.0.0 Safari/537.36","WebKit","Chrome","138.0.0.0","Windows","10.0","https://app.prolific.com/","en-US,en;q=0.9","663b638be7226d4e3fcc255f","683db7602f5db6a34d12d064","686e2a8d26b068379516095a","1","663b638be7226d4e3fcc255f","1","2025-07-09T08:51:55.733Z","","","","","","","","","","","StressQ","","50","","","","","","","","","","","","","","","","","","","","","","","","","","","","",""
"4236","","<div style=""width:500px;"">
  <p>What best describes how you currently feel?</p>
  </div>","100","html-slider-response","23","565682","0.0-5.0-4.2","16","1","2025-07-09 08:42:27","01610cd0009c79a99da7d0a3353eb402","216.120.189.225","Mozilla/5.0 (Windows NT 10.0; Win64; x64) AppleWebKit/537.36 (KHTML, like Gecko) Chrome/138.0.0.0 Safari/537.36","WebKit","Chrome","138.0.0.0","Windows","10.0","https://app.prolific.com/","en-US,en;q=0.9","663b638be7226d4e3fcc255f","683db7602f5db6a34d12d064","686e2a8d26b068379516095a","1","663b638be7226d4e3fcc255f","1","2025-07-09T08:51:59.972Z","","","","","","","","","","","MotivationQ","","50","","","","","","","","","","","","","","","","","","","","","","","","","","","","",""
"","","","","ctl-task-cpt","24","611377","0.0-5.0-0.3","16","1","2025-07-09 08:42:27","01610cd0009c79a99da7d0a3353eb402","216.120.189.225","Mozilla/5.0 (Windows NT 10.0; Win64; x64) AppleWebKit/537.36 (KHTML, like Gecko) Chrome/138.0.0.0 Safari/537.36","WebKit","Chrome","138.0.0.0","Windows","10.0","https://app.prolific.com/","en-US,en;q=0.9","663b638be7226d4e3fcc255f","683db7602f5db6a34d12d064","686e2a8d26b068379516095a","1","663b638be7226d4e3fcc255f","1","2025-07-09T08:52:45.666Z","","","","","","","","","","","","","","win-only","3","g1:SW,g2:NE","0.7","4","0","573253.2","1383.5","6384.7","42681.2","1","4","4","6","2","4","3","23","20","0.17424242424242425","1572.4","3000","540","[""up"",""right""]","{""num_key_presses"":10,""num_perfect"":7,""num_errors"":1,""num_randdir"":2,""num_randdir_good_moves"":0,""num_whilered"":0,""num_whileblue"":1,""num_blue"":3,""num_good_moves"":8}","[297.22232142857143,290.12857142857143,0.7,297.22232142857143,290.12857142857143,106.1,297.22232142857143,290.12857142857143,210.1,297.22232142857143,290.12857142857143,315.3,297.22232142857143,290.12857142857143,418.7,297.22232142857143,290.12857142857143,526.4,297.22232142857143,290.12857142857143,629.8,297.22232142857143,290.12857142857143,733.4,517.2223214285714,169.12857142857143,839.6,578.2223214285714,104.12857142857143,943,591.2223214285714,86.12857142857143,1050.1,583.2223214285714,45.128571428571426,1151.1,562.2223214285714,40.128571428571426,1252.7,560.2223214285714,40.128571428571426,1358.3,560.2223214285714,40.128571428571426,1458.4,560.2223214285714,40.128571428571426,1562.7,560.2223214285714,40.128571428571426,1672.6,560.2223214285714,40.128571428571426,1779.3,560.2223214285714,40.128571428571426,1885.6,560.2223214285714,40.128571428571426,1988.1,560.2223214285714,40.128571428571426,2090.6,560.2223214285714,40.128571428571426,2197.4,560.2223214285714,40.128571428571426,2299.6,560.2223214285714,40.128571428571426,2403.9,560.2223214285714,40.128571428571426,2511.3,560.2223214285714,40.128571428571426,2613.6,560.2223214285714,40.128571428571426,2722.1,560.2223214285714,40.128571428571426,2822.2,560.2223214285714,40.128571428571426,2930.5,560.2223214285714,40.128571428571426,3032.6,560.2223214285714,40.128571428571426,3147.5,560.2223214285714,40.128571428571426,3248.3,560.2223214285714,40.128571428571426,3352.4,560.2223214285714,40.128571428571426,3459.2,560.2223214285714,40.128571428571426,3565.7,560.2223214285714,40.128571428571426,3669.9,560.2223214285714,40.128571428571426,3779.3,560.2223214285714,40.128571428571426,3881.5,560.2223214285714,40.128571428571426,3987.6,560.2223214285714,40.128571428571426,4094.6,560.2223214285714,40.128571428571426,4195.6,560.2223214285714,40.128571428571426,4299.9,560.2223214285714,40.128571428571426,4401.3,560.2223214285714,40.128571428571426,4502.5,560.2223214285714,40.128571428571426,4606.5,560.2223214285714,40.128571428571426,4706.5,560.2223214285714,40.128571428571426,4812.7,560.2223214285714,40.128571428571426,4912.8]","[1370.1,1370.1,1000,0,370.1,""oops"",""right"",""down"",""bad_move"",4118.3,2745.9,2402.8,1372.5,343,""smooth"",""right"",""right"",""good_move"",7070.4,2950.8,2622.8,4119.7,327.9,""oops"",""right"",""left"",""bad_move"",9833.8,2762.4,2353.2,7071.5,409.2,""smooth"",""up"",""up"",""good_move"",12959,3123.6,2730.5,9835.4,393.2,""smooth"",""up"",""up"",""good_move"",16469.6,3509.5,3117.1,12960.1,392.4,""smooth"",""right"",""right"",""good_move"",25802.8,9332.4,1892.1,23510,400.7,""while_blue"",""right"",""right"",""good_move"",29379.4,3576.2,3079.7,25803.3,496.5,""smooth"",""up"",""up"",""good_move"",32924,3543.7,3158.5,29380.3,385.2,""smooth"",""up"",""up"",""good_move"",36187.7,3262.9,2858.7,32924.8,404.2,""smooth"",""right"",""right"",""good_move""]","",""
"6297","","<div style=""width:500px;"">
  <p>What determined the result of this run?</p>
  </div>","87","html-slider-response","25","617677","0.0-5.0-1.3","16","1","2025-07-09 08:42:27","01610cd0009c79a99da7d0a3353eb402","216.120.189.225","Mozilla/5.0 (Windows NT 10.0; Win64; x64) AppleWebKit/537.36 (KHTML, like Gecko) Chrome/138.0.0.0 Safari/537.36","WebKit","Chrome","138.0.0.0","Windows","10.0","https://app.prolific.com/","en-US,en;q=0.9","663b638be7226d4e3fcc255f","683db7602f5db6a34d12d064","686e2a8d26b068379516095a","1","663b638be7226d4e3fcc255f","1","2025-07-09T08:52:51.966Z","","","","","","","","","","","AttribQ","","50","","","","","","","","","","","","","","","","","","","","","","","","","","","","",""
"4321","","<div style=""width:500px;"">
  <p>How much control did you have over the ball?</p>
  </div>","87","html-slider-response","26","622000","0.0-5.0-2.3","16","1","2025-07-09 08:42:27","01610cd0009c79a99da7d0a3353eb402","216.120.189.225","Mozilla/5.0 (Windows NT 10.0; Win64; x64) AppleWebKit/537.36 (KHTML, like Gecko) Chrome/138.0.0.0 Safari/537.36","WebKit","Chrome","138.0.0.0","Windows","10.0","https://app.prolific.com/","en-US,en;q=0.9","663b638be7226d4e3fcc255f","683db7602f5db6a34d12d064","686e2a8d26b068379516095a","1","663b638be7226d4e3fcc255f","1","2025-07-09T08:52:56.289Z","","","","","","","","","","","ControlQ","","50","","","","","","","","","","","","","","","","","","","","","","","","","","","","",""
"4664","","<div style=""width:500px;"">
  <p>How would you describe your current emotional state?</p>
  </div>","0","html-slider-response","27","626666","0.0-5.0-3.3","16","1","2025-07-09 08:42:27","01610cd0009c79a99da7d0a3353eb402","216.120.189.225","Mozilla/5.0 (Windows NT 10.0; Win64; x64) AppleWebKit/537.36 (KHTML, like Gecko) Chrome/138.0.0.0 Safari/537.36","WebKit","Chrome","138.0.0.0","Windows","10.0","https://app.prolific.com/","en-US,en;q=0.9","663b638be7226d4e3fcc255f","683db7602f5db6a34d12d064","686e2a8d26b068379516095a","1","663b638be7226d4e3fcc255f","1","2025-07-09T08:53:00.955Z","","","","","","","","","","","StressQ","","50","","","","","","","","","","","","","","","","","","","","","","","","","","","","",""
"5908","","<div style=""width:500px;"">
  <p>What best describes how you currently feel?</p>
  </div>","100","html-slider-response","28","632578","0.0-5.0-4.3","16","1","2025-07-09 08:42:27","01610cd0009c79a99da7d0a3353eb402","216.120.189.225","Mozilla/5.0 (Windows NT 10.0; Win64; x64) AppleWebKit/537.36 (KHTML, like Gecko) Chrome/138.0.0.0 Safari/537.36","WebKit","Chrome","138.0.0.0","Windows","10.0","https://app.prolific.com/","en-US,en;q=0.9","663b638be7226d4e3fcc255f","683db7602f5db6a34d12d064","686e2a8d26b068379516095a","1","663b638be7226d4e3fcc255f","1","2025-07-09T08:53:06.867Z","","","","","","","","","","","MotivationQ","","50","","","","","","","","","","","","","","","","","","","","","","","","","","","","",""
"","","","","ctl-task-cpt","29","687390","0.0-5.0-0.4","16","1","2025-07-09 08:42:27","01610cd0009c79a99da7d0a3353eb402","216.120.189.225","Mozilla/5.0 (Windows NT 10.0; Win64; x64) AppleWebKit/537.36 (KHTML, like Gecko) Chrome/138.0.0.0 Safari/537.36","WebKit","Chrome","138.0.0.0","Windows","10.0","https://app.prolific.com/","en-US,en;q=0.9","663b638be7226d4e3fcc255f","683db7602f5db6a34d12d064","686e2a8d26b068379516095a","1","663b638be7226d4e3fcc255f","1","2025-07-09T08:54:01.679Z","","","","","","","","","","","","","","win-only","1","g1:NE,g2:SW","0.6","5","0","640153.9","1461.1","6469.9","51782.1","1","4","8","6","2","-8","-8","15","23","0.11363636363636363","1562.8","3000","-2115","[""down"",""left""]","{""num_key_presses"":10,""num_perfect"":6,""num_errors"":0,""num_randdir"":4,""num_randdir_good_moves"":1,""num_whilered"":0,""num_whileblue"":0,""num_blue"":5,""num_good_moves"":7}","[287.22232142857143,298.12857142857143,0.4,287.22232142857143,298.12857142857143,110.1,287.22232142857143,298.12857142857143,215.3,287.22232142857143,298.12857142857143,322.9,287.22232142857143,298.12857142857143,425,287.22232142857143,298.12857142857143,526.6,287.22232142857143,298.12857142857143,627.2,188.22232142857143,338.12857142857143,728.7,89.22232142857143,452.12857142857143,836.2,68.22232142857143,525.1285714285714,943,68.22232142857143,525.1285714285714,1047.7,68.22232142857143,525.1285714285714,1151.9,65.22232142857143,526.1285714285714,1256.9,63.222321428571426,526.1285714285714,1356.9,63.222321428571426,526.1285714285714,1457.9,63.222321428571426,526.1285714285714,1559.9,63.222321428571426,526.1285714285714,1666,63.222321428571426,526.1285714285714,1772.2,63.222321428571426,526.1285714285714,1876.1,63.222321428571426,526.1285714285714,1979.6,63.222321428571426,526.1285714285714,2079.8,63.222321428571426,526.1285714285714,2180.9,-26.777678571428574,509.12857142857143,2284.4,-71.77767857142857,493.12857142857143,2389,-74.77767857142857,493.12857142857143,2491.6,-74.77767857142857,493.12857142857143,2594.9,-74.77767857142857,493.12857142857143,2697.1,-74.77767857142857,493.12857142857143,2797.8,-74.77767857142857,493.12857142857143,2903.5,-74.77767857142857,493.12857142857143,3013,-74.77767857142857,493.12857142857143,3114.6,-74.77767857142857,493.12857142857143,3216.2,-74.77767857142857,493.12857142857143,3317.1,-74.77767857142857,493.12857142857143,3426.9,-74.77767857142857,493.12857142857143,3534.6,-74.77767857142857,493.12857142857143,3643.4,-74.77767857142857,493.12857142857143,3747.8,-74.77767857142857,493.12857142857143,3857.2,-74.77767857142857,493.12857142857143,3960.7,-74.77767857142857,493.12857142857143,4068.4,-74.77767857142857,493.12857142857143,4172.2,-74.77767857142857,493.12857142857143,4277.5,-74.77767857142857,493.12857142857143,4386.2,-74.77767857142857,493.12857142857143,4495.3,-74.77767857142857,493.12857142857143,4605.2,-74.77767857142857,493.12857142857143,4711.9,-74.77767857142857,493.12857142857143,4822.5,-74.77767857142857,493.12857142857143,4923.9]","[1386.9,1386.9,1000,0,386.9,""smooth"",""down"",""down"",""good_move"",14016,12628.7,2588.2,10980.4,447.6,""smooth"",""left"",""left"",""good_move"",16512.9,2495.7,2004.5,14017.2,491.2,""oops"",""down"",""left"",""good_move"",18767.5,2253.3,1797.5,16514.2,455.8,""oops"",""down"",""right"",""bad_move"",20941,2172.5,1737.8,18768.5,434.7,""smooth"",""down"",""down"",""good_move"",24759.1,3817.5,3414.1,20941.8,403.2,""oops"",""left"",""up"",""bad_move"",31329.3,6569.8,2836.7,28029.6,463,""oops"",""down"",""up"",""bad_move"",34180.7,2850.8,2378.4,31329.9,472.4,""smooth"",""left"",""left"",""good_move"",37099.6,2918.2,2574.5,34181.5,343.6,""smooth"",""down"",""down"",""good_move"",39177.7,2076.9,1728,37100.8,348.9,""smooth"",""down"",""down"",""good_move""]","",""
"11295","","<div style=""width:500px;"">
  <p>What determined the result of this run?</p>
  </div>","27","html-slider-response","30","698686","0.0-5.0-1.4","16","1","2025-07-09 08:42:27","01610cd0009c79a99da7d0a3353eb402","216.120.189.225","Mozilla/5.0 (Windows NT 10.0; Win64; x64) AppleWebKit/537.36 (KHTML, like Gecko) Chrome/138.0.0.0 Safari/537.36","WebKit","Chrome","138.0.0.0","Windows","10.0","https://app.prolific.com/","en-US,en;q=0.9","663b638be7226d4e3fcc255f","683db7602f5db6a34d12d064","686e2a8d26b068379516095a","1","663b638be7226d4e3fcc255f","1","2025-07-09T08:54:12.976Z","","","","","","","","","","","AttribQ","","50","","","","","","","","","","","","","","","","","","","","","","","","","","","","",""
"5398","","<div style=""width:500px;"">
  <p>How much control did you have over the ball?</p>
  </div>","28","html-slider-response","31","704087","0.0-5.0-2.4","16","1","2025-07-09 08:42:27","01610cd0009c79a99da7d0a3353eb402","216.120.189.225","Mozilla/5.0 (Windows NT 10.0; Win64; x64) AppleWebKit/537.36 (KHTML, like Gecko) Chrome/138.0.0.0 Safari/537.36","WebKit","Chrome","138.0.0.0","Windows","10.0","https://app.prolific.com/","en-US,en;q=0.9","663b638be7226d4e3fcc255f","683db7602f5db6a34d12d064","686e2a8d26b068379516095a","1","663b638be7226d4e3fcc255f","1","2025-07-09T08:54:18.376Z","","","","","","","","","","","ControlQ","","50","","","","","","","","","","","","","","","","","","","","","","","","","","","","",""
"6952","","<div style=""width:500px;"">
  <p>How would you describe your current emotional state?</p>
  </div>","0","html-slider-response","32","711041","0.0-5.0-3.4","16","1","2025-07-09 08:42:27","01610cd0009c79a99da7d0a3353eb402","216.120.189.225","Mozilla/5.0 (Windows NT 10.0; Win64; x64) AppleWebKit/537.36 (KHTML, like Gecko) Chrome/138.0.0.0 Safari/537.36","WebKit","Chrome","138.0.0.0","Windows","10.0","https://app.prolific.com/","en-US,en;q=0.9","663b638be7226d4e3fcc255f","683db7602f5db6a34d12d064","686e2a8d26b068379516095a","1","663b638be7226d4e3fcc255f","1","2025-07-09T08:54:25.330Z","","","","","","","","","","","StressQ","","50","","","","","","","","","","","","","","","","","","","","","","","","","","","","",""
"5242","","<div style=""width:500px;"">
  <p>What best describes how you currently feel?</p>
  </div>","100","html-slider-response","33","716285","0.0-5.0-4.4","16","1","2025-07-09 08:42:27","01610cd0009c79a99da7d0a3353eb402","216.120.189.225","Mozilla/5.0 (Windows NT 10.0; Win64; x64) AppleWebKit/537.36 (KHTML, like Gecko) Chrome/138.0.0.0 Safari/537.36","WebKit","Chrome","138.0.0.0","Windows","10.0","https://app.prolific.com/","en-US,en;q=0.9","663b638be7226d4e3fcc255f","683db7602f5db6a34d12d064","686e2a8d26b068379516095a","1","663b638be7226d4e3fcc255f","1","2025-07-09T08:54:30.574Z","","","","","","","","","","","MotivationQ","","50","","","","","","","","","","","","","","","","","","","","","","","","","","","","",""
"","","","","ctl-task-cpt","34","750598","0.0-5.0-0.5","16","1","2025-07-09 08:42:27","01610cd0009c79a99da7d0a3353eb402","216.120.189.225","Mozilla/5.0 (Windows NT 10.0; Win64; x64) AppleWebKit/537.36 (KHTML, like Gecko) Chrome/138.0.0.0 Safari/537.36","WebKit","Chrome","138.0.0.0","Windows","10.0","https://app.prolific.com/","en-US,en;q=0.9","663b638be7226d4e3fcc255f","683db7602f5db6a34d12d064","686e2a8d26b068379516095a","1","663b638be7226d4e3fcc255f","1","2025-07-09T08:55:04.887Z","","","","","","","","","","","","","","win-only","0","g1:NW,g2:SE","0.5","6","0","723856.1","1832","6843","31295.2","1","4","4","6","2","4","3","18","15","0.13636363636363635","1576.1","3000","1080","[""down"",""right""]","{""num_key_presses"":8,""num_perfect"":3,""num_errors"":1,""num_randdir"":4,""num_randdir_good_moves"":3,""num_whilered"":0,""num_whileblue"":1,""num_blue"":2,""num_good_moves"":7}","[295.22232142857143,289.12857142857143,0.6,295.22232142857143,289.12857142857143,105.2,295.22232142857143,289.12857142857143,211.3,295.22232142857143,289.12857142857143,313,295.22232142857143,289.12857142857143,414.4,295.22232142857143,289.12857142857143,515.1,295.22232142857143,289.12857142857143,622.1,295.22232142857143,289.12857142857143,727,336.22232142857143,357.12857142857143,828.6,398.22232142857143,440.12857142857143,932.8,434.22232142857143,479.12857142857143,1032.8,468.22232142857143,529.1285714285714,1140.7,503.22232142857143,538.1285714285714,1248.1,516.2223214285714,536.1285714285714,1348.2,516.2223214285714,536.1285714285714,1450.9,516.2223214285714,536.1285714285714,1554.1,516.2223214285714,536.1285714285714,1654.4,516.2223214285714,536.1285714285714,1754.6,516.2223214285714,536.1285714285714,1867.2,516.2223214285714,536.1285714285714,1969.2,516.2223214285714,536.1285714285714,2069.8,516.2223214285714,536.1285714285714,2173.7,516.2223214285714,536.1285714285714,2283.5,516.2223214285714,536.1285714285714,2388.7,516.2223214285714,536.1285714285714,2492.6,516.2223214285714,536.1285714285714,2594.6,516.2223214285714,536.1285714285714,2695.8,516.2223214285714,536.1285714285714,2799.8,516.2223214285714,536.1285714285714,2906,516.2223214285714,536.1285714285714,3016.7,516.2223214285714,536.1285714285714,3121.4,516.2223214285714,536.1285714285714,3223.5,516.2223214285714,536.1285714285714,3327.8,516.2223214285714,536.1285714285714,3430.6,516.2223214285714,536.1285714285714,3532.1,516.2223214285714,536.1285714285714,3634.8,516.2223214285714,536.1285714285714,3738.8,516.2223214285714,536.1285714285714,3847.2,516.2223214285714,536.1285714285714,3954.6,516.2223214285714,536.1285714285714,4065.5,516.2223214285714,536.1285714285714,4166.4,484.22232142857143,543.1285714285714,4275.3,459.22232142857143,557.1285714285714,4376.5,424.22232142857143,574.1285714285714,4479.3,403.22232142857143,579.1285714285714,4593.6,403.22232142857143,579.1285714285714,4695.8,403.22232142857143,579.1285714285714,4798.9,403.22232142857143,579.1285714285714,4900.1]","[1404.4,1404.4,1000,0,404.4,""oops"",""down"",""down"",""good_move"",4400.9,2995.4,2620.1,1405.5,375.3,""smooth"",""down"",""down"",""good_move"",6581,2179.1,1836.7,4402,342.3,""while_blue"",""right"",""right"",""good_move"",9795.1,3213.2,2695.8,6581.9,517.4,""oops"",""right"",""right"",""good_move"",12879.4,3083.9,2634.9,9795.6,449,""oops"",""down"",""left"",""bad_move"",15981.2,3100.8,2698.8,12880.4,402,""oops"",""down"",""right"",""good_move"",21618.4,5635.8,1857,19342.9,418.5,""smooth"",""down"",""down"",""good_move"",24300.1,2681.1,2274.1,21619,407,""smooth"",""right"",""right"",""good_move""]","",""
"8071","","<div style=""width:500px;"">
  <p>What determined the result of this run?</p>
  </div>","80","html-slider-response","35","758670","0.0-5.0-1.5","16","1","2025-07-09 08:42:27","01610cd0009c79a99da7d0a3353eb402","216.120.189.225","Mozilla/5.0 (Windows NT 10.0; Win64; x64) AppleWebKit/537.36 (KHTML, like Gecko) Chrome/138.0.0.0 Safari/537.36","WebKit","Chrome","138.0.0.0","Windows","10.0","https://app.prolific.com/","en-US,en;q=0.9","663b638be7226d4e3fcc255f","683db7602f5db6a34d12d064","686e2a8d26b068379516095a","1","663b638be7226d4e3fcc255f","1","2025-07-09T08:55:12.959Z","","","","","","","","","","","AttribQ","","50","","","","","","","","","","","","","","","","","","","","","","","","","","","","",""
"7394","","<div style=""width:500px;"">
  <p>How much control did you have over the ball?</p>
  </div>","86","html-slider-response","36","766065","0.0-5.0-2.5","16","1","2025-07-09 08:42:27","01610cd0009c79a99da7d0a3353eb402","216.120.189.225","Mozilla/5.0 (Windows NT 10.0; Win64; x64) AppleWebKit/537.36 (KHTML, like Gecko) Chrome/138.0.0.0 Safari/537.36","WebKit","Chrome","138.0.0.0","Windows","10.0","https://app.prolific.com/","en-US,en;q=0.9","663b638be7226d4e3fcc255f","683db7602f5db6a34d12d064","686e2a8d26b068379516095a","1","663b638be7226d4e3fcc255f","1","2025-07-09T08:55:20.354Z","","","","","","","","","","","ControlQ","","50","","","","","","","","","","","","","","","","","","","","","","","","","","","","",""
"10473","","<div style=""width:500px;"">
  <p>How would you describe your current emotional state?</p>
  </div>","0","html-slider-response","37","776540","0.0-5.0-3.5","16","1","2025-07-09 08:42:27","01610cd0009c79a99da7d0a3353eb402","216.120.189.225","Mozilla/5.0 (Windows NT 10.0; Win64; x64) AppleWebKit/537.36 (KHTML, like Gecko) Chrome/138.0.0.0 Safari/537.36","WebKit","Chrome","138.0.0.0","Windows","10.0","https://app.prolific.com/","en-US,en;q=0.9","663b638be7226d4e3fcc255f","683db7602f5db6a34d12d064","686e2a8d26b068379516095a","1","663b638be7226d4e3fcc255f","1","2025-07-09T08:55:30.830Z","","","","","","","","","","","StressQ","","50","","","","","","","","","","","","","","","","","","","","","","","","","","","","",""
"32027","","<div style=""width:500px;"">
  <p>What best describes how you currently feel?</p>
  </div>","100","html-slider-response","38","808577","0.0-5.0-4.5","16","1","2025-07-09 08:42:27","01610cd0009c79a99da7d0a3353eb402","216.120.189.225","Mozilla/5.0 (Windows NT 10.0; Win64; x64) AppleWebKit/537.36 (KHTML, like Gecko) Chrome/138.0.0.0 Safari/537.36","WebKit","Chrome","138.0.0.0","Windows","10.0","https://app.prolific.com/","en-US,en;q=0.9","663b638be7226d4e3fcc255f","683db7602f5db6a34d12d064","686e2a8d26b068379516095a","1","663b638be7226d4e3fcc255f","1","2025-07-09T08:56:02.867Z","","","","","","","","","","","MotivationQ","","50","","","","","","","","","","","","","","","","","","","","","","","","","","","","",""
"","","","","ctl-task-cpt","39","870730","0.0-5.0-0.6","16","1","2025-07-09 08:42:27","01610cd0009c79a99da7d0a3353eb402","216.120.189.225","Mozilla/5.0 (Windows NT 10.0; Win64; x64) AppleWebKit/537.36 (KHTML, like Gecko) Chrome/138.0.0.0 Safari/537.36","WebKit","Chrome","138.0.0.0","Windows","10.0","https://app.prolific.com/","en-US,en;q=0.9","663b638be7226d4e3fcc255f","683db7602f5db6a34d12d064","686e2a8d26b068379516095a","1","663b638be7226d4e3fcc255f","1","2025-07-09T08:57:05.020Z","","","","","","","","","","","","","","win-only","3","g1:SW,g2:NE","0.4","7","0","816159.4","3859","8863.6","59127.3","1","4","4","6","2","-4","-4","14","18","0.10606060606060606","1923","3000","-2115","[""up"",""right""]","{""num_key_presses"":10,""num_perfect"":4,""num_errors"":0,""num_randdir"":6,""num_randdir_good_moves"":2,""num_whilered"":0,""num_whileblue"":0,""num_blue"":6,""num_good_moves"":6}","[295.22232142857143,304.12857142857143,0.3,295.22232142857143,304.12857142857143,107.8,295.22232142857143,304.12857142857143,220.7,295.22232142857143,304.12857142857143,339.9,295.22232142857143,304.12857142857143,444.2,295.22232142857143,304.12857142857143,545,295.22232142857143,304.12857142857143,652.1,350.22232142857143,249.12857142857143,758.1,392.22232142857143,223.12857142857143,859.2,401.22232142857143,205.12857142857143,961.5,401.22232142857143,205.12857142857143,1065.7,401.22232142857143,205.12857142857143,1169.4,558.2223214285714,21.128571428571426,1277.1,576.2223214285714,2.1285714285714263,1377.1,578.2223214285714,0.12857142857142634,1482.1,552.2223214285714,10.128571428571426,1600.3,534.2223214285714,33.128571428571426,1708.9,532.2223214285714,36.128571428571426,1818.6,532.2223214285714,36.128571428571426,1919.4,532.2223214285714,36.128571428571426,2031.2,532.2223214285714,36.128571428571426,2134.1,532.2223214285714,36.128571428571426,2239.8,532.2223214285714,36.128571428571426,2348,532.2223214285714,36.128571428571426,2451.6,532.2223214285714,36.128571428571426,2553.5,532.2223214285714,36.128571428571426,2667.2,532.2223214285714,36.128571428571426,2769.5,532.2223214285714,36.128571428571426,2872,532.2223214285714,36.128571428571426,2976.4,532.2223214285714,36.128571428571426,3078.7,532.2223214285714,36.128571428571426,3180.8,532.2223214285714,36.128571428571426,3292.4,532.2223214285714,36.128571428571426,3394.8,532.2223214285714,36.128571428571426,3496,532.2223214285714,36.128571428571426,3596.5,532.2223214285714,36.128571428571426,3698.5,532.2223214285714,36.128571428571426,3802,532.2223214285714,36.128571428571426,3904.4,532.2223214285714,36.128571428571426,4007.9,532.2223214285714,36.128571428571426,4112.8,532.2223214285714,36.128571428571426,4220.6,532.2223214285714,36.128571428571426,4331.6,532.2223214285714,36.128571428571426,4433,532.2223214285714,36.128571428571426,4535.2,532.2223214285714,36.128571428571426,4638.5,532.2223214285714,36.128571428571426,4745.6,532.2223214285714,36.128571428571426,4852.3,532.2223214285714,36.128571428571426,4952.8]","[4640.5,4640.5,2262.4,2005.1,373.1,""smooth"",""right"",""right"",""good_move"",7857.9,3216.7,2827.8,4641.2,388.9,""oops"",""right"",""down"",""bad_move"",13916.4,6056.7,2303.5,11156.5,456.4,""smooth"",""right"",""right"",""good_move"",16862.9,2945.9,2495.9,13917.1,449.9,""oops"",""up"",""down"",""bad_move"",19351.6,2487.9,2014.9,16863.7,473,""smooth"",""right"",""right"",""good_move"",25936.2,6583.7,2813.5,22620.4,502.3,""oops"",""up"",""up"",""good_move"",28853.6,2915.9,2537.7,25937.8,378.2,""oops"",""up"",""up"",""good_move"",34456,5600.4,2000.9,32040.8,414.3,""oops"",""up"",""down"",""bad_move"",37434.4,2977.2,2560.9,34457.2,416.3,""smooth"",""up"",""up"",""good_move"",44210.1,6774.6,3281.9,40510.6,417.6,""oops"",""up"",""left"",""bad_move""]","",""
"5294","","<div style=""width:500px;"">
  <p>What determined the result of this run?</p>
  </div>","21","html-slider-response","40","876027","0.0-5.0-1.6","16","1","2025-07-09 08:42:27","01610cd0009c79a99da7d0a3353eb402","216.120.189.225","Mozilla/5.0 (Windows NT 10.0; Win64; x64) AppleWebKit/537.36 (KHTML, like Gecko) Chrome/138.0.0.0 Safari/537.36","WebKit","Chrome","138.0.0.0","Windows","10.0","https://app.prolific.com/","en-US,en;q=0.9","663b638be7226d4e3fcc255f","683db7602f5db6a34d12d064","686e2a8d26b068379516095a","1","663b638be7226d4e3fcc255f","1","2025-07-09T08:57:10.316Z","","","","","","","","","","","AttribQ","","50","","","","","","","","","","","","","","","","","","","","","","","","","","","","",""
"7666","","<div style=""width:500px;"">
  <p>How much control did you have over the ball?</p>
  </div>","13","html-slider-response","41","883697","0.0-5.0-2.6","16","1","2025-07-09 08:42:27","01610cd0009c79a99da7d0a3353eb402","216.120.189.225","Mozilla/5.0 (Windows NT 10.0; Win64; x64) AppleWebKit/537.36 (KHTML, like Gecko) Chrome/138.0.0.0 Safari/537.36","WebKit","Chrome","138.0.0.0","Windows","10.0","https://app.prolific.com/","en-US,en;q=0.9","663b638be7226d4e3fcc255f","683db7602f5db6a34d12d064","686e2a8d26b068379516095a","1","663b638be7226d4e3fcc255f","1","2025-07-09T08:57:17.986Z","","","","","","","","","","","ControlQ","","50","","","","","","","","","","","","","","","","","","","","","","","","","","","","",""
"5148","","<div style=""width:500px;"">
  <p>How would you describe your current emotional state?</p>
  </div>","0","html-slider-response","42","888847","0.0-5.0-3.6","16","1","2025-07-09 08:42:27","01610cd0009c79a99da7d0a3353eb402","216.120.189.225","Mozilla/5.0 (Windows NT 10.0; Win64; x64) AppleWebKit/537.36 (KHTML, like Gecko) Chrome/138.0.0.0 Safari/537.36","WebKit","Chrome","138.0.0.0","Windows","10.0","https://app.prolific.com/","en-US,en;q=0.9","663b638be7226d4e3fcc255f","683db7602f5db6a34d12d064","686e2a8d26b068379516095a","1","663b638be7226d4e3fcc255f","1","2025-07-09T08:57:23.136Z","","","","","","","","","","","StressQ","","50","","","","","","","","","","","","","","","","","","","","","","","","","","","","",""
"4303","","<div style=""width:500px;"">
  <p>What best describes how you currently feel?</p>
  </div>","100","html-slider-response","43","893152","0.0-5.0-4.6","16","1","2025-07-09 08:42:27","01610cd0009c79a99da7d0a3353eb402","216.120.189.225","Mozilla/5.0 (Windows NT 10.0; Win64; x64) AppleWebKit/537.36 (KHTML, like Gecko) Chrome/138.0.0.0 Safari/537.36","WebKit","Chrome","138.0.0.0","Windows","10.0","https://app.prolific.com/","en-US,en;q=0.9","663b638be7226d4e3fcc255f","683db7602f5db6a34d12d064","686e2a8d26b068379516095a","1","663b638be7226d4e3fcc255f","1","2025-07-09T08:57:27.441Z","","","","","","","","","","","MotivationQ","","50","","","","","","","","","","","","","","","","","","","","","","","","","","","","",""
"","","","","ctl-task-cpt","44","925768","0.0-5.0-0.7","16","1","2025-07-09 08:42:27","01610cd0009c79a99da7d0a3353eb402","216.120.189.225","Mozilla/5.0 (Windows NT 10.0; Win64; x64) AppleWebKit/537.36 (KHTML, like Gecko) Chrome/138.0.0.0 Safari/537.36","WebKit","Chrome","138.0.0.0","Windows","10.0","https://app.prolific.com/","en-US,en;q=0.9","663b638be7226d4e3fcc255f","683db7602f5db6a34d12d064","686e2a8d26b068379516095a","1","663b638be7226d4e3fcc255f","1","2025-07-09T08:58:00.057Z","","","","","","","","","","","","","","win-only","2","g1:SE,g2:NW","0.3","8","0","900724.3","1920.9","6924","29593.5","1","4","8","6","2","8","8","22","14","0.16666666666666666","1699","3000","870","[""left"",""up""]","{""num_key_presses"":8,""num_perfect"":3,""num_errors"":0,""num_randdir"":5,""num_randdir_good_moves"":4,""num_whilered"":0,""num_whileblue"":0,""num_blue"":0,""num_good_moves"":7}","[289.22232142857143,291.12857142857143,0.4,289.22232142857143,291.12857142857143,105.8,289.22232142857143,291.12857142857143,210.4,289.22232142857143,291.12857142857143,321.1,289.22232142857143,291.12857142857143,427.4,289.22232142857143,291.12857142857143,542.6,289.22232142857143,291.12857142857143,647.4,289.22232142857143,291.12857142857143,759.1,257.22232142857143,238.12857142857143,864,34.222321428571426,1.1285714285714263,969.8,-4.777678571428574,-36.871428571428574,1070.5,-4.777678571428574,-36.871428571428574,1173.4,28.222321428571426,9.128571428571426,1278.8,32.222321428571426,24.128571428571426,1382.2,30.222321428571426,30.128571428571426,1483.9,30.222321428571426,30.128571428571426,1589.7,30.222321428571426,30.128571428571426,1689.8,30.222321428571426,30.128571428571426,1795,30.222321428571426,30.128571428571426,1899.7,30.222321428571426,30.128571428571426,2005.9,30.222321428571426,30.128571428571426,2107.4,8.222321428571426,24.128571428571426,2211.5,-15.777678571428574,16.128571428571426,2314.9,-30.777678571428574,11.128571428571426,2418.1,-36.777678571428574,9.128571428571426,2525.7,-48.777678571428574,5.128571428571426,2635.2,-57.777678571428574,2.1285714285714263,2738.1,-58.777678571428574,1.1285714285714263,2847,-57.777678571428574,1.1285714285714263,2956.4,-55.777678571428574,1.1285714285714263,3064.1,-53.777678571428574,3.1285714285714263,3165.2,-52.777678571428574,4.128571428571426,3271.4,-50.777678571428574,4.128571428571426,3373.9,-49.777678571428574,4.128571428571426,3477.7,-48.777678571428574,5.128571428571426,3585.3,-47.777678571428574,5.128571428571426,3688.1,-47.777678571428574,6.128571428571426,3789.2,-46.777678571428574,7.128571428571426,3889.7,-46.777678571428574,8.128571428571426,4002.1,-46.777678571428574,8.128571428571426,4103.4,-46.777678571428574,8.128571428571426,4207.5,-46.777678571428574,8.128571428571426,4312.4,-46.777678571428574,8.128571428571426,4413.3,-46.777678571428574,8.128571428571426,4515.9,-46.777678571428574,8.128571428571426,4621.4,-46.777678571428574,8.128571428571426,4729.1,-46.777678571428574,8.128571428571426,4833.3,-46.777678571428574,8.128571428571426,4937.4]","[1483.3,1483.3,1000,0,483.3,""smooth"",""up"",""up"",""good_move"",4689.9,3205.9,2819.3,1484,386.6,""oops"",""up"",""down"",""bad_move"",8314.6,3623.9,3213.8,4690.7,410.1,""oops"",""left"",""left"",""good_move"",11014.6,2699.6,2332.6,8315.1,367,""oops"",""left"",""up"",""good_move"",13856.1,2840.4,2438,11015.7,402.4,""smooth"",""up"",""up"",""good_move"",16419.3,2562.6,2177.4,13856.7,385.2,""smooth"",""left"",""left"",""good_move"",20314.2,3894.2,3480.1,16420,414.1,""oops"",""left"",""left"",""good_move"",22519,2204.1,1775.2,20314.9,428.9,""oops"",""up"",""up"",""good_move""]","",""
"6150","","<div style=""width:500px;"">
  <p>What determined the result of this run?</p>
  </div>","84","html-slider-response","45","931921","0.0-5.0-1.7","16","1","2025-07-09 08:42:27","01610cd0009c79a99da7d0a3353eb402","216.120.189.225","Mozilla/5.0 (Windows NT 10.0; Win64; x64) AppleWebKit/537.36 (KHTML, like Gecko) Chrome/138.0.0.0 Safari/537.36","WebKit","Chrome","138.0.0.0","Windows","10.0","https://app.prolific.com/","en-US,en;q=0.9","663b638be7226d4e3fcc255f","683db7602f5db6a34d12d064","686e2a8d26b068379516095a","1","663b638be7226d4e3fcc255f","1","2025-07-09T08:58:06.210Z","","","","","","","","","","","AttribQ","","50","","","","","","","","","","","","","","","","","","","","","","","","","","","","",""
"6312","","<div style=""width:500px;"">
  <p>How much control did you have over the ball?</p>
  </div>","81","html-slider-response","46","938235","0.0-5.0-2.7","16","1","2025-07-09 08:42:27","01610cd0009c79a99da7d0a3353eb402","216.120.189.225","Mozilla/5.0 (Windows NT 10.0; Win64; x64) AppleWebKit/537.36 (KHTML, like Gecko) Chrome/138.0.0.0 Safari/537.36","WebKit","Chrome","138.0.0.0","Windows","10.0","https://app.prolific.com/","en-US,en;q=0.9","663b638be7226d4e3fcc255f","683db7602f5db6a34d12d064","686e2a8d26b068379516095a","1","663b638be7226d4e3fcc255f","1","2025-07-09T08:58:12.524Z","","","","","","","","","","","ControlQ","","50","","","","","","","","","","","","","","","","","","","","","","","","","","","","",""
"4653","","<div style=""width:500px;"">
  <p>How would you describe your current emotional state?</p>
  </div>","0","html-slider-response","47","942889","0.0-5.0-3.7","16","1","2025-07-09 08:42:27","01610cd0009c79a99da7d0a3353eb402","216.120.189.225","Mozilla/5.0 (Windows NT 10.0; Win64; x64) AppleWebKit/537.36 (KHTML, like Gecko) Chrome/138.0.0.0 Safari/537.36","WebKit","Chrome","138.0.0.0","Windows","10.0","https://app.prolific.com/","en-US,en;q=0.9","663b638be7226d4e3fcc255f","683db7602f5db6a34d12d064","686e2a8d26b068379516095a","1","663b638be7226d4e3fcc255f","1","2025-07-09T08:58:17.178Z","","","","","","","","","","","StressQ","","50","","","","","","","","","","","","","","","","","","","","","","","","","","","","",""
"6009","","<div style=""width:500px;"">
  <p>What best describes how you currently feel?</p>
  </div>","100","html-slider-response","48","948902","0.0-5.0-4.7","16","1","2025-07-09 08:42:27","01610cd0009c79a99da7d0a3353eb402","216.120.189.225","Mozilla/5.0 (Windows NT 10.0; Win64; x64) AppleWebKit/537.36 (KHTML, like Gecko) Chrome/138.0.0.0 Safari/537.36","WebKit","Chrome","138.0.0.0","Windows","10.0","https://app.prolific.com/","en-US,en;q=0.9","663b638be7226d4e3fcc255f","683db7602f5db6a34d12d064","686e2a8d26b068379516095a","1","663b638be7226d4e3fcc255f","1","2025-07-09T08:58:23.191Z","","","","","","","","","","","MotivationQ","","50","","","","","","","","","","","","","","","","","","","","","","","","","","","","",""
"","","","","ctl-task-cpt","49","1004904","0.0-5.0-0.8","16","1","2025-07-09 08:42:27","01610cd0009c79a99da7d0a3353eb402","216.120.189.225","Mozilla/5.0 (Windows NT 10.0; Win64; x64) AppleWebKit/537.36 (KHTML, like Gecko) Chrome/138.0.0.0 Safari/537.36","WebKit","Chrome","138.0.0.0","Windows","10.0","https://app.prolific.com/","en-US,en;q=0.9","663b638be7226d4e3fcc255f","683db7602f5db6a34d12d064","686e2a8d26b068379516095a","1","663b638be7226d4e3fcc255f","1","2025-07-09T08:59:19.193Z","","","","","","","","","","","","","","win-only","3","g1:SW,g2:NE","0.2","9","0","956486.5","5647.6","10651.6","52974.1","1","4","8","6","2","-8","-8","14","22","0.10606060606060606","1701.1","3000","-1975","[""up"",""right""]","{""num_key_presses"":12,""num_perfect"":3,""num_errors"":0,""num_randdir"":9,""num_randdir_good_moves"":3,""num_whilered"":0,""num_whileblue"":0,""num_blue"":2,""num_good_moves"":6}","[297.22232142857143,294.12857142857143,2.4,297.22232142857143,294.12857142857143,101.7,297.22232142857143,294.12857142857143,204.3,297.22232142857143,294.12857142857143,317.4,297.22232142857143,294.12857142857143,429.4,297.22232142857143,294.12857142857143,536.3,297.22232142857143,294.12857142857143,638.3,297.22232142857143,294.12857142857143,753.5,426.22232142857143,172.12857142857143,856.9,447.22232142857143,119.12857142857143,963.3,447.22232142857143,118.12857142857143,1065.2,447.22232142857143,118.12857142857143,1170.1,490.22232142857143,93.12857142857143,1280,529.2223214285714,67.12857142857143,1386.8,533.2223214285714,64.12857142857143,1491.3,533.2223214285714,64.12857142857143,1598.2,533.2223214285714,64.12857142857143,1733.3,533.2223214285714,64.12857142857143,1839.8,533.2223214285714,64.12857142857143,1940.7,533.2223214285714,64.12857142857143,2045.2,533.2223214285714,64.12857142857143,2155.2,575.2223214285714,73.12857142857143,2255.5,619.2223214285714,87.12857142857143,2359.3,622.2223214285714,90.12857142857143,2462.6,622.2223214285714,90.12857142857143,2566,622.2223214285714,90.12857142857143,2670.1,622.2223214285714,90.12857142857143,2773.8,622.2223214285714,90.12857142857143,2874.9,622.2223214285714,90.12857142857143,2978.8,622.2223214285714,90.12857142857143,3086.5,622.2223214285714,90.12857142857143,3191.1,622.2223214285714,90.12857142857143,3293.2,622.2223214285714,90.12857142857143,3405.9,622.2223214285714,90.12857142857143,3513,622.2223214285714,90.12857142857143,3619.5,622.2223214285714,90.12857142857143,3726.5,622.2223214285714,90.12857142857143,3841,622.2223214285714,90.12857142857143,3954.8,622.2223214285714,90.12857142857143,4058,622.2223214285714,90.12857142857143,4166.7,622.2223214285714,90.12857142857143,4268.8,622.2223214285714,90.12857142857143,4370.3,622.2223214285714,90.12857142857143,4474.2,622.2223214285714,90.12857142857143,4579.2,622.2223214285714,90.12857142857143,4686.3,622.2223214285714,90.12857142857143,4786.7,622.2223214285714,90.12857142857143,4890.2,622.2223214285714,90.12857142857143,4996.9]","[1332.7,1332.7,1000,0,332.7,""oops"",""right"",""left"",""bad_move"",3865.7,2532.2,2162.1,1333.5,370.1,""smooth"",""up"",""up"",""good_move"",9565.8,5699.5,1542.5,7573,450.4,""oops"",""up"",""down"",""bad_move"",12436.1,2869.4,2437.5,9566.7,431.9,""smooth"",""up"",""up"",""good_move"",15256.2,2819.1,2475.7,12437.1,343.4,""oops"",""right"",""up"",""good_move"",21784.8,6526.9,2206,19109.6,469.2,""oops"",""right"",""up"",""good_move"",25084.6,3298.7,2905.4,21786,393.2,""oops"",""right"",""down"",""bad_move"",27497,2410.5,1946.1,25086.5,464.4,""oops"",""right"",""left"",""bad_move"",30431,2933.5,2533.2,27497.5,400.3,""oops"",""right"",""right"",""good_move"",33413.9,2981.8,2621.1,30432.1,360.7,""oops"",""right"",""left"",""bad_move"",36495.8,3081.6,2734.9,33414.2,346.7,""smooth"",""right"",""right"",""good_move"",39628.7,3132.5,2740.7,36496.3,391.8,""oops"",""right"",""left"",""bad_move""]","",""
"10422","","<div style=""width:500px;"">
  <p>What determined the result of this run?</p>
  </div>","15","html-slider-response","50","1015328","0.0-5.0-1.8","16","1","2025-07-09 08:42:27","01610cd0009c79a99da7d0a3353eb402","216.120.189.225","Mozilla/5.0 (Windows NT 10.0; Win64; x64) AppleWebKit/537.36 (KHTML, like Gecko) Chrome/138.0.0.0 Safari/537.36","WebKit","Chrome","138.0.0.0","Windows","10.0","https://app.prolific.com/","en-US,en;q=0.9","663b638be7226d4e3fcc255f","683db7602f5db6a34d12d064","686e2a8d26b068379516095a","1","663b638be7226d4e3fcc255f","1","2025-07-09T08:59:29.617Z","","","","","","","","","","","AttribQ","","50","","","","","","","","","","","","","","","","","","","","","","","","","","","","",""
"6932","","<div style=""width:500px;"">
  <p>How much control did you have over the ball?</p>
  </div>","8","html-slider-response","51","1022262","0.0-5.0-2.8","16","1","2025-07-09 08:42:27","01610cd0009c79a99da7d0a3353eb402","216.120.189.225","Mozilla/5.0 (Windows NT 10.0; Win64; x64) AppleWebKit/537.36 (KHTML, like Gecko) Chrome/138.0.0.0 Safari/537.36","WebKit","Chrome","138.0.0.0","Windows","10.0","https://app.prolific.com/","en-US,en;q=0.9","663b638be7226d4e3fcc255f","683db7602f5db6a34d12d064","686e2a8d26b068379516095a","1","663b638be7226d4e3fcc255f","1","2025-07-09T08:59:36.551Z","","","","","","","","","","","ControlQ","","50","","","","","","","","","","","","","","","","","","","","","","","","","","","","",""
"10637","","<div style=""width:500px;"">
  <p>How would you describe your current emotional state?</p>
  </div>","0","html-slider-response","52","1032904","0.0-5.0-3.8","16","1","2025-07-09 08:42:27","01610cd0009c79a99da7d0a3353eb402","216.120.189.225","Mozilla/5.0 (Windows NT 10.0; Win64; x64) AppleWebKit/537.36 (KHTML, like Gecko) Chrome/138.0.0.0 Safari/537.36","WebKit","Chrome","138.0.0.0","Windows","10.0","https://app.prolific.com/","en-US,en;q=0.9","663b638be7226d4e3fcc255f","683db7602f5db6a34d12d064","686e2a8d26b068379516095a","1","663b638be7226d4e3fcc255f","1","2025-07-09T08:59:47.194Z","","","","","","","","","","","StressQ","","50","","","","","","","","","","","","","","","","","","","","","","","","","","","","",""
"4773","","<div style=""width:500px;"">
  <p>What best describes how you currently feel?</p>
  </div>","100","html-slider-response","53","1037689","0.0-5.0-4.8","16","1","2025-07-09 08:42:27","01610cd0009c79a99da7d0a3353eb402","216.120.189.225","Mozilla/5.0 (Windows NT 10.0; Win64; x64) AppleWebKit/537.36 (KHTML, like Gecko) Chrome/138.0.0.0 Safari/537.36","WebKit","Chrome","138.0.0.0","Windows","10.0","https://app.prolific.com/","en-US,en;q=0.9","663b638be7226d4e3fcc255f","683db7602f5db6a34d12d064","686e2a8d26b068379516095a","1","663b638be7226d4e3fcc255f","1","2025-07-09T08:59:51.980Z","","","","","","","","","","","MotivationQ","","50","","","","","","","","","","","","","","","","","","","","","","","","","","","","",""
"","","","","ctl-task-cpt","54","1089805","0.0-5.0-0.9","16","1","2025-07-09 08:42:27","01610cd0009c79a99da7d0a3353eb402","216.120.189.225","Mozilla/5.0 (Windows NT 10.0; Win64; x64) AppleWebKit/537.36 (KHTML, like Gecko) Chrome/138.0.0.0 Safari/537.36","WebKit","Chrome","138.0.0.0","Windows","10.0","https://app.prolific.com/","en-US,en;q=0.9","663b638be7226d4e3fcc255f","683db7602f5db6a34d12d064","686e2a8d26b068379516095a","1","663b638be7226d4e3fcc255f","1","2025-07-09T09:00:44.094Z","","","","","","","","","","","","","","win-only","1","g1:NE,g2:SW","0.4","10","0","1045276.1","4183.4","9187","49082.9","1","4","4","6","2","-4","-5","9","14","0.06818181818181818","1717.7","3000","-1845","[""down"",""left""]","{""num_key_presses"":12,""num_perfect"":4,""num_errors"":1,""num_randdir"":7,""num_randdir_good_moves"":2,""num_whilered"":0,""num_whileblue"":1,""num_blue"":2,""num_good_moves"":6}","[298.22232142857143,288.12857142857143,0.8,298.22232142857143,288.12857142857143,103.2,298.22232142857143,288.12857142857143,207.4,298.22232142857143,288.12857142857143,307.8,298.22232142857143,288.12857142857143,408.7,298.22232142857143,288.12857142857143,515.1,298.22232142857143,288.12857142857143,615.2,298.22232142857143,288.12857142857143,720.5,99.22232142857143,382.12857142857143,822.7,52.222321428571426,443.12857142857143,923,52.222321428571426,443.12857142857143,1027.5,52.222321428571426,443.12857142857143,1130.8,50.222321428571426,449.12857142857143,1233.3,37.222321428571426,487.12857142857143,1341.9,37.222321428571426,501.12857142857143,1443.9,37.222321428571426,511.12857142857143,1549.1,37.222321428571426,511.12857142857143,1651.4,37.222321428571426,511.12857142857143,1758.6,37.222321428571426,511.12857142857143,1878.6,37.222321428571426,511.12857142857143,1981.4,37.222321428571426,511.12857142857143,2082.8,37.222321428571426,511.12857142857143,2186.7,37.222321428571426,511.12857142857143,2287.8,37.222321428571426,511.12857142857143,2399.4,37.222321428571426,511.12857142857143,2507.4,30.222321428571426,513.1285714285714,2609.3,-25.777678571428574,510.12857142857143,2712.7,-87.77767857142857,492.12857142857143,2813.4,-114.77767857142857,481.12857142857143,2914.9,-124.77767857142857,479.12857142857143,3027.9,-124.77767857142857,479.12857142857143,3139.3,-124.77767857142857,479.12857142857143,3240.6,-124.77767857142857,479.12857142857143,3343.2,-124.77767857142857,479.12857142857143,3443.5,-124.77767857142857,479.12857142857143,3555.5,-124.77767857142857,479.12857142857143,3658.9,-124.77767857142857,479.12857142857143,3758.9,-124.77767857142857,479.12857142857143,3861.1,-124.77767857142857,479.12857142857143,3968.7,-124.77767857142857,479.12857142857143,4074,-124.77767857142857,479.12857142857143,4181.2,-124.77767857142857,479.12857142857143,4288.3,-124.77767857142857,479.12857142857143,4398.4,-124.77767857142857,479.12857142857143,4503.1,-124.77767857142857,479.12857142857143,4606.7,-124.77767857142857,479.12857142857143,4707.5,-124.77767857142857,479.12857142857143,4815.9,-124.77767857142857,479.12857142857143,4918.5]","[1351,1351,1000,0,351,""smooth"",""down"",""down"",""good_move"",3838.8,2487.2,2115.9,1351.6,371.3,""smooth"",""down"",""down"",""good_move"",6525.3,2685.8,2242.2,3839.5,443.6,""oops"",""left"",""right"",""bad_move"",9205.1,2677,2302.7,6528.1,374.3,""oops"",""left"",""down"",""good_move"",12181.3,2975.9,2574.9,9205.4,401,""oops"",""left"",""right"",""bad_move"",19748.9,7564.7,2609.2,16756,383.7,""smooth"",""left"",""left"",""good_move"",22951.6,3201.6,2798.8,19750,402.8,""oops"",""left"",""left"",""good_move"",26053.3,3100.6,2783.1,22952.7,317.5,""smooth"",""left"",""left"",""good_move"",29168,3114,2713.6,26054,400.4,""oops"",""left"",""up"",""bad_move"",32331.4,3162.7,2769.8,29168.8,392.9,""oops"",""left"",""right"",""bad_move"",35411.4,3078.9,2714,32332.5,364.9,""oops"",""left"",""right"",""bad_move"",38135.4,2722,2358.2,35413.5,363.7,""while_blue"",""down"",""up"",""bad_move""]","",""
"4964","","<div style=""width:500px;"">
  <p>What determined the result of this run?</p>
  </div>","18","html-slider-response","55","1094771","0.0-5.0-1.9","16","1","2025-07-09 08:42:27","01610cd0009c79a99da7d0a3353eb402","216.120.189.225","Mozilla/5.0 (Windows NT 10.0; Win64; x64) AppleWebKit/537.36 (KHTML, like Gecko) Chrome/138.0.0.0 Safari/537.36","WebKit","Chrome","138.0.0.0","Windows","10.0","https://app.prolific.com/","en-US,en;q=0.9","663b638be7226d4e3fcc255f","683db7602f5db6a34d12d064","686e2a8d26b068379516095a","1","663b638be7226d4e3fcc255f","1","2025-07-09T09:00:49.060Z","","","","","","","","","","","AttribQ","","50","","","","","","","","","","","","","","","","","","","","","","","","","","","","",""
"7193","","<div style=""width:500px;"">
  <p>How much control did you have over the ball?</p>
  </div>","1","html-slider-response","56","1101966","0.0-5.0-2.9","16","1","2025-07-09 08:42:27","01610cd0009c79a99da7d0a3353eb402","216.120.189.225","Mozilla/5.0 (Windows NT 10.0; Win64; x64) AppleWebKit/537.36 (KHTML, like Gecko) Chrome/138.0.0.0 Safari/537.36","WebKit","Chrome","138.0.0.0","Windows","10.0","https://app.prolific.com/","en-US,en;q=0.9","663b638be7226d4e3fcc255f","683db7602f5db6a34d12d064","686e2a8d26b068379516095a","1","663b638be7226d4e3fcc255f","1","2025-07-09T09:00:56.255Z","","","","","","","","","","","ControlQ","","50","","","","","","","","","","","","","","","","","","","","","","","","","","","","",""
"8786","","<div style=""width:500px;"">
  <p>How would you describe your current emotional state?</p>
  </div>","4","html-slider-response","57","1110757","0.0-5.0-3.9","16","1","2025-07-09 08:42:27","01610cd0009c79a99da7d0a3353eb402","216.120.189.225","Mozilla/5.0 (Windows NT 10.0; Win64; x64) AppleWebKit/537.36 (KHTML, like Gecko) Chrome/138.0.0.0 Safari/537.36","WebKit","Chrome","138.0.0.0","Windows","10.0","https://app.prolific.com/","en-US,en;q=0.9","663b638be7226d4e3fcc255f","683db7602f5db6a34d12d064","686e2a8d26b068379516095a","1","663b638be7226d4e3fcc255f","1","2025-07-09T09:01:05.046Z","","","","","","","","","","","StressQ","","50","","","","","","","","","","","","","","","","","","","","","","","","","","","","",""
"23037","","<div style=""width:500px;"">
  <p>What best describes how you currently feel?</p>
  </div>","99","html-slider-response","58","1133807","0.0-5.0-4.9","16","1","2025-07-09 08:42:27","01610cd0009c79a99da7d0a3353eb402","216.120.189.225","Mozilla/5.0 (Windows NT 10.0; Win64; x64) AppleWebKit/537.36 (KHTML, like Gecko) Chrome/138.0.0.0 Safari/537.36","WebKit","Chrome","138.0.0.0","Windows","10.0","https://app.prolific.com/","en-US,en;q=0.9","663b638be7226d4e3fcc255f","683db7602f5db6a34d12d064","686e2a8d26b068379516095a","1","663b638be7226d4e3fcc255f","1","2025-07-09T09:01:28.097Z","","","","","","","","","","","MotivationQ","","50","","","","","","","","","","","","","","","","","","","","","","","","","","","","",""
"","","","","ctl-task-cpt","59","1162043","0.0-5.0-0.10","16","1","2025-07-09 08:42:27","01610cd0009c79a99da7d0a3353eb402","216.120.189.225","Mozilla/5.0 (Windows NT 10.0; Win64; x64) AppleWebKit/537.36 (KHTML, like Gecko) Chrome/138.0.0.0 Safari/537.36","WebKit","Chrome","138.0.0.0","Windows","10.0","https://app.prolific.com/","en-US,en;q=0.9","663b638be7226d4e3fcc255f","683db7602f5db6a34d12d064","686e2a8d26b068379516095a","1","663b638be7226d4e3fcc255f","1","2025-07-09T09:01:56.332Z","","","","","","","","","","","","","","win-only","0","g1:NW,g2:SE","0.5","11","0","1141396.1","3729.6","8733.2","25192.7","1","4","8","6","2","8","8","17","9","0.12878787878787878","1759.8","3000","1420","[""down"",""right""]","{""num_key_presses"":6,""num_perfect"":3,""num_errors"":0,""num_randdir"":3,""num_randdir_good_moves"":3,""num_whilered"":0,""num_whileblue"":0,""num_blue"":0,""num_good_moves"":6}","[290.22232142857143,300.12857142857143,0.3,290.22232142857143,300.12857142857143,101.8,290.22232142857143,300.12857142857143,204.7,290.22232142857143,300.12857142857143,305.9,290.22232142857143,300.12857142857143,412.7,290.22232142857143,300.12857142857143,524.3,270.22232142857143,287.12857142857143,631.9,252.22232142857143,273.12857142857143,736,354.22232142857143,393.12857142857143,839.5,473.22232142857143,571.1285714285714,947.8,479.22232142857143,578.1285714285714,1052.7,479.22232142857143,578.1285714285714,1166.5,482.22232142857143,579.1285714285714,1267.5,507.22232142857143,565.1285714285714,1374,516.2223214285714,557.1285714285714,1478.4,517.2223214285714,557.1285714285714,1582.3,517.2223214285714,557.1285714285714,1687.3,517.2223214285714,557.1285714285714,1794.2,517.2223214285714,557.1285714285714,1903.5,517.2223214285714,557.1285714285714,2007,517.2223214285714,557.1285714285714,2113.3,517.2223214285714,557.1285714285714,2214.1,517.2223214285714,557.1285714285714,2320.4,581.2223214285714,528.1285714285714,2422.2,649.2223214285714,488.12857142857143,2535.4,656.2223214285714,484.12857142857143,2639.3,656.2223214285714,484.12857142857143,2744.5,656.2223214285714,484.12857142857143,2848.3,656.2223214285714,484.12857142857143,2949.5,656.2223214285714,484.12857142857143,3052.7,656.2223214285714,484.12857142857143,3162.1,656.2223214285714,484.12857142857143,3265.7,656.2223214285714,484.12857142857143,3367.9,656.2223214285714,484.12857142857143,3468.9,656.2223214285714,484.12857142857143,3579.5,656.2223214285714,484.12857142857143,3680.3,656.2223214285714,484.12857142857143,3781.4,656.2223214285714,484.12857142857143,3890,656.2223214285714,484.12857142857143,4001.1,656.2223214285714,484.12857142857143,4101.6,656.2223214285714,484.12857142857143,4202.9,656.2223214285714,484.12857142857143,4304.5,656.2223214285714,484.12857142857143,4419.6,656.2223214285714,484.12857142857143,4527.1,656.2223214285714,484.12857142857143,4630,656.2223214285714,484.12857142857143,4731.8,656.2223214285714,484.12857142857143,4839.7,656.2223214285714,484.12857142857143,4939.9]","[1439.5,1439.6,1000,0,439.6,""oops"",""down"",""right"",""good_move"",4445.8,3005.4,2585.6,1440.4,419.8,""oops"",""down"",""right"",""good_move"",7661.5,3215.4,2786.3,4446.2,429,""oops"",""down"",""right"",""good_move"",10264.4,2600.2,2183.8,7664.2,416.4,""smooth"",""down"",""down"",""good_move"",13017.4,2752.4,2342.6,10265,409.8,""smooth"",""down"",""down"",""good_move"",16294.3,3276.6,2830.7,13017.8,445.9,""smooth"",""down"",""down"",""good_move""]","",""
"8970","","<div style=""width:500px;"">
  <p>What determined the result of this run?</p>
  </div>","92","html-slider-response","60","1171017","0.0-5.0-1.10","16","1","2025-07-09 08:42:27","01610cd0009c79a99da7d0a3353eb402","216.120.189.225","Mozilla/5.0 (Windows NT 10.0; Win64; x64) AppleWebKit/537.36 (KHTML, like Gecko) Chrome/138.0.0.0 Safari/537.36","WebKit","Chrome","138.0.0.0","Windows","10.0","https://app.prolific.com/","en-US,en;q=0.9","663b638be7226d4e3fcc255f","683db7602f5db6a34d12d064","686e2a8d26b068379516095a","1","663b638be7226d4e3fcc255f","1","2025-07-09T09:02:05.307Z","","","","","","","","","","","AttribQ","","50","","","","","","","","","","","","","","","","","","","","","","","","","","","","",""
"17016","","<div style=""width:500px;"">
  <p>How much control did you have over the ball?</p>
  </div>","88","html-slider-response","61","1188041","0.0-5.0-2.10","16","1","2025-07-09 08:42:27","01610cd0009c79a99da7d0a3353eb402","216.120.189.225","Mozilla/5.0 (Windows NT 10.0; Win64; x64) AppleWebKit/537.36 (KHTML, like Gecko) Chrome/138.0.0.0 Safari/537.36","WebKit","Chrome","138.0.0.0","Windows","10.0","https://app.prolific.com/","en-US,en;q=0.9","663b638be7226d4e3fcc255f","683db7602f5db6a34d12d064","686e2a8d26b068379516095a","1","663b638be7226d4e3fcc255f","1","2025-07-09T09:02:22.330Z","","","","","","","","","","","ControlQ","","50","","","","","","","","","","","","","","","","","","","","","","","","","","","","",""
"14053","","<div style=""width:500px;"">
  <p>How would you describe your current emotional state?</p>
  </div>","0","html-slider-response","62","1202095","0.0-5.0-3.10","16","1","2025-07-09 08:42:27","01610cd0009c79a99da7d0a3353eb402","216.120.189.225","Mozilla/5.0 (Windows NT 10.0; Win64; x64) AppleWebKit/537.36 (KHTML, like Gecko) Chrome/138.0.0.0 Safari/537.36","WebKit","Chrome","138.0.0.0","Windows","10.0","https://app.prolific.com/","en-US,en;q=0.9","663b638be7226d4e3fcc255f","683db7602f5db6a34d12d064","686e2a8d26b068379516095a","1","663b638be7226d4e3fcc255f","1","2025-07-09T09:02:36.384Z","","","","","","","","","","","StressQ","","50","","","","","","","","","","","","","","","","","","","","","","","","","","","","",""
"11657","","<div style=""width:500px;"">
  <p>What best describes how you currently feel?</p>
  </div>","100","html-slider-response","63","1213754","0.0-5.0-4.10","16","1","2025-07-09 08:42:27","01610cd0009c79a99da7d0a3353eb402","216.120.189.225","Mozilla/5.0 (Windows NT 10.0; Win64; x64) AppleWebKit/537.36 (KHTML, like Gecko) Chrome/138.0.0.0 Safari/537.36","WebKit","Chrome","138.0.0.0","Windows","10.0","https://app.prolific.com/","en-US,en;q=0.9","663b638be7226d4e3fcc255f","683db7602f5db6a34d12d064","686e2a8d26b068379516095a","1","663b638be7226d4e3fcc255f","1","2025-07-09T09:02:48.043Z","","","","","","","","","","","MotivationQ","","50","","","","","","","","","","","","","","","","","","","","","","","","","","","","",""
"","","","","ctl-task-cpt","64","1265804","0.0-5.0-0.11","16","1","2025-07-09 08:42:27","01610cd0009c79a99da7d0a3353eb402","216.120.189.225","Mozilla/5.0 (Windows NT 10.0; Win64; x64) AppleWebKit/537.36 (KHTML, like Gecko) Chrome/138.0.0.0 Safari/537.36","WebKit","Chrome","138.0.0.0","Windows","10.0","https://app.prolific.com/","en-US,en;q=0.9","663b638be7226d4e3fcc255f","683db7602f5db6a34d12d064","686e2a8d26b068379516095a","1","663b638be7226d4e3fcc255f","1","2025-07-09T09:03:40.093Z","","","","","","","","","","","","","","win-only","0","g1:NW,g2:SE","0.6","12","0","1221327.3","3686.5","8693.9","49023","1","4","4","6","2","4","4","21","17","0.1590909090909091","1551.7","3000","160","[""down"",""right""]","{""num_key_presses"":10,""num_perfect"":6,""num_errors"":0,""num_randdir"":4,""num_randdir_good_moves"":2,""num_whilered"":0,""num_whileblue"":0,""num_blue"":3,""num_good_moves"":8}","[293.22232142857143,289.12857142857143,0.4,293.22232142857143,289.12857142857143,101.4,293.22232142857143,289.12857142857143,205.4,293.22232142857143,289.12857142857143,308.4,293.22232142857143,289.12857142857143,410.5,293.22232142857143,289.12857142857143,511.9,293.22232142857143,289.12857142857143,614.2,304.22232142857143,303.12857142857143,722.4,418.22232142857143,383.12857142857143,823.6,450.22232142857143,445.12857142857143,924.5,463.22232142857143,481.12857142857143,1027.1,478.22232142857143,505.12857142857143,1130.5,511.22232142857143,511.12857142857143,1234.6,524.2223214285714,516.1285714285714,1339.4,526.2223214285714,518.1285714285714,1439.5,526.2223214285714,518.1285714285714,1543.4,526.2223214285714,518.1285714285714,1655.6,526.2223214285714,518.1285714285714,1761.1,526.2223214285714,518.1285714285714,1866,526.2223214285714,518.1285714285714,1972.8,526.2223214285714,518.1285714285714,2078,526.2223214285714,518.1285714285714,2179.4,526.2223214285714,518.1285714285714,2280.7,526.2223214285714,518.1285714285714,2380.9,526.2223214285714,518.1285714285714,2481.5,526.2223214285714,518.1285714285714,2586.2,526.2223214285714,518.1285714285714,2687.4,526.2223214285714,518.1285714285714,2788.1,526.2223214285714,518.1285714285714,2891.4,526.2223214285714,518.1285714285714,2991.6,526.2223214285714,518.1285714285714,3094.1,526.2223214285714,518.1285714285714,3198.6,529.2223214285714,533.1285714285714,3304.3,596.2223214285714,527.1285714285714,3406.6,625.2223214285714,526.1285714285714,3507.9,638.2223214285714,485.12857142857143,3612.4,641.2223214285714,466.12857142857143,3715.3,669.2223214285714,447.12857142857143,3817.9,669.2223214285714,447.12857142857143,3918.4,669.2223214285714,447.12857142857143,4019,669.2223214285714,447.12857142857143,4124.1,669.2223214285714,447.12857142857143,4234,669.2223214285714,447.12857142857143,4337.9,669.2223214285714,447.12857142857143,4442.4,669.2223214285714,447.12857142857143,4546.7,669.2223214285714,447.12857142857143,4654.6,669.2223214285714,447.12857142857143,4765.4,669.2223214285714,447.12857142857143,4875.1,669.2223214285714,447.12857142857143,4978.7]","[5110.6,5110.6,2693.5,2004.8,412.3,""smooth"",""down"",""down"",""good_move"",8477.8,3366.6,2990.8,5111.2,375.8,""oops"",""right"",""left"",""bad_move"",14397.7,5919.1,2331.5,11589.7,476.5,""oops"",""right"",""left"",""bad_move"",17812,3414.1,2926.5,14397.9,487.6,""smooth"",""right"",""right"",""good_move"",20566.2,2753.5,2280.7,17812.7,472.8,""smooth"",""right"",""right"",""good_move"",28018,7450.8,3062.8,24443.2,512,""smooth"",""right"",""right"",""good_move"",30905.4,2887,2383.7,28018.4,503.3,""smooth"",""right"",""right"",""good_move"",34785,3878.8,3060.5,30906.2,818.3,""oops"",""down"",""down"",""good_move"",37992.6,3206.7,2808.3,34785.9,398.4,""oops"",""down"",""down"",""good_move"",40225.5,2232.7,1861.7,37992.9,371,""smooth"",""right"",""right"",""good_move""]","",""
"7512","","<div style=""width:500px;"">
  <p>What determined the result of this run?</p>
  </div>","94","html-slider-response","65","1273317","0.0-5.0-1.11","16","1","2025-07-09 08:42:27","01610cd0009c79a99da7d0a3353eb402","216.120.189.225","Mozilla/5.0 (Windows NT 10.0; Win64; x64) AppleWebKit/537.36 (KHTML, like Gecko) Chrome/138.0.0.0 Safari/537.36","WebKit","Chrome","138.0.0.0","Windows","10.0","https://app.prolific.com/","en-US,en;q=0.9","663b638be7226d4e3fcc255f","683db7602f5db6a34d12d064","686e2a8d26b068379516095a","1","663b638be7226d4e3fcc255f","1","2025-07-09T09:03:47.606Z","","","","","","","","","","","AttribQ","","50","","","","","","","","","","","","","","","","","","","","","","","","","","","","",""
"5322","","<div style=""width:500px;"">
  <p>How much control did you have over the ball?</p>
  </div>","95","html-slider-response","66","1278640","0.0-5.0-2.11","16","1","2025-07-09 08:42:27","01610cd0009c79a99da7d0a3353eb402","216.120.189.225","Mozilla/5.0 (Windows NT 10.0; Win64; x64) AppleWebKit/537.36 (KHTML, like Gecko) Chrome/138.0.0.0 Safari/537.36","WebKit","Chrome","138.0.0.0","Windows","10.0","https://app.prolific.com/","en-US,en;q=0.9","663b638be7226d4e3fcc255f","683db7602f5db6a34d12d064","686e2a8d26b068379516095a","1","663b638be7226d4e3fcc255f","1","2025-07-09T09:03:52.929Z","","","","","","","","","","","ControlQ","","50","","","","","","","","","","","","","","","","","","","","","","","","","","","","",""
"10845","","<div style=""width:500px;"">
  <p>How would you describe your current emotional state?</p>
  </div>","0","html-slider-response","67","1289487","0.0-5.0-3.11","16","1","2025-07-09 08:42:27","01610cd0009c79a99da7d0a3353eb402","216.120.189.225","Mozilla/5.0 (Windows NT 10.0; Win64; x64) AppleWebKit/537.36 (KHTML, like Gecko) Chrome/138.0.0.0 Safari/537.36","WebKit","Chrome","138.0.0.0","Windows","10.0","https://app.prolific.com/","en-US,en;q=0.9","663b638be7226d4e3fcc255f","683db7602f5db6a34d12d064","686e2a8d26b068379516095a","1","663b638be7226d4e3fcc255f","1","2025-07-09T09:04:03.776Z","","","","","","","","","","","StressQ","","50","","","","","","","","","","","","","","","","","","","","","","","","","","","","",""
"5102","","<div style=""width:500px;"">
  <p>What best describes how you currently feel?</p>
  </div>","100","html-slider-response","68","1294590","0.0-5.0-4.11","16","1","2025-07-09 08:42:27","01610cd0009c79a99da7d0a3353eb402","216.120.189.225","Mozilla/5.0 (Windows NT 10.0; Win64; x64) AppleWebKit/537.36 (KHTML, like Gecko) Chrome/138.0.0.0 Safari/537.36","WebKit","Chrome","138.0.0.0","Windows","10.0","https://app.prolific.com/","en-US,en;q=0.9","663b638be7226d4e3fcc255f","683db7602f5db6a34d12d064","686e2a8d26b068379516095a","1","663b638be7226d4e3fcc255f","1","2025-07-09T09:04:08.879Z","","","","","","","","","","","MotivationQ","","50","","","","","","","","","","","","","","","","","","","","","","","","","","","","",""
"","","","","ctl-task-cpt","69","1342866","0.0-5.0-0.12","16","1","2025-07-09 08:42:27","01610cd0009c79a99da7d0a3353eb402","216.120.189.225","Mozilla/5.0 (Windows NT 10.0; Win64; x64) AppleWebKit/537.36 (KHTML, like Gecko) Chrome/138.0.0.0 Safari/537.36","WebKit","Chrome","138.0.0.0","Windows","10.0","https://app.prolific.com/","en-US,en;q=0.9","663b638be7226d4e3fcc255f","683db7602f5db6a34d12d064","686e2a8d26b068379516095a","1","663b638be7226d4e3fcc255f","1","2025-07-09T09:04:57.155Z","","","","","","","","","","","","","","win-only","2","g1:SE,g2:NW","0.7","13","0","1302163.2","1358.1","6362.6","45249.7","1","4","8","6","2","8","8","29","21","0.2196969696969697","1528","3000","1370","[""left"",""up""]","{""num_key_presses"":8,""num_perfect"":6,""num_errors"":0,""num_randdir"":2,""num_randdir_good_moves"":1,""num_whilered"":0,""num_whileblue"":0,""num_blue"":4,""num_good_moves"":7}","[298.22232142857143,298.12857142857143,0.4,298.22232142857143,298.12857142857143,104.1,298.22232142857143,298.12857142857143,209.4,298.22232142857143,298.12857142857143,318.7,298.22232142857143,298.12857142857143,426.3,298.22232142857143,298.12857142857143,532.4,253.22232142857143,237.12857142857143,639.3,105.22232142857143,22.128571428571426,740,97.22232142857143,-5.871428571428574,849,71.22232142857143,-44.871428571428574,950,53.222321428571426,-28.871428571428574,1051.7,41.222321428571426,-5.871428571428574,1160.8,40.222321428571426,20.128571428571426,1263.5,39.222321428571426,30.128571428571426,1366.6,39.222321428571426,30.128571428571426,1466.6,39.222321428571426,30.128571428571426,1572.4,39.222321428571426,30.128571428571426,1679.8,39.222321428571426,30.128571428571426,1783.3,39.222321428571426,30.128571428571426,1890.1,-2.7776785714285737,31.128571428571426,1997.4,-28.777678571428574,31.128571428571426,2103.1,-28.777678571428574,31.128571428571426,2205.3,-28.777678571428574,31.128571428571426,2309.7,-28.777678571428574,31.128571428571426,2409.9,-28.777678571428574,31.128571428571426,2512.4,-32.777678571428574,31.128571428571426,2614.9,-66.77767857142857,32.128571428571426,2720.8,-80.77767857142857,32.128571428571426,2825.8,-83.77767857142857,32.128571428571426,2933.7,-84.77767857142857,37.128571428571426,3044.5,-85.77767857142857,39.128571428571426,3145.3,-85.77767857142857,39.128571428571426,3247.4,-85.77767857142857,39.128571428571426,3352.4,-85.77767857142857,39.128571428571426,3463.8,-85.77767857142857,39.128571428571426,3567.4,-85.77767857142857,39.128571428571426,3673.7,-85.77767857142857,39.128571428571426,3774.9,-85.77767857142857,39.128571428571426,3877,-85.77767857142857,39.128571428571426,3982.9,-85.77767857142857,39.128571428571426,4092.4,-85.77767857142857,39.128571428571426,4192.7,-85.77767857142857,39.128571428571426,4298.7,-85.77767857142857,39.128571428571426,4408.5,-85.77767857142857,39.128571428571426,4518.7,-98.77767857142857,40.128571428571426,4634.4,-105.77767857142857,40.128571428571426,4748.3,-105.77767857142857,40.128571428571426,4848.4,-105.77767857142857,40.128571428571426,4957.3]","[12524.4,12524.4,2311.7,9716.7,496,""smooth"",""left"",""left"",""good_move"",15781.7,3256.7,2848.2,12525,408.5,""oops"",""up"",""right"",""bad_move"",18728.2,2945.5,2486.2,15782.7,459.3,""smooth"",""left"",""left"",""good_move"",24986.8,6258.4,2486.4,22077.5,422.9,""oops"",""left"",""left"",""good_move"",29285.8,4298.1,2442.6,24987.7,1855.5,""smooth"",""up"",""up"",""good_move"",32105.8,2819.2,2385.4,29286.6,433.8,""smooth"",""up"",""up"",""good_move"",35834.7,3728.4,3314,32106.3,414.4,""smooth"",""left"",""left"",""good_move"",38627.2,2791.8,2250.4,35835.4,541.4,""smooth"",""up"",""up"",""good_move""]","",""
"5784","","<div style=""width:500px;"">
  <p>What determined the result of this run?</p>
  </div>","95","html-slider-response","70","1348651","0.0-5.0-1.12","16","1","2025-07-09 08:42:27","01610cd0009c79a99da7d0a3353eb402","216.120.189.225","Mozilla/5.0 (Windows NT 10.0; Win64; x64) AppleWebKit/537.36 (KHTML, like Gecko) Chrome/138.0.0.0 Safari/537.36","WebKit","Chrome","138.0.0.0","Windows","10.0","https://app.prolific.com/","en-US,en;q=0.9","663b638be7226d4e3fcc255f","683db7602f5db6a34d12d064","686e2a8d26b068379516095a","1","663b638be7226d4e3fcc255f","1","2025-07-09T09:05:02.940Z","","","","","","","","","","","AttribQ","","50","","","","","","","","","","","","","","","","","","","","","","","","","","","","",""
"6487","","<div style=""width:500px;"">
  <p>How much control did you have over the ball?</p>
  </div>","93","html-slider-response","71","1355140","0.0-5.0-2.12","16","1","2025-07-09 08:42:27","01610cd0009c79a99da7d0a3353eb402","216.120.189.225","Mozilla/5.0 (Windows NT 10.0; Win64; x64) AppleWebKit/537.36 (KHTML, like Gecko) Chrome/138.0.0.0 Safari/537.36","WebKit","Chrome","138.0.0.0","Windows","10.0","https://app.prolific.com/","en-US,en;q=0.9","663b638be7226d4e3fcc255f","683db7602f5db6a34d12d064","686e2a8d26b068379516095a","1","663b638be7226d4e3fcc255f","1","2025-07-09T09:05:09.430Z","","","","","","","","","","","ControlQ","","50","","","","","","","","","","","","","","","","","","","","","","","","","","","","",""
"12005","","<div style=""width:500px;"">
  <p>How would you describe your current emotional state?</p>
  </div>","0","html-slider-response","72","1367146","0.0-5.0-3.12","16","1","2025-07-09 08:42:27","01610cd0009c79a99da7d0a3353eb402","216.120.189.225","Mozilla/5.0 (Windows NT 10.0; Win64; x64) AppleWebKit/537.36 (KHTML, like Gecko) Chrome/138.0.0.0 Safari/537.36","WebKit","Chrome","138.0.0.0","Windows","10.0","https://app.prolific.com/","en-US,en;q=0.9","663b638be7226d4e3fcc255f","683db7602f5db6a34d12d064","686e2a8d26b068379516095a","1","663b638be7226d4e3fcc255f","1","2025-07-09T09:05:21.435Z","","","","","","","","","","","StressQ","","50","","","","","","","","","","","","","","","","","","","","","","","","","","","","",""
"27470","","<div style=""width:500px;"">
  <p>What best describes how you currently feel?</p>
  </div>","100","html-slider-response","73","1394618","0.0-5.0-4.12","16","1","2025-07-09 08:42:27","01610cd0009c79a99da7d0a3353eb402","216.120.189.225","Mozilla/5.0 (Windows NT 10.0; Win64; x64) AppleWebKit/537.36 (KHTML, like Gecko) Chrome/138.0.0.0 Safari/537.36","WebKit","Chrome","138.0.0.0","Windows","10.0","https://app.prolific.com/","en-US,en;q=0.9","663b638be7226d4e3fcc255f","683db7602f5db6a34d12d064","686e2a8d26b068379516095a","1","663b638be7226d4e3fcc255f","1","2025-07-09T09:05:48.907Z","","","","","","","","","","","MotivationQ","","50","","","","","","","","","","","","","","","","","","","","","","","","","","","","",""
"","","","","ctl-task-cpt","74","1424572","0.0-5.0-0.13","16","1","2025-07-09 08:42:27","01610cd0009c79a99da7d0a3353eb402","216.120.189.225","Mozilla/5.0 (Windows NT 10.0; Win64; x64) AppleWebKit/537.36 (KHTML, like Gecko) Chrome/138.0.0.0 Safari/537.36","WebKit","Chrome","138.0.0.0","Windows","10.0","https://app.prolific.com/","en-US,en;q=0.9","663b638be7226d4e3fcc255f","683db7602f5db6a34d12d064","686e2a8d26b068379516095a","1","663b638be7226d4e3fcc255f","1","2025-07-09T09:06:18.861Z","","","","","","","","","","","","","","win-only","2","g1:SE,g2:NW","0.8","14","0","1402192.7","1509.2","6517.3","26930.8","1","4","4","6","2","4","4","33","29","0.25","2017","3000","1660","[""left"",""up""]","{""num_key_presses"":6,""num_perfect"":6,""num_errors"":0,""num_randdir"":0,""num_randdir_good_moves"":0,""num_whilered"":0,""num_whileblue"":0,""num_blue"":1,""num_good_moves"":6}","[297.22232142857143,299.12857142857143,0.2,297.22232142857143,299.12857142857143,104,297.22232142857143,299.12857142857143,207.5,297.22232142857143,299.12857142857143,314.4,297.22232142857143,299.12857142857143,421.6,297.22232142857143,299.12857142857143,522.4,297.22232142857143,299.12857142857143,625.5,297.22232142857143,298.12857142857143,732.2,336.22232142857143,388.12857142857143,835,357.22232142857143,403.12857142857143,942.9,357.22232142857143,403.12857142857143,1045.7,207.22232142857143,198.12857142857143,1155.1,150.22232142857143,127.12857142857143,1257.6,111.22232142857143,80.12857142857143,1364.2,111.22232142857143,80.12857142857143,1468.1,111.22232142857143,80.12857142857143,1574.4,70.22232142857143,48.128571428571426,1680.9,57.222321428571426,48.128571428571426,1786.3,53.222321428571426,48.128571428571426,1887.5,53.222321428571426,48.128571428571426,1994.2,53.222321428571426,48.128571428571426,2096.3,53.222321428571426,48.128571428571426,2198.4,53.222321428571426,48.128571428571426,2305.2,53.222321428571426,48.128571428571426,2407,53.222321428571426,48.128571428571426,2509.8,52.222321428571426,49.128571428571426,2610.9,47.222321428571426,59.128571428571426,2720.7,28.222321428571426,65.12857142857143,2828.9,19.222321428571426,64.12857142857143,2930.8,8.222321428571426,57.128571428571426,3036.4,8.222321428571426,57.128571428571426,3141.3,8.222321428571426,57.128571428571426,3247.6,8.222321428571426,57.128571428571426,3348.7,8.222321428571426,57.128571428571426,3450.9,8.222321428571426,57.128571428571426,3552.7,8.222321428571426,57.128571428571426,3659,8.222321428571426,57.128571428571426,3765.5,8.222321428571426,57.128571428571426,3867.4,8.222321428571426,57.128571428571426,3969.9,8.222321428571426,57.128571428571426,4072.1,8.222321428571426,57.128571428571426,4178,8.222321428571426,57.128571428571426,4282.1,8.222321428571426,57.128571428571426,4391.5,-32.777678571428574,76.12857142857143,4492.2,-32.777678571428574,76.12857142857143,4598.8,-32.777678571428574,76.12857142857143,4702.6,-32.777678571428574,76.12857142857143,4811.7,-58.777678571428574,79.12857142857143,4916.9]","[5387.4,5387.4,2945,2021,421.4,""smooth"",""left"",""left"",""good_move"",8139,2751,2379.5,5388,371.5,""smooth"",""up"",""up"",""good_move"",11043.2,2903.6,2534.1,8139.6,369.5,""smooth"",""left"",""left"",""good_move"",14233.6,3189.7,2829.8,11043.9,359.9,""smooth"",""up"",""up"",""good_move"",17450.3,3216.3,2457.7,14234,758.6,""smooth"",""up"",""up"",""good_move"",20301.6,2850.8,2477.3,17450.8,373.5,""smooth"",""left"",""left"",""good_move""]","",""
"7550","","<div style=""width:500px;"">
  <p>What determined the result of this run?</p>
  </div>","100","html-slider-response","75","1432123","0.0-5.0-1.13","16","1","2025-07-09 08:42:27","01610cd0009c79a99da7d0a3353eb402","216.120.189.225","Mozilla/5.0 (Windows NT 10.0; Win64; x64) AppleWebKit/537.36 (KHTML, like Gecko) Chrome/138.0.0.0 Safari/537.36","WebKit","Chrome","138.0.0.0","Windows","10.0","https://app.prolific.com/","en-US,en;q=0.9","663b638be7226d4e3fcc255f","683db7602f5db6a34d12d064","686e2a8d26b068379516095a","1","663b638be7226d4e3fcc255f","1","2025-07-09T09:06:26.412Z","","","","","","","","","","","AttribQ","","50","","","","","","","","","","","","","","","","","","","","","","","","","","","","",""
"7392","","<div style=""width:500px;"">
  <p>How much control did you have over the ball?</p>
