"rt","response_timestamp","stimulus","response","trial_type","trial_index","time_elapsed","internal_node_id","run_id","condition","recorded_at","source_code_version","ip","user_agent","device","browser","browser_version","platform","platform_version","referer","accept_language","PROLIFIC_PID","STUDY_ID","SESSION_ID","WEEK","BATCH","prolific_id","week","batch","realtime","success","responses","item_order","radio_event_ids","radio_event_times","key_event_times","mouse_event_times","straightlining","zigzagging","honeypot","eventType","view_history","slider_start","which_type","canvas_config","goals_layout","control_level","trial_number","tutorial_trial_number","trial_start_time","phase1_start_time","phase2_start_time","phase3_start_time","goal_1_value","goal_1_distance","goal_2_value","goal_2_distance","goal_selected","outcome","outcome_total","participant_final_score","participant_initial_score","participant_final_score_prop","goal_choice_rt","allocated_time","allocated_time_remaining","goal_direction","counts","mouse_movements","key_presses","question_order","question_id"
"2755","1753350093380","<p style='font-size:40px;line-height:1.25'><strong>Welcome to the experiment!</strong></p><p style='font-size:1.1em;line-height:1.25'>Thank you for participanting in our experiment again! You will be asked to play the Dysfunctional Ball Game again. We will briefly recap the rules before we start.</p><p style='font-size:1.1em;line-height:1.25'>Press <strong>Next</strong> to continue.</p>","0","custom-html-button-response","0","2759","0.0-0.0","237","1","2025-07-24 09:41:28","1f75c3e559b7213887762d5229550c2b","5.185.246.114","Mozilla/5.0 (Windows NT 10.0; Win64; x64; rv:140.0) Gecko/20100101 Firefox/140.0","","Firefox","140.0","Windows","10.0","https://app.prolific.com/","pl,en-US;q=0.7,en;q=0.3","5f0214e58782120a8c970fd6","683db9eb0562dbf637994deb","6881ffb72ca7c55472a1606d","2","1","5f0214e58782120a8c970fd6","2","1","2025-07-24T09:41:33.381Z","","","","","","","","","","","","","","","","","","","","","","","","","","","","","","","","","","","","","","","","","",""
"8616","","","","fullscreen","1","12440","0.0-1.0","237","1","2025-07-24 09:41:28","1f75c3e559b7213887762d5229550c2b","5.185.246.114","Mozilla/5.0 (Windows NT 10.0; Win64; x64; rv:140.0) Gecko/20100101 Firefox/140.0","","Firefox","140.0","Windows","10.0","https://app.prolific.com/","pl,en-US;q=0.7,en;q=0.3","5f0214e58782120a8c970fd6","683db9eb0562dbf637994deb","6881ffb72ca7c55472a1606d","2","1","5f0214e58782120a8c970fd6","2","1","","true","","","","","","","","","","","","","","","","","","","","","","","","","","","","","","","","","","","","","","","","",""
"5897","1753350108969","<p style='font-size:1.1em;line-height:1.25'>In the following, we will ask you a few questions relating to your feelings in the last 24 hours.<br></p><p style='font-size:1.1em;line-height:1.25'>Press the <strong>Next</strong> button to continue.</p>","0","custom-html-button-response","2","18348","0.0-2.0-0.0","237","1","2025-07-24 09:41:28","1f75c3e559b7213887762d5229550c2b","5.185.246.114","Mozilla/5.0 (Windows NT 10.0; Win64; x64; rv:140.0) Gecko/20100101 Firefox/140.0","","Firefox","140.0","Windows","10.0","https://app.prolific.com/","pl,en-US;q=0.7,en;q=0.3","5f0214e58782120a8c970fd6","683db9eb0562dbf637994deb","6881ffb72ca7c55472a1606d","2","1","5f0214e58782120a8c970fd6","2","1","2025-07-24T09:41:48.970Z","","","","","","","","","","","","","","","","","","","","","","","","","","","","","","","","","","","","","","","","","",""
"55048","","","","survey-template","3","73416","0.0-2.0-1.0","237","1","2025-07-24 09:41:28","1f75c3e559b7213887762d5229550c2b","5.185.246.114","Mozilla/5.0 (Windows NT 10.0; Win64; x64; rv:140.0) Gecko/20100101 Firefox/140.0","","Firefox","140.0","Windows","10.0","https://app.prolific.com/","pl,en-US;q=0.7,en;q=0.3","5f0214e58782120a8c970fd6","683db9eb0562dbf637994deb","6881ffb72ca7c55472a1606d","2","1","5f0214e58782120a8c970fd6","2","1","2025-07-24T09:42:44.038Z","","{""Q01"":""0"",""Q02"":""0"",""Q03"":""0"",""Q04"":""0"",""Q05"":""0"",""Q06"":""0"",""Q07"":""0"",""Q08"":""0"",""Q09"":""1"",""Q10"":""2"",""Q11"":""1"",""Q12"":""0"",""Q13"":""5"",""Q14"":""0"",""Q15"":""0"",""Q16"":""1"",""Q17"":""0"",""Q18"":""0"",""Q19"":""0"",""Q20"":""0"",""Q21"":""0"",""Q22"":""0""}","[0,1,2,3,4,5,6,7,8,9,10,11,12,13,14,15,16,17,18,19,20,21]","[""Q01"",""Q02"",""Q03"",""Q04"",""Q05"",""Q06"",""Q07"",""Q08"",""Q09"",""Q10"",""Q11"",""Q12"",""Q13"",""Q14"",""Q15"",""Q16"",""Q17"",""Q18"",""Q19"",""Q20"",""Q21"",""Q22""]","[3501,4736,7466,11905,12628,15358,16499,17892,19883,23424,26003,28240,31258,32677,34801,38224,39340,41481,45091,48593,52731,54107]","[]","[0,3501,4736,7466,11905,12628,15358,16499,17892,19883,23424,26003,28240,31258,32677,34801,38224,39340,41481,45091,48593,52731,54107,55042]","0.7727272727272727","0.38095238095238093","0","drsp","","","","","","","","","","","","","","","","","","","","","","","","","","","","","","",""
"18265","","","","survey-template","4","91696","0.0-2.0-2.0","237","1","2025-07-24 09:41:28","1f75c3e559b7213887762d5229550c2b","5.185.246.114","Mozilla/5.0 (Windows NT 10.0; Win64; x64; rv:140.0) Gecko/20100101 Firefox/140.0","","Firefox","140.0","Windows","10.0","https://app.prolific.com/","pl,en-US;q=0.7,en;q=0.3","5f0214e58782120a8c970fd6","683db9eb0562dbf637994deb","6881ffb72ca7c55472a1606d","2","1","5f0214e58782120a8c970fd6","2","1","2025-07-24T09:43:02.318Z","","{""Q01"":""1"",""Q02"":""1"",""Q03"":""1""}","[0,1,2]","[""Q01"",""Q02"",""Q03""]","[3447,9407,15440]","[]","[3447,9407,15440,18263]","0.6666666666666666","0","0","stress","","","","","","","","","","","","","","","","","","","","","","","","","","","","","","",""
"114568","","","","instructions","5","206273","0.0-3.0-0.0","237","1","2025-07-24 09:41:28","1f75c3e559b7213887762d5229550c2b","5.185.246.114","Mozilla/5.0 (Windows NT 10.0; Win64; x64; rv:140.0) Gecko/20100101 Firefox/140.0","","Firefox","140.0","Windows","10.0","https://app.prolific.com/","pl,en-US;q=0.7,en;q=0.3","5f0214e58782120a8c970fd6","683db9eb0562dbf637994deb","6881ffb72ca7c55472a1606d","2","1","5f0214e58782120a8c970fd6","2","1","","","","","","","","","","","","","[{""page_index"":0,""viewing_time"":114567}]","","","","","","","","","","","","","","","","","","","","","","","","","","","","","",""
"4237","","<p>Before you start with this game please answer the following three questions yourself. </p>
  <p>Through this game, we measure several aspects of your cognitive performance, such as reaction times, multi-tasking capabilities </p>
  <p>and the ability to assess the situation you are in.</p>
  <p></p>
  <p><b>How good do you usually are in such tasks?</b></p>","58","html-slider-response","6","210522","0.0-4.0-0.0","237","1","2025-07-24 09:41:28","1f75c3e559b7213887762d5229550c2b","5.185.246.114","Mozilla/5.0 (Windows NT 10.0; Win64; x64; rv:140.0) Gecko/20100101 Firefox/140.0","","Firefox","140.0","Windows","10.0","https://app.prolific.com/","pl,en-US;q=0.7,en;q=0.3","5f0214e58782120a8c970fd6","683db9eb0562dbf637994deb","6881ffb72ca7c55472a1606d","2","1","5f0214e58782120a8c970fd6","2","1","2025-07-24T09:45:01.144Z","","","","","","","","","","","PreSkillQ","","50","","","","","","","","","","","","","","","","","","","","","","","","","","","","",""
"6770","","<div style=""width:500px;"">
  <p>How well do you think you will perform in this task compared to other participants?</p>
  </div>","45","html-slider-response","7","217297","0.0-4.0-1.0","237","1","2025-07-24 09:41:28","1f75c3e559b7213887762d5229550c2b","5.185.246.114","Mozilla/5.0 (Windows NT 10.0; Win64; x64; rv:140.0) Gecko/20100101 Firefox/140.0","","Firefox","140.0","Windows","10.0","https://app.prolific.com/","pl,en-US;q=0.7,en;q=0.3","5f0214e58782120a8c970fd6","683db9eb0562dbf637994deb","6881ffb72ca7c55472a1606d","2","1","5f0214e58782120a8c970fd6","2","1","2025-07-24T09:45:07.919Z","","","","","","","","","","","PrePerfQ","","50","","","","","","","","","","","","","","","","","","","","","","","","","","","","",""
"3519","","<div style=""width:500px;"">
  <p>What best describes how you currently feel?</p>
  </div>","82","html-slider-response","8","220820","0.0-4.0-2.0","237","1","2025-07-24 09:41:28","1f75c3e559b7213887762d5229550c2b","5.185.246.114","Mozilla/5.0 (Windows NT 10.0; Win64; x64; rv:140.0) Gecko/20100101 Firefox/140.0","","Firefox","140.0","Windows","10.0","https://app.prolific.com/","pl,en-US;q=0.7,en;q=0.3","5f0214e58782120a8c970fd6","683db9eb0562dbf637994deb","6881ffb72ca7c55472a1606d","2","1","5f0214e58782120a8c970fd6","2","1","2025-07-24T09:45:11.442Z","","","","","","","","","","","PreMotivationQ","","50","","","","","","","","","","","","","","","","","","","","","","","","","","","","",""
"","","","","ctl-task-cpt","9","255056","0.0-5.0-0.0","237","1","2025-07-24 09:41:28","1f75c3e559b7213887762d5229550c2b","5.185.246.114","Mozilla/5.0 (Windows NT 10.0; Win64; x64; rv:140.0) Gecko/20100101 Firefox/140.0","","Firefox","140.0","Windows","10.0","https://app.prolific.com/","pl,en-US;q=0.7,en;q=0.3","5f0214e58782120a8c970fd6","683db9eb0562dbf637994deb","6881ffb72ca7c55472a1606d","2","1","5f0214e58782120a8c970fd6","2","1","2025-07-24T09:45:45.678Z","","","","","","","","","","","","","","win-only","1","g1:NE,g2:SW","1","1","0","223242","1135","6142","31208","1","4","4","6","2","4","4","4","0","0.030303030303030304","1079","3000","1970","[""down"",""left""]","{""num_key_presses"":6,""num_perfect"":6,""num_errors"":0,""num_randdir"":0,""num_randdir_good_moves"":0,""num_whilered"":0,""num_whileblue"":0,""num_blue"":2,""num_good_moves"":6}","[296.22857753208706,302.92857448032925,0,296.22857753208706,301.92857448032925,104,296.22857753208706,301.92857448032925,205,296.22857753208706,301.92857448032925,305,296.22857753208706,301.92857448032925,406,296.22857753208706,301.92857448032925,522,221.22857753208706,380.92857448032925,637,121.22857753208706,497.92857448032925,738,109.22857753208706,523.9285744803292,852,83.22857753208706,531.9285744803292,954,68.22857753208706,534.9285744803292,1080,68.22857753208706,534.9285744803292,1187,68.22857753208706,534.9285744803292,1288,68.22857753208706,534.9285744803292,1388,68.22857753208706,534.9285744803292,1501,86.22857753208706,534.9285744803292,1613,224.22857753208706,549.9285744803292,1713,518.228577532087,554.9285744803292,1835,646.228577532087,498.92857448032925,1935,771.228577532087,462.92857448032925,2036,771.228577532087,462.92857448032925,2136,771.228577532087,462.92857448032925,2236,771.228577532087,462.92857448032925,2349,771.228577532087,462.92857448032925,2449,771.228577532087,462.92857448032925,2549,771.228577532087,462.92857448032925,2650,771.228577532087,462.92857448032925,2750,771.228577532087,462.92857448032925,2851,771.228577532087,462.92857448032925,2952,771.228577532087,462.92857448032925,3052,771.228577532087,462.92857448032925,3153,771.228577532087,462.92857448032925,3263,771.228577532087,462.92857448032925,3365,771.228577532087,462.92857448032925,3465,771.228577532087,462.92857448032925,3566,771.228577532087,462.92857448032925,3667,771.228577532087,462.92857448032925,3768,771.228577532087,462.92857448032925,3868,771.228577532087,462.92857448032925,3968,771.228577532087,462.92857448032925,4068,771.228577532087,462.92857448032925,4178,771.228577532087,462.92857448032925,4279,771.228577532087,462.92857448032925,4392,771.228577532087,462.92857448032925,4496,771.228577532087,462.92857448032925,4606,771.228577532087,462.92857448032925,4707,771.228577532087,462.92857448032925,4807,771.228577532087,462.92857448032925,4922]","[1432,1432,1000,0,432,""smooth"",""down"",""down"",""good_move"",4572,3140,2604.8,1432,535.2,""smooth"",""left"",""left"",""good_move"",7829,3257,2115.7,4572,1141.3,""smooth"",""left"",""left"",""good_move"",14250,6421,2127.3,11687,435.7,""smooth"",""down"",""down"",""good_move"",17776,3525,3079.3,14251,445.7,""smooth"",""down"",""down"",""good_move"",24773,6997,2695.6,21082,995.4,""smooth"",""left"",""left"",""good_move""]","",""
"3072","","<div style=""width:500px;"">
  <p>What determined the result of this run?</p>
  </div>","88","html-slider-response","10","258130","0.0-5.0-1.0","237","1","2025-07-24 09:41:28","1f75c3e559b7213887762d5229550c2b","5.185.246.114","Mozilla/5.0 (Windows NT 10.0; Win64; x64; rv:140.0) Gecko/20100101 Firefox/140.0","","Firefox","140.0","Windows","10.0","https://app.prolific.com/","pl,en-US;q=0.7,en;q=0.3","5f0214e58782120a8c970fd6","683db9eb0562dbf637994deb","6881ffb72ca7c55472a1606d","2","1","5f0214e58782120a8c970fd6","2","1","2025-07-24T09:45:48.753Z","","","","","","","","","","","AttribQ","","50","","","","","","","","","","","","","","","","","","","","","","","","","","","","",""
"3128","","<div style=""width:500px;"">
  <p>How much control did you have over the ball?</p>
  </div>","100","html-slider-response","11","261262","0.0-5.0-2.0","237","1","2025-07-24 09:41:28","1f75c3e559b7213887762d5229550c2b","5.185.246.114","Mozilla/5.0 (Windows NT 10.0; Win64; x64; rv:140.0) Gecko/20100101 Firefox/140.0","","Firefox","140.0","Windows","10.0","https://app.prolific.com/","pl,en-US;q=0.7,en;q=0.3","5f0214e58782120a8c970fd6","683db9eb0562dbf637994deb","6881ffb72ca7c55472a1606d","2","1","5f0214e58782120a8c970fd6","2","1","2025-07-24T09:45:51.884Z","","","","","","","","","","","ControlQ","","50","","","","","","","","","","","","","","","","","","","","","","","","","","","","",""
"3284","","<div style=""width:500px;"">
  <p>How would you describe your current emotional state?</p>
  </div>","4","html-slider-response","12","264551","0.0-5.0-3.0","237","1","2025-07-24 09:41:28","1f75c3e559b7213887762d5229550c2b","5.185.246.114","Mozilla/5.0 (Windows NT 10.0; Win64; x64; rv:140.0) Gecko/20100101 Firefox/140.0","","Firefox","140.0","Windows","10.0","https://app.prolific.com/","pl,en-US;q=0.7,en;q=0.3","5f0214e58782120a8c970fd6","683db9eb0562dbf637994deb","6881ffb72ca7c55472a1606d","2","1","5f0214e58782120a8c970fd6","2","1","2025-07-24T09:45:55.173Z","","","","","","","","","","","StressQ","","50","","","","","","","","","","","","","","","","","","","","","","","","","","","","",""
"2357","","<div style=""width:500px;"">
  <p>What best describes how you currently feel?</p>
  </div>","89","html-slider-response","13","266910","0.0-5.0-4.0","237","1","2025-07-24 09:41:28","1f75c3e559b7213887762d5229550c2b","5.185.246.114","Mozilla/5.0 (Windows NT 10.0; Win64; x64; rv:140.0) Gecko/20100101 Firefox/140.0","","Firefox","140.0","Windows","10.0","https://app.prolific.com/","pl,en-US;q=0.7,en;q=0.3","5f0214e58782120a8c970fd6","683db9eb0562dbf637994deb","6881ffb72ca7c55472a1606d","2","1","5f0214e58782120a8c970fd6","2","1","2025-07-24T09:45:57.532Z","","","","","","","","","","","MotivationQ","","50","","","","","","","","","","","","","","","","","","","","","","","","","","","","",""
"","","","","ctl-task-cpt","14","292554","0.0-5.0-0.1","237","1","2025-07-24 09:41:28","1f75c3e559b7213887762d5229550c2b","5.185.246.114","Mozilla/5.0 (Windows NT 10.0; Win64; x64; rv:140.0) Gecko/20100101 Firefox/140.0","","Firefox","140.0","Windows","10.0","https://app.prolific.com/","pl,en-US;q=0.7,en;q=0.3","5f0214e58782120a8c970fd6","683db9eb0562dbf637994deb","6881ffb72ca7c55472a1606d","2","1","5f0214e58782120a8c970fd6","2","1","2025-07-24T09:46:23.176Z","","","","","","","","","","","","","","win-only","0","g1:NW,g2:SE","0.9","2","0","269325","948","5957","22622","1","4","8","6","2","8","8","12","4","0.09090909090909091","1007","3000","2220","[""down"",""right""]","{""num_key_presses"":6,""num_perfect"":6,""num_errors"":0,""num_randdir"":0,""num_randdir_good_moves"":0,""num_whilered"":0,""num_whileblue"":0,""num_blue"":0,""num_good_moves"":6}","[296.22857753208706,295.92857448032925,0,296.22857753208706,295.92857448032925,114,296.22857753208706,295.92857448032925,214,296.22857753208706,295.92857448032925,317,299.22857753208706,296.92857448032925,432,358.22857753208706,351.92857448032925,544,484.22857753208706,467.92857448032925,659,488.22857753208706,477.92857448032925,760,508.22857753208706,518.9285744803292,860,516.228577532087,534.9285744803292,960,516.228577532087,534.9285744803292,1060,516.228577532087,534.9285744803292,1170,658.228577532087,471.92857448032925,1290,944.228577532087,347.92857448032925,1390,944.228577532087,346.92857448032925,1500,944.228577532087,346.92857448032925,1607,944.228577532087,346.92857448032925,1707,944.228577532087,346.92857448032925,1807,944.228577532087,346.92857448032925,1907,944.228577532087,346.92857448032925,2007,944.228577532087,346.92857448032925,2107,944.228577532087,346.92857448032925,2226,944.228577532087,346.92857448032925,2331,944.228577532087,346.92857448032925,2435,944.228577532087,346.92857448032925,2536,944.228577532087,346.92857448032925,2636,944.228577532087,346.92857448032925,2736,944.228577532087,346.92857448032925,2836,944.228577532087,346.92857448032925,2936,944.228577532087,346.92857448032925,3036,944.228577532087,346.92857448032925,3136,944.228577532087,346.92857448032925,3248,944.228577532087,346.92857448032925,3358,944.228577532087,346.92857448032925,3474,944.228577532087,346.92857448032925,3575,944.228577532087,346.92857448032925,3675,944.228577532087,346.92857448032925,3776,944.228577532087,346.92857448032925,3891,944.228577532087,346.92857448032925,3991,944.228577532087,346.92857448032925,4091,944.228577532087,346.92857448032925,4197,944.228577532087,346.92857448032925,4316,944.228577532087,346.92857448032925,4423,944.228577532087,346.92857448032925,4523,944.228577532087,346.92857448032925,4624,944.228577532087,346.92857448032925,4724,944.228577532087,346.92857448032925,4824,944.228577532087,346.92857448032925,4924]","[1465,1465,1000,0,465,""smooth"",""down"",""down"",""good_move"",5123,3658,3202.2,1465,455.8,""smooth"",""right"",""right"",""good_move"",7783,2660,2205.5,5123,454.5,""smooth"",""down"",""down"",""good_move"",10487,2704,2270.9,7783,433.1,""smooth"",""right"",""right"",""good_move"",13081,2593,2124.9,10488,468.1,""smooth"",""down"",""down"",""good_move"",16375,3294,2898.7,13081,395.3,""smooth"",""right"",""right"",""good_move""]","",""
"4057","","<div style=""width:500px;"">
  <p>What determined the result of this run?</p>
  </div>","100","html-slider-response","15","296612","0.0-5.0-1.1","237","1","2025-07-24 09:41:28","1f75c3e559b7213887762d5229550c2b","5.185.246.114","Mozilla/5.0 (Windows NT 10.0; Win64; x64; rv:140.0) Gecko/20100101 Firefox/140.0","","Firefox","140.0","Windows","10.0","https://app.prolific.com/","pl,en-US;q=0.7,en;q=0.3","5f0214e58782120a8c970fd6","683db9eb0562dbf637994deb","6881ffb72ca7c55472a1606d","2","1","5f0214e58782120a8c970fd6","2","1","2025-07-24T09:46:27.234Z","","","","","","","","","","","AttribQ","","50","","","","","","","","","","","","","","","","","","","","","","","","","","","","",""
"2853","","<div style=""width:500px;"">
  <p>How much control did you have over the ball?</p>
  </div>","100","html-slider-response","16","299468","0.0-5.0-2.1","237","1","2025-07-24 09:41:28","1f75c3e559b7213887762d5229550c2b","5.185.246.114","Mozilla/5.0 (Windows NT 10.0; Win64; x64; rv:140.0) Gecko/20100101 Firefox/140.0","","Firefox","140.0","Windows","10.0","https://app.prolific.com/","pl,en-US;q=0.7,en;q=0.3","5f0214e58782120a8c970fd6","683db9eb0562dbf637994deb","6881ffb72ca7c55472a1606d","2","1","5f0214e58782120a8c970fd6","2","1","2025-07-24T09:46:30.090Z","","","","","","","","","","","ControlQ","","50","","","","","","","","","","","","","","","","","","","","","","","","","","","","",""
"3048","","<div style=""width:500px;"">
  <p>How would you describe your current emotional state?</p>
  </div>","9","html-slider-response","17","302520","0.0-5.0-3.1","237","1","2025-07-24 09:41:28","1f75c3e559b7213887762d5229550c2b","5.185.246.114","Mozilla/5.0 (Windows NT 10.0; Win64; x64; rv:140.0) Gecko/20100101 Firefox/140.0","","Firefox","140.0","Windows","10.0","https://app.prolific.com/","pl,en-US;q=0.7,en;q=0.3","5f0214e58782120a8c970fd6","683db9eb0562dbf637994deb","6881ffb72ca7c55472a1606d","2","1","5f0214e58782120a8c970fd6","2","1","2025-07-24T09:46:33.142Z","","","","","","","","","","","StressQ","","50","","","","","","","","","","","","","","","","","","","","","","","","","","","","",""
"1909","","<div style=""width:500px;"">
  <p>What best describes how you currently feel?</p>
  </div>","97","html-slider-response","18","304432","0.0-5.0-4.1","237","1","2025-07-24 09:41:28","1f75c3e559b7213887762d5229550c2b","5.185.246.114","Mozilla/5.0 (Windows NT 10.0; Win64; x64; rv:140.0) Gecko/20100101 Firefox/140.0","","Firefox","140.0","Windows","10.0","https://app.prolific.com/","pl,en-US;q=0.7,en;q=0.3","5f0214e58782120a8c970fd6","683db9eb0562dbf637994deb","6881ffb72ca7c55472a1606d","2","1","5f0214e58782120a8c970fd6","2","1","2025-07-24T09:46:35.054Z","","","","","","","","","","","MotivationQ","","50","","","","","","","","","","","","","","","","","","","","","","","","","","","","",""
"","","","","ctl-task-cpt","19","341537","0.0-5.0-0.2","237","1","2025-07-24 09:41:28","1f75c3e559b7213887762d5229550c2b","5.185.246.114","Mozilla/5.0 (Windows NT 10.0; Win64; x64; rv:140.0) Gecko/20100101 Firefox/140.0","","Firefox","140.0","Windows","10.0","https://app.prolific.com/","pl,en-US;q=0.7,en;q=0.3","5f0214e58782120a8c970fd6","683db9eb0562dbf637994deb","6881ffb72ca7c55472a1606d","2","1","5f0214e58782120a8c970fd6","2","1","2025-07-24T09:47:12.159Z","","","","","","","","","","","","","","win-only","3","g1:SW,g2:NE","0.8","3","0","306845","948","5951","34096","1","4","8","6","2","8","7","19","12","0.14393939393939395","1101","3000","2100","[""up"",""right""]","{""num_key_presses"":8,""num_perfect"":5,""num_errors"":1,""num_randdir"":2,""num_randdir_good_moves"":1,""num_whilered"":0,""num_whileblue"":1,""num_blue"":2,""num_good_moves"":7}","[298.22857753208706,296.92857448032925,0,298.22857753208706,296.92857448032925,114,298.22857753208706,296.92857448032925,214,298.22857753208706,296.92857448032925,314,298.22857753208706,296.92857448032925,415,298.22857753208706,296.92857448032925,515,298.22857753208706,296.92857448032925,615,361.22857753208706,255.92857448032925,716,549.228577532087,101.92857448032925,817,558.228577532087,81.92857448032925,938,560.228577532087,68.92857448032925,1038,560.228577532087,65.92857448032925,1145,561.228577532087,65.92857448032925,1247,561.228577532087,65.92857448032925,1347,596.228577532087,73.92857448032925,1460,642.228577532087,77.92857448032925,1568,642.228577532087,77.92857448032925,1668,642.228577532087,77.92857448032925,1768,642.228577532087,77.92857448032925,1868,642.228577532087,77.92857448032925,1969,642.228577532087,77.92857448032925,2069,642.228577532087,77.92857448032925,2177,642.228577532087,77.92857448032925,2277,642.228577532087,77.92857448032925,2391,642.228577532087,77.92857448032925,2504,642.228577532087,77.92857448032925,2604,642.228577532087,77.92857448032925,2704,642.228577532087,77.92857448032925,2804,642.228577532087,77.92857448032925,2904,642.228577532087,77.92857448032925,3004,642.228577532087,77.92857448032925,3104,642.228577532087,77.92857448032925,3218,642.228577532087,77.92857448032925,3330,642.228577532087,77.92857448032925,3432,642.228577532087,77.92857448032925,3533,642.228577532087,77.92857448032925,3633,642.228577532087,77.92857448032925,3733,642.228577532087,77.92857448032925,3833,642.228577532087,77.92857448032925,3933,642.228577532087,77.92857448032925,4034,642.228577532087,77.92857448032925,4134,642.228577532087,77.92857448032925,4240,642.228577532087,77.92857448032925,4341,642.228577532087,77.92857448032925,4457,642.228577532087,77.92857448032925,4559,642.228577532087,77.92857448032925,4659,642.228577532087,77.92857448032925,4759,642.228577532087,77.92857448032925,4860,642.228577532087,77.92857448032925,4972]","[4723,4723,2349.4,2005,368.6,""oops"",""up"",""down"",""bad_move"",7562,2839,2296.2,4723,542.8,""oops"",""up"",""up"",""good_move"",10791,3228,2398.2,7563,829.8,""smooth"",""up"",""up"",""good_move"",14384,3593,3178.7,10791,414.3,""smooth"",""up"",""up"",""good_move"",17624,3240,2590.8,14384,649.2,""smooth"",""right"",""right"",""good_move"",20943,3319,2960,17624,359,""while_blue"",""right"",""up"",""good_move"",24644,3701,3142.5,20943,558.5,""smooth"",""right"",""right"",""good_move"",27838,3194,2776.8,24644,417.2,""smooth"",""right"",""right"",""good_move""]","",""
"2397","","<div style=""width:500px;"">
  <p>What determined the result of this run?</p>
  </div>","76","html-slider-response","20","343934","0.0-5.0-1.2","237","1","2025-07-24 09:41:28","1f75c3e559b7213887762d5229550c2b","5.185.246.114","Mozilla/5.0 (Windows NT 10.0; Win64; x64; rv:140.0) Gecko/20100101 Firefox/140.0","","Firefox","140.0","Windows","10.0","https://app.prolific.com/","pl,en-US;q=0.7,en;q=0.3","5f0214e58782120a8c970fd6","683db9eb0562dbf637994deb","6881ffb72ca7c55472a1606d","2","1","5f0214e58782120a8c970fd6","2","1","2025-07-24T09:47:14.556Z","","","","","","","","","","","AttribQ","","50","","","","","","","","","","","","","","","","","","","","","","","","","","","","",""
"1477","","<div style=""width:500px;"">
  <p>How much control did you have over the ball?</p>
  </div>","71","html-slider-response","21","345414","0.0-5.0-2.2","237","1","2025-07-24 09:41:28","1f75c3e559b7213887762d5229550c2b","5.185.246.114","Mozilla/5.0 (Windows NT 10.0; Win64; x64; rv:140.0) Gecko/20100101 Firefox/140.0","","Firefox","140.0","Windows","10.0","https://app.prolific.com/","pl,en-US;q=0.7,en;q=0.3","5f0214e58782120a8c970fd6","683db9eb0562dbf637994deb","6881ffb72ca7c55472a1606d","2","1","5f0214e58782120a8c970fd6","2","1","2025-07-24T09:47:16.036Z","","","","","","","","","","","ControlQ","","50","","","","","","","","","","","","","","","","","","","","","","","","","","","","",""
"2633","","<div style=""width:500px;"">
  <p>How would you describe your current emotional state?</p>
  </div>","28","html-slider-response","22","348050","0.0-5.0-3.2","237","1","2025-07-24 09:41:28","1f75c3e559b7213887762d5229550c2b","5.185.246.114","Mozilla/5.0 (Windows NT 10.0; Win64; x64; rv:140.0) Gecko/20100101 Firefox/140.0","","Firefox","140.0","Windows","10.0","https://app.prolific.com/","pl,en-US;q=0.7,en;q=0.3","5f0214e58782120a8c970fd6","683db9eb0562dbf637994deb","6881ffb72ca7c55472a1606d","2","1","5f0214e58782120a8c970fd6","2","1","2025-07-24T09:47:18.672Z","","","","","","","","","","","StressQ","","50","","","","","","","","","","","","","","","","","","","","","","","","","","","","",""
"2003","","<div style=""width:500px;"">
  <p>What best describes how you currently feel?</p>
  </div>","83","html-slider-response","23","350057","0.0-5.0-4.2","237","1","2025-07-24 09:41:28","1f75c3e559b7213887762d5229550c2b","5.185.246.114","Mozilla/5.0 (Windows NT 10.0; Win64; x64; rv:140.0) Gecko/20100101 Firefox/140.0","","Firefox","140.0","Windows","10.0","https://app.prolific.com/","pl,en-US;q=0.7,en;q=0.3","5f0214e58782120a8c970fd6","683db9eb0562dbf637994deb","6881ffb72ca7c55472a1606d","2","1","5f0214e58782120a8c970fd6","2","1","2025-07-24T09:47:20.679Z","","","","","","","","","","","MotivationQ","","50","","","","","","","","","","","","","","","","","","","","","","","","","","","","",""
"","","","","ctl-task-cpt","24","378252","0.0-5.0-0.3","237","1","2025-07-24 09:41:28","1f75c3e559b7213887762d5229550c2b","5.185.246.114","Mozilla/5.0 (Windows NT 10.0; Win64; x64; rv:140.0) Gecko/20100101 Firefox/140.0","","Firefox","140.0","Windows","10.0","https://app.prolific.com/","pl,en-US;q=0.7,en;q=0.3","5f0214e58782120a8c970fd6","683db9eb0562dbf637994deb","6881ffb72ca7c55472a1606d","2","1","5f0214e58782120a8c970fd6","2","1","2025-07-24T09:47:48.874Z","","","","","","","","","","","","","","win-only","3","g1:SW,g2:NE","0.7","4","0","352469","767","5773","25190","1","4","4","6","1","1","1","20","19","0.15151515151515152","1449","3000","2400","[""down"",""left""]","{""num_key_presses"":4,""num_perfect"":3,""num_errors"":0,""num_randdir"":1,""num_randdir_good_moves"":1,""num_whilered"":0,""num_whileblue"":0,""num_blue"":2,""num_good_moves"":4}","[293.22857753208706,297.92857448032925,0,293.22857753208706,297.92857448032925,114,293.22857753208706,297.92857448032925,214,293.22857753208706,297.92857448032925,314,293.22857753208706,297.92857448032925,431,293.22857753208706,297.92857448032925,547,292.22857753208706,299.92857448032925,647,105.22857753208706,461.92857448032925,748,81.22857753208706,493.92857448032925,865,74.22857753208706,519.9285744803292,967,72.22857753208706,523.9285744803292,1085,72.22857753208706,523.9285744803292,1188,72.22857753208706,523.9285744803292,1288,72.22857753208706,523.9285744803292,1413,72.22857753208706,523.9285744803292,1514,72.22857753208706,523.9285744803292,1617,73.22857753208706,522.9285744803292,1717,71.22857753208706,521.9285744803292,1817,-220.77142246791294,399.92857448032925,1930,-221.77142246791294,398.92857448032925,2031,-221.77142246791294,398.92857448032925,2132,-221.77142246791294,398.92857448032925,2249,-221.77142246791294,398.92857448032925,2356,-221.77142246791294,398.92857448032925,2456,-221.77142246791294,398.92857448032925,2556,-221.77142246791294,398.92857448032925,2657,-221.77142246791294,398.92857448032925,2757,-221.77142246791294,398.92857448032925,2857,-263.77142246791294,376.92857448032925,2958,-277.77142246791294,361.92857448032925,3072,-277.77142246791294,361.92857448032925,3181,-277.77142246791294,360.92857448032925,3281,-277.77142246791294,360.92857448032925,3389,-277.77142246791294,360.92857448032925,3490,-277.77142246791294,360.92857448032925,3590,-171.77142246791294,363.92857448032925,3705,-168.77142246791294,363.92857448032925,3806,-168.77142246791294,363.92857448032925,3906,-168.77142246791294,363.92857448032925,4006,-168.77142246791294,363.92857448032925,4106,-168.77142246791294,363.92857448032925,4216,-168.77142246791294,363.92857448032925,4316,-168.77142246791294,363.92857448032925,4420,-168.77142246791294,363.92857448032925,4536,-168.77142246791294,363.92857448032925,4636,-168.77142246791294,363.92857448032925,4736,-168.77142246791294,363.92857448032925,4836,-168.77142246791294,363.92857448032925,4936]","[5618,5618,3094.6,2040,483.4,""oops"",""down"",""left"",""good_move"",8989,3371,1898,5618,1473,""smooth"",""down"",""down"",""good_move"",16027,7038,3044.3,12470,512.7,""smooth"",""down"",""down"",""good_move"",19114,3087,2564.6,16027,522.4,""smooth"",""left"",""left"",""good_move""]","",""
"2314","","<div style=""width:500px;"">
  <p>What determined the result of this run?</p>
  </div>","84","html-slider-response","25","380566","0.0-5.0-1.3","237","1","2025-07-24 09:41:28","1f75c3e559b7213887762d5229550c2b","5.185.246.114","Mozilla/5.0 (Windows NT 10.0; Win64; x64; rv:140.0) Gecko/20100101 Firefox/140.0","","Firefox","140.0","Windows","10.0","https://app.prolific.com/","pl,en-US;q=0.7,en;q=0.3","5f0214e58782120a8c970fd6","683db9eb0562dbf637994deb","6881ffb72ca7c55472a1606d","2","1","5f0214e58782120a8c970fd6","2","1","2025-07-24T09:47:51.188Z","","","","","","","","","","","AttribQ","","50","","","","","","","","","","","","","","","","","","","","","","","","","","","","",""
"1231","","<div style=""width:500px;"">
  <p>How much control did you have over the ball?</p>
  </div>","86","html-slider-response","26","381800","0.0-5.0-2.3","237","1","2025-07-24 09:41:28","1f75c3e559b7213887762d5229550c2b","5.185.246.114","Mozilla/5.0 (Windows NT 10.0; Win64; x64; rv:140.0) Gecko/20100101 Firefox/140.0","","Firefox","140.0","Windows","10.0","https://app.prolific.com/","pl,en-US;q=0.7,en;q=0.3","5f0214e58782120a8c970fd6","683db9eb0562dbf637994deb","6881ffb72ca7c55472a1606d","2","1","5f0214e58782120a8c970fd6","2","1","2025-07-24T09:47:52.423Z","","","","","","","","","","","ControlQ","","50","","","","","","","","","","","","","","","","","","","","","","","","","","","","",""
"3049","","<div style=""width:500px;"">
  <p>How would you describe your current emotional state?</p>
  </div>","3","html-slider-response","27","384855","0.0-5.0-3.3","237","1","2025-07-24 09:41:28","1f75c3e559b7213887762d5229550c2b","5.185.246.114","Mozilla/5.0 (Windows NT 10.0; Win64; x64; rv:140.0) Gecko/20100101 Firefox/140.0","","Firefox","140.0","Windows","10.0","https://app.prolific.com/","pl,en-US;q=0.7,en;q=0.3","5f0214e58782120a8c970fd6","683db9eb0562dbf637994deb","6881ffb72ca7c55472a1606d","2","1","5f0214e58782120a8c970fd6","2","1","2025-07-24T09:47:55.477Z","","","","","","","","","","","StressQ","","50","","","","","","","","","","","","","","","","","","","","","","","","","","","","",""
"4928","","<div style=""width:500px;"">
  <p>What best describes how you currently feel?</p>
  </div>","96","html-slider-response","28","389787","0.0-5.0-4.3","237","1","2025-07-24 09:41:28","1f75c3e559b7213887762d5229550c2b","5.185.246.114","Mozilla/5.0 (Windows NT 10.0; Win64; x64; rv:140.0) Gecko/20100101 Firefox/140.0","","Firefox","140.0","Windows","10.0","https://app.prolific.com/","pl,en-US;q=0.7,en;q=0.3","5f0214e58782120a8c970fd6","683db9eb0562dbf637994deb","6881ffb72ca7c55472a1606d","2","1","5f0214e58782120a8c970fd6","2","1","2025-07-24T09:48:00.409Z","","","","","","","","","","","MotivationQ","","50","","","","","","","","","","","","","","","","","","","","","","","","","","","","",""
"","","","","ctl-task-cpt","29","415439","0.0-5.0-0.4","237","1","2025-07-24 09:41:28","1f75c3e559b7213887762d5229550c2b","5.185.246.114","Mozilla/5.0 (Windows NT 10.0; Win64; x64; rv:140.0) Gecko/20100101 Firefox/140.0","","Firefox","140.0","Windows","10.0","https://app.prolific.com/","pl,en-US;q=0.7,en;q=0.3","5f0214e58782120a8c970fd6","683db9eb0562dbf637994deb","6881ffb72ca7c55472a1606d","2","1","5f0214e58782120a8c970fd6","2","1","2025-07-24T09:48:26.061Z","","","","","","","","","","","","","","win-only","2","g1:SE,g2:NW","0.6","5","0","392200","767","5777","22637","1","4","4","6","1","1","1","21","20","0.1590909090909091","1227","3000","1990","[""down"",""right""]","{""num_key_presses"":6,""num_perfect"":3,""num_errors"":0,""num_randdir"":3,""num_randdir_good_moves"":2,""num_whilered"":0,""num_whileblue"":0,""num_blue"":0,""num_good_moves"":5}","[304.22857753208706,295.92857448032925,0,304.22857753208706,294.92857448032925,106,304.22857753208706,294.92857448032925,206,304.22857753208706,294.92857448032925,307,304.22857753208706,294.92857448032925,422,304.22857753208706,294.92857448032925,522,304.22857753208706,294.92857448032925,622,304.22857753208706,294.92857448032925,723,350.22857753208706,333.92857448032925,823,482.22857753208706,468.92857448032925,923,533.228577532087,534.9285744803292,1024,538.228577532087,541.9285744803292,1133,541.228577532087,542.9285744803292,1234,541.228577532087,542.9285744803292,1353,541.228577532087,542.9285744803292,1470,690.228577532087,432.92857448032925,1570,764.228577532087,389.92857448032925,1676,760.228577532087,391.92857448032925,1776,760.228577532087,391.92857448032925,1876,760.228577532087,391.92857448032925,1977,760.228577532087,391.92857448032925,2077,760.228577532087,391.92857448032925,2182,760.228577532087,391.92857448032925,2282,760.228577532087,391.92857448032925,2388,760.228577532087,391.92857448032925,2489,760.228577532087,391.92857448032925,2604,760.228577532087,391.92857448032925,2719,760.228577532087,391.92857448032925,2827,760.228577532087,391.92857448032925,2936,760.228577532087,391.92857448032925,3048,760.228577532087,391.92857448032925,3157,760.228577532087,391.92857448032925,3267,760.228577532087,391.92857448032925,3376,760.228577532087,391.92857448032925,3486,760.228577532087,391.92857448032925,3597,760.228577532087,391.92857448032925,3703,760.228577532087,391.92857448032925,3815,760.228577532087,391.92857448032925,3921,760.228577532087,391.92857448032925,4032,760.228577532087,391.92857448032925,4138,760.228577532087,391.92857448032925,4249,760.228577532087,391.92857448032925,4357,760.228577532087,391.92857448032925,4465,760.228577532087,391.92857448032925,4574,760.228577532087,391.92857448032925,4683,760.228577532087,391.92857448032925,4792,760.228577532087,391.92857448032925,4902]","[1593,1593,1000,0,593,""oops"",""right"",""up"",""bad_move"",5165,3572,2987.1,1593,584.9,""oops"",""down"",""down"",""good_move"",8023,2858,2174.6,5165,683.4,""oops"",""down"",""down"",""good_move"",11180,3157,2743.6,8023,413.4,""smooth"",""down"",""down"",""good_move"",13402,2222,1650.9,11180,571.1,""smooth"",""right"",""right"",""good_move"",16583,3180,2765,13403,415,""smooth"",""right"",""right"",""good_move""]","",""
"3325","","<div style=""width:500px;"">
  <p>What determined the result of this run?</p>
  </div>","82","html-slider-response","30","418766","0.0-5.0-1.4","237","1","2025-07-24 09:41:28","1f75c3e559b7213887762d5229550c2b","5.185.246.114","Mozilla/5.0 (Windows NT 10.0; Win64; x64; rv:140.0) Gecko/20100101 Firefox/140.0","","Firefox","140.0","Windows","10.0","https://app.prolific.com/","pl,en-US;q=0.7,en;q=0.3","5f0214e58782120a8c970fd6","683db9eb0562dbf637994deb","6881ffb72ca7c55472a1606d","2","1","5f0214e58782120a8c970fd6","2","1","2025-07-24T09:48:29.388Z","","","","","","","","","","","AttribQ","","50","","","","","","","","","","","","","","","","","","","","","","","","","","","","",""
"1380","","<div style=""width:500px;"">
  <p>How much control did you have over the ball?</p>
  </div>","63","html-slider-response","31","420150","0.0-5.0-2.4","237","1","2025-07-24 09:41:28","1f75c3e559b7213887762d5229550c2b","5.185.246.114","Mozilla/5.0 (Windows NT 10.0; Win64; x64; rv:140.0) Gecko/20100101 Firefox/140.0","","Firefox","140.0","Windows","10.0","https://app.prolific.com/","pl,en-US;q=0.7,en;q=0.3","5f0214e58782120a8c970fd6","683db9eb0562dbf637994deb","6881ffb72ca7c55472a1606d","2","1","5f0214e58782120a8c970fd6","2","1","2025-07-24T09:48:30.772Z","","","","","","","","","","","ControlQ","","50","","","","","","","","","","","","","","","","","","","","","","","","","","","","",""
"1648","","<div style=""width:500px;"">
  <p>How would you describe your current emotional state?</p>
  </div>","11","html-slider-response","32","421803","0.0-5.0-3.4","237","1","2025-07-24 09:41:28","1f75c3e559b7213887762d5229550c2b","5.185.246.114","Mozilla/5.0 (Windows NT 10.0; Win64; x64; rv:140.0) Gecko/20100101 Firefox/140.0","","Firefox","140.0","Windows","10.0","https://app.prolific.com/","pl,en-US;q=0.7,en;q=0.3","5f0214e58782120a8c970fd6","683db9eb0562dbf637994deb","6881ffb72ca7c55472a1606d","2","1","5f0214e58782120a8c970fd6","2","1","2025-07-24T09:48:32.425Z","","","","","","","","","","","StressQ","","50","","","","","","","","","","","","","","","","","","","","","","","","","","","","",""
"1980","","<div style=""width:500px;"">
  <p>What best describes how you currently feel?</p>
  </div>","96","html-slider-response","33","423787","0.0-5.0-4.4","237","1","2025-07-24 09:41:28","1f75c3e559b7213887762d5229550c2b","5.185.246.114","Mozilla/5.0 (Windows NT 10.0; Win64; x64; rv:140.0) Gecko/20100101 Firefox/140.0","","Firefox","140.0","Windows","10.0","https://app.prolific.com/","pl,en-US;q=0.7,en;q=0.3","5f0214e58782120a8c970fd6","683db9eb0562dbf637994deb","6881ffb72ca7c55472a1606d","2","1","5f0214e58782120a8c970fd6","2","1","2025-07-24T09:48:34.409Z","","","","","","","","","","","MotivationQ","","50","","","","","","","","","","","","","","","","","","","","","","","","","","","","",""
"","","","","ctl-task-cpt","34","486344","0.0-5.0-0.5","237","1","2025-07-24 09:41:28","1f75c3e559b7213887762d5229550c2b","5.185.246.114","Mozilla/5.0 (Windows NT 10.0; Win64; x64; rv:140.0) Gecko/20100101 Firefox/140.0","","Firefox","140.0","Windows","10.0","https://app.prolific.com/","pl,en-US;q=0.7,en;q=0.3","5f0214e58782120a8c970fd6","683db9eb0562dbf637994deb","6881ffb72ca7c55472a1606d","2","1","5f0214e58782120a8c970fd6","2","1","2025-07-24T09:49:36.966Z","","","","","","","","","","","","","","win-only","3","g1:SW,g2:NE","0.5","6","0","426199","909","5914","59538","1","4","8","6","2","8","8","29","21","0.2196969696969697","943","3000","1050","[""up"",""right""]","{""num_key_presses"":14,""num_perfect"":8,""num_errors"":0,""num_randdir"":6,""num_randdir_good_moves"":2,""num_whilered"":0,""num_whileblue"":0,""num_blue"":3,""num_good_moves"":10}","[302.22857753208706,303.92857448032925,0,302.22857753208706,303.92857448032925,112,302.22857753208706,303.92857448032925,222,302.22857753208706,303.92857448032925,330,302.22857753208706,303.92857448032925,440,302.22857753208706,303.92857448032925,548,506.22857753208706,118.92857448032925,658,510.22857753208706,94.92857448032925,767,531.228577532087,73.92857448032925,873,531.228577532087,71.92857448032925,983,531.228577532087,71.92857448032925,1096,534.228577532087,71.92857448032925,1209,704.228577532087,81.92857448032925,1311,709.228577532087,81.92857448032925,1423,709.228577532087,81.92857448032925,1532,709.228577532087,81.92857448032925,1642,709.228577532087,81.92857448032925,1752,709.228577532087,81.92857448032925,1861,709.228577532087,81.92857448032925,1972,709.228577532087,81.92857448032925,2079,709.228577532087,81.92857448032925,2189,709.228577532087,81.92857448032925,2295,709.228577532087,81.92857448032925,2405,709.228577532087,81.92857448032925,2515,709.228577532087,81.92857448032925,2625,709.228577532087,81.92857448032925,2734,709.228577532087,81.92857448032925,2843,709.228577532087,81.92857448032925,2952,709.228577532087,81.92857448032925,3061,709.228577532087,81.92857448032925,3172,709.228577532087,81.92857448032925,3280,709.228577532087,81.92857448032925,3393,709.228577532087,81.92857448032925,3505,709.228577532087,81.92857448032925,3610,709.228577532087,81.92857448032925,3722,709.228577532087,81.92857448032925,3828,709.228577532087,81.92857448032925,3939,709.228577532087,81.92857448032925,4046,709.228577532087,81.92857448032925,4156,709.228577532087,81.92857448032925,4263,709.228577532087,81.92857448032925,4373,709.228577532087,81.92857448032925,4481,709.228577532087,81.92857448032925,4591,709.228577532087,81.92857448032925,4700,709.228577532087,81.92857448032925,4811,709.228577532087,81.92857448032925,4923]","[1458,1458,1000,0,458,""smooth"",""right"",""right"",""good_move"",4465,3006,2453.2,1459,552.8,""smooth"",""up"",""up"",""good_move"",11083,6617,2564.5,8100,418.5,""smooth"",""up"",""up"",""good_move"",14288,3205,2760.8,11083,444.2,""smooth"",""right"",""right"",""good_move"",17416,3127,2728,14289,399,""oops"",""up"",""down"",""bad_move"",20288,2872,2315,17416,557,""smooth"",""right"",""right"",""good_move"",23377,3089,2575,20288,514,""oops"",""up"",""down"",""bad_move"",26393,3016,2546,23377,470,""oops"",""up"",""up"",""good_move"",29665,3271,2892.3,26394,378.7,""oops"",""up"",""left"",""bad_move"",37421,7756,3385.2,33436,599.8,""oops"",""up"",""up"",""good_move"",40503,3082,1603.6,37421,1478.4,""oops"",""right"",""left"",""bad_move"",47407,6904,2777.4,44201,428.6,""smooth"",""up"",""up"",""good_move"",50435,3028,2369.6,47407,658.4,""smooth"",""right"",""right"",""good_move"",53334,2899,2434.5,50435,464.5,""smooth"",""right"",""right"",""good_move""]","",""
"2287","","<div style=""width:500px;"">
  <p>What determined the result of this run?</p>
  </div>","82","html-slider-response","35","488632","0.0-5.0-1.5","237","1","2025-07-24 09:41:28","1f75c3e559b7213887762d5229550c2b","5.185.246.114","Mozilla/5.0 (Windows NT 10.0; Win64; x64; rv:140.0) Gecko/20100101 Firefox/140.0","","Firefox","140.0","Windows","10.0","https://app.prolific.com/","pl,en-US;q=0.7,en;q=0.3","5f0214e58782120a8c970fd6","683db9eb0562dbf637994deb","6881ffb72ca7c55472a1606d","2","1","5f0214e58782120a8c970fd6","2","1","2025-07-24T09:49:39.254Z","","","","","","","","","","","AttribQ","","50","","","","","","","","","","","","","","","","","","","","","","","","","","","","",""
"1462","","<div style=""width:500px;"">
  <p>How much control did you have over the ball?</p>
  </div>","37","html-slider-response","36","490096","0.0-5.0-2.5","237","1","2025-07-24 09:41:28","1f75c3e559b7213887762d5229550c2b","5.185.246.114","Mozilla/5.0 (Windows NT 10.0; Win64; x64; rv:140.0) Gecko/20100101 Firefox/140.0","","Firefox","140.0","Windows","10.0","https://app.prolific.com/","pl,en-US;q=0.7,en;q=0.3","5f0214e58782120a8c970fd6","683db9eb0562dbf637994deb","6881ffb72ca7c55472a1606d","2","1","5f0214e58782120a8c970fd6","2","1","2025-07-24T09:49:40.718Z","","","","","","","","","","","ControlQ","","50","","","","","","","","","","","","","","","","","","","","","","","","","","","","",""
"2859","","<div style=""width:500px;"">
  <p>How would you describe your current emotional state?</p>
  </div>","31","html-slider-response","37","492960","0.0-5.0-3.5","237","1","2025-07-24 09:41:28","1f75c3e559b7213887762d5229550c2b","5.185.246.114","Mozilla/5.0 (Windows NT 10.0; Win64; x64; rv:140.0) Gecko/20100101 Firefox/140.0","","Firefox","140.0","Windows","10.0","https://app.prolific.com/","pl,en-US;q=0.7,en;q=0.3","5f0214e58782120a8c970fd6","683db9eb0562dbf637994deb","6881ffb72ca7c55472a1606d","2","1","5f0214e58782120a8c970fd6","2","1","2025-07-24T09:49:43.582Z","","","","","","","","","","","StressQ","","50","","","","","","","","","","","","","","","","","","","","","","","","","","","","",""
"3334","","<div style=""width:500px;"">
  <p>What best describes how you currently feel?</p>
  </div>","91","html-slider-response","38","496296","0.0-5.0-4.5","237","1","2025-07-24 09:41:28","1f75c3e559b7213887762d5229550c2b","5.185.246.114","Mozilla/5.0 (Windows NT 10.0; Win64; x64; rv:140.0) Gecko/20100101 Firefox/140.0","","Firefox","140.0","Windows","10.0","https://app.prolific.com/","pl,en-US;q=0.7,en;q=0.3","5f0214e58782120a8c970fd6","683db9eb0562dbf637994deb","6881ffb72ca7c55472a1606d","2","1","5f0214e58782120a8c970fd6","2","1","2025-07-24T09:49:46.918Z","","","","","","","","","","","MotivationQ","","50","","","","","","","","","","","","","","","","","","","","","","","","","","","","",""
"","","","","ctl-task-cpt","39","575717","0.0-5.0-0.6","237","1","2025-07-24 09:41:28","1f75c3e559b7213887762d5229550c2b","5.185.246.114","Mozilla/5.0 (Windows NT 10.0; Win64; x64; rv:140.0) Gecko/20100101 Firefox/140.0","","Firefox","140.0","Windows","10.0","https://app.prolific.com/","pl,en-US;q=0.7,en;q=0.3","5f0214e58782120a8c970fd6","683db9eb0562dbf637994deb","6881ffb72ca7c55472a1606d","2","1","5f0214e58782120a8c970fd6","2","1","2025-07-24T09:51:06.339Z","","","","","","","","","","","","","","win-only","1","g1:NE,g2:SW","0.4","7","0","498711","1418","6433","76402","1","4","8","6","2","8","8","37","29","0.2803030303030303","2067","3000","580","[""down"",""left""]","{""num_key_presses"":18,""num_perfect"":8,""num_errors"":0,""num_randdir"":10,""num_randdir_good_moves"":4,""num_whilered"":0,""num_whileblue"":0,""num_blue"":4,""num_good_moves"":12}","[294.22857753208706,295.92857448032925,0,294.22857753208706,295.92857448032925,107,294.22857753208706,295.92857448032925,217,294.22857753208706,295.92857448032925,326,300.22857753208706,293.92857448032925,436,301.22857753208706,292.92857448032925,550,316.22857753208706,290.92857448032925,655,418.22857753208706,178.92857448032925,765,491.22857753208706,119.92857448032925,873,554.228577532087,81.92857448032925,985,562.228577532087,72.92857448032925,1086,570.228577532087,55.92857448032924,1187,570.228577532087,53.92857448032924,1298,568.228577532087,54.92857448032924,1405,306.22857753208706,238.92857448032925,1514,172.22857753208706,400.92857448032925,1623,155.22857753208706,422.92857448032925,1732,104.22857753208706,458.92857448032925,1839,71.22857753208706,514.9285744803292,1951,63.22857753208705,520.9285744803292,2061,63.22857753208705,520.9285744803292,2170,63.22857753208705,520.9285744803292,2281,66.22857753208706,520.9285744803292,2390,611.228577532087,502.92857448032925,2501,738.228577532087,477.92857448032925,2608,738.228577532087,477.92857448032925,2717,738.228577532087,477.92857448032925,2826,738.228577532087,477.92857448032925,2938,738.228577532087,477.92857448032925,3048,738.228577532087,477.92857448032925,3155,738.228577532087,477.92857448032925,3264,738.228577532087,477.92857448032925,3373,738.228577532087,477.92857448032925,3483,738.228577532087,477.92857448032925,3592,738.228577532087,477.92857448032925,3700,738.228577532087,477.92857448032925,3808,738.228577532087,477.92857448032925,3919,738.228577532087,477.92857448032925,4031,738.228577532087,477.92857448032925,4139,738.228577532087,477.92857448032925,4249,738.228577532087,477.92857448032925,4357,738.228577532087,477.92857448032925,4465,738.228577532087,477.92857448032925,4574,738.228577532087,477.92857448032925,4684,738.228577532087,477.92857448032925,4797,738.228577532087,477.92857448032925,4904]","[4203,4203,1667.5,2026,509.5,""smooth"",""down"",""down"",""good_move"",7302,3099,2657.7,4203,441.3,""smooth"",""down"",""down"",""good_move"",14630,7328,2828.9,11361,440.1,""smooth"",""left"",""left"",""good_move"",17918,3287,1916.3,14631,1370.7,""oops"",""left"",""right"",""bad_move"",20732,2814,2312.1,17918,501.9,""oops"",""down"",""down"",""good_move"",23424,2692,2250.1,20732,441.9,""smooth"",""left"",""left"",""good_move"",26992,3568,3142.3,23424,425.7,""oops"",""left"",""right"",""bad_move"",29779,2787,1940.1,26992,846.9,""oops"",""left"",""left"",""good_move"",32632,2852,2108.3,29780,743.7,""oops"",""left"",""up"",""bad_move"",35436,2804,2181.5,32632,622.5,""oops"",""left"",""up"",""bad_move"",38529,3093,2696.6,35436,396.4,""smooth"",""left"",""left"",""good_move"",41450,2920,2552.5,38530,367.5,""smooth"",""down"",""down"",""good_move"",48150,6700,2731.5,44951,467.5,""oops"",""down"",""down"",""good_move"",56547,8397,3035.4,53141,370.6,""oops"",""left"",""right"",""bad_move"",59342,2795,2398.3,56547,396.7,""oops"",""left"",""right"",""bad_move"",62906,3564,3173.4,59342,390.6,""oops"",""left"",""left"",""good_move"",66117,3210,2678.6,62907,531.4,""smooth"",""left"",""left"",""good_move"",69677,3560,3197.6,66117,362.4,""smooth"",""left"",""left"",""good_move""]","",""
"2778","","<div style=""width:500px;"">
  <p>What determined the result of this run?</p>
  </div>","78","html-slider-response","40","578497","0.0-5.0-1.6","237","1","2025-07-24 09:41:28","1f75c3e559b7213887762d5229550c2b","5.185.246.114","Mozilla/5.0 (Windows NT 10.0; Win64; x64; rv:140.0) Gecko/20100101 Firefox/140.0","","Firefox","140.0","Windows","10.0","https://app.prolific.com/","pl,en-US;q=0.7,en;q=0.3","5f0214e58782120a8c970fd6","683db9eb0562dbf637994deb","6881ffb72ca7c55472a1606d","2","1","5f0214e58782120a8c970fd6","2","1","2025-07-24T09:51:09.120Z","","","","","","","","","","","AttribQ","","50","","","","","","","","","","","","","","","","","","","","","","","","","","","","",""
"2166","","<div style=""width:500px;"">
  <p>How much control did you have over the ball?</p>
  </div>","26","html-slider-response","41","580667","0.0-5.0-2.6","237","1","2025-07-24 09:41:28","1f75c3e559b7213887762d5229550c2b","5.185.246.114","Mozilla/5.0 (Windows NT 10.0; Win64; x64; rv:140.0) Gecko/20100101 Firefox/140.0","","Firefox","140.0","Windows","10.0","https://app.prolific.com/","pl,en-US;q=0.7,en;q=0.3","5f0214e58782120a8c970fd6","683db9eb0562dbf637994deb","6881ffb72ca7c55472a1606d","2","1","5f0214e58782120a8c970fd6","2","1","2025-07-24T09:51:11.289Z","","","","","","","","","","","ControlQ","","50","","","","","","","","","","","","","","","","","","","","","","","","","","","","",""
"2336","","<div style=""width:500px;"">
  <p>How would you describe your current emotional state?</p>
  </div>","34","html-slider-response","42","583006","0.0-5.0-3.6","237","1","2025-07-24 09:41:28","1f75c3e559b7213887762d5229550c2b","5.185.246.114","Mozilla/5.0 (Windows NT 10.0; Win64; x64; rv:140.0) Gecko/20100101 Firefox/140.0","","Firefox","140.0","Windows","10.0","https://app.prolific.com/","pl,en-US;q=0.7,en;q=0.3","5f0214e58782120a8c970fd6","683db9eb0562dbf637994deb","6881ffb72ca7c55472a1606d","2","1","5f0214e58782120a8c970fd6","2","1","2025-07-24T09:51:13.628Z","","","","","","","","","","","StressQ","","50","","","","","","","","","","","","","","","","","","","","","","","","","","","","",""
"2404","","<div style=""width:500px;"">
  <p>What best describes how you currently feel?</p>
  </div>","95","html-slider-response","43","585416","0.0-5.0-4.6","237","1","2025-07-24 09:41:28","1f75c3e559b7213887762d5229550c2b","5.185.246.114","Mozilla/5.0 (Windows NT 10.0; Win64; x64; rv:140.0) Gecko/20100101 Firefox/140.0","","Firefox","140.0","Windows","10.0","https://app.prolific.com/","pl,en-US;q=0.7,en;q=0.3","5f0214e58782120a8c970fd6","683db9eb0562dbf637994deb","6881ffb72ca7c55472a1606d","2","1","5f0214e58782120a8c970fd6","2","1","2025-07-24T09:51:16.038Z","","","","","","","","","","","MotivationQ","","50","","","","","","","","","","","","","","","","","","","","","","","","","","","","",""
"","","","","ctl-task-cpt","44","641603","0.0-5.0-0.7","237","1","2025-07-24 09:41:28","1f75c3e559b7213887762d5229550c2b","5.185.246.114","Mozilla/5.0 (Windows NT 10.0; Win64; x64; rv:140.0) Gecko/20100101 Firefox/140.0","","Firefox","140.0","Windows","10.0","https://app.prolific.com/","pl,en-US;q=0.7,en;q=0.3","5f0214e58782120a8c970fd6","683db9eb0562dbf637994deb","6881ffb72ca7c55472a1606d","2","1","5f0214e58782120a8c970fd6","2","1","2025-07-24T09:52:12.225Z","","","","","","","","","","","","","","win-only","1","g1:NE,g2:SW","0.3","8","0","587829","944","5955","53167","1","4","4","6","2","4","4","41","37","0.3106060606060606","1233","3000","1690","[""down"",""left""]","{""num_key_presses"":10,""num_perfect"":3,""num_errors"":0,""num_randdir"":7,""num_randdir_good_moves"":5,""num_whilered"":0,""num_whileblue"":0,""num_blue"":5,""num_good_moves"":8}","[299.22857753208706,296.92857448032925,0,299.22857753208706,296.92857448032925,104,299.22857753208706,296.92857448032925,218,299.22857753208706,296.92857448032925,323,299.22857753208706,296.92857448032925,437,299.22857753208706,296.92857448032925,551,200.22857753208706,381.92857448032925,657,119.22857753208706,466.92857448032925,765,105.22857753208706,481.92857448032925,874,78.22857753208706,515.9285744803292,986,60.22857753208705,536.9285744803292,1091,60.22857753208705,536.9285744803292,1201,60.22857753208705,536.9285744803292,1312,60.22857753208705,536.9285744803292,1425,60.22857753208705,536.9285744803292,1533,60.22857753208705,536.9285744803292,1637,-299.77142246791294,395.92857448032925,1751,-304.77142246791294,395.92857448032925,1862,-304.77142246791294,395.92857448032925,1972,-304.77142246791294,395.92857448032925,2087,-304.77142246791294,395.92857448032925,2199,-304.77142246791294,395.92857448032925,2308,-304.77142246791294,395.92857448032925,2420,-304.77142246791294,395.92857448032925,2521,-304.77142246791294,395.92857448032925,2621,-304.77142246791294,395.92857448032925,2721,-304.77142246791294,395.92857448032925,2822,-304.77142246791294,395.92857448032925,2922,-304.77142246791294,395.92857448032925,3022,-304.77142246791294,395.92857448032925,3123,-304.77142246791294,395.92857448032925,3240,-304.77142246791294,395.92857448032925,3344,-304.77142246791294,395.92857448032925,3444,-304.77142246791294,395.92857448032925,3545,-304.77142246791294,395.92857448032925,3660,-304.77142246791294,395.92857448032925,3760,-304.77142246791294,395.92857448032925,3860,-304.77142246791294,395.92857448032925,3961,-304.77142246791294,395.92857448032925,4061,-304.77142246791294,395.92857448032925,4167,-304.77142246791294,395.92857448032925,4276,-304.77142246791294,395.92857448032925,4377,-304.77142246791294,395.92857448032925,4478,-304.77142246791294,395.92857448032925,4578,-304.77142246791294,395.92857448032925,4678,-304.77142246791294,395.92857448032925,4778,-304.77142246791294,395.92857448032925,4879,-304.77142246791294,395.92857448032925,4979]","[5626,5626,3093,2039,494,""smooth"",""down"",""down"",""good_move"",14744,9118,2777.7,11484,482.3,""smooth"",""left"",""left"",""good_move"",21073,6329,2090.7,18579,403.3,""smooth"",""down"",""down"",""good_move"",27804,6731,2983,24413,408,""oops"",""left"",""left"",""good_move"",31254,3450,2949,27804,501,""oops"",""left"",""right"",""bad_move"",34614,3360,2950.8,31254,409.2,""oops"",""down"",""right"",""bad_move"",37506,2892,2495.5,34614,396.5,""oops"",""left"",""left"",""good_move"",40595,3089,2254,37506,835,""oops"",""left"",""left"",""good_move"",43706,3111,2135.4,40595,975.6,""oops"",""left"",""left"",""good_move"",46910,3203,2328.3,43707,874.7,""oops"",""down"",""down"",""good_move""]","",""
"2727","","<div style=""width:500px;"">
  <p>What determined the result of this run?</p>
  </div>","73","html-slider-response","45","644332","0.0-5.0-1.7","237","1","2025-07-24 09:41:28","1f75c3e559b7213887762d5229550c2b","5.185.246.114","Mozilla/5.0 (Windows NT 10.0; Win64; x64; rv:140.0) Gecko/20100101 Firefox/140.0","","Firefox","140.0","Windows","10.0","https://app.prolific.com/","pl,en-US;q=0.7,en;q=0.3","5f0214e58782120a8c970fd6","683db9eb0562dbf637994deb","6881ffb72ca7c55472a1606d","2","1","5f0214e58782120a8c970fd6","2","1","2025-07-24T09:52:14.954Z","","","","","","","","","","","AttribQ","","50","","","","","","","","","","","","","","","","","","","","","","","","","","","","",""
"2005","","<div style=""width:500px;"">
  <p>How much control did you have over the ball?</p>
  </div>","42","html-slider-response","46","646339","0.0-5.0-2.7","237","1","2025-07-24 09:41:28","1f75c3e559b7213887762d5229550c2b","5.185.246.114","Mozilla/5.0 (Windows NT 10.0; Win64; x64; rv:140.0) Gecko/20100101 Firefox/140.0","","Firefox","140.0","Windows","10.0","https://app.prolific.com/","pl,en-US;q=0.7,en;q=0.3","5f0214e58782120a8c970fd6","683db9eb0562dbf637994deb","6881ffb72ca7c55472a1606d","2","1","5f0214e58782120a8c970fd6","2","1","2025-07-24T09:52:16.961Z","","","","","","","","","","","ControlQ","","50","","","","","","","","","","","","","","","","","","","","","","","","","","","","",""
"3516","","<div style=""width:500px;"">
  <p>How would you describe your current emotional state?</p>
  </div>","25","html-slider-response","47","649861","0.0-5.0-3.7","237","1","2025-07-24 09:41:28","1f75c3e559b7213887762d5229550c2b","5.185.246.114","Mozilla/5.0 (Windows NT 10.0; Win64; x64; rv:140.0) Gecko/20100101 Firefox/140.0","","Firefox","140.0","Windows","10.0","https://app.prolific.com/","pl,en-US;q=0.7,en;q=0.3","5f0214e58782120a8c970fd6","683db9eb0562dbf637994deb","6881ffb72ca7c55472a1606d","2","1","5f0214e58782120a8c970fd6","2","1","2025-07-24T09:52:20.483Z","","","","","","","","","","","StressQ","","50","","","","","","","","","","","","","","","","","","","","","","","","","","","","",""
"3508","","<div style=""width:500px;"">
  <p>What best describes how you currently feel?</p>
  </div>","90","html-slider-response","48","653371","0.0-5.0-4.7","237","1","2025-07-24 09:41:28","1f75c3e559b7213887762d5229550c2b","5.185.246.114","Mozilla/5.0 (Windows NT 10.0; Win64; x64; rv:140.0) Gecko/20100101 Firefox/140.0","","Firefox","140.0","Windows","10.0","https://app.prolific.com/","pl,en-US;q=0.7,en;q=0.3","5f0214e58782120a8c970fd6","683db9eb0562dbf637994deb","6881ffb72ca7c55472a1606d","2","1","5f0214e58782120a8c970fd6","2","1","2025-07-24T09:52:23.993Z","","","","","","","","","","","MotivationQ","","50","","","","","","","","","","","","","","","","","","","","","","","","","","","","",""
"","","","","ctl-task-cpt","49","717081","0.0-5.0-0.8","237","1","2025-07-24 09:41:28","1f75c3e559b7213887762d5229550c2b","5.185.246.114","Mozilla/5.0 (Windows NT 10.0; Win64; x64; rv:140.0) Gecko/20100101 Firefox/140.0","","Firefox","140.0","Windows","10.0","https://app.prolific.com/","pl,en-US;q=0.7,en;q=0.3","5f0214e58782120a8c970fd6","683db9eb0562dbf637994deb","6881ffb72ca7c55472a1606d","2","1","5f0214e58782120a8c970fd6","2","1","2025-07-24T09:53:27.703Z","","","","","","","","","","","","","","win-only","3","g1:SW,g2:NE","0.2","9","0","655785","927","5930","60690","1","4","4","6","1","1","0","41","41","0.3106060606060606","1675","3000","560","[""down"",""left""]","{""num_key_presses"":18,""num_perfect"":4,""num_errors"":1,""num_randdir"":13,""num_randdir_good_moves"":6,""num_whilered"":0,""num_whileblue"":1,""num_blue"":1,""num_good_moves"":11}","[295.22857753208706,291.92857448032925,0,295.22857753208706,291.92857448032925,113,295.22857753208706,291.92857448032925,214,295.22857753208706,291.92857448032925,315,295.22857753208706,291.92857448032925,430,295.22857753208706,291.92857448032925,531,295.22857753208706,291.92857448032925,653,295.22857753208706,291.92857448032925,753,295.22857753208706,291.92857448032925,854,295.22857753208706,291.92857448032925,954,117.22857753208706,496.92857448032925,1069,113.22857753208706,509.92857448032925,1184,113.22857753208706,509.92857448032925,1284,67.22857753208706,530.9285744803292,1411,47.22857753208705,538.9285744803292,1526,47.22857753208705,538.9285744803292,1642,47.22857753208705,538.9285744803292,1757,47.22857753208705,538.9285744803292,1869,47.22857753208705,538.9285744803292,1989,47.22857753208705,538.9285744803292,2108,-177.77142246791294,420.92857448032925,2209,-221.77142246791294,409.92857448032925,2320,-221.77142246791294,409.92857448032925,2420,-221.77142246791294,409.92857448032925,2521,-221.77142246791294,409.92857448032925,2621,-221.77142246791294,409.92857448032925,2726,-221.77142246791294,409.92857448032925,2837,-221.77142246791294,409.92857448032925,2937,-221.77142246791294,409.92857448032925,3037,-221.77142246791294,409.92857448032925,3152,-221.77142246791294,409.92857448032925,3274,-221.77142246791294,409.92857448032925,3385,-221.77142246791294,409.92857448032925,3485,-221.77142246791294,409.92857448032925,3585,-221.77142246791294,409.92857448032925,3685,-221.77142246791294,409.92857448032925,3786,-221.77142246791294,409.92857448032925,3887,-221.77142246791294,409.92857448032925,3987,-221.77142246791294,409.92857448032925,4087,-221.77142246791294,409.92857448032925,4204,-221.77142246791294,409.92857448032925,4317,-221.77142246791294,409.92857448032925,4418,-221.77142246791294,409.92857448032925,4519,-221.77142246791294,409.92857448032925,4634,-221.77142246791294,409.92857448032925,4734,-221.77142246791294,409.92857448032925,4834,-221.77142246791294,409.92857448032925,4949]","[1557,1557,1000,0,557,""oops"",""down"",""up"",""bad_move"",4798,3241,2046.3,1557,1194.7,""oops"",""down"",""up"",""bad_move"",7988,3190,2791,4798,399,""while_blue"",""left"",""down"",""good_move"",10341,2353,1716,7988,637,""smooth"",""down"",""down"",""good_move"",13569,3228,2689.3,10341,538.7,""smooth"",""down"",""down"",""good_move"",17080,3510,3043.4,13570,466.6,""oops"",""left"",""right"",""bad_move"",20198,3118,2586.4,17080,531.6,""oops"",""down"",""left"",""good_move"",23566,3368,1918.8,20198,1449.2,""oops"",""down"",""right"",""bad_move"",26642,3075,2638.9,23567,436.1,""oops"",""left"",""down"",""good_move"",30248,3606,3120.5,26642,485.5,""oops"",""left"",""left"",""good_move"",33590,3342,2778.8,30248,563.2,""oops"",""left"",""right"",""bad_move"",35946,2356,1902.8,33590,453.2,""oops"",""left"",""left"",""good_move"",39254,3309,2001.7,35946,1307.3,""oops"",""left"",""left"",""good_move"",42555,3300,1583.6,39255,1716.4,""oops"",""left"",""right"",""bad_move"",45323,2767,2187.7,42556,579.3,""oops"",""left"",""right"",""bad_move"",48324,3001,2580.2,45323,420.8,""smooth"",""left"",""left"",""good_move"",51440,3116,2143,48324,973,""oops"",""left"",""left"",""good_move"",54484,3044,2274.9,51440,769.1,""smooth"",""left"",""left"",""good_move""]","",""
"52286","","<div style=""width:500px;"">
  <p>What determined the result of this run?</p>
  </div>","79","html-slider-response","50","769368","0.0-5.0-1.8","237","1","2025-07-24 09:41:28","1f75c3e559b7213887762d5229550c2b","5.185.246.114","Mozilla/5.0 (Windows NT 10.0; Win64; x64; rv:140.0) Gecko/20100101 Firefox/140.0","","Firefox","140.0","Windows","10.0","https://app.prolific.com/","pl,en-US;q=0.7,en;q=0.3","5f0214e58782120a8c970fd6","683db9eb0562dbf637994deb","6881ffb72ca7c55472a1606d","2","1","5f0214e58782120a8c970fd6","2","1","2025-07-24T09:54:19.990Z","","","","","","","","","","","AttribQ","","50","","","","","","","","","","","","","","","","","","","","","","","","","","","","",""
"6051","","<div style=""width:500px;"">
  <p>How much control did you have over the ball?</p>
  </div>","38","html-slider-response","51","775426","0.0-5.0-2.8","237","1","2025-07-24 09:41:28","1f75c3e559b7213887762d5229550c2b","5.185.246.114","Mozilla/5.0 (Windows NT 10.0; Win64; x64; rv:140.0) Gecko/20100101 Firefox/140.0","","Firefox","140.0","Windows","10.0","https://app.prolific.com/","pl,en-US;q=0.7,en;q=0.3","5f0214e58782120a8c970fd6","683db9eb0562dbf637994deb","6881ffb72ca7c55472a1606d","2","1","5f0214e58782120a8c970fd6","2","1","2025-07-24T09:54:26.048Z","","","","","","","","","","","ControlQ","","50","","","","","","","","","","","","","","","","","","","","","","","","","","","","",""
"3793","","<div style=""width:500px;"">
  <p>How would you describe your current emotional state?</p>
  </div>","29","html-slider-response","52","779222","0.0-5.0-3.8","237","1","2025-07-24 09:41:28","1f75c3e559b7213887762d5229550c2b","5.185.246.114","Mozilla/5.0 (Windows NT 10.0; Win64; x64; rv:140.0) Gecko/20100101 Firefox/140.0","","Firefox","140.0","Windows","10.0","https://app.prolific.com/","pl,en-US;q=0.7,en;q=0.3","5f0214e58782120a8c970fd6","683db9eb0562dbf637994deb","6881ffb72ca7c55472a1606d","2","1","5f0214e58782120a8c970fd6","2","1","2025-07-24T09:54:29.844Z","","","","","","","","","","","StressQ","","50","","","","","","","","","","","","","","","","","","","","","","","","","","","","",""
"2837","","<div style=""width:500px;"">
  <p>What best describes how you currently feel?</p>
  </div>","88","html-slider-response","53","782064","0.0-5.0-4.8","237","1","2025-07-24 09:41:28","1f75c3e559b7213887762d5229550c2b","5.185.246.114","Mozilla/5.0 (Windows NT 10.0; Win64; x64; rv:140.0) Gecko/20100101 Firefox/140.0","","Firefox","140.0","Windows","10.0","https://app.prolific.com/","pl,en-US;q=0.7,en;q=0.3","5f0214e58782120a8c970fd6","683db9eb0562dbf637994deb","6881ffb72ca7c55472a1606d","2","1","5f0214e58782120a8c970fd6","2","1","2025-07-24T09:54:32.686Z","","","","","","","","","","","MotivationQ","","50","","","","","","","","","","","","","","","","","","","","","","","","","","","","",""
"","","","","ctl-task-cpt","54","807806","0.0-5.0-0.9","237","1","2025-07-24 09:41:28","1f75c3e559b7213887762d5229550c2b","5.185.246.114","Mozilla/5.0 (Windows NT 10.0; Win64; x64; rv:140.0) Gecko/20100101 Firefox/140.0","","Firefox","140.0","Windows","10.0","https://app.prolific.com/","pl,en-US;q=0.7,en;q=0.3","5f0214e58782120a8c970fd6","683db9eb0562dbf637994deb","6881ffb72ca7c55472a1606d","2","1","5f0214e58782120a8c970fd6","2","1","2025-07-24T09:54:58.428Z","","","","","","","","","","","","","","win-only","0","g1:NW,g2:SE","0.4","10","0","784479","1011","6023","22734","1","4","8","6","2","8","8","49","41","0.3712121212121212","1073","3000","2205","[""down"",""right""]","{""num_key_presses"":6,""num_perfect"":3,""num_errors"":0,""num_randdir"":3,""num_randdir_good_moves"":3,""num_whilered"":0,""num_whileblue"":0,""num_blue"":0,""num_good_moves"":6}","[292.22857753208706,292.92857448032925,0,292.22857753208706,292.92857448032925,114,292.22857753208706,292.92857448032925,214,292.22857753208706,292.92857448032925,315,292.22857753208706,292.92857448032925,415,292.22857753208706,292.92857448032925,515,456.22857753208706,414.92857448032925,615,540.228577532087,529.9285744803292,715,540.228577532087,529.9285744803292,816,540.228577532087,529.9285744803292,916,540.228577532087,529.9285744803292,1016,540.228577532087,529.9285744803292,1117,540.228577532087,529.9285744803292,1223,540.228577532087,529.9285744803292,1341,540.228577532087,529.9285744803292,1441,745.228577532087,444.92857448032925,1559,818.228577532087,404.92857448032925,1674,818.228577532087,404.92857448032925,1774,818.228577532087,404.92857448032925,1874,818.228577532087,404.92857448032925,1975,818.228577532087,404.92857448032925,2090,818.228577532087,404.92857448032925,2199,818.228577532087,404.92857448032925,2305,818.228577532087,404.92857448032925,2407,818.228577532087,404.92857448032925,2508,818.228577532087,404.92857448032925,2608,818.228577532087,404.92857448032925,2708,818.228577532087,404.92857448032925,2808,817.228577532087,409.92857448032925,2909,817.228577532087,409.92857448032925,3010,817.228577532087,409.92857448032925,3111,817.228577532087,409.92857448032925,3225,817.228577532087,409.92857448032925,3335,817.228577532087,409.92857448032925,3441,817.228577532087,409.92857448032925,3541,817.228577532087,409.92857448032925,3641,817.228577532087,409.92857448032925,3741,817.228577532087,409.92857448032925,3842,817.228577532087,409.92857448032925,3942,817.228577532087,409.92857448032925,4042,817.228577532087,409.92857448032925,4142,817.228577532087,409.92857448032925,4246,817.228577532087,409.92857448032925,4362,817.228577532087,409.92857448032925,4462,817.228577532087,409.92857448032925,4562,817.228577532087,409.92857448032925,4663,817.228577532087,409.92857448032925,4764,817.228577532087,409.92857448032925,4864,817.228577532087,409.92857448032925,4965]","[1634,1634,1000,0,634,""oops"",""down"",""down"",""good_move"",4996,3362,2938.4,1634,423.6,""smooth"",""down"",""down"",""good_move"",8168,3172,2729.1,4997,442.9,""smooth"",""right"",""right"",""good_move"",10954,2785,2280.1,8169,504.9,""smooth"",""down"",""down"",""good_move"",13669,2715,2350.6,10954,364.4,""oops"",""right"",""right"",""good_move"",16373,2703,2343,13670,360,""oops"",""right"",""right"",""good_move""]","",""
"3236","","<div style=""width:500px;"">
  <p>What determined the result of this run?</p>
  </div>","84","html-slider-response","55","811043","0.0-5.0-1.9","237","1","2025-07-24 09:41:28","1f75c3e559b7213887762d5229550c2b","5.185.246.114","Mozilla/5.0 (Windows NT 10.0; Win64; x64; rv:140.0) Gecko/20100101 Firefox/140.0","","Firefox","140.0","Windows","10.0","https://app.prolific.com/","pl,en-US;q=0.7,en;q=0.3","5f0214e58782120a8c970fd6","683db9eb0562dbf637994deb","6881ffb72ca7c55472a1606d","2","1","5f0214e58782120a8c970fd6","2","1","2025-07-24T09:55:01.665Z","","","","","","","","","","","AttribQ","","50","","","","","","","","","","","","","","","","","","","","","","","","","","","","",""
"2069","","<div style=""width:500px;"">
  <p>How much control did you have over the ball?</p>
  </div>","77","html-slider-response","56","813116","0.0-5.0-2.9","237","1","2025-07-24 09:41:28","1f75c3e559b7213887762d5229550c2b","5.185.246.114","Mozilla/5.0 (Windows NT 10.0; Win64; x64; rv:140.0) Gecko/20100101 Firefox/140.0","","Firefox","140.0","Windows","10.0","https://app.prolific.com/","pl,en-US;q=0.7,en;q=0.3","5f0214e58782120a8c970fd6","683db9eb0562dbf637994deb","6881ffb72ca7c55472a1606d","2","1","5f0214e58782120a8c970fd6","2","1","2025-07-24T09:55:03.738Z","","","","","","","","","","","ControlQ","","50","","","","","","","","","","","","","","","","","","","","","","","","","","","","",""
"2724","","<div style=""width:500px;"">
  <p>How would you describe your current emotional state?</p>
  </div>","20","html-slider-response","57","815846","0.0-5.0-3.9","237","1","2025-07-24 09:41:28","1f75c3e559b7213887762d5229550c2b","5.185.246.114","Mozilla/5.0 (Windows NT 10.0; Win64; x64; rv:140.0) Gecko/20100101 Firefox/140.0","","Firefox","140.0","Windows","10.0","https://app.prolific.com/","pl,en-US;q=0.7,en;q=0.3","5f0214e58782120a8c970fd6","683db9eb0562dbf637994deb","6881ffb72ca7c55472a1606d","2","1","5f0214e58782120a8c970fd6","2","1","2025-07-24T09:55:06.468Z","","","","","","","","","","","StressQ","","50","","","","","","","","","","","","","","","","","","","","","","","","","","","","",""
"2199","","<div style=""width:500px;"">
  <p>What best describes how you currently feel?</p>
  </div>","81","html-slider-response","58","818048","0.0-5.0-4.9","237","1","2025-07-24 09:41:28","1f75c3e559b7213887762d5229550c2b","5.185.246.114","Mozilla/5.0 (Windows NT 10.0; Win64; x64; rv:140.0) Gecko/20100101 Firefox/140.0","","Firefox","140.0","Windows","10.0","https://app.prolific.com/","pl,en-US;q=0.7,en;q=0.3","5f0214e58782120a8c970fd6","683db9eb0562dbf637994deb","6881ffb72ca7c55472a1606d","2","1","5f0214e58782120a8c970fd6","2","1","2025-07-24T09:55:08.670Z","","","","","","","","","","","MotivationQ","","50","","","","","","","","","","","","","","","","","","","","","","","","","","","","",""
"","","","","ctl-task-cpt","59","843974","0.0-5.0-0.10","237","1","2025-07-24 09:41:28","1f75c3e559b7213887762d5229550c2b","5.185.246.114","Mozilla/5.0 (Windows NT 10.0; Win64; x64; rv:140.0) Gecko/20100101 Firefox/140.0","","Firefox","140.0","Windows","10.0","https://app.prolific.com/","pl,en-US;q=0.7,en;q=0.3","5f0214e58782120a8c970fd6","683db9eb0562dbf637994deb","6881ffb72ca7c55472a1606d","2","1","5f0214e58782120a8c970fd6","2","1","2025-07-24T09:55:34.596Z","","","","","","","","","","","","","","win-only","3","g1:SW,g2:NE","0.5","11","0","820462","869","5877","22910","1","4","4","6","1","1","1","50","49","0.3787878787878788","1626","3000","2395","[""down"",""left""]","{""num_key_presses"":4,""num_perfect"":2,""num_errors"":0,""num_randdir"":2,""num_randdir_good_moves"":2,""num_whilered"":0,""num_whileblue"":0,""num_blue"":2,""num_good_moves"":4}","[297.22857753208706,295.92857448032925,0,297.22857753208706,295.92857448032925,104,297.22857753208706,295.92857448032925,217,297.22857753208706,295.92857448032925,324,297.22857753208706,295.92857448032925,432,297.22857753208706,295.92857448032925,541,300.22857753208706,291.92857448032925,651,315.22857753208706,283.92857448032925,761,139.22857753208706,408.92857448032925,871,137.22857753208706,412.92857448032925,982,137.22857753208706,412.92857448032925,1089,50.22857753208705,508.92857448032925,1200,34.22857753208705,529.9285744803292,1306,24.22857753208705,545.9285744803292,1415,22.22857753208705,546.9285744803292,1524,22.22857753208705,546.9285744803292,1634,22.22857753208705,546.9285744803292,1743,22.22857753208705,546.9285744803292,1853,22.22857753208705,546.9285744803292,1963,22.22857753208705,546.9285744803292,2071,-211.77142246791294,498.92857448032925,2182,-252.77142246791294,498.92857448032925,2289,-252.77142246791294,498.92857448032925,2399,-252.77142246791294,498.92857448032925,2508,-252.77142246791294,498.92857448032925,2617,-252.77142246791294,498.92857448032925,2726,-252.77142246791294,498.92857448032925,2836,-252.77142246791294,498.92857448032925,2948,-252.77142246791294,498.92857448032925,3055,-252.77142246791294,498.92857448032925,3166,-252.77142246791294,498.92857448032925,3276,-252.77142246791294,498.92857448032925,3387,-252.77142246791294,498.92857448032925,3497,-252.77142246791294,498.92857448032925,3603,-252.77142246791294,498.92857448032925,3715,-252.77142246791294,498.92857448032925,3822,-252.77142246791294,498.92857448032925,3932,-252.77142246791294,498.92857448032925,4041,-252.77142246791294,498.92857448032925,4154,-252.77142246791294,498.92857448032925,4264,-252.77142246791294,498.92857448032925,4371,-252.77142246791294,498.92857448032925,4482,-252.77142246791294,498.92857448032925,4587,-252.77142246791294,498.92857448032925,4698,-252.77142246791294,498.92857448032925,4805,-252.77142246791294,498.92857448032925,4915]","[1494,1494,1000,0,494,""oops"",""down"",""left"",""good_move"",4640,3146,2707.3,1494,438.7,""smooth"",""down"",""down"",""good_move"",7161,2521,2061.6,4640,459.4,""oops"",""down"",""down"",""good_move"",16807,9646,2580.8,13774,452.2,""smooth"",""left"",""left"",""good_move""]","",""
"2679","","<div style=""width:500px;"">
  <p>What determined the result of this run?</p>
  </div>","83","html-slider-response","60","846653","0.0-5.0-1.10","237","1","2025-07-24 09:41:28","1f75c3e559b7213887762d5229550c2b","5.185.246.114","Mozilla/5.0 (Windows NT 10.0; Win64; x64; rv:140.0) Gecko/20100101 Firefox/140.0","","Firefox","140.0","Windows","10.0","https://app.prolific.com/","pl,en-US;q=0.7,en;q=0.3","5f0214e58782120a8c970fd6","683db9eb0562dbf637994deb","6881ffb72ca7c55472a1606d","2","1","5f0214e58782120a8c970fd6","2","1","2025-07-24T09:55:37.275Z","","","","","","","","","","","AttribQ","","50","","","","","","","","","","","","","","","","","","","","","","","","","","","","",""
"1911","","<div style=""width:500px;"">
  <p>How much control did you have over the ball?</p>
  </div>","89","html-slider-response","61","848568","0.0-5.0-2.10","237","1","2025-07-24 09:41:28","1f75c3e559b7213887762d5229550c2b","5.185.246.114","Mozilla/5.0 (Windows NT 10.0; Win64; x64; rv:140.0) Gecko/20100101 Firefox/140.0","","Firefox","140.0","Windows","10.0","https://app.prolific.com/","pl,en-US;q=0.7,en;q=0.3","5f0214e58782120a8c970fd6","683db9eb0562dbf637994deb","6881ffb72ca7c55472a1606d","2","1","5f0214e58782120a8c970fd6","2","1","2025-07-24T09:55:39.190Z","","","","","","","","","","","ControlQ","","50","","","","","","","","","","","","","","","","","","","","","","","","","","","","",""
"2204","","<div style=""width:500px;"">
  <p>How would you describe your current emotional state?</p>
  </div>","5","html-slider-response","62","850776","0.0-5.0-3.10","237","1","2025-07-24 09:41:28","1f75c3e559b7213887762d5229550c2b","5.185.246.114","Mozilla/5.0 (Windows NT 10.0; Win64; x64; rv:140.0) Gecko/20100101 Firefox/140.0","","Firefox","140.0","Windows","10.0","https://app.prolific.com/","pl,en-US;q=0.7,en;q=0.3","5f0214e58782120a8c970fd6","683db9eb0562dbf637994deb","6881ffb72ca7c55472a1606d","2","1","5f0214e58782120a8c970fd6","2","1","2025-07-24T09:55:41.398Z","","","","","","","","","","","StressQ","","50","","","","","","","","","","","","","","","","","","","","","","","","","","","","",""
"2330","","<div style=""width:500px;"">
  <p>What best describes how you currently feel?</p>
  </div>","95","html-slider-response","63","853109","0.0-5.0-4.10","237","1","2025-07-24 09:41:28","1f75c3e559b7213887762d5229550c2b","5.185.246.114","Mozilla/5.0 (Windows NT 10.0; Win64; x64; rv:140.0) Gecko/20100101 Firefox/140.0","","Firefox","140.0","Windows","10.0","https://app.prolific.com/","pl,en-US;q=0.7,en;q=0.3","5f0214e58782120a8c970fd6","683db9eb0562dbf637994deb","6881ffb72ca7c55472a1606d","2","1","5f0214e58782120a8c970fd6","2","1","2025-07-24T09:55:43.731Z","","","","","","","","","","","MotivationQ","","50","","","","","","","","","","","","","","","","","","","","","","","","","","","","",""
"","","","","ctl-task-cpt","64","901732","0.0-5.0-0.11","237","1","2025-07-24 09:41:28","1f75c3e559b7213887762d5229550c2b","5.185.246.114","Mozilla/5.0 (Windows NT 10.0; Win64; x64; rv:140.0) Gecko/20100101 Firefox/140.0","","Firefox","140.0","Windows","10.0","https://app.prolific.com/","pl,en-US;q=0.7,en;q=0.3","5f0214e58782120a8c970fd6","683db9eb0562dbf637994deb","6881ffb72ca7c55472a1606d","2","1","5f0214e58782120a8c970fd6","2","1","2025-07-24T09:56:32.354Z","","","","","","","","","","","","","","win-only","2","g1:SE,g2:NW","0.6","12","0","855520","1091","6096","45606","1","4","8","6","2","8","8","58","50","0.4393939393939394","1210","3000","1870","[""left"",""up""]","{""num_key_presses"":8,""num_perfect"":6,""num_errors"":0,""num_randdir"":2,""num_randdir_good_moves"":1,""num_whilered"":0,""num_whileblue"":0,""num_blue"":4,""num_good_moves"":7}","[299.22857753208706,300.92857448032925,0,299.22857753208706,300.92857448032925,108,299.22857753208706,300.92857448032925,218,299.22857753208706,300.92857448032925,324,299.22857753208706,300.92857448032925,433,299.22857753208706,300.92857448032925,545,299.22857753208706,300.92857448032925,657,185.22857753208706,155.92857448032925,768,38.22857753208705,24.92857448032924,883,38.22857753208705,24.92857448032924,988,38.22857753208705,24.92857448032924,1101,38.22857753208705,24.92857448032924,1209,38.22857753208705,24.92857448032924,1318,38.22857753208705,24.92857448032924,1428,38.22857753208705,24.92857448032924,1537,38.22857753208705,24.92857448032924,1643,-163.77142246791294,63.92857448032924,1753,-163.77142246791294,63.92857448032924,1867,-163.77142246791294,63.92857448032924,1978,-163.77142246791294,63.92857448032924,2087,-163.77142246791294,63.92857448032924,2199,-163.77142246791294,63.92857448032924,2307,-163.77142246791294,63.92857448032924,2417,-163.77142246791294,63.92857448032924,2522,-163.77142246791294,63.92857448032924,2629,-163.77142246791294,63.92857448032924,2735,-163.77142246791294,63.92857448032924,2842,-163.77142246791294,63.92857448032924,2952,-163.77142246791294,63.92857448032924,3061,-163.77142246791294,63.92857448032924,3169,-163.77142246791294,63.92857448032924,3283,-163.77142246791294,63.92857448032924,3390,-163.77142246791294,63.92857448032924,3503,-163.77142246791294,63.92857448032924,3612,-163.77142246791294,63.92857448032924,3721,-163.77142246791294,63.92857448032924,3834,-163.77142246791294,63.92857448032924,3940,-163.77142246791294,63.92857448032924,4050,-163.77142246791294,63.92857448032924,4159,-163.77142246791294,63.92857448032924,4266,-163.77142246791294,63.92857448032924,4373,-163.77142246791294,63.92857448032924,4484,-163.77142246791294,63.92857448032924,4590,-163.77142246791294,63.92857448032924,4704,-163.77142246791294,63.92857448032924,4815,-163.77142246791294,63.92857448032924,4923]","[1448,1448,1000,0,448,""smooth"",""up"",""up"",""good_move"",8870,7422,2375.8,6070,424.2,""oops"",""left"",""right"",""bad_move"",12498,3628,3074.5,8870,553.5,""smooth"",""up"",""up"",""good_move"",15568,3069,1848,12499,1221,""smooth"",""left"",""left"",""good_move"",18605,3037,2370.9,15568,666.1,""oops"",""up"",""left"",""good_move"",21635,3030,2524.1,18605,505.9,""smooth"",""up"",""up"",""good_move"",27655,6020,2059.6,25203,392.4,""smooth"",""left"",""left"",""good_move"",39255,11600,3005.8,35747,502.2,""smooth"",""left"",""left"",""good_move""]","",""
"2659","","<div style=""width:500px;"">
  <p>What determined the result of this run?</p>
  </div>","83","html-slider-response","65","904393","0.0-5.0-1.11","237","1","2025-07-24 09:41:28","1f75c3e559b7213887762d5229550c2b","5.185.246.114","Mozilla/5.0 (Windows NT 10.0; Win64; x64; rv:140.0) Gecko/20100101 Firefox/140.0","","Firefox","140.0","Windows","10.0","https://app.prolific.com/","pl,en-US;q=0.7,en;q=0.3","5f0214e58782120a8c970fd6","683db9eb0562dbf637994deb","6881ffb72ca7c55472a1606d","2","1","5f0214e58782120a8c970fd6","2","1","2025-07-24T09:56:35.015Z","","","","","","","","","","","AttribQ","","50","","","","","","","","","","","","","","","","","","","","","","","","","","","","",""
"2375","","<div style=""width:500px;"">
  <p>How much control did you have over the ball?</p>
  </div>","90","html-slider-response","66","906771","0.0-5.0-2.11","237","1","2025-07-24 09:41:28","1f75c3e559b7213887762d5229550c2b","5.185.246.114","Mozilla/5.0 (Windows NT 10.0; Win64; x64; rv:140.0) Gecko/20100101 Firefox/140.0","","Firefox","140.0","Windows","10.0","https://app.prolific.com/","pl,en-US;q=0.7,en;q=0.3","5f0214e58782120a8c970fd6","683db9eb0562dbf637994deb","6881ffb72ca7c55472a1606d","2","1","5f0214e58782120a8c970fd6","2","1","2025-07-24T09:56:37.393Z","","","","","","","","","","","ControlQ","","50","","","","","","","","","","","","","","","","","","","","","","","","","","","","",""
"5026","","<div style=""width:500px;"">
  <p>How would you describe your current emotional state?</p>
  </div>","15","html-slider-response","67","911799","0.0-5.0-3.11","237","1","2025-07-24 09:41:28","1f75c3e559b7213887762d5229550c2b","5.185.246.114","Mozilla/5.0 (Windows NT 10.0; Win64; x64; rv:140.0) Gecko/20100101 Firefox/140.0","","Firefox","140.0","Windows","10.0","https://app.prolific.com/","pl,en-US;q=0.7,en;q=0.3","5f0214e58782120a8c970fd6","683db9eb0562dbf637994deb","6881ffb72ca7c55472a1606d","2","1","5f0214e58782120a8c970fd6","2","1","2025-07-24T09:56:42.421Z","","","","","","","","","","","StressQ","","50","","","","","","","","","","","","","","","","","","","","","","","","","","","","",""
"3347","","<div style=""width:500px;"">
  <p>What best describes how you currently feel?</p>
  </div>","89","html-slider-response","68","915149","0.0-5.0-4.11","237","1","2025-07-24 09:41:28","1f75c3e559b7213887762d5229550c2b","5.185.246.114","Mozilla/5.0 (Windows NT 10.0; Win64; x64; rv:140.0) Gecko/20100101 Firefox/140.0","","Firefox","140.0","Windows","10.0","https://app.prolific.com/","pl,en-US;q=0.7,en;q=0.3","5f0214e58782120a8c970fd6","683db9eb0562dbf637994deb","6881ffb72ca7c55472a1606d","2","1","5f0214e58782120a8c970fd6","2","1","2025-07-24T09:56:45.772Z","","","","","","","","","","","MotivationQ","","50","","","","","","","","","","","","","","","","","","","","","","","","","","","","",""
"","","","","ctl-task-cpt","69","934810","0.0-5.0-0.12","237","1","2025-07-24 09:41:28","1f75c3e559b7213887762d5229550c2b","5.185.246.114","Mozilla/5.0 (Windows NT 10.0; Win64; x64; rv:140.0) Gecko/20100101 Firefox/140.0","","Firefox","140.0","Windows","10.0","https://app.prolific.com/","pl,en-US;q=0.7,en;q=0.3","5f0214e58782120a8c970fd6","683db9eb0562dbf637994deb","6881ffb72ca7c55472a1606d","2","1","5f0214e58782120a8c970fd6","2","1","2025-07-24T09:57:05.432Z","","","","","","","","","","","","","","win-only","2","g1:SE,g2:NW","0.7","13","0","917560","1022","6037","16647","1","4","8","6","1","1","1","59","58","0.44696969696969696","1626","3000","2230","[""down"",""right""]","{""num_key_presses"":4,""num_perfect"":4,""num_errors"":0,""num_randdir"":0,""num_randdir_good_moves"":0,""num_whilered"":0,""num_whileblue"":0,""num_blue"":0,""num_good_moves"":4}","[297.22857753208706,303.92857448032925,0,297.22857753208706,303.92857448032925,109,297.22857753208706,303.92857448032925,220,297.22857753208706,303.92857448032925,329,297.22857753208706,303.92857448032925,443,297.22857753208706,303.92857448032925,548,297.22857753208706,303.92857448032925,660,297.22857753208706,303.92857448032925,764,486.22857753208706,481.92857448032925,877,492.22857753208706,499.92857448032925,981,492.22857753208706,499.92857448032925,1083,492.22857753208706,499.92857448032925,1185,492.22857753208706,499.92857448032925,1295,505.22857753208706,507.92857448032925,1404,521.228577532087,518.9285744803292,1512,521.228577532087,518.9285744803292,1622,521.228577532087,518.9285744803292,1729,521.228577532087,518.9285744803292,1845,521.228577532087,518.9285744803292,1951,521.228577532087,518.9285744803292,2063,777.228577532087,377.92857448032925,2178,849.228577532087,350.92857448032925,2283,849.228577532087,350.92857448032925,2392,849.228577532087,350.92857448032925,2501,849.228577532087,350.92857448032925,2609,849.228577532087,350.92857448032925,2716,849.228577532087,350.92857448032925,2817,849.228577532087,350.92857448032925,2930,849.228577532087,350.92857448032925,3037,849.228577532087,350.92857448032925,3145,849.228577532087,350.92857448032925,3248,849.228577532087,350.92857448032925,3348,849.228577532087,350.92857448032925,3453,849.228577532087,350.92857448032925,3565,849.228577532087,350.92857448032925,3665,849.228577532087,350.92857448032925,3793,849.228577532087,350.92857448032925,3903,849.228577532087,350.92857448032925,4015,849.228577532087,350.92857448032925,4117,849.228577532087,350.92857448032925,4218,849.228577532087,350.92857448032925,4318,849.228577532087,350.92857448032925,4420,849.228577532087,350.92857448032925,4532,849.228577532087,350.92857448032925,4638,849.228577532087,350.92857448032925,4749,849.228577532087,350.92857448032925,4859,849.228577532087,350.92857448032925,4965]","[1631,1631,1000,0,631,""smooth"",""down"",""down"",""good_move"",4844,3213,2623.7,1631,589.3,""smooth"",""right"",""right"",""good_move"",7937,3093,2483.4,4845,608.6,""smooth"",""down"",""down"",""good_move"",10342,2404,1792,7938,612,""smooth"",""right"",""right"",""good_move""]","",""
"2846","","<div style=""width:500px;"">
  <p>What determined the result of this run?</p>
  </div>","86","html-slider-response","70","937657","0.0-5.0-1.12","237","1","2025-07-24 09:41:28","1f75c3e559b7213887762d5229550c2b","5.185.246.114","Mozilla/5.0 (Windows NT 10.0; Win64; x64; rv:140.0) Gecko/20100101 Firefox/140.0","","Firefox","140.0","Windows","10.0","https://app.prolific.com/","pl,en-US;q=0.7,en;q=0.3","5f0214e58782120a8c970fd6","683db9eb0562dbf637994deb","6881ffb72ca7c55472a1606d","2","1","5f0214e58782120a8c970fd6","2","1","2025-07-24T09:57:08.279Z","","","","","","","","","","","AttribQ","","50","","","","","","","","","","","","","","","","","","","","","","","","","","","","",""
"2333","","<div style=""width:500px;"">
  <p>How much control did you have over the ball?</p>
  </div>","79","html-slider-response","71","939992","0.0-5.0-2.12","237","1","2025-07-24 09:41:28","1f75c3e559b7213887762d5229550c2b","5.185.246.114","Mozilla/5.0 (Windows NT 10.0; Win64; x64; rv:140.0) Gecko/20100101 Firefox/140.0","","Firefox","140.0","Windows","10.0","https://app.prolific.com/","pl,en-US;q=0.7,en;q=0.3","5f0214e58782120a8c970fd6","683db9eb0562dbf637994deb","6881ffb72ca7c55472a1606d","2","1","5f0214e58782120a8c970fd6","2","1","2025-07-24T09:57:10.614Z","","","","","","","","","","","ControlQ","","50","","","","","","","","","","","","","","","","","","","","","","","","","","","","",""
"2486","","<div style=""width:500px;"">
  <p>How would you describe your current emotional state?</p>
  </div>","9","html-slider-response","72","942482","0.0-5.0-3.12","237","1","2025-07-24 09:41:28","1f75c3e559b7213887762d5229550c2b","5.185.246.114","Mozilla/5.0 (Windows NT 10.0; Win64; x64; rv:140.0) Gecko/20100101 Firefox/140.0","","Firefox","140.0","Windows","10.0","https://app.prolific.com/","pl,en-US;q=0.7,en;q=0.3","5f0214e58782120a8c970fd6","683db9eb0562dbf637994deb","6881ffb72ca7c55472a1606d","2","1","5f0214e58782120a8c970fd6","2","1","2025-07-24T09:57:13.104Z","","","","","","","","","","","StressQ","","50","","","","","","","","","","","","","","","","","","","","","","","","","","","","",""
"24847","","<div style=""width:500px;"">
  <p>What best describes how you currently feel?</p>
  </div>","94","html-slider-response","73","967332","0.0-5.0-4.12","237","1","2025-07-24 09:41:28","1f75c3e559b7213887762d5229550c2b","5.185.246.114","Mozilla/5.0 (Windows NT 10.0; Win64; x64; rv:140.0) Gecko/20100101 Firefox/140.0","","Firefox","140.0","Windows","10.0","https://app.prolific.com/","pl,en-US;q=0.7,en;q=0.3","5f0214e58782120a8c970fd6","683db9eb0562dbf637994deb","6881ffb72ca7c55472a1606d","2","1","5f0214e58782120a8c970fd6","2","1","2025-07-24T09:57:37.954Z","","","","","","","","","","","MotivationQ","","50","","","","","","","","","","","","","","","","","","","","","","","","","","","","",""
"","","","","ctl-task-cpt","74","993808","0.0-5.0-0.13","237","1","2025-07-24 09:41:28","1f75c3e559b7213887762d5229550c2b","5.185.246.114","Mozilla/5.0 (Windows NT 10.0; Win64; x64; rv:140.0) Gecko/20100101 Firefox/140.0","","Firefox","140.0","Windows","10.0","https://app.prolific.com/","pl,en-US;q=0.7,en;q=0.3","5f0214e58782120a8c970fd6","683db9eb0562dbf637994deb","6881ffb72ca7c55472a1606d","2","1","5f0214e58782120a8c970fd6","2","1","2025-07-24T09:58:04.430Z","","","","","","","","","","","","","","win-only","2","g1:SE,g2:NW","0.8","14","0","969745","1371","6377","23465","1","4","4","6","1","1","1","60","59","0.45454545454545453","2923","3000","2255","[""down"",""right""]","{""num_key_presses"":4,""num_perfect"":4,""num_errors"":0,""num_randdir"":0,""num_randdir_good_moves"":0,""num_whilered"":0,""num_whileblue"":0,""num_blue"":2,""num_good_moves"":4}","[296.22857753208706,297.92857448032925,1,296.22857753208706,297.92857448032925,108,296.22857753208706,297.92857448032925,209,296.22857753208706,297.92857448032925,325,296.22857753208706,297.92857448032925,425,296.22857753208706,297.92857448032925,540,296.22857753208706,297.92857448032925,641,296.22857753208706,297.92857448032925,741,296.22857753208706,297.92857448032925,842,296.22857753208706,297.92857448032925,942,296.22857753208706,297.92857448032925,1042,296.22857753208706,297.92857448032925,1142,296.22857753208706,297.92857448032925,1242,296.22857753208706,297.92857448032925,1342,229.22857753208706,216.92857448032925,1455,227.22857753208706,214.92857448032925,1556,227.22857753208706,214.92857448032925,1656,227.22857753208706,214.92857448032925,1756,227.22857753208706,214.92857448032925,1856,227.22857753208706,214.92857448032925,1958,227.22857753208706,214.92857448032925,2072,388.22857753208706,386.92857448032925,2181,471.22857753208706,499.92857448032925,2282,471.22857753208706,499.92857448032925,2389,471.22857753208706,499.92857448032925,2489,510.22857753208706,531.9285744803292,2592,534.228577532087,549.9285744803292,2707,538.228577532087,552.9285744803292,2808,538.228577532087,552.9285744803292,2922,538.228577532087,552.9285744803292,3035,538.228577532087,552.9285744803292,3154,538.228577532087,552.9285744803292,3256,662.228577532087,500.92857448032925,3372,801.228577532087,445.92857448032925,3490,801.228577532087,445.92857448032925,3590,801.228577532087,445.92857448032925,3706,801.228577532087,445.92857448032925,3806,801.228577532087,445.92857448032925,3922,801.228577532087,445.92857448032925,4034,801.228577532087,445.92857448032925,4134,801.228577532087,445.92857448032925,4250,801.228577532087,445.92857448032925,4363,801.228577532087,445.92857448032925,4464,801.228577532087,445.92857448032925,4565,801.228577532087,445.92857448032925,4665,801.228577532087,445.92857448032925,4765,801.228577532087,445.92857448032925,4865,801.228577532087,445.92857448032925,4965]","[4974,4974,2475.8,2007,491.2,""smooth"",""down"",""down"",""good_move"",7754,2780,2144.4,4974,635.6,""smooth"",""down"",""down"",""good_move"",13383,5629,1756.8,10790,836.2,""smooth"",""right"",""right"",""good_move"",16833,3450,2990.7,13383,459.3,""smooth"",""right"",""right"",""good_move""]","",""
"2433","","<div style=""width:500px;"">
  <p>What determined the result of this run?</p>
  </div>","84","html-slider-response","75","996247","0.0-5.0-1.13","237","1","2025-07-24 09:41:28","1f75c3e559b7213887762d5229550c2b","5.185.246.114","Mozilla/5.0 (Windows NT 10.0; Win64; x64; rv:140.0) Gecko/20100101 Firefox/140.0","","Firefox","140.0","Windows","10.0","https://app.prolific.com/","pl,en-US;q=0.7,en;q=0.3","5f0214e58782120a8c970fd6","683db9eb0562dbf637994deb","6881ffb72ca7c55472a1606d","2","1","5f0214e58782120a8c970fd6","2","1","2025-07-24T09:58:06.869Z","","","","","","","","","","","AttribQ","","50","","","","","","","","","","","","","","","","","","","","","","","","","","","","",""
"2032","","<div style=""width:500px;"">
  <p>How much control did you have over the ball?</p>
  </div>","94","html-slider-response","76","998282","0.0-5.0-2.13","237","1","2025-07-24 09:41:28","1f75c3e559b7213887762d5229550c2b","5.185.246.114","Mozilla/5.0 (Windows NT 10.0; Win64; x64; rv:140.0) Gecko/20100101 Firefox/140.0","","Firefox","140.0","Windows","10.0","https://app.prolific.com/","pl,en-US;q=0.7,en;q=0.3","5f0214e58782120a8c970fd6","683db9eb0562dbf637994deb","6881ffb72ca7c55472a1606d","2","1","5f0214e58782120a8c970fd6","2","1","2025-07-24T09:58:08.904Z","","","","","","","","","","","ControlQ","","50","","","","","","","","","","","","","","","","","","","","","","","","","","","","",""
"2022","","<div style=""width:500px;"">
  <p>How would you describe your current emotional state?</p>
  </div>","7","html-slider-response","77","1000307","0.0-5.0-3.13","237","1","2025-07-24 09:41:28","1f75c3e559b7213887762d5229550c2b","5.185.246.114","Mozilla/5.0 (Windows NT 10.0; Win64; x64; rv:140.0) Gecko/20100101 Firefox/140.0","","Firefox","140.0","Windows","10.0","https://app.prolific.com/","pl,en-US;q=0.7,en;q=0.3","5f0214e58782120a8c970fd6","683db9eb0562dbf637994deb","6881ffb72ca7c55472a1606d","2","1","5f0214e58782120a8c970fd6","2","1","2025-07-24T09:58:10.929Z","","","","","","","","","","","StressQ","","50","","","","","","","","","","","","","","","","","","","","","","","","","","","","",""
"2454","","<div style=""width:500px;"">
  <p>What best describes how you currently feel?</p>
  </div>","98","html-slider-response","78","1002764","0.0-5.0-4.13","237","1","2025-07-24 09:41:28","1f75c3e559b7213887762d5229550c2b","5.185.246.114","Mozilla/5.0 (Windows NT 10.0; Win64; x64; rv:140.0) Gecko/20100101 Firefox/140.0","","Firefox","140.0","Windows","10.0","https://app.prolific.com/","pl,en-US;q=0.7,en;q=0.3","5f0214e58782120a8c970fd6","683db9eb0562dbf637994deb","6881ffb72ca7c55472a1606d","2","1","5f0214e58782120a8c970fd6","2","1","2025-07-24T09:58:13.386Z","","","","","","","","","","","MotivationQ","","50","","","","","","","","","","","","","","","","","","","","","","","","","","","","",""
"","","","","ctl-task-cpt","79","1028095","0.0-5.0-0.14","237","1","2025-07-24 09:41:28","1f75c3e559b7213887762d5229550c2b","5.185.246.114","Mozilla/5.0 (Windows NT 10.0; Win64; x64; rv:140.0) Gecko/20100101 Firefox/140.0","","Firefox","140.0","Windows","10.0","https://app.prolific.com/","pl,en-US;q=0.7,en;q=0.3","5f0214e58782120a8c970fd6","683db9eb0562dbf637994deb","6881ffb72ca7c55472a1606d","2","1","5f0214e58782120a8c970fd6","2","1","2025-07-24T09:58:38.717Z","","","","","","","","","","","","","","win-only","2","g1:SE,g2:NW","0.9","15","0","1005179","1079","6092","22313","1","4","4","6","1","1","1","61","60","0.4621212121212121","1696","3000","2015","[""down"",""right""]","{""num_key_presses"":6,""num_perfect"":5,""num_errors"":0,""num_randdir"":1,""num_randdir_good_moves"":0,""num_whilered"":0,""num_whileblue"":0,""num_blue"":0,""num_good_moves"":5}","[299.22857753208706,296.92857448032925,0,299.22857753208706,296.92857448032925,113,299.22857753208706,296.92857448032925,214,299.22857753208706,296.92857448032925,325,299.22857753208706,296.92857448032925,426,299.22857753208706,296.92857448032925,528,299.22857753208706,296.92857448032925,629,299.22857753208706,296.92857448032925,740,299.22857753208706,296.92857448032925,842,473.22857753208706,457.92857448032925,963,503.22857753208706,491.92857448032925,1063,503.22857753208706,491.92857448032925,1182,503.22857753208706,491.92857448032925,1298,503.22857753208706,491.92857448032925,1404,523.228577532087,515.9285744803292,1504,525.228577532087,518.9285744803292,1604,525.228577532087,518.9285744803292,1704,525.228577532087,518.9285744803292,1804,525.228577532087,518.9285744803292,1923,525.228577532087,518.9285744803292,2037,525.228577532087,518.9285744803292,2141,525.228577532087,518.9285744803292,2256,922.228577532087,333.92857448032925,2365,922.228577532087,333.92857448032925,2465,922.228577532087,333.92857448032925,2566,922.228577532087,333.92857448032925,2666,922.228577532087,333.92857448032925,2767,922.228577532087,333.92857448032925,2868,922.228577532087,333.92857448032925,2968,922.228577532087,333.92857448032925,3089,922.228577532087,333.92857448032925,3190,922.228577532087,333.92857448032925,3291,922.228577532087,333.92857448032925,3402,922.228577532087,333.92857448032925,3503,922.228577532087,333.92857448032925,3604,922.228577532087,333.92857448032925,3704,922.228577532087,333.92857448032925,3804,922.228577532087,333.92857448032925,3905,922.228577532087,333.92857448032925,4022,922.228577532087,333.92857448032925,4135,922.228577532087,333.92857448032925,4254,922.228577532087,333.92857448032925,4368,922.228577532087,333.92857448032925,4471,922.228577532087,333.92857448032925,4571,922.228577532087,333.92857448032925,4672,922.228577532087,333.92857448032925,4772,922.228577532087,333.92857448032925,4872,922.228577532087,333.92857448032925,4973]","[1625,1625,1000,0,625,""oops"",""down"",""left"",""bad_move"",4770,3145,2064.5,1625,1080.5,""smooth"",""down"",""down"",""good_move"",7819,3049,2628.4,4770,420.6,""smooth"",""right"",""right"",""good_move"",10565,2745,1879.7,7820,865.3,""smooth"",""down"",""down"",""good_move"",13325,2760,2330.9,10565,429.1,""smooth"",""right"",""right"",""good_move"",15951,2626,2156.3,13325,469.7,""smooth"",""right"",""right"",""good_move""]","",""
"2334","","<div style=""width:500px;"">
  <p>What determined the result of this run?</p>
