"rt","response_timestamp","stimulus","response","trial_type","trial_index","time_elapsed","internal_node_id","run_id","condition","recorded_at","source_code_version","ip","user_agent","device","browser","browser_version","platform","platform_version","referer","accept_language","PROLIFIC_PID","STUDY_ID","SESSION_ID","WEEK","BATCH","prolific_id","week","batch","realtime","success","responses","item_order","radio_event_ids","radio_event_times","key_event_times","mouse_event_times","straightlining","zigzagging","honeypot","eventType","view_history","slider_start","which_type","canvas_config","goals_layout","control_level","trial_number","tutorial_trial_number","trial_start_time","phase1_start_time","phase2_start_time","phase3_start_time","goal_1_value","goal_1_distance","goal_2_value","goal_2_distance","goal_selected","outcome","outcome_total","participant_final_score","participant_initial_score","participant_final_score_prop","goal_choice_rt","allocated_time","allocated_time_remaining","goal_direction","counts","mouse_movements","key_presses","question_order","question_id"
"9617","1752654158196","<p style='font-size:40px;line-height:1.25'><strong>Welcome to the experiment!</strong></p><p style='font-size:1.1em;line-height:1.25'>Thank you for participanting in our experiment again! You will be asked to play the Dysfunctional Ball Game again. We will briefly recap the rules before we start.</p><p style='font-size:1.1em;line-height:1.25'>Press <strong>Next</strong> to continue.</p>","0","custom-html-button-response","0","9620","0.0-0.0","54","1","2025-07-16 08:22:27","1f75c3e559b7213887762d5229550c2b","105.245.233.173","Mozilla/5.0 (Windows NT 10.0; Win64; x64) AppleWebKit/537.36 (KHTML, like Gecko) Chrome/138.0.0.0 Safari/537.36","WebKit","Chrome","138.0.0.0","Windows","10.0","https://app.prolific.com/","en-US,en;q=0.9","650ac282d9578d72800bf303","686e379bc37a29ffa5cdc956","68776130e2c104d5ab474084","1","1","650ac282d9578d72800bf303","1","1","2025-07-16T08:22:38.198Z","","","","","","","","","","","","","","","","","","","","","","","","","","","","","","","","","","","","","","","","","",""
"30080","","","","fullscreen","1","40711","0.0-1.0","54","1","2025-07-16 08:22:27","1f75c3e559b7213887762d5229550c2b","105.245.233.173","Mozilla/5.0 (Windows NT 10.0; Win64; x64) AppleWebKit/537.36 (KHTML, like Gecko) Chrome/138.0.0.0 Safari/537.36","WebKit","Chrome","138.0.0.0","Windows","10.0","https://app.prolific.com/","en-US,en;q=0.9","650ac282d9578d72800bf303","686e379bc37a29ffa5cdc956","68776130e2c104d5ab474084","1","1","650ac282d9578d72800bf303","1","1","","true","","","","","","","","","","","","","","","","","","","","","","","","","","","","","","","","","","","","","","","","",""
"3804","1752654193096","<p style='font-size:1.1em;line-height:1.25'>In the following, we will ask you a few questions relating to your feelings in the last 24 hours.<br></p><p style='font-size:1.1em;line-height:1.25'>Press the <strong>Next</strong> button to continue.</p>","0","custom-html-button-response","2","44518","0.0-2.0-0.0","54","1","2025-07-16 08:22:27","1f75c3e559b7213887762d5229550c2b","105.245.233.173","Mozilla/5.0 (Windows NT 10.0; Win64; x64) AppleWebKit/537.36 (KHTML, like Gecko) Chrome/138.0.0.0 Safari/537.36","WebKit","Chrome","138.0.0.0","Windows","10.0","https://app.prolific.com/","en-US,en;q=0.9","650ac282d9578d72800bf303","686e379bc37a29ffa5cdc956","68776130e2c104d5ab474084","1","1","650ac282d9578d72800bf303","1","1","2025-07-16T08:23:13.096Z","","","","","","","","","","","","","","","","","","","","","","","","","","","","","","","","","","","","","","","","","",""
"136384.90000000596","","","","survey-template","3","180908","0.0-2.0-1.0","54","1","2025-07-16 08:22:27","1f75c3e559b7213887762d5229550c2b","105.245.233.173","Mozilla/5.0 (Windows NT 10.0; Win64; x64) AppleWebKit/537.36 (KHTML, like Gecko) Chrome/138.0.0.0 Safari/537.36","WebKit","Chrome","138.0.0.0","Windows","10.0","https://app.prolific.com/","en-US,en;q=0.9","650ac282d9578d72800bf303","686e379bc37a29ffa5cdc956","68776130e2c104d5ab474084","1","1","650ac282d9578d72800bf303","1","1","2025-07-16T08:25:29.486Z","","{""Q01"":""1"",""Q02"":""1"",""Q03"":""2"",""Q04"":""3"",""Q05"":""0"",""Q06"":""0"",""Q07"":""0"",""Q08"":""1"",""Q09"":""1"",""Q10"":""2"",""Q11"":""3"",""Q12"":""2"",""Q13"":""5"",""Q14"":""3"",""Q15"":""3"",""Q16"":""2"",""Q17"":""2"",""Q18"":""2"",""Q19"":""2"",""Q20"":""2"",""Q21"":""1"",""Q22"":""2""}","[0,1,2,3,4,5,6,7,8,9,10,11,12,13,14,15,16,17,18,19,20,21]","[""Q01"",""Q02"",""Q03"",""Q04"",""Q05"",""Q06"",""Q07"",""Q08"",""Q09"",""Q10"",""Q11"",""Q12"",""Q13"",""Q14"",""Q15"",""Q16"",""Q17"",""Q18"",""Q19"",""Q20"",""Q21"",""Q22""]","[4443.800000011921,7292.300000011921,9562.699999988079,11335.90000000596,16204.699999988079,17977.59999999404,19309.30000001192,23079.40000000596,52926.5,56403.09999999404,60586.30000001192,73463.19999998808,75533.40000000596,80531.09999999404,85768.09999999404,91132.59999999404,106407.30000001192,112749.30000001192,114182,122949.09999999404,131878.80000001192,134259.40000000596]","[]","[0,4443.800000011921,7292.300000011921,9562.699999988079,11335.90000000596,16204.699999988079,17977.59999999404,19309.30000001192,23079.40000000596,52926.5,56403.09999999404,60586.30000001192,73463.19999998808,75533.40000000596,80531.09999999404,85768.09999999404,91132.59999999404,106407.30000001192,112749.30000001192,114182,122949.09999999404,128933.59999999404,130905.19999998808,131878.80000001192,134259.40000000596,136382]","0.4090909090909091","0.42857142857142855","0","drsp","","","","","","","","","","","","","","","","","","","","","","","","","","","","","","",""
"13859","","","","survey-template","4","194768","0.0-2.0-2.0","54","1","2025-07-16 08:22:27","1f75c3e559b7213887762d5229550c2b","105.245.233.173","Mozilla/5.0 (Windows NT 10.0; Win64; x64) AppleWebKit/537.36 (KHTML, like Gecko) Chrome/138.0.0.0 Safari/537.36","WebKit","Chrome","138.0.0.0","Windows","10.0","https://app.prolific.com/","en-US,en;q=0.9","650ac282d9578d72800bf303","686e379bc37a29ffa5cdc956","68776130e2c104d5ab474084","1","1","650ac282d9578d72800bf303","1","1","2025-07-16T08:25:43.347Z","","{""Q01"":""2"",""Q02"":""2"",""Q03"":""3""}","[0,1,2]","[""Q01"",""Q02"",""Q03""]","[7508.199999988079,9509.699999988079,12642.699999988079]","[]","[5791.299999982119,7508.199999988079,9509.699999988079,12642.699999988079,13858.5]","0.6666666666666666","0.5","0","stress","","","","","","","","","","","","","","","","","","","","","","","","","","","","","","",""
"135417","","","","instructions","5","330186","0.0-3.0-0.0","54","1","2025-07-16 08:22:27","1f75c3e559b7213887762d5229550c2b","105.245.233.173","Mozilla/5.0 (Windows NT 10.0; Win64; x64) AppleWebKit/537.36 (KHTML, like Gecko) Chrome/138.0.0.0 Safari/537.36","WebKit","Chrome","138.0.0.0","Windows","10.0","https://app.prolific.com/","en-US,en;q=0.9","650ac282d9578d72800bf303","686e379bc37a29ffa5cdc956","68776130e2c104d5ab474084","1","1","650ac282d9578d72800bf303","1","1","","","","","","","","","","","","","[{""page_index"":0,""viewing_time"":135416}]","","","","","","","","","","","","","","","","","","","","","","","","","","","","","",""
"6450","","<p>Before you start with this game please answer the following three questions yourself. </p>
  <p>Through this game, we measure several aspects of your cognitive performance, such as reaction times, multi-tasking capabilities </p>
  <p>and the ability to assess the situation you are in.</p>
  <p></p>
  <p><b>How good do you usually are in such tasks?</b></p>","41","html-slider-response","6","336638","0.0-4.0-0.0","54","1","2025-07-16 08:22:27","1f75c3e559b7213887762d5229550c2b","105.245.233.173","Mozilla/5.0 (Windows NT 10.0; Win64; x64) AppleWebKit/537.36 (KHTML, like Gecko) Chrome/138.0.0.0 Safari/537.36","WebKit","Chrome","138.0.0.0","Windows","10.0","https://app.prolific.com/","en-US,en;q=0.9","650ac282d9578d72800bf303","686e379bc37a29ffa5cdc956","68776130e2c104d5ab474084","1","1","650ac282d9578d72800bf303","1","1","2025-07-16T08:28:05.216Z","","","","","","","","","","","PreSkillQ","","50","","","","","","","","","","","","","","","","","","","","","","","","","","","","",""
"4130","","<div style=""width:500px;"">
  <p>How well do you think you will perform in this task compared to other participants?</p>
  </div>","59","html-slider-response","7","340770","0.0-4.0-1.0","54","1","2025-07-16 08:22:27","1f75c3e559b7213887762d5229550c2b","105.245.233.173","Mozilla/5.0 (Windows NT 10.0; Win64; x64) AppleWebKit/537.36 (KHTML, like Gecko) Chrome/138.0.0.0 Safari/537.36","WebKit","Chrome","138.0.0.0","Windows","10.0","https://app.prolific.com/","en-US,en;q=0.9","650ac282d9578d72800bf303","686e379bc37a29ffa5cdc956","68776130e2c104d5ab474084","1","1","650ac282d9578d72800bf303","1","1","2025-07-16T08:28:09.348Z","","","","","","","","","","","PrePerfQ","","50","","","","","","","","","","","","","","","","","","","","","","","","","","","","",""
"28882","","<div style=""width:500px;"">
  <p>What best describes how you currently feel?</p>
  </div>","12","html-slider-response","8","369653","0.0-4.0-2.0","54","1","2025-07-16 08:22:27","1f75c3e559b7213887762d5229550c2b","105.245.233.173","Mozilla/5.0 (Windows NT 10.0; Win64; x64) AppleWebKit/537.36 (KHTML, like Gecko) Chrome/138.0.0.0 Safari/537.36","WebKit","Chrome","138.0.0.0","Windows","10.0","https://app.prolific.com/","en-US,en;q=0.9","650ac282d9578d72800bf303","686e379bc37a29ffa5cdc956","68776130e2c104d5ab474084","1","1","650ac282d9578d72800bf303","1","1","2025-07-16T08:28:38.231Z","","","","","","","","","","","PreMotivationQ","","50","","","","","","","","","","","","","","","","","","","","","","","","","","","","",""
"","","","","ctl-task-cpt","9","440685","0.0-5.0-0.0","54","1","2025-07-16 08:22:27","1f75c3e559b7213887762d5229550c2b","105.245.233.173","Mozilla/5.0 (Windows NT 10.0; Win64; x64) AppleWebKit/537.36 (KHTML, like Gecko) Chrome/138.0.0.0 Safari/537.36","WebKit","Chrome","138.0.0.0","Windows","10.0","https://app.prolific.com/","en-US,en;q=0.9","650ac282d9578d72800bf303","686e379bc37a29ffa5cdc956","68776130e2c104d5ab474084","1","1","650ac282d9578d72800bf303","1","1","2025-07-16T08:29:49.264Z","","","","","","","","","","","","","","win-only","2","g1:SE,g2:NW","1","1","0","372775.4","21149.7","26152.8","68020.3","1","4","8","6","2","8","5","5","0","0.03787878787878788","2036.5","3000","225","[""left"",""up""]","{""num_key_presses"":10,""num_perfect"":6,""num_errors"":3,""num_randdir"":0,""num_randdir_good_moves"":0,""num_whilered"":1,""num_whileblue"":0,""num_blue"":4,""num_good_moves"":6}","[288.22232142857143,292.12857142857143,0.7,288.22232142857143,292.12857142857143,100.6,288.22232142857143,292.12857142857143,201.4,288.22232142857143,292.12857142857143,301.8,288.22232142857143,292.12857142857143,406.5,288.22232142857143,292.12857142857143,506.8,288.22232142857143,292.12857142857143,607.2,103.22232142857143,157.12857142857143,710.7,18.222321428571426,44.128571428571426,812.4,17.222321428571426,39.128571428571426,912.5,34.222321428571426,31.128571428571426,1016.6,43.222321428571426,32.128571428571426,1122.5,43.222321428571426,32.128571428571426,1226.5,43.222321428571426,32.128571428571426,1326.7,43.222321428571426,32.128571428571426,1431.7,43.222321428571426,32.128571428571426,1537.7,43.222321428571426,32.128571428571426,1644.2,43.222321428571426,32.128571428571426,1746.1,43.222321428571426,32.128571428571426,1846.5,43.222321428571426,32.128571428571426,1946.5,43.222321428571426,32.128571428571426,2052.1,43.222321428571426,32.128571428571426,2156.8,43.222321428571426,32.128571428571426,2261.1,43.222321428571426,32.128571428571426,2361.5,43.222321428571426,32.128571428571426,2461.9,43.222321428571426,32.128571428571426,2566.6,43.222321428571426,32.128571428571426,2672.2,43.222321428571426,32.128571428571426,2772.5,43.222321428571426,32.128571428571426,2876.4,43.222321428571426,32.128571428571426,2976.9,43.222321428571426,32.128571428571426,3081.3,43.222321428571426,32.128571428571426,3181.6,43.222321428571426,32.128571428571426,3287.2,43.222321428571426,32.128571428571426,3387.4,43.222321428571426,32.128571428571426,3491.2,43.222321428571426,32.128571428571426,3592,43.222321428571426,32.128571428571426,3697.1,43.222321428571426,32.128571428571426,3801.7,43.222321428571426,32.128571428571426,3906.8,43.222321428571426,32.128571428571426,4010.8,43.222321428571426,32.128571428571426,4110.9,43.222321428571426,32.128571428571426,4211.3,43.222321428571426,32.128571428571426,4316.6,43.222321428571426,32.128571428571426,4416.9,43.222321428571426,32.128571428571426,4517.3,43.222321428571426,32.128571428571426,4622.6,43.222321428571426,32.128571428571426,4727.2,43.222321428571426,32.128571428571426,4832,43.222321428571426,32.128571428571426,4933.1]","[866.8,866.9,1000,0,-133.1,""error"",""-"",""-"",""no_move"",1102.3,235.1,1000,0,102.3,""while_red"",""-"",""-"",""no_move"",6413.9,5546.7,2746.2,1868.9,1798.8,""smooth"",""up"",""up"",""good_move"",11883.3,5468.6,2607.4,9819,-543.1,""error"",""-"",""-"",""no_move"",16305.9,4422.4,3276.1,12888.1,141.7,""smooth"",""up"",""up"",""good_move"",26808.7,10502.5,2107.5,24326.1,375.1,""smooth"",""up"",""up"",""good_move"",30715.8,3906.8,2365,30318.1,-1967.3,""error"",""-"",""-"",""no_move"",34861.1,4145.1,1885.3,31718.1,1257.7,""smooth"",""left"",""left"",""good_move"",39226.5,4364.5,2514.6,34862,1849.9,""smooth"",""left"",""left"",""good_move"",41773.5,2546.5,2087.1,39227.1,459.3,""smooth"",""left"",""left"",""good_move""]","",""
"5189","","<div style=""width:500px;"">
  <p>What determined the result of this run?</p>
  </div>","11","html-slider-response","10","445877","0.0-5.0-1.0","54","1","2025-07-16 08:22:27","1f75c3e559b7213887762d5229550c2b","105.245.233.173","Mozilla/5.0 (Windows NT 10.0; Win64; x64) AppleWebKit/537.36 (KHTML, like Gecko) Chrome/138.0.0.0 Safari/537.36","WebKit","Chrome","138.0.0.0","Windows","10.0","https://app.prolific.com/","en-US,en;q=0.9","650ac282d9578d72800bf303","686e379bc37a29ffa5cdc956","68776130e2c104d5ab474084","1","1","650ac282d9578d72800bf303","1","1","2025-07-16T08:29:54.455Z","","","","","","","","","","","AttribQ","","50","","","","","","","","","","","","","","","","","","","","","","","","","","","","",""
"4962","","<div style=""width:500px;"">
  <p>How much control did you have over the ball?</p>
  </div>","74","html-slider-response","11","450840","0.0-5.0-2.0","54","1","2025-07-16 08:22:27","1f75c3e559b7213887762d5229550c2b","105.245.233.173","Mozilla/5.0 (Windows NT 10.0; Win64; x64) AppleWebKit/537.36 (KHTML, like Gecko) Chrome/138.0.0.0 Safari/537.36","WebKit","Chrome","138.0.0.0","Windows","10.0","https://app.prolific.com/","en-US,en;q=0.9","650ac282d9578d72800bf303","686e379bc37a29ffa5cdc956","68776130e2c104d5ab474084","1","1","650ac282d9578d72800bf303","1","1","2025-07-16T08:29:59.418Z","","","","","","","","","","","ControlQ","","50","","","","","","","","","","","","","","","","","","","","","","","","","","","","",""
"5622","","<div style=""width:500px;"">
  <p>How would you describe your current emotional state?</p>
  </div>","55","html-slider-response","12","456462","0.0-5.0-3.0","54","1","2025-07-16 08:22:27","1f75c3e559b7213887762d5229550c2b","105.245.233.173","Mozilla/5.0 (Windows NT 10.0; Win64; x64) AppleWebKit/537.36 (KHTML, like Gecko) Chrome/138.0.0.0 Safari/537.36","WebKit","Chrome","138.0.0.0","Windows","10.0","https://app.prolific.com/","en-US,en;q=0.9","650ac282d9578d72800bf303","686e379bc37a29ffa5cdc956","68776130e2c104d5ab474084","1","1","650ac282d9578d72800bf303","1","1","2025-07-16T08:30:05.041Z","","","","","","","","","","","StressQ","","50","","","","","","","","","","","","","","","","","","","","","","","","","","","","",""
"5067","","<div style=""width:500px;"">
  <p>What best describes how you currently feel?</p>
  </div>","26","html-slider-response","13","461530","0.0-5.0-4.0","54","1","2025-07-16 08:22:27","1f75c3e559b7213887762d5229550c2b","105.245.233.173","Mozilla/5.0 (Windows NT 10.0; Win64; x64) AppleWebKit/537.36 (KHTML, like Gecko) Chrome/138.0.0.0 Safari/537.36","WebKit","Chrome","138.0.0.0","Windows","10.0","https://app.prolific.com/","en-US,en;q=0.9","650ac282d9578d72800bf303","686e379bc37a29ffa5cdc956","68776130e2c104d5ab474084","1","1","650ac282d9578d72800bf303","1","1","2025-07-16T08:30:10.108Z","","","","","","","","","","","MotivationQ","","50","","","","","","","","","","","","","","","","","","","","","","","","","","","","",""
"","","","","ctl-task-cpt","14","490471","0.0-5.0-0.1","54","1","2025-07-16 08:22:27","1f75c3e559b7213887762d5229550c2b","105.245.233.173","Mozilla/5.0 (Windows NT 10.0; Win64; x64) AppleWebKit/537.36 (KHTML, like Gecko) Chrome/138.0.0.0 Safari/537.36","WebKit","Chrome","138.0.0.0","Windows","10.0","https://app.prolific.com/","en-US,en;q=0.9","650ac282d9578d72800bf303","686e379bc37a29ffa5cdc956","68776130e2c104d5ab474084","1","1","650ac282d9578d72800bf303","1","1","2025-07-16T08:30:39.049Z","","","","","","","","","","","","","","win-only","3","g1:SW,g2:NE","0.9","2","0","464648.4","2407.4","7411.5","25922","1","4","4","6","2","4","4","9","5","0.06818181818181818","1400.3","3000","400","[""up"",""right""]","{""num_key_presses"":6,""num_perfect"":5,""num_errors"":0,""num_randdir"":1,""num_randdir_good_moves"":1,""num_whilered"":0,""num_whileblue"":0,""num_blue"":1,""num_good_moves"":6}","[291.22232142857143,289.12857142857143,0.3,291.22232142857143,289.12857142857143,103.3,291.22232142857143,289.12857142857143,203.6,291.22232142857143,289.12857142857143,308.3,291.22232142857143,289.12857142857143,408.5,291.22232142857143,289.12857142857143,509,291.22232142857143,289.12857142857143,609,376.22232142857143,235.12857142857143,712.9,393.22232142857143,206.12857142857143,813.4,512.2223214285714,51.128571428571426,913.8,529.2223214285714,62.128571428571426,1019.8,528.2223214285714,70.12857142857143,1124.4,517.2223214285714,71.12857142857143,1228,517.2223214285714,71.12857142857143,1329.6,517.2223214285714,71.12857142857143,1434,517.2223214285714,71.12857142857143,1534,517.2223214285714,71.12857142857143,1637.9,517.2223214285714,71.12857142857143,1739,517.2223214285714,71.12857142857143,1843.6,517.2223214285714,71.12857142857143,1944.1,517.2223214285714,71.12857142857143,2044.4,517.2223214285714,71.12857142857143,2147.9,517.2223214285714,71.12857142857143,2248.4,517.2223214285714,71.12857142857143,2349.3,517.2223214285714,71.12857142857143,2453.1,517.2223214285714,71.12857142857143,2553.7,517.2223214285714,71.12857142857143,2654,517.2223214285714,71.12857142857143,2759,517.2223214285714,71.12857142857143,2862.9,517.2223214285714,71.12857142857143,2963,517.2223214285714,71.12857142857143,3063,517.2223214285714,71.12857142857143,3168.9,517.2223214285714,71.12857142857143,3273.2,517.2223214285714,71.12857142857143,3374.4,517.2223214285714,71.12857142857143,3477.9,517.2223214285714,71.12857142857143,3578.6,517.2223214285714,71.12857142857143,3683.6,517.2223214285714,71.12857142857143,3789,517.2223214285714,71.12857142857143,3889.2,517.2223214285714,71.12857142857143,3994.1,517.2223214285714,71.12857142857143,4098.2,517.2223214285714,71.12857142857143,4198.9,517.2223214285714,71.12857142857143,4303.4,517.2223214285714,71.12857142857143,4403.8,517.2223214285714,71.12857142857143,4505,517.2223214285714,71.12857142857143,4608.5,517.2223214285714,71.12857142857143,4709.2,517.2223214285714,71.12857142857143,4813.1,517.2223214285714,71.12857142857143,4913.2]","[1408.6,1408.6,1000,0,408.6,""smooth"",""right"",""right"",""good_move"",7473.8,6064.9,2742.3,4379.3,352.2,""smooth"",""up"",""up"",""good_move"",10721.6,3247.5,2850,7474.1,397.5,""smooth"",""right"",""right"",""good_move"",13694.1,2972.3,2403.3,10721.8,569,""oops"",""up"",""right"",""good_move"",15894.3,2200.1,1703.2,13694.2,496.9,""smooth"",""up"",""up"",""good_move"",18421.2,2526.5,2107.4,15894.7,419.1,""smooth"",""up"",""up"",""good_move""]","",""
"3853","","<div style=""width:500px;"">
  <p>What determined the result of this run?</p>
  </div>","36","html-slider-response","15","494325","0.0-5.0-1.1","54","1","2025-07-16 08:22:27","1f75c3e559b7213887762d5229550c2b","105.245.233.173","Mozilla/5.0 (Windows NT 10.0; Win64; x64) AppleWebKit/537.36 (KHTML, like Gecko) Chrome/138.0.0.0 Safari/537.36","WebKit","Chrome","138.0.0.0","Windows","10.0","https://app.prolific.com/","en-US,en;q=0.9","650ac282d9578d72800bf303","686e379bc37a29ffa5cdc956","68776130e2c104d5ab474084","1","1","650ac282d9578d72800bf303","1","1","2025-07-16T08:30:42.903Z","","","","","","","","","","","AttribQ","","50","","","","","","","","","","","","","","","","","","","","","","","","","","","","",""
"4452","","<div style=""width:500px;"">
  <p>How much control did you have over the ball?</p>
  </div>","67","html-slider-response","16","498778","0.0-5.0-2.1","54","1","2025-07-16 08:22:27","1f75c3e559b7213887762d5229550c2b","105.245.233.173","Mozilla/5.0 (Windows NT 10.0; Win64; x64) AppleWebKit/537.36 (KHTML, like Gecko) Chrome/138.0.0.0 Safari/537.36","WebKit","Chrome","138.0.0.0","Windows","10.0","https://app.prolific.com/","en-US,en;q=0.9","650ac282d9578d72800bf303","686e379bc37a29ffa5cdc956","68776130e2c104d5ab474084","1","1","650ac282d9578d72800bf303","1","1","2025-07-16T08:30:47.356Z","","","","","","","","","","","ControlQ","","50","","","","","","","","","","","","","","","","","","","","","","","","","","","","",""
"6657","","<div style=""width:500px;"">
  <p>How would you describe your current emotional state?</p>
  </div>","37","html-slider-response","17","505435","0.0-5.0-3.1","54","1","2025-07-16 08:22:27","1f75c3e559b7213887762d5229550c2b","105.245.233.173","Mozilla/5.0 (Windows NT 10.0; Win64; x64) AppleWebKit/537.36 (KHTML, like Gecko) Chrome/138.0.0.0 Safari/537.36","WebKit","Chrome","138.0.0.0","Windows","10.0","https://app.prolific.com/","en-US,en;q=0.9","650ac282d9578d72800bf303","686e379bc37a29ffa5cdc956","68776130e2c104d5ab474084","1","1","650ac282d9578d72800bf303","1","1","2025-07-16T08:30:54.013Z","","","","","","","","","","","StressQ","","50","","","","","","","","","","","","","","","","","","","","","","","","","","","","",""
"32121","","<div style=""width:500px;"">
  <p>What best describes how you currently feel?</p>
  </div>","66","html-slider-response","18","537557","0.0-5.0-4.1","54","1","2025-07-16 08:22:27","1f75c3e559b7213887762d5229550c2b","105.245.233.173","Mozilla/5.0 (Windows NT 10.0; Win64; x64) AppleWebKit/537.36 (KHTML, like Gecko) Chrome/138.0.0.0 Safari/537.36","WebKit","Chrome","138.0.0.0","Windows","10.0","https://app.prolific.com/","en-US,en;q=0.9","650ac282d9578d72800bf303","686e379bc37a29ffa5cdc956","68776130e2c104d5ab474084","1","1","650ac282d9578d72800bf303","1","1","2025-07-16T08:31:26.135Z","","","","","","","","","","","MotivationQ","","50","","","","","","","","","","","","","","","","","","","","","","","","","","","","",""
"","","","","ctl-task-cpt","19","574571","0.0-5.0-0.2","54","1","2025-07-16 08:22:27","1f75c3e559b7213887762d5229550c2b","105.245.233.173","Mozilla/5.0 (Windows NT 10.0; Win64; x64) AppleWebKit/537.36 (KHTML, like Gecko) Chrome/138.0.0.0 Safari/537.36","WebKit","Chrome","138.0.0.0","Windows","10.0","https://app.prolific.com/","en-US,en;q=0.9","650ac282d9578d72800bf303","686e379bc37a29ffa5cdc956","68776130e2c104d5ab474084","1","1","650ac282d9578d72800bf303","1","1","2025-07-16T08:32:03.149Z","","","","","","","","","","","","","","win-only","2","g1:SE,g2:NW","0.8","3","0","540679.3","3613.8","8615.8","33991.1","1","4","8","6","2","-8","-9","0","9","0","1634.2","3000","-3015","[""left"",""up""]","{""num_key_presses"":8,""num_perfect"":6,""num_errors"":1,""num_randdir"":1,""num_randdir_good_moves"":0,""num_whilered"":0,""num_whileblue"":0,""num_blue"":0,""num_good_moves"":6}","[294.22232142857143,303.12857142857143,0.2,294.22232142857143,303.12857142857143,102.6,294.22232142857143,303.12857142857143,207,294.22232142857143,303.12857142857143,307.7,294.22232142857143,303.12857142857143,413.9,294.22232142857143,303.12857142857143,517,294.22232142857143,303.12857142857143,618.5,313.22232142857143,318.12857142857143,722.6,319.22232142857143,326.12857142857143,827.2,324.22232142857143,333.12857142857143,927.4,64.22232142857143,216.12857142857143,1032.7,-6.777678571428574,126.12857142857143,1133.2,29.222321428571426,96.12857142857143,1237,42.222321428571426,99.12857142857143,1342.9,48.222321428571426,97.12857142857143,1447.4,48.222321428571426,97.12857142857143,1552,48.222321428571426,97.12857142857143,1652.5,48.222321428571426,97.12857142857143,1756.9,48.222321428571426,97.12857142857143,1860.2,48.222321428571426,97.12857142857143,1962.9,48.222321428571426,97.12857142857143,2063.5,48.222321428571426,97.12857142857143,2166.6,48.222321428571426,97.12857142857143,2267,48.222321428571426,97.12857142857143,2371.4,48.222321428571426,97.12857142857143,2471.8,48.222321428571426,97.12857142857143,2577.2,48.222321428571426,97.12857142857143,2678.6,48.222321428571426,97.12857142857143,2781.5,48.222321428571426,97.12857142857143,2882.1,48.222321428571426,97.12857142857143,2982.4,48.222321428571426,97.12857142857143,3086.7,48.222321428571426,97.12857142857143,3187.2,48.222321428571426,97.12857142857143,3291.6,48.222321428571426,97.12857142857143,3392.4,48.222321428571426,97.12857142857143,3498.5,48.222321428571426,97.12857142857143,3601.5,48.222321428571426,97.12857142857143,3701.9,48.222321428571426,97.12857142857143,3802.8,48.222321428571426,97.12857142857143,3906.7,48.222321428571426,97.12857142857143,4012.1,48.222321428571426,97.12857142857143,4113.3,48.222321428571426,97.12857142857143,4213.5,48.222321428571426,97.12857142857143,4313.5,48.222321428571426,97.12857142857143,4416.5,48.222321428571426,97.12857142857143,4516.6,48.222321428571426,97.12857142857143,4617.2,48.222321428571426,97.12857142857143,4721.5,48.222321428571426,97.12857142857143,4826.4,48.222321428571426,97.12857142857143,4928.5]","[1395.3,1395.3,1000,0,395.3,""smooth"",""up"",""up"",""good_move"",4175.6,2779.9,2364.9,1395.7,415,""smooth"",""up"",""up"",""good_move"",6728.5,2552.8,1989.4,4175.7,563.4,""oops"",""up"",""right"",""bad_move"",9692.8,2964.1,2544.5,6728.7,419.6,""smooth"",""up"",""up"",""good_move"",11997,2304.1,1896.4,9692.9,407.7,""smooth"",""left"",""left"",""good_move"",14334.4,2337.1,3167.1,11997.3,-830,""error"",""-"",""-"",""no_move"",19070,4735.3,3287.7,15335.5,446.8,""smooth"",""left"",""left"",""good_move"",22652.8,3582.7,3205.7,19070.1,377,""smooth"",""left"",""left"",""good_move""]","",""
"3442","","<div style=""width:500px;"">
  <p>What determined the result of this run?</p>
  </div>","13","html-slider-response","20","578014","0.0-5.0-1.2","54","1","2025-07-16 08:22:27","1f75c3e559b7213887762d5229550c2b","105.245.233.173","Mozilla/5.0 (Windows NT 10.0; Win64; x64) AppleWebKit/537.36 (KHTML, like Gecko) Chrome/138.0.0.0 Safari/537.36","WebKit","Chrome","138.0.0.0","Windows","10.0","https://app.prolific.com/","en-US,en;q=0.9","650ac282d9578d72800bf303","686e379bc37a29ffa5cdc956","68776130e2c104d5ab474084","1","1","650ac282d9578d72800bf303","1","1","2025-07-16T08:32:06.592Z","","","","","","","","","","","AttribQ","","50","","","","","","","","","","","","","","","","","","","","","","","","","","","","",""
"4632","","<div style=""width:500px;"">
  <p>How much control did you have over the ball?</p>
  </div>","30","html-slider-response","21","582647","0.0-5.0-2.2","54","1","2025-07-16 08:22:27","1f75c3e559b7213887762d5229550c2b","105.245.233.173","Mozilla/5.0 (Windows NT 10.0; Win64; x64) AppleWebKit/537.36 (KHTML, like Gecko) Chrome/138.0.0.0 Safari/537.36","WebKit","Chrome","138.0.0.0","Windows","10.0","https://app.prolific.com/","en-US,en;q=0.9","650ac282d9578d72800bf303","686e379bc37a29ffa5cdc956","68776130e2c104d5ab474084","1","1","650ac282d9578d72800bf303","1","1","2025-07-16T08:32:11.225Z","","","","","","","","","","","ControlQ","","50","","","","","","","","","","","","","","","","","","","","","","","","","","","","",""
"2703","","<div style=""width:500px;"">
  <p>How would you describe your current emotional state?</p>
  </div>","24","html-slider-response","22","585351","0.0-5.0-3.2","54","1","2025-07-16 08:22:27","1f75c3e559b7213887762d5229550c2b","105.245.233.173","Mozilla/5.0 (Windows NT 10.0; Win64; x64) AppleWebKit/537.36 (KHTML, like Gecko) Chrome/138.0.0.0 Safari/537.36","WebKit","Chrome","138.0.0.0","Windows","10.0","https://app.prolific.com/","en-US,en;q=0.9","650ac282d9578d72800bf303","686e379bc37a29ffa5cdc956","68776130e2c104d5ab474084","1","1","650ac282d9578d72800bf303","1","1","2025-07-16T08:32:13.929Z","","","","","","","","","","","StressQ","","50","","","","","","","","","","","","","","","","","","","","","","","","","","","","",""
"2639","","<div style=""width:500px;"">
  <p>What best describes how you currently feel?</p>
  </div>","26","html-slider-response","23","587991","0.0-5.0-4.2","54","1","2025-07-16 08:22:27","1f75c3e559b7213887762d5229550c2b","105.245.233.173","Mozilla/5.0 (Windows NT 10.0; Win64; x64) AppleWebKit/537.36 (KHTML, like Gecko) Chrome/138.0.0.0 Safari/537.36","WebKit","Chrome","138.0.0.0","Windows","10.0","https://app.prolific.com/","en-US,en;q=0.9","650ac282d9578d72800bf303","686e379bc37a29ffa5cdc956","68776130e2c104d5ab474084","1","1","650ac282d9578d72800bf303","1","1","2025-07-16T08:32:16.569Z","","","","","","","","","","","MotivationQ","","50","","","","","","","","","","","","","","","","","","","","","","","","","","","","",""
"","","","","ctl-task-cpt","24","617339","0.0-5.0-0.3","54","1","2025-07-16 08:22:27","1f75c3e559b7213887762d5229550c2b","105.245.233.173","Mozilla/5.0 (Windows NT 10.0; Win64; x64) AppleWebKit/537.36 (KHTML, like Gecko) Chrome/138.0.0.0 Safari/537.36","WebKit","Chrome","138.0.0.0","Windows","10.0","https://app.prolific.com/","en-US,en;q=0.9","650ac282d9578d72800bf303","686e379bc37a29ffa5cdc956","68776130e2c104d5ab474084","1","1","650ac282d9578d72800bf303","1","1","2025-07-16T08:32:45.918Z","","","","","","","","","","","","","","win-only","1","g1:NE,g2:SW","0.7","4","0","591107.6","1418.3","6421.3","26331.4","1","4","4","6","2","4","3","3","0","0.022727272727272728","1763.5","3000","560","[""down"",""left""]","{""num_key_presses"":7,""num_perfect"":5,""num_errors"":1,""num_randdir"":1,""num_randdir_good_moves"":1,""num_whilered"":0,""num_whileblue"":0,""num_blue"":0,""num_good_moves"":6}","[297.22232142857143,298.12857142857143,0.1,297.22232142857143,298.12857142857143,103,297.22232142857143,298.12857142857143,207.6,297.22232142857143,298.12857142857143,312.7,297.22232142857143,298.12857142857143,413.1,297.22232142857143,298.12857142857143,518.9,297.22232142857143,298.12857142857143,622.9,313.22232142857143,270.12857142857143,722.9,349.22232142857143,238.12857142857143,827,352.22232142857143,238.12857142857143,927.3,282.22232142857143,359.12857142857143,1033.1,63.222321428571426,475.12857142857143,1137.8,4.222321428571426,501.12857142857143,1238,-13.777678571428574,532.1285714285714,1338.9,1.2223214285714263,545.1285714285714,1442.8,32.222321428571426,535.1285714285714,1547.7,33.222321428571426,534.1285714285714,1648.4,33.222321428571426,534.1285714285714,1748.6,33.222321428571426,534.1285714285714,1852.5,33.222321428571426,534.1285714285714,1953,33.222321428571426,534.1285714285714,2057.8,33.222321428571426,534.1285714285714,2157.9,33.222321428571426,534.1285714285714,2257.9,33.222321428571426,534.1285714285714,2365,33.222321428571426,534.1285714285714,2467.7,33.222321428571426,534.1285714285714,2568.1,33.222321428571426,534.1285714285714,2672.8,33.222321428571426,534.1285714285714,2777.3,33.222321428571426,534.1285714285714,2882.4,33.222321428571426,534.1285714285714,2982.8,33.222321428571426,534.1285714285714,3087.7,33.222321428571426,534.1285714285714,3192.2,33.222321428571426,534.1285714285714,3293.1,33.222321428571426,534.1285714285714,3397.8,33.222321428571426,534.1285714285714,3498.9,33.222321428571426,534.1285714285714,3602.7,33.222321428571426,534.1285714285714,3702.9,33.222321428571426,534.1285714285714,3803,33.222321428571426,534.1285714285714,3903.2,33.222321428571426,534.1285714285714,4007.9,33.222321428571426,534.1285714285714,4113.3,33.222321428571426,534.1285714285714,4215,33.222321428571426,534.1285714285714,4315.1,33.222321428571426,534.1285714285714,4417.9,33.222321428571426,534.1285714285714,4522.7,33.222321428571426,534.1285714285714,4627.7,33.222321428571426,534.1285714285714,4732.7,33.222321428571426,534.1285714285714,4836.9,33.222321428571426,534.1285714285714,4937.2]","[915.3,915.3,1000,0,-84.7,""error"",""-"",""-"",""no_move"",4548.9,3633.5,2280.5,1920.1,348.3,""smooth"",""down"",""down"",""good_move"",7560.7,3011.5,2590.8,4549.2,420.7,""smooth"",""left"",""left"",""good_move"",10550.2,2989.3,2500.5,7560.9,488.8,""smooth"",""down"",""down"",""good_move"",13143.7,2593.3,2136.6,10550.4,456.7,""smooth"",""left"",""left"",""good_move"",16573.6,3429.9,3063.4,13143.8,366.5,""smooth"",""down"",""down"",""good_move"",19817.8,3243.9,2843.2,16574,400.6,""oops"",""left"",""left"",""good_move""]","",""
"3765","","<div style=""width:500px;"">
  <p>What determined the result of this run?</p>
  </div>","20","html-slider-response","25","621106","0.0-5.0-1.3","54","1","2025-07-16 08:22:27","1f75c3e559b7213887762d5229550c2b","105.245.233.173","Mozilla/5.0 (Windows NT 10.0; Win64; x64) AppleWebKit/537.36 (KHTML, like Gecko) Chrome/138.0.0.0 Safari/537.36","WebKit","Chrome","138.0.0.0","Windows","10.0","https://app.prolific.com/","en-US,en;q=0.9","650ac282d9578d72800bf303","686e379bc37a29ffa5cdc956","68776130e2c104d5ab474084","1","1","650ac282d9578d72800bf303","1","1","2025-07-16T08:32:49.684Z","","","","","","","","","","","AttribQ","","50","","","","","","","","","","","","","","","","","","","","","","","","","","","","",""
"5907","","<div style=""width:500px;"">
  <p>How much control did you have over the ball?</p>
  </div>","88","html-slider-response","26","627014","0.0-5.0-2.3","54","1","2025-07-16 08:22:27","1f75c3e559b7213887762d5229550c2b","105.245.233.173","Mozilla/5.0 (Windows NT 10.0; Win64; x64) AppleWebKit/537.36 (KHTML, like Gecko) Chrome/138.0.0.0 Safari/537.36","WebKit","Chrome","138.0.0.0","Windows","10.0","https://app.prolific.com/","en-US,en;q=0.9","650ac282d9578d72800bf303","686e379bc37a29ffa5cdc956","68776130e2c104d5ab474084","1","1","650ac282d9578d72800bf303","1","1","2025-07-16T08:32:55.592Z","","","","","","","","","","","ControlQ","","50","","","","","","","","","","","","","","","","","","","","","","","","","","","","",""
"4159","","<div style=""width:500px;"">
  <p>How would you describe your current emotional state?</p>
  </div>","25","html-slider-response","27","631173","0.0-5.0-3.3","54","1","2025-07-16 08:22:27","1f75c3e559b7213887762d5229550c2b","105.245.233.173","Mozilla/5.0 (Windows NT 10.0; Win64; x64) AppleWebKit/537.36 (KHTML, like Gecko) Chrome/138.0.0.0 Safari/537.36","WebKit","Chrome","138.0.0.0","Windows","10.0","https://app.prolific.com/","en-US,en;q=0.9","650ac282d9578d72800bf303","686e379bc37a29ffa5cdc956","68776130e2c104d5ab474084","1","1","650ac282d9578d72800bf303","1","1","2025-07-16T08:32:59.751Z","","","","","","","","","","","StressQ","","50","","","","","","","","","","","","","","","","","","","","","","","","","","","","",""
"4873","","<div style=""width:500px;"">
  <p>What best describes how you currently feel?</p>
  </div>","29","html-slider-response","28","636047","0.0-5.0-4.3","54","1","2025-07-16 08:22:27","1f75c3e559b7213887762d5229550c2b","105.245.233.173","Mozilla/5.0 (Windows NT 10.0; Win64; x64) AppleWebKit/537.36 (KHTML, like Gecko) Chrome/138.0.0.0 Safari/537.36","WebKit","Chrome","138.0.0.0","Windows","10.0","https://app.prolific.com/","en-US,en;q=0.9","650ac282d9578d72800bf303","686e379bc37a29ffa5cdc956","68776130e2c104d5ab474084","1","1","650ac282d9578d72800bf303","1","1","2025-07-16T08:33:04.625Z","","","","","","","","","","","MotivationQ","","50","","","","","","","","","","","","","","","","","","","","","","","","","","","","",""
"","","","","ctl-task-cpt","29","664836","0.0-5.0-0.4","54","1","2025-07-16 08:22:27","1f75c3e559b7213887762d5229550c2b","105.245.233.173","Mozilla/5.0 (Windows NT 10.0; Win64; x64) AppleWebKit/537.36 (KHTML, like Gecko) Chrome/138.0.0.0 Safari/537.36","WebKit","Chrome","138.0.0.0","Windows","10.0","https://app.prolific.com/","en-US,en;q=0.9","650ac282d9578d72800bf303","686e379bc37a29ffa5cdc956","68776130e2c104d5ab474084","1","1","650ac282d9578d72800bf303","1","1","2025-07-16T08:33:33.414Z","","","","","","","","","","","","","","win-only","3","g1:SW,g2:NE","0.6","5","0","639164","3097.2","8101","25771.1","1","4","4","6","2","-4","-4","0","3","0","2316.6","3000","-3010","[""up"",""right""]","{""num_key_presses"":5,""num_perfect"":2,""num_errors"":0,""num_randdir"":3,""num_randdir_good_moves"":0,""num_whilered"":0,""num_whileblue"":0,""num_blue"":0,""num_good_moves"":2}","[297.22232142857143,298.12857142857143,0.2,297.22232142857143,298.12857142857143,104.2,297.22232142857143,298.12857142857143,208.7,297.22232142857143,298.12857142857143,309.1,297.22232142857143,298.12857142857143,409.4,297.22232142857143,298.12857142857143,509.5,297.22232142857143,298.12857142857143,614.2,297.22232142857143,298.12857142857143,718.4,297.22232142857143,298.12857142857143,823.9,297.22232142857143,299.12857142857143,924.1,315.22232142857143,301.12857142857143,1028,388.22232142857143,295.12857142857143,1131.8,435.22232142857143,289.12857142857143,1233.6,342.22232142857143,338.12857142857143,1333.8,250.22232142857143,378.12857142857143,1434.8,122.22232142857143,457.12857142857143,1538,141.22232142857143,436.12857142857143,1639.1,475.22232142857143,61.128571428571426,1743.9,558.2223214285714,14.128571428571426,1845.1,570.2223214285714,14.128571428571426,1948.9,557.2223214285714,40.128571428571426,2049,547.2223214285714,47.128571428571426,2149.3,547.2223214285714,47.128571428571426,2253.9,547.2223214285714,47.128571428571426,2358.9,547.2223214285714,47.128571428571426,2463.2,547.2223214285714,47.128571428571426,2564.3,547.2223214285714,47.128571428571426,2668.6,547.2223214285714,47.128571428571426,2768.8,547.2223214285714,47.128571428571426,2869.3,547.2223214285714,47.128571428571426,2973.9,547.2223214285714,47.128571428571426,3074.5,547.2223214285714,47.128571428571426,3178.7,547.2223214285714,47.128571428571426,3279,547.2223214285714,47.128571428571426,3379.1,547.2223214285714,47.128571428571426,3479.1,547.2223214285714,47.128571428571426,3583.8,547.2223214285714,47.128571428571426,3688.3,547.2223214285714,47.128571428571426,3789.3,547.2223214285714,47.128571428571426,3895.2,547.2223214285714,47.128571428571426,3999.6,547.2223214285714,47.128571428571426,4104,547.2223214285714,47.128571428571426,4204.3,547.2223214285714,47.128571428571426,4308.4,547.2223214285714,47.128571428571426,4408.5,547.2223214285714,47.128571428571426,4508.9,547.2223214285714,47.128571428571426,4613.7,547.2223214285714,47.128571428571426,4718.2,547.2223214285714,47.128571428571426,4818.3,547.2223214285714,47.128571428571426,4918.9]","[1438,1438,1000,0,438,""oops"",""up"",""down"",""bad_move"",4903.4,3465,3036.1,1438.4,428.9,""oops"",""up"",""left"",""bad_move"",8788.4,3884.6,3490.6,4903.8,394,""smooth"",""up"",""up"",""good_move"",12105.5,3316.7,2591.5,8788.8,725.2,""smooth"",""up"",""up"",""good_move"",14709.4,2603.7,1893.2,12105.7,710.5,""oops"",""up"",""down"",""bad_move""]","",""
"3450","","<div style=""width:500px;"">
  <p>What determined the result of this run?</p>
  </div>","3","html-slider-response","30","668287","0.0-5.0-1.4","54","1","2025-07-16 08:22:27","1f75c3e559b7213887762d5229550c2b","105.245.233.173","Mozilla/5.0 (Windows NT 10.0; Win64; x64) AppleWebKit/537.36 (KHTML, like Gecko) Chrome/138.0.0.0 Safari/537.36","WebKit","Chrome","138.0.0.0","Windows","10.0","https://app.prolific.com/","en-US,en;q=0.9","650ac282d9578d72800bf303","686e379bc37a29ffa5cdc956","68776130e2c104d5ab474084","1","1","650ac282d9578d72800bf303","1","1","2025-07-16T08:33:36.865Z","","","","","","","","","","","AttribQ","","50","","","","","","","","","","","","","","","","","","","","","","","","","","","","",""
"3290","","<div style=""width:500px;"">
  <p>How much control did you have over the ball?</p>
  </div>","5","html-slider-response","31","671578","0.0-5.0-2.4","54","1","2025-07-16 08:22:27","1f75c3e559b7213887762d5229550c2b","105.245.233.173","Mozilla/5.0 (Windows NT 10.0; Win64; x64) AppleWebKit/537.36 (KHTML, like Gecko) Chrome/138.0.0.0 Safari/537.36","WebKit","Chrome","138.0.0.0","Windows","10.0","https://app.prolific.com/","en-US,en;q=0.9","650ac282d9578d72800bf303","686e379bc37a29ffa5cdc956","68776130e2c104d5ab474084","1","1","650ac282d9578d72800bf303","1","1","2025-07-16T08:33:40.156Z","","","","","","","","","","","ControlQ","","50","","","","","","","","","","","","","","","","","","","","","","","","","","","","",""
"3987","","<div style=""width:500px;"">
  <p>How would you describe your current emotional state?</p>
  </div>","20","html-slider-response","32","675566","0.0-5.0-3.4","54","1","2025-07-16 08:22:27","1f75c3e559b7213887762d5229550c2b","105.245.233.173","Mozilla/5.0 (Windows NT 10.0; Win64; x64) AppleWebKit/537.36 (KHTML, like Gecko) Chrome/138.0.0.0 Safari/537.36","WebKit","Chrome","138.0.0.0","Windows","10.0","https://app.prolific.com/","en-US,en;q=0.9","650ac282d9578d72800bf303","686e379bc37a29ffa5cdc956","68776130e2c104d5ab474084","1","1","650ac282d9578d72800bf303","1","1","2025-07-16T08:33:44.144Z","","","","","","","","","","","StressQ","","50","","","","","","","","","","","","","","","","","","","","","","","","","","","","",""
"4688","","<div style=""width:500px;"">
  <p>What best describes how you currently feel?</p>
  </div>","22","html-slider-response","33","680255","0.0-5.0-4.4","54","1","2025-07-16 08:22:27","1f75c3e559b7213887762d5229550c2b","105.245.233.173","Mozilla/5.0 (Windows NT 10.0; Win64; x64) AppleWebKit/537.36 (KHTML, like Gecko) Chrome/138.0.0.0 Safari/537.36","WebKit","Chrome","138.0.0.0","Windows","10.0","https://app.prolific.com/","en-US,en;q=0.9","650ac282d9578d72800bf303","686e379bc37a29ffa5cdc956","68776130e2c104d5ab474084","1","1","650ac282d9578d72800bf303","1","1","2025-07-16T08:33:48.833Z","","","","","","","","","","","MotivationQ","","50","","","","","","","","","","","","","","","","","","","","","","","","","","","","",""
"","","","","ctl-task-cpt","34","711827","0.0-5.0-0.5","54","1","2025-07-16 08:22:27","1f75c3e559b7213887762d5229550c2b","105.245.233.173","Mozilla/5.0 (Windows NT 10.0; Win64; x64) AppleWebKit/537.36 (KHTML, like Gecko) Chrome/138.0.0.0 Safari/537.36","WebKit","Chrome","138.0.0.0","Windows","10.0","https://app.prolific.com/","en-US,en;q=0.9","650ac282d9578d72800bf303","686e379bc37a29ffa5cdc956","68776130e2c104d5ab474084","1","1","650ac282d9578d72800bf303","1","1","2025-07-16T08:34:20.405Z","","","","","","","","","","","","","","win-only","2","g1:SE,g2:NW","0.5","6","0","683372.6","3558","8561.5","28551.3","1","4","8","6","2","-8","-9","0","0","0","1379.5","3000","-2945","[""left"",""up""]","{""num_key_presses"":7,""num_perfect"":3,""num_errors"":1,""num_randdir"":3,""num_randdir_good_moves"":2,""num_whilered"":0,""num_whileblue"":0,""num_blue"":0,""num_good_moves"":5}","[297.22232142857143,292.12857142857143,0.2,297.22232142857143,292.12857142857143,103.6,297.22232142857143,292.12857142857143,204.3,297.22232142857143,292.12857142857143,308.4,297.22232142857143,292.12857142857143,412.9,297.22232142857143,292.12857142857143,513.3,309.22232142857143,311.12857142857143,618.4,292.22232142857143,340.12857142857143,724.1,126.22232142857143,194.12857142857143,827.9,115.22232142857143,165.12857142857143,933.4,86.22232142857143,114.12857142857143,1033.6,39.222321428571426,51.128571428571426,1133.7,33.222321428571426,39.128571428571426,1238.6,33.222321428571426,39.128571428571426,1344.4,33.222321428571426,39.128571428571426,1448,33.222321428571426,39.128571428571426,1549.5,33.222321428571426,39.128571428571426,1653.3,33.222321428571426,39.128571428571426,1758.3,414.22232142857143,215.12857142857143,1862.7,508.22232142857143,251.12857142857143,1967.9,508.22232142857143,251.12857142857143,2072.9,508.22232142857143,251.12857142857143,2173.7,508.22232142857143,251.12857142857143,2274.2,508.22232142857143,251.12857142857143,2375,508.22232142857143,251.12857142857143,2478.6,508.22232142857143,251.12857142857143,2578.7,508.22232142857143,251.12857142857143,2678.8,508.22232142857143,251.12857142857143,2784.2,508.22232142857143,251.12857142857143,2888,508.22232142857143,251.12857142857143,2989.6,508.22232142857143,251.12857142857143,3093.1,508.22232142857143,251.12857142857143,3193.3,508.22232142857143,251.12857142857143,3298.7,508.22232142857143,251.12857142857143,3404,508.22232142857143,251.12857142857143,3509.6,508.22232142857143,251.12857142857143,3611.6,508.22232142857143,251.12857142857143,3713.7,508.22232142857143,251.12857142857143,3815,508.22232142857143,251.12857142857143,3918.1,508.22232142857143,251.12857142857143,4023.4,508.22232142857143,251.12857142857143,4128.4,508.22232142857143,251.12857142857143,4233.4,508.22232142857143,251.12857142857143,4334.5,508.22232142857143,251.12857142857143,4438.2,508.22232142857143,251.12857142857143,4542.9,508.22232142857143,251.12857142857143,4643.4,508.22232142857143,251.12857142857143,4744,508.22232142857143,251.12857142857143,4848.2,508.22232142857143,251.12857142857143,4948.4]","[457.6,457.6,1000,0,-542.4,""error"",""-"",""-"",""no_move"",3997,3539.3,2132.3,1460,404.7,""oops"",""up"",""down"",""bad_move"",6907.2,2909.9,2341.8,3997.3,568.1,""oops"",""up"",""up"",""good_move"",9849.3,2941.8,2507.9,6907.5,433.9,""smooth"",""up"",""up"",""good_move"",12497.8,2648.3,2183,9849.5,465.3,""smooth"",""up"",""up"",""good_move"",14825.5,2327.5,1838.9,12498,488.6,""oops"",""up"",""up"",""good_move"",17099.1,2273.3,1668.7,14825.8,604.6,""smooth"",""left"",""left"",""good_move""]","",""
"5710","","<div style=""width:500px;"">
  <p>What determined the result of this run?</p>
  </div>","31","html-slider-response","35","717538","0.0-5.0-1.5","54","1","2025-07-16 08:22:27","1f75c3e559b7213887762d5229550c2b","105.245.233.173","Mozilla/5.0 (Windows NT 10.0; Win64; x64) AppleWebKit/537.36 (KHTML, like Gecko) Chrome/138.0.0.0 Safari/537.36","WebKit","Chrome","138.0.0.0","Windows","10.0","https://app.prolific.com/","en-US,en;q=0.9","650ac282d9578d72800bf303","686e379bc37a29ffa5cdc956","68776130e2c104d5ab474084","1","1","650ac282d9578d72800bf303","1","1","2025-07-16T08:34:26.116Z","","","","","","","","","","","AttribQ","","50","","","","","","","","","","","","","","","","","","","","","","","","","","","","",""
"4609","","<div style=""width:500px;"">
  <p>How much control did you have over the ball?</p>
  </div>","4","html-slider-response","36","722148","0.0-5.0-2.5","54","1","2025-07-16 08:22:27","1f75c3e559b7213887762d5229550c2b","105.245.233.173","Mozilla/5.0 (Windows NT 10.0; Win64; x64) AppleWebKit/537.36 (KHTML, like Gecko) Chrome/138.0.0.0 Safari/537.36","WebKit","Chrome","138.0.0.0","Windows","10.0","https://app.prolific.com/","en-US,en;q=0.9","650ac282d9578d72800bf303","686e379bc37a29ffa5cdc956","68776130e2c104d5ab474084","1","1","650ac282d9578d72800bf303","1","1","2025-07-16T08:34:30.726Z","","","","","","","","","","","ControlQ","","50","","","","","","","","","","","","","","","","","","","","","","","","","","","","",""
"3801","","<div style=""width:500px;"">
  <p>How would you describe your current emotional state?</p>
  </div>","39","html-slider-response","37","725950","0.0-5.0-3.5","54","1","2025-07-16 08:22:27","1f75c3e559b7213887762d5229550c2b","105.245.233.173","Mozilla/5.0 (Windows NT 10.0; Win64; x64) AppleWebKit/537.36 (KHTML, like Gecko) Chrome/138.0.0.0 Safari/537.36","WebKit","Chrome","138.0.0.0","Windows","10.0","https://app.prolific.com/","en-US,en;q=0.9","650ac282d9578d72800bf303","686e379bc37a29ffa5cdc956","68776130e2c104d5ab474084","1","1","650ac282d9578d72800bf303","1","1","2025-07-16T08:34:34.528Z","","","","","","","","","","","StressQ","","50","","","","","","","","","","","","","","","","","","","","","","","","","","","","",""
"7309","","<div style=""width:500px;"">
  <p>What best describes how you currently feel?</p>
  </div>","39","html-slider-response","38","733260","0.0-5.0-4.5","54","1","2025-07-16 08:22:27","1f75c3e559b7213887762d5229550c2b","105.245.233.173","Mozilla/5.0 (Windows NT 10.0; Win64; x64) AppleWebKit/537.36 (KHTML, like Gecko) Chrome/138.0.0.0 Safari/537.36","WebKit","Chrome","138.0.0.0","Windows","10.0","https://app.prolific.com/","en-US,en;q=0.9","650ac282d9578d72800bf303","686e379bc37a29ffa5cdc956","68776130e2c104d5ab474084","1","1","650ac282d9578d72800bf303","1","1","2025-07-16T08:34:41.838Z","","","","","","","","","","","MotivationQ","","50","","","","","","","","","","","","","","","","","","","","","","","","","","","","",""
"","","","","ctl-task-cpt","39","769524","0.0-5.0-0.6","54","1","2025-07-16 08:22:27","1f75c3e559b7213887762d5229550c2b","105.245.233.173","Mozilla/5.0 (Windows NT 10.0; Win64; x64) AppleWebKit/537.36 (KHTML, like Gecko) Chrome/138.0.0.0 Safari/537.36","WebKit","Chrome","138.0.0.0","Windows","10.0","https://app.prolific.com/","en-US,en;q=0.9","650ac282d9578d72800bf303","686e379bc37a29ffa5cdc956","68776130e2c104d5ab474084","1","1","650ac282d9578d72800bf303","1","1","2025-07-16T08:35:18.102Z","","","","","","","","","","","","","","win-only","2","g1:SE,g2:NW","0.4","7","0","736376.6","2392.8","7396.5","33245.2","1","4","4","6","2","-4","-5","0","0","0","1567.2","3000","-2955","[""left"",""up""]","{""num_key_presses"":5,""num_perfect"":3,""num_errors"":1,""num_randdir"":1,""num_randdir_good_moves"":0,""num_whilered"":0,""num_whileblue"":1,""num_blue"":3,""num_good_moves"":3}","[298.22232142857143,293.12857142857143,0.2,298.22232142857143,293.12857142857143,102.5,298.22232142857143,293.12857142857143,206.8,298.22232142857143,293.12857142857143,307.8,298.22232142857143,293.12857142857143,413.5,298.22232142857143,293.12857142857143,517.5,298.22232142857143,293.12857142857143,619,298.22232142857143,293.12857142857143,723,271.22232142857143,261.12857142857143,823.4,166.22232142857143,116.12857142857143,923.5,136.22232142857143,91.12857142857143,1028.3,110.22232142857143,74.12857142857143,1133.3,96.22232142857143,63.128571428571426,1235.7,89.22232142857143,59.128571428571426,1338.3,87.22232142857143,59.128571428571426,1442.7,87.22232142857143,59.128571428571426,1542.7,87.22232142857143,59.128571428571426,1642.8,87.22232142857143,59.128571428571426,1748.8,87.22232142857143,59.128571428571426,1856.3,87.22232142857143,59.128571428571426,1958.9,87.22232142857143,59.128571428571426,2063,87.22232142857143,59.128571428571426,2167.9,87.22232142857143,59.128571428571426,2273.3,87.22232142857143,59.128571428571426,2373.3,87.22232142857143,59.128571428571426,2473.7,87.22232142857143,59.128571428571426,2577.9,87.22232142857143,59.128571428571426,2678.3,87.22232142857143,59.128571428571426,2782.5,87.22232142857143,59.128571428571426,2888.4,87.22232142857143,59.128571428571426,2992.9,87.22232142857143,59.128571428571426,3093.5,87.22232142857143,59.128571428571426,3198.8,87.22232142857143,59.128571428571426,3303.3,87.22232142857143,59.128571428571426,3407.9,87.22232142857143,59.128571428571426,3508.4,87.22232142857143,59.128571428571426,3613,87.22232142857143,59.128571428571426,3713.1,87.22232142857143,59.128571428571426,3818.5,87.22232142857143,59.128571428571426,3923.4,87.22232142857143,59.128571428571426,4028.1,87.22232142857143,59.128571428571426,4128.1,87.22232142857143,59.128571428571426,4232.9,87.22232142857143,59.128571428571426,4333.6,87.22232142857143,59.128571428571426,4437.9,87.22232142857143,59.128571428571426,4538.9,87.22232142857143,59.128571428571426,4643,87.22232142857143,59.128571428571426,4748.7,87.22232142857143,59.128571428571426,4852.7,87.22232142857143,59.128571428571426,4953.4]","[1468.8,1468.8,1000,0,468.8,""oops"",""up"",""right"",""bad_move"",5200.4,3731.2,3280.6,1469.2,450.6,""while_blue"",""up"",""down"",""bad_move"",8271.5,3070.8,2495.2,5200.7,575.6,""smooth"",""up"",""up"",""good_move"",15299.2,7027.5,3298.9,11599.4,400.9,""smooth"",""up"",""up"",""good_move"",18489.4,3190,1987.1,15299.4,1202.9,""smooth"",""up"",""up"",""good_move""]","",""
"3224","","<div style=""width:500px;"">
  <p>What determined the result of this run?</p>
  </div>","1","html-slider-response","40","772750","0.0-5.0-1.6","54","1","2025-07-16 08:22:27","1f75c3e559b7213887762d5229550c2b","105.245.233.173","Mozilla/5.0 (Windows NT 10.0; Win64; x64) AppleWebKit/537.36 (KHTML, like Gecko) Chrome/138.0.0.0 Safari/537.36","WebKit","Chrome","138.0.0.0","Windows","10.0","https://app.prolific.com/","en-US,en;q=0.9","650ac282d9578d72800bf303","686e379bc37a29ffa5cdc956","68776130e2c104d5ab474084","1","1","650ac282d9578d72800bf303","1","1","2025-07-16T08:35:21.328Z","","","","","","","","","","","AttribQ","","50","","","","","","","","","","","","","","","","","","","","","","","","","","","","",""
"3949","","<div style=""width:500px;"">
  <p>How much control did you have over the ball?</p>
  </div>","5","html-slider-response","41","776700","0.0-5.0-2.6","54","1","2025-07-16 08:22:27","1f75c3e559b7213887762d5229550c2b","105.245.233.173","Mozilla/5.0 (Windows NT 10.0; Win64; x64) AppleWebKit/537.36 (KHTML, like Gecko) Chrome/138.0.0.0 Safari/537.36","WebKit","Chrome","138.0.0.0","Windows","10.0","https://app.prolific.com/","en-US,en;q=0.9","650ac282d9578d72800bf303","686e379bc37a29ffa5cdc956","68776130e2c104d5ab474084","1","1","650ac282d9578d72800bf303","1","1","2025-07-16T08:35:25.278Z","","","","","","","","","","","ControlQ","","50","","","","","","","","","","","","","","","","","","","","","","","","","","","","",""
"3255","","<div style=""width:500px;"">
  <p>How would you describe your current emotional state?</p>
  </div>","5","html-slider-response","42","779955","0.0-5.0-3.6","54","1","2025-07-16 08:22:27","1f75c3e559b7213887762d5229550c2b","105.245.233.173","Mozilla/5.0 (Windows NT 10.0; Win64; x64) AppleWebKit/537.36 (KHTML, like Gecko) Chrome/138.0.0.0 Safari/537.36","WebKit","Chrome","138.0.0.0","Windows","10.0","https://app.prolific.com/","en-US,en;q=0.9","650ac282d9578d72800bf303","686e379bc37a29ffa5cdc956","68776130e2c104d5ab474084","1","1","650ac282d9578d72800bf303","1","1","2025-07-16T08:35:28.534Z","","","","","","","","","","","StressQ","","50","","","","","","","","","","","","","","","","","","","","","","","","","","","","",""
"3597","","<div style=""width:500px;"">
  <p>What best describes how you currently feel?</p>
  </div>","17","html-slider-response","43","783553","0.0-5.0-4.6","54","1","2025-07-16 08:22:27","1f75c3e559b7213887762d5229550c2b","105.245.233.173","Mozilla/5.0 (Windows NT 10.0; Win64; x64) AppleWebKit/537.36 (KHTML, like Gecko) Chrome/138.0.0.0 Safari/537.36","WebKit","Chrome","138.0.0.0","Windows","10.0","https://app.prolific.com/","en-US,en;q=0.9","650ac282d9578d72800bf303","686e379bc37a29ffa5cdc956","68776130e2c104d5ab474084","1","1","650ac282d9578d72800bf303","1","1","2025-07-16T08:35:32.131Z","","","","","","","","","","","MotivationQ","","50","","","","","","","","","","","","","","","","","","","","","","","","","","","","",""
"","","","","ctl-task-cpt","44","830521","0.0-5.0-0.7","54","1","2025-07-16 08:22:27","1f75c3e559b7213887762d5229550c2b","105.245.233.173","Mozilla/5.0 (Windows NT 10.0; Win64; x64) AppleWebKit/537.36 (KHTML, like Gecko) Chrome/138.0.0.0 Safari/537.36","WebKit","Chrome","138.0.0.0","Windows","10.0","https://app.prolific.com/","en-US,en;q=0.9","650ac282d9578d72800bf303","686e379bc37a29ffa5cdc956","68776130e2c104d5ab474084","1","1","650ac282d9578d72800bf303","1","1","2025-07-16T08:36:19.099Z","","","","","","","","","","","","","","win-only","3","g1:SW,g2:NE","0.3","8","0","786669.8","2580.4","7581.6","43954.9","1","4","8","6","2","-8","-8","0","0","0","1484.2","3000","-2955","[""up"",""right""]","{""num_key_presses"":7,""num_perfect"":1,""num_errors"":0,""num_randdir"":6,""num_randdir_good_moves"":4,""num_whilered"":0,""num_whileblue"":0,""num_blue"":4,""num_good_moves"":5}","[301.22232142857143,297.12857142857143,0.1,301.22232142857143,297.12857142857143,105.4,301.22232142857143,297.12857142857143,210.1,301.22232142857143,297.12857142857143,310.5,301.22232142857143,297.12857142857143,415.1,301.22232142857143,297.12857142857143,515.3,301.22232142857143,297.12857142857143,616.4,301.22232142857143,297.12857142857143,722.9,363.22232142857143,213.12857142857143,825.4,475.22232142857143,133.12857142857143,930.3,519.2223214285714,84.12857142857143,1030.8,542.2223214285714,66.12857142857143,1136,545.2223214285714,51.128571428571426,1245,545.2223214285714,51.128571428571426,1347.4,545.2223214285714,51.128571428571426,1450.8,545.2223214285714,51.128571428571426,1551,545.2223214285714,51.128571428571426,1655.1,545.2223214285714,51.128571428571426,1760.2,545.2223214285714,51.128571428571426,1865.3,545.2223214285714,51.128571428571426,1965.3,545.2223214285714,51.128571428571426,2074.3,545.2223214285714,51.128571428571426,2174.7,545.2223214285714,51.128571428571426,2276,545.2223214285714,51.128571428571426,2381.1,545.2223214285714,51.128571428571426,2485.9,545.2223214285714,51.128571428571426,2594,545.2223214285714,51.128571428571426,2695.7,545.2223214285714,51.128571428571426,2796,545.2223214285714,51.128571428571426,2896,545.2223214285714,51.128571428571426,3000.4,545.2223214285714,51.128571428571426,3107.5,545.2223214285714,51.128571428571426,3209.5,545.2223214285714,51.128571428571426,3312,545.2223214285714,51.128571428571426,3415.1,545.2223214285714,51.128571428571426,3515.2,545.2223214285714,51.128571428571426,3616.9,545.2223214285714,51.128571428571426,3721.1,545.2223214285714,51.128571428571426,3825.8,545.2223214285714,51.128571428571426,3929.7,545.2223214285714,51.128571428571426,4030.7,545.2223214285714,51.128571428571426,4131,545.2223214285714,51.128571428571426,4231.2,545.2223214285714,51.128571428571426,4335.2,545.2223214285714,51.128571428571426,4435.7,545.2223214285714,51.128571428571426,4541,545.2223214285714,51.128571428571426,4645.8,545.2223214285714,51.128571428571426,4750.9,545.2223214285714,51.128571428571426,4855.1,545.2223214285714,51.128571428571426,4959.3]","[4920.9,4920.9,2498.1,2008,414.8,""oops"",""right"",""right"",""good_move"",11055.7,6134.6,2026.4,8549.9,479.4,""smooth"",""right"",""right"",""good_move"",17904.7,6848.8,2961.9,14573.9,368.9,""oops"",""up"",""up"",""good_move"",20833.7,2928.9,2430.8,17904.9,498,""oops"",""up"",""up"",""good_move"",24503.4,3669.5,3226,20833.9,443.5,""oops"",""up"",""right"",""good_move"",27590.7,3087,2710.1,24503.7,376.9,""oops"",""up"",""left"",""bad_move"",30354.7,2763.5,2410.8,27591.2,352.7,""oops"",""up"",""down"",""bad_move""]","",""
"3395","","<div style=""width:500px;"">
  <p>What determined the result of this run?</p>
  </div>","0","html-slider-response","45","833917","0.0-5.0-1.7","54","1","2025-07-16 08:22:27","1f75c3e559b7213887762d5229550c2b","105.245.233.173","Mozilla/5.0 (Windows NT 10.0; Win64; x64) AppleWebKit/537.36 (KHTML, like Gecko) Chrome/138.0.0.0 Safari/537.36","WebKit","Chrome","138.0.0.0","Windows","10.0","https://app.prolific.com/","en-US,en;q=0.9","650ac282d9578d72800bf303","686e379bc37a29ffa5cdc956","68776130e2c104d5ab474084","1","1","650ac282d9578d72800bf303","1","1","2025-07-16T08:36:22.495Z","","","","","","","","","","","AttribQ","","50","","","","","","","","","","","","","","","","","","","","","","","","","","","","",""
"4954","","<div style=""width:500px;"">
  <p>How much control did you have over the ball?</p>
  </div>","49","html-slider-response","46","838872","0.0-5.0-2.7","54","1","2025-07-16 08:22:27","1f75c3e559b7213887762d5229550c2b","105.245.233.173","Mozilla/5.0 (Windows NT 10.0; Win64; x64) AppleWebKit/537.36 (KHTML, like Gecko) Chrome/138.0.0.0 Safari/537.36","WebKit","Chrome","138.0.0.0","Windows","10.0","https://app.prolific.com/","en-US,en;q=0.9","650ac282d9578d72800bf303","686e379bc37a29ffa5cdc956","68776130e2c104d5ab474084","1","1","650ac282d9578d72800bf303","1","1","2025-07-16T08:36:27.450Z","","","","","","","","","","","ControlQ","","50","","","","","","","","","","","","","","","","","","","","","","","","","","","","",""
"3298","","<div style=""width:500px;"">
  <p>How would you describe your current emotional state?</p>
  </div>","7","html-slider-response","47","842171","0.0-5.0-3.7","54","1","2025-07-16 08:22:27","1f75c3e559b7213887762d5229550c2b","105.245.233.173","Mozilla/5.0 (Windows NT 10.0; Win64; x64) AppleWebKit/537.36 (KHTML, like Gecko) Chrome/138.0.0.0 Safari/537.36","WebKit","Chrome","138.0.0.0","Windows","10.0","https://app.prolific.com/","en-US,en;q=0.9","650ac282d9578d72800bf303","686e379bc37a29ffa5cdc956","68776130e2c104d5ab474084","1","1","650ac282d9578d72800bf303","1","1","2025-07-16T08:36:30.749Z","","","","","","","","","","","StressQ","","50","","","","","","","","","","","","","","","","","","","","","","","","","","","","",""
"4431","","<div style=""width:500px;"">
  <p>What best describes how you currently feel?</p>
  </div>","14","html-slider-response","48","846602","0.0-5.0-4.7","54","1","2025-07-16 08:22:27","1f75c3e559b7213887762d5229550c2b","105.245.233.173","Mozilla/5.0 (Windows NT 10.0; Win64; x64) AppleWebKit/537.36 (KHTML, like Gecko) Chrome/138.0.0.0 Safari/537.36","WebKit","Chrome","138.0.0.0","Windows","10.0","https://app.prolific.com/","en-US,en;q=0.9","650ac282d9578d72800bf303","686e379bc37a29ffa5cdc956","68776130e2c104d5ab474084","1","1","650ac282d9578d72800bf303","1","1","2025-07-16T08:36:35.180Z","","","","","","","","","","","MotivationQ","","50","","","","","","","","","","","","","","","","","","","","","","","","","","","","",""
"","","","","ctl-task-cpt","49","892091","0.0-5.0-0.8","54","1","2025-07-16 08:22:27","1f75c3e559b7213887762d5229550c2b","105.245.233.173","Mozilla/5.0 (Windows NT 10.0; Win64; x64) AppleWebKit/537.36 (KHTML, like Gecko) Chrome/138.0.0.0 Safari/537.36","WebKit","Chrome","138.0.0.0","Windows","10.0","https://app.prolific.com/","en-US,en;q=0.9","650ac282d9578d72800bf303","686e379bc37a29ffa5cdc956","68776130e2c104d5ab474084","1","1","650ac282d9578d72800bf303","1","1","2025-07-16T08:37:20.669Z","","","","","","","","","","","","","","win-only","3","g1:SW,g2:NE","0.2","9","0","849719.3","1851.8","6858.2","42471.3","1","4","8","6","1","-1","-2","0","0","0","1598.4","3000","-2905","[""down"",""left""]","{""num_key_presses"":6,""num_perfect"":0,""num_errors"":1,""num_randdir"":5,""num_randdir_good_moves"":1,""num_whilered"":0,""num_whileblue"":0,""num_blue"":4,""num_good_moves"":1}","[297.22232142857143,295.12857142857143,0.2,297.22232142857143,295.12857142857143,104.5,297.22232142857143,295.12857142857143,206,297.22232142857143,295.12857142857143,308.5,297.22232142857143,295.12857142857143,409.3,294.22232142857143,281.12857142857143,509.8,319.22232142857143,184.12857142857143,614.9,412.22232142857143,92.12857142857143,719,424.22232142857143,148.12857142857143,819.5,265.22232142857143,331.12857142857143,921.3,158.22232142857143,492.12857142857143,1027.1,138.22232142857143,518.1285714285714,1129.7,78.22232142857143,532.1285714285714,1234.4,46.222321428571426,531.1285714285714,1339.5,33.222321428571426,539.1285714285714,1441.5,33.222321428571426,539.1285714285714,1543.7,33.222321428571426,539.1285714285714,1651.1,33.222321428571426,539.1285714285714,1756.3,33.222321428571426,539.1285714285714,1858.5,33.222321428571426,539.1285714285714,1958.9,33.222321428571426,539.1285714285714,2059.7,33.222321428571426,539.1285714285714,2164,33.222321428571426,539.1285714285714,2264,33.222321428571426,539.1285714285714,2371.9,33.222321428571426,539.1285714285714,2473.7,33.222321428571426,539.1285714285714,2573.7,33.222321428571426,539.1285714285714,2675,33.222321428571426,539.1285714285714,2775.5,33.222321428571426,539.1285714285714,2878.7,33.222321428571426,539.1285714285714,2978.7,33.222321428571426,539.1285714285714,3079.7,33.222321428571426,539.1285714285714,3184.8,33.222321428571426,539.1285714285714,3287.8,33.222321428571426,539.1285714285714,3388.6,33.222321428571426,539.1285714285714,3488.9,33.222321428571426,539.1285714285714,3590.7,33.222321428571426,539.1285714285714,3694.2,33.222321428571426,539.1285714285714,3799.7,33.222321428571426,539.1285714285714,3899.8,33.222321428571426,539.1285714285714,4007.2,33.222321428571426,539.1285714285714,4110.4,33.222321428571426,539.1285714285714,4214,33.222321428571426,539.1285714285714,4319.1,33.222321428571426,539.1285714285714,4423.7,33.222321428571426,539.1285714285714,4524.7,33.222321428571426,539.1285714285714,4628.5,33.222321428571426,539.1285714285714,4729.1,33.222321428571426,539.1285714285714,4834,33.222321428571426,539.1285714285714,4937.2]","[658.7,658.7,1000,0,-341.3,""error"",""-"",""-"",""no_move"",4927.2,4268.3,2874.2,1659.3,393.7,""oops"",""down"",""up"",""bad_move"",7773.9,2846.3,2423,4927.6,423.3,""oops"",""down"",""right"",""bad_move"",14485.2,6711.1,2548.7,11597,339.5,""oops"",""down"",""down"",""good_move"",22024,7538.6,2868.5,18664.4,491.1,""oops"",""down"",""up"",""bad_move"",32142.9,10118.7,2641,28923,578.9,""oops"",""down"",""right"",""bad_move""]","",""
"3121","","<div style=""width:500px;"">
  <p>What determined the result of this run?</p>
  </div>","15","html-slider-response","50","895213","0.0-5.0-1.8","54","1","2025-07-16 08:22:27","1f75c3e559b7213887762d5229550c2b","105.245.233.173","Mozilla/5.0 (Windows NT 10.0; Win64; x64) AppleWebKit/537.36 (KHTML, like Gecko) Chrome/138.0.0.0 Safari/537.36","WebKit","Chrome","138.0.0.0","Windows","10.0","https://app.prolific.com/","en-US,en;q=0.9","650ac282d9578d72800bf303","686e379bc37a29ffa5cdc956","68776130e2c104d5ab474084","1","1","650ac282d9578d72800bf303","1","1","2025-07-16T08:37:23.791Z","","","","","","","","","","","AttribQ","","50","","","","","","","","","","","","","","","","","","","","","","","","","","","","",""
"3179","","<div style=""width:500px;"">
  <p>How much control did you have over the ball?</p>
  </div>","0","html-slider-response","51","898393","0.0-5.0-2.8","54","1","2025-07-16 08:22:27","1f75c3e559b7213887762d5229550c2b","105.245.233.173","Mozilla/5.0 (Windows NT 10.0; Win64; x64) AppleWebKit/537.36 (KHTML, like Gecko) Chrome/138.0.0.0 Safari/537.36","WebKit","Chrome","138.0.0.0","Windows","10.0","https://app.prolific.com/","en-US,en;q=0.9","650ac282d9578d72800bf303","686e379bc37a29ffa5cdc956","68776130e2c104d5ab474084","1","1","650ac282d9578d72800bf303","1","1","2025-07-16T08:37:26.971Z","","","","","","","","","","","ControlQ","","50","","","","","","","","","","","","","","","","","","","","","","","","","","","","",""
"2831","","<div style=""width:500px;"">
  <p>How would you describe your current emotional state?</p>
  </div>","1","html-slider-response","52","901225","0.0-5.0-3.8","54","1","2025-07-16 08:22:27","1f75c3e559b7213887762d5229550c2b","105.245.233.173","Mozilla/5.0 (Windows NT 10.0; Win64; x64) AppleWebKit/537.36 (KHTML, like Gecko) Chrome/138.0.0.0 Safari/537.36","WebKit","Chrome","138.0.0.0","Windows","10.0","https://app.prolific.com/","en-US,en;q=0.9","650ac282d9578d72800bf303","686e379bc37a29ffa5cdc956","68776130e2c104d5ab474084","1","1","650ac282d9578d72800bf303","1","1","2025-07-16T08:37:29.803Z","","","","","","","","","","","StressQ","","50","","","","","","","","","","","","","","","","","","","","","","","","","","","","",""
"2728","","<div style=""width:500px;"">
  <p>What best describes how you currently feel?</p>
  </div>","1","html-slider-response","53","903954","0.0-5.0-4.8","54","1","2025-07-16 08:22:27","1f75c3e559b7213887762d5229550c2b","105.245.233.173","Mozilla/5.0 (Windows NT 10.0; Win64; x64) AppleWebKit/537.36 (KHTML, like Gecko) Chrome/138.0.0.0 Safari/537.36","WebKit","Chrome","138.0.0.0","Windows","10.0","https://app.prolific.com/","en-US,en;q=0.9","650ac282d9578d72800bf303","686e379bc37a29ffa5cdc956","68776130e2c104d5ab474084","1","1","650ac282d9578d72800bf303","1","1","2025-07-16T08:37:32.532Z","","","","","","","","","","","MotivationQ","","50","","","","","","","","","","","","","","","","","","","","","","","","","","","","",""
"","","","","ctl-task-cpt","54","939390","0.0-5.0-0.9","54","1","2025-07-16 08:22:27","1f75c3e559b7213887762d5229550c2b","105.245.233.173","Mozilla/5.0 (Windows NT 10.0; Win64; x64) AppleWebKit/537.36 (KHTML, like Gecko) Chrome/138.0.0.0 Safari/537.36","WebKit","Chrome","138.0.0.0","Windows","10.0","https://app.prolific.com/","en-US,en;q=0.9","650ac282d9578d72800bf303","686e379bc37a29ffa5cdc956","68776130e2c104d5ab474084","1","1","650ac282d9578d72800bf303","1","1","2025-07-16T08:38:07.968Z","","","","","","","","","","","","","","win-only","2","g1:SE,g2:NW","0.4","10","0","907072.4","1742.5","6747.4","32416.1","1","4","4","6","2","-4","-4","0","0","0","3958.8","3000","-2955","[""left"",""up""]","{""num_key_presses"":4,""num_perfect"":2,""num_errors"":0,""num_randdir"":2,""num_randdir_good_moves"":0,""num_whilered"":0,""num_whileblue"":0,""num_blue"":3,""num_good_moves"":2}","[290.22232142857143,298.12857142857143,0.1,290.22232142857143,298.12857142857143,103.8,290.22232142857143,298.12857142857143,209.7,290.22232142857143,298.12857142857143,310.2,290.22232142857143,298.12857142857143,413.3,290.22232142857143,298.12857142857143,518.1,290.22232142857143,298.12857142857143,624.3,290.22232142857143,298.12857142857143,728.7,290.22232142857143,298.12857142857143,833,290.22232142857143,298.12857142857143,934,290.22232142857143,298.12857142857143,1040,290.22232142857143,298.12857142857143,1143.1,290.22232142857143,298.12857142857143,1245.9,290.22232142857143,298.12857142857143,1348.1,290.22232142857143,298.12857142857143,1448.2,290.22232142857143,298.12857142857143,1552.9,290.22232142857143,298.12857142857143,1654.7,290.22232142857143,298.12857142857143,1758,290.22232142857143,298.12857142857143,1860.9,290.22232142857143,298.12857142857143,1963.5,290.22232142857143,298.12857142857143,2063.6,290.22232142857143,298.12857142857143,2168.2,290.22232142857143,298.12857142857143,2268.2,290.22232142857143,298.12857142857143,2368.2,290.22232142857143,298.12857142857143,2468.6,290.22232142857143,298.12857142857143,2573.1,290.22232142857143,298.12857142857143,2677.8,290.22232142857143,298.12857142857143,2777.9,290.22232142857143,298.12857142857143,2878.2,290.22232142857143,298.12857142857143,2983.5,290.22232142857143,298.12857142857143,3083.6,292.22232142857143,299.12857142857143,3183.7,309.22232142857143,310.12857142857143,3283.8,207.22232142857143,159.12857142857143,3388,67.22232142857143,-7.871428571428574,3488.3,55.222321428571426,-10.871428571428574,3588.3,50.222321428571426,1.1285714285714263,3689.4,50.222321428571426,19.128571428571426,3794,50.222321428571426,19.128571428571426,3898.3,50.222321428571426,19.128571428571426,3999,50.222321428571426,19.128571428571426,4103.6,50.222321428571426,19.128571428571426,4209.2,50.222321428571426,19.128571428571426,4313.6,50.222321428571426,19.128571428571426,4414.2,50.222321428571426,19.128571428571426,4518.5,50.222321428571426,19.128571428571426,4619.4,50.222321428571426,19.128571428571426,4728.4,50.222321428571426,19.128571428571426,4828.7,50.222321428571426,19.128571428571426,4934.3]","[5258.3,5258.3,2722.4,2009.1,526.8,""smooth"",""left"",""left"",""good_move"",8688.6,3430,2686.7,5258.6,743.3,""smooth"",""left"",""left"",""good_move"",15796.4,7107.6,3522.6,11806.9,466.9,""oops"",""up"",""right"",""bad_move"",22576.3,6779.8,2381.6,19571.4,623.4,""oops"",""up"",""right"",""bad_move""]","",""
"4830","","<div style=""width:500px;"">
  <p>What determined the result of this run?</p>
  </div>","0","html-slider-response","55","944222","0.0-5.0-1.9","54","1","2025-07-16 08:22:27","1f75c3e559b7213887762d5229550c2b","105.245.233.173","Mozilla/5.0 (Windows NT 10.0; Win64; x64) AppleWebKit/537.36 (KHTML, like Gecko) Chrome/138.0.0.0 Safari/537.36","WebKit","Chrome","138.0.0.0","Windows","10.0","https://app.prolific.com/","en-US,en;q=0.9","650ac282d9578d72800bf303","686e379bc37a29ffa5cdc956","68776130e2c104d5ab474084","1","1","650ac282d9578d72800bf303","1","1","2025-07-16T08:38:12.800Z","","","","","","","","","","","AttribQ","","50","","","","","","","","","","","","","","","","","","","","","","","","","","","","",""
"3544","","<div style=""width:500px;"">
  <p>How much control did you have over the ball?</p>
  </div>","0","html-slider-response","56","947767","0.0-5.0-2.9","54","1","2025-07-16 08:22:27","1f75c3e559b7213887762d5229550c2b","105.245.233.173","Mozilla/5.0 (Windows NT 10.0; Win64; x64) AppleWebKit/537.36 (KHTML, like Gecko) Chrome/138.0.0.0 Safari/537.36","WebKit","Chrome","138.0.0.0","Windows","10.0","https://app.prolific.com/","en-US,en;q=0.9","650ac282d9578d72800bf303","686e379bc37a29ffa5cdc956","68776130e2c104d5ab474084","1","1","650ac282d9578d72800bf303","1","1","2025-07-16T08:38:16.345Z","","","","","","","","","","","ControlQ","","50","","","","","","","","","","","","","","","","","","","","","","","","","","","","",""
"2900","","<div style=""width:500px;"">
  <p>How would you describe your current emotional state?</p>
  </div>","9","html-slider-response","57","950668","0.0-5.0-3.9","54","1","2025-07-16 08:22:27","1f75c3e559b7213887762d5229550c2b","105.245.233.173","Mozilla/5.0 (Windows NT 10.0; Win64; x64) AppleWebKit/537.36 (KHTML, like Gecko) Chrome/138.0.0.0 Safari/537.36","WebKit","Chrome","138.0.0.0","Windows","10.0","https://app.prolific.com/","en-US,en;q=0.9","650ac282d9578d72800bf303","686e379bc37a29ffa5cdc956","68776130e2c104d5ab474084","1","1","650ac282d9578d72800bf303","1","1","2025-07-16T08:38:19.246Z","","","","","","","","","","","StressQ","","50","","","","","","","","","","","","","","","","","","","","","","","","","","","","",""
"5844","","<div style=""width:500px;"">
  <p>What best describes how you currently feel?</p>
  </div>","51","html-slider-response","58","956513","0.0-5.0-4.9","54","1","2025-07-16 08:22:27","1f75c3e559b7213887762d5229550c2b","105.245.233.173","Mozilla/5.0 (Windows NT 10.0; Win64; x64) AppleWebKit/537.36 (KHTML, like Gecko) Chrome/138.0.0.0 Safari/537.36","WebKit","Chrome","138.0.0.0","Windows","10.0","https://app.prolific.com/","en-US,en;q=0.9","650ac282d9578d72800bf303","686e379bc37a29ffa5cdc956","68776130e2c104d5ab474084","1","1","650ac282d9578d72800bf303","1","1","2025-07-16T08:38:25.091Z","","","","","","","","","","","MotivationQ","","50","","","","","","","","","","","","","","","","","","","","","","","","","","","","",""
"","","","","ctl-task-cpt","59","983813","0.0-5.0-0.10","54","1","2025-07-16 08:22:27","1f75c3e559b7213887762d5229550c2b","105.245.233.173","Mozilla/5.0 (Windows NT 10.0; Win64; x64) AppleWebKit/537.36 (KHTML, like Gecko) Chrome/138.0.0.0 Safari/537.36","WebKit","Chrome","138.0.0.0","Windows","10.0","https://app.prolific.com/","en-US,en;q=0.9","650ac282d9578d72800bf303","686e379bc37a29ffa5cdc956","68776130e2c104d5ab474084","1","1","650ac282d9578d72800bf303","1","1","2025-07-16T08:38:52.391Z","","","","","","","","","","","","","","win-only","1","g1:NE,g2:SW","0.5","11","0","959630.5","3803.7","8807.4","24281.1","1","4","8","6","2","-8","-8","0","0","0","1818.7","3000","-2890","[""down"",""left""]","{""num_key_presses"":3,""num_perfect"":2,""num_errors"":0,""num_randdir"":1,""num_randdir_good_moves"":0,""num_whilered"":0,""num_whileblue"":0,""num_blue"":1,""num_good_moves"":2}","[295.22232142857143,299.12857142857143,0.2,295.22232142857143,299.12857142857143,102.5,295.22232142857143,299.12857142857143,211,295.22232142857143,299.12857142857143,312.4,295.22232142857143,299.12857142857143,412.8,295.22232142857143,299.12857142857143,516.7,295.22232142857143,299.12857142857143,617.9,302.22232142857143,289.12857142857143,721.8,313.22232142857143,290.12857142857143,821.9,185.22232142857143,463.12857142857143,927.5,120.22232142857143,504.12857142857143,1032,124.22232142857143,489.12857142857143,1133.4,206.22232142857143,399.12857142857143,1236.9,129.22232142857143,467.12857142857143,1339.5,44.222321428571426,544.1285714285714,1442,39.222321428571426,575.1285714285714,1542.9,38.222321428571426,569.1285714285714,1643.7,38.222321428571426,569.1285714285714,1747.2,38.222321428571426,569.1285714285714,1851.6,38.222321428571426,569.1285714285714,1952.5,38.222321428571426,569.1285714285714,2057.1,38.222321428571426,569.1285714285714,2161.1,38.222321428571426,569.1285714285714,2267.6,38.222321428571426,569.1285714285714,2371.5,38.222321428571426,569.1285714285714,2472.3,38.222321428571426,569.1285714285714,2577.2,38.222321428571426,569.1285714285714,2677.3,38.222321428571426,569.1285714285714,2777.6,38.222321428571426,569.1285714285714,2883.2,38.222321428571426,569.1285714285714,2986.5,38.222321428571426,569.1285714285714,3091.7,38.222321428571426,569.1285714285714,3192.7,38.222321428571426,569.1285714285714,3297.6,38.222321428571426,569.1285714285714,3397.6,38.222321428571426,569.1285714285714,3497.7,38.222321428571426,569.1285714285714,3602.6,38.222321428571426,569.1285714285714,3710.9,38.222321428571426,569.1285714285714,3812.1,38.222321428571426,569.1285714285714,3912.8,38.222321428571426,569.1285714285714,4017.2,38.222321428571426,569.1285714285714,4122.6,38.222321428571426,569.1285714285714,4227.4,38.222321428571426,569.1285714285714,4327.5,38.222321428571426,569.1285714285714,4432.5,38.222321428571426,569.1285714285714,4533.6,38.222321428571426,569.1285714285714,4637.6,38.222321428571426,569.1285714285714,4742.3,38.222321428571426,569.1285714285714,4842.7,38.222321428571426,569.1285714285714,4947.5]","[1557.3,1557.3,1000,0,557.3,""smooth"",""left"",""left"",""good_move"",4613.9,3056.2,2458.1,1557.7,598.1,""smooth"",""left"",""left"",""good_move"",11394.5,6780.5,2603.7,8373.2,417.6,""oops"",""left"",""up"",""bad_move""]","",""
"7344","","<div style=""width:500px;"">
  <p>What determined the result of this run?</p>
  </div>","1","html-slider-response","60","991157","0.0-5.0-1.10","54","1","2025-07-16 08:22:27","1f75c3e559b7213887762d5229550c2b","105.245.233.173","Mozilla/5.0 (Windows NT 10.0; Win64; x64) AppleWebKit/537.36 (KHTML, like Gecko) Chrome/138.0.0.0 Safari/537.36","WebKit","Chrome","138.0.0.0","Windows","10.0","https://app.prolific.com/","en-US,en;q=0.9","650ac282d9578d72800bf303","686e379bc37a29ffa5cdc956","68776130e2c104d5ab474084","1","1","650ac282d9578d72800bf303","1","1","2025-07-16T08:38:59.735Z","","","","","","","","","","","AttribQ","","50","","","","","","","","","","","","","","","","","","","","","","","","","","","","",""
"9211","","<div style=""width:500px;"">
  <p>How much control did you have over the ball?</p>
  </div>","3","html-slider-response","61","1000369","0.0-5.0-2.10","54","1","2025-07-16 08:22:27","1f75c3e559b7213887762d5229550c2b","105.245.233.173","Mozilla/5.0 (Windows NT 10.0; Win64; x64) AppleWebKit/537.36 (KHTML, like Gecko) Chrome/138.0.0.0 Safari/537.36","WebKit","Chrome","138.0.0.0","Windows","10.0","https://app.prolific.com/","en-US,en;q=0.9","650ac282d9578d72800bf303","686e379bc37a29ffa5cdc956","68776130e2c104d5ab474084","1","1","650ac282d9578d72800bf303","1","1","2025-07-16T08:39:08.947Z","","","","","","","","","","","ControlQ","","50","","","","","","","","","","","","","","","","","","","","","","","","","","","","",""
"15790","","<div style=""width:500px;"">
  <p>How would you describe your current emotional state?</p>
  </div>","4","html-slider-response","62","1016161","0.0-5.0-3.10","54","1","2025-07-16 08:22:27","1f75c3e559b7213887762d5229550c2b","105.245.233.173","Mozilla/5.0 (Windows NT 10.0; Win64; x64) AppleWebKit/537.36 (KHTML, like Gecko) Chrome/138.0.0.0 Safari/537.36","WebKit","Chrome","138.0.0.0","Windows","10.0","https://app.prolific.com/","en-US,en;q=0.9","650ac282d9578d72800bf303","686e379bc37a29ffa5cdc956","68776130e2c104d5ab474084","1","1","650ac282d9578d72800bf303","1","1","2025-07-16T08:39:24.739Z","","","","","","","","","","","StressQ","","50","","","","","","","","","","","","","","","","","","","","","","","","","","","","",""
"9264","","<div style=""width:500px;"">
  <p>What best describes how you currently feel?</p>
  </div>","2","html-slider-response","63","1025426","0.0-5.0-4.10","54","1","2025-07-16 08:22:27","1f75c3e559b7213887762d5229550c2b","105.245.233.173","Mozilla/5.0 (Windows NT 10.0; Win64; x64) AppleWebKit/537.36 (KHTML, like Gecko) Chrome/138.0.0.0 Safari/537.36","WebKit","Chrome","138.0.0.0","Windows","10.0","https://app.prolific.com/","en-US,en;q=0.9","650ac282d9578d72800bf303","686e379bc37a29ffa5cdc956","68776130e2c104d5ab474084","1","1","650ac282d9578d72800bf303","1","1","2025-07-16T08:39:34.004Z","","","","","","","","","","","MotivationQ","","50","","","","","","","","","","","","","","","","","","","","","","","","","","","","",""
"","","","","ctl-task-cpt","64","1067490","0.0-5.0-0.11","54","1","2025-07-16 08:22:27","1f75c3e559b7213887762d5229550c2b","105.245.233.173","Mozilla/5.0 (Windows NT 10.0; Win64; x64) AppleWebKit/537.36 (KHTML, like Gecko) Chrome/138.0.0.0 Safari/537.36","WebKit","Chrome","138.0.0.0","Windows","10.0","https://app.prolific.com/","en-US,en;q=0.9","650ac282d9578d72800bf303","686e379bc37a29ffa5cdc956","68776130e2c104d5ab474084","1","1","650ac282d9578d72800bf303","1","1","2025-07-16T08:40:16.068Z","","","","","","","","","","","","","","win-only","1","g1:NE,g2:SW","0.6","12","0","1028542.6","5601.7","10607.2","39046.2","1","4","4","6","2","-4","-5","0","0","0","1416.9","3000","-2830","[""down"",""left""]","{""num_key_presses"":6,""num_perfect"":3,""num_errors"":1,""num_randdir"":2,""num_randdir_good_moves"":1,""num_whilered"":0,""num_whileblue"":0,""num_blue"":3,""num_good_moves"":4}","[300.22232142857143,300.12857142857143,0.2,300.22232142857143,300.12857142857143,105.6,300.22232142857143,300.12857142857143,209.1,300.22232142857143,300.12857142857143,311,300.22232142857143,300.12857142857143,411.6,300.22232142857143,300.12857142857143,519.5,309.22232142857143,306.12857142857143,620.4,316.22232142857143,345.12857142857143,725.2,-20.777678571428574,575.1285714285714,834.9,-24.777678571428574,566.1285714285714,940.1,-17.777678571428574,549.1285714285714,1044.6,23.222321428571426,548.1285714285714,1145.1,46.222321428571426,552.1285714285714,1245.3,46.222321428571426,552.1285714285714,1349.8,46.222321428571426,552.1285714285714,1450,46.222321428571426,552.1285714285714,1555.2,46.222321428571426,552.1285714285714,1659.1,46.222321428571426,552.1285714285714,1761.1,46.222321428571426,552.1285714285714,1867.8,46.222321428571426,552.1285714285714,1970,46.222321428571426,552.1285714285714,2070.2,46.222321428571426,552.1285714285714,2174.6,46.222321428571426,552.1285714285714,2274.9,46.222321428571426,552.1285714285714,2375.9,46.222321428571426,552.1285714285714,2480.4,46.222321428571426,552.1285714285714,2584.6,46.222321428571426,552.1285714285714,2688.9,46.222321428571426,552.1285714285714,2789.4,46.222321428571426,552.1285714285714,2889.6,46.222321428571426,552.1285714285714,2990.5,46.222321428571426,552.1285714285714,3095.1,46.222321428571426,552.1285714285714,3199.1,46.222321428571426,552.1285714285714,3299.3,46.222321428571426,552.1285714285714,3401,46.222321428571426,552.1285714285714,3504.6,46.222321428571426,552.1285714285714,3605.4,46.222321428571426,552.1285714285714,3709,46.222321428571426,552.1285714285714,3809.5,46.222321428571426,552.1285714285714,3909.8,46.222321428571426,552.1285714285714,4015.1,46.222321428571426,552.1285714285714,4119.5,46.222321428571426,552.1285714285714,4224,46.222321428571426,552.1285714285714,4324.6,46.222321428571426,552.1285714285714,4424.7,46.222321428571426,552.1285714285714,4529.1,46.222321428571426,552.1285714285714,4634,46.222321428571426,552.1285714285714,4739.8,46.222321428571426,552.1285714285714,4848.6,46.222321428571426,552.1285714285714,4950]","[395.6,395.6,1000,0,-604.4,""error"",""-"",""-"",""no_move"",6261.3,5865.5,2047.4,3753.9,460,""smooth"",""down"",""down"",""good_move"",9590.1,3328.5,2693.1,6261.6,635.4,""oops"",""down"",""right"",""bad_move"",14605.8,5015.4,2156.6,11964.2,485,""smooth"",""down"",""down"",""good_move"",22511.8,7905.6,3084.6,18994.6,432.6,""smooth"",""left"",""left"",""good_move"",25635.1,3123,2276.8,22512.1,846.2,""oops"",""left"",""down"",""good_move""]","",""
"3453","","<div style=""width:500px;"">
  <p>What determined the result of this run?</p>
  </div>","0","html-slider-response","65","1070944","0.0-5.0-1.11","54","1","2025-07-16 08:22:27","1f75c3e559b7213887762d5229550c2b","105.245.233.173","Mozilla/5.0 (Windows NT 10.0; Win64; x64) AppleWebKit/537.36 (KHTML, like Gecko) Chrome/138.0.0.0 Safari/537.36","WebKit","Chrome","138.0.0.0","Windows","10.0","https://app.prolific.com/","en-US,en;q=0.9","650ac282d9578d72800bf303","686e379bc37a29ffa5cdc956","68776130e2c104d5ab474084","1","1","650ac282d9578d72800bf303","1","1","2025-07-16T08:40:19.522Z","","","","","","","","","","","AttribQ","","50","","","","","","","","","","","","","","","","","","","","","","","","","","","","",""
"3215","","<div style=""width:500px;"">
  <p>How much control did you have over the ball?</p>
  </div>","4","html-slider-response","66","1074160","0.0-5.0-2.11","54","1","2025-07-16 08:22:27","1f75c3e559b7213887762d5229550c2b","105.245.233.173","Mozilla/5.0 (Windows NT 10.0; Win64; x64) AppleWebKit/537.36 (KHTML, like Gecko) Chrome/138.0.0.0 Safari/537.36","WebKit","Chrome","138.0.0.0","Windows","10.0","https://app.prolific.com/","en-US,en;q=0.9","650ac282d9578d72800bf303","686e379bc37a29ffa5cdc956","68776130e2c104d5ab474084","1","1","650ac282d9578d72800bf303","1","1","2025-07-16T08:40:22.738Z","","","","","","","","","","","ControlQ","","50","","","","","","","","","","","","","","","","","","","","","","","","","","","","",""
"2923","","<div style=""width:500px;"">
  <p>How would you describe your current emotional state?</p>
  </div>","2","html-slider-response","67","1077083","0.0-5.0-3.11","54","1","2025-07-16 08:22:27","1f75c3e559b7213887762d5229550c2b","105.245.233.173","Mozilla/5.0 (Windows NT 10.0; Win64; x64) AppleWebKit/537.36 (KHTML, like Gecko) Chrome/138.0.0.0 Safari/537.36","WebKit","Chrome","138.0.0.0","Windows","10.0","https://app.prolific.com/","en-US,en;q=0.9","650ac282d9578d72800bf303","686e379bc37a29ffa5cdc956","68776130e2c104d5ab474084","1","1","650ac282d9578d72800bf303","1","1","2025-07-16T08:40:25.661Z","","","","","","","","","","","StressQ","","50","","","","","","","","","","","","","","","","","","","","","","","","","","","","",""
"2671","","<div style=""width:500px;"">
  <p>What best describes how you currently feel?</p>
  </div>","5","html-slider-response","68","1079755","0.0-5.0-4.11","54","1","2025-07-16 08:22:27","1f75c3e559b7213887762d5229550c2b","105.245.233.173","Mozilla/5.0 (Windows NT 10.0; Win64; x64) AppleWebKit/537.36 (KHTML, like Gecko) Chrome/138.0.0.0 Safari/537.36","WebKit","Chrome","138.0.0.0","Windows","10.0","https://app.prolific.com/","en-US,en;q=0.9","650ac282d9578d72800bf303","686e379bc37a29ffa5cdc956","68776130e2c104d5ab474084","1","1","650ac282d9578d72800bf303","1","1","2025-07-16T08:40:28.334Z","","","","","","","","","","","MotivationQ","","50","","","","","","","","","","","","","","","","","","","","","","","","","","","","",""
"","","","","ctl-task-cpt","69","1112357","0.0-5.0-0.12","54","1","2025-07-16 08:22:27","1f75c3e559b7213887762d5229550c2b","105.245.233.173","Mozilla/5.0 (Windows NT 10.0; Win64; x64) AppleWebKit/537.36 (KHTML, like Gecko) Chrome/138.0.0.0 Safari/537.36","WebKit","Chrome","138.0.0.0","Windows","10.0","https://app.prolific.com/","en-US,en;q=0.9","650ac282d9578d72800bf303","686e379bc37a29ffa5cdc956","68776130e2c104d5ab474084","1","1","650ac282d9578d72800bf303","1","1","2025-07-16T08:41:00.935Z","","","","","","","","","","","","","","win-only","2","g1:SE,g2:NW","0.7","13","0","1082873.4","5192.7","10195.6","29581.3","1","4","8","6","2","-8","-9","0","0","0","1446.6","3000","-2845","[""left"",""up""]","{""num_key_presses"":7,""num_perfect"":5,""num_errors"":1,""num_randdir"":1,""num_randdir_good_moves"":0,""num_whilered"":0,""num_whileblue"":0,""num_blue"":0,""num_good_moves"":5}","[292.22232142857143,293.12857142857143,0.2,292.22232142857143,293.12857142857143,103.4,292.22232142857143,293.12857142857143,209.3,292.22232142857143,293.12857142857143,314,292.22232142857143,293.12857142857143,417.9,292.22232142857143,293.12857142857143,517.9,292.22232142857143,293.12857142857143,627.7,292.22232142857143,293.12857142857143,728,58.222321428571426,109.12857142857143,828.9,33.222321428571426,87.12857142857143,933.1,30.222321428571426,83.12857142857143,1043.3,33.222321428571426,79.12857142857143,1147.8,36.222321428571426,78.12857142857143,1248.7,36.222321428571426,78.12857142857143,1357.9,36.222321428571426,78.12857142857143,1458.8,36.222321428571426,78.12857142857143,1564.7,36.222321428571426,78.12857142857143,1674.3,52.222321428571426,93.12857142857143,1778.2,174.22232142857143,145.12857142857143,1879.3,300.22232142857143,163.12857142857143,1979.8,368.22232142857143,196.12857142857143,2083.1,370.22232142857143,196.12857142857143,2183.1,370.22232142857143,196.12857142857143,2283.1,370.22232142857143,196.12857142857143,2384.5,370.22232142857143,196.12857142857143,2491.9,370.22232142857143,196.12857142857143,2593.1,370.22232142857143,196.12857142857143,2693.2,370.22232142857143,196.12857142857143,2798.6,370.22232142857143,196.12857142857143,2905.6,370.22232142857143,196.12857142857143,3014.6,370.22232142857143,196.12857142857143,3118.6,370.22232142857143,196.12857142857143,3226.7,370.22232142857143,196.12857142857143,3328.6,370.22232142857143,196.12857142857143,3434,370.22232142857143,196.12857142857143,3539,370.22232142857143,196.12857142857143,3639,370.22232142857143,196.12857142857143,3743.4,370.22232142857143,196.12857142857143,3843.6,370.22232142857143,196.12857142857143,3949.6,370.22232142857143,196.12857142857143,4052.8,370.22232142857143,196.12857142857143,4153.7,370.22232142857143,196.12857142857143,4259.4,370.22232142857143,196.12857142857143,4362.6,370.22232142857143,196.12857142857143,4464.9,370.22232142857143,196.12857142857143,4568.1,370.22232142857143,196.12857142857143,4669.2,370.22232142857143,196.12857142857143,4775.4,370.22232142857143,196.12857142857143,4877.3,370.22232142857143,196.12857142857143,4977.8]","[1553.9,1553.9,1000,0,553.9,""smooth"",""up"",""up"",""good_move"",3727.8,2173.6,1684.9,1554.2,488.7,""smooth"",""up"",""up"",""good_move"",6903.4,3175.4,2663.5,3728.1,511.9,""smooth"",""up"",""up"",""good_move"",9462.3,2558.7,2150,6903.6,408.7,""smooth"",""left"",""left"",""good_move"",12544.5,3082,2572.2,9462.5,509.8,""oops"",""left"",""right"",""bad_move"",14907.5,2362.7,1858.2,12544.8,504.5,""smooth"",""left"",""left"",""good_move"",15295.5,387.7,2379.6,14907.8,-1991.9,""error"",""-"",""-"",""no_move""]","",""
"3352","","<div style=""width:500px;"">
  <p>What determined the result of this run?</p>
  </div>","0","html-slider-response","70","1115709","0.0-5.0-1.12","54","1","2025-07-16 08:22:27","1f75c3e559b7213887762d5229550c2b","105.245.233.173","Mozilla/5.0 (Windows NT 10.0; Win64; x64) AppleWebKit/537.36 (KHTML, like Gecko) Chrome/138.0.0.0 Safari/537.36","WebKit","Chrome","138.0.0.0","Windows","10.0","https://app.prolific.com/","en-US,en;q=0.9","650ac282d9578d72800bf303","686e379bc37a29ffa5cdc956","68776130e2c104d5ab474084","1","1","650ac282d9578d72800bf303","1","1","2025-07-16T08:41:04.288Z","","","","","","","","","","","AttribQ","","50","","","","","","","","","","","","","","","","","","","","","","","","","","","","",""
"4631","","<div style=""width:500px;"">
  <p>How much control did you have over the ball?</p>
  </div>","2","html-slider-response","71","1120341","0.0-5.0-2.12","54","1","2025-07-16 08:22:27","1f75c3e559b7213887762d5229550c2b","105.245.233.173","Mozilla/5.0 (Windows NT 10.0; Win64; x64) AppleWebKit/537.36 (KHTML, like Gecko) Chrome/138.0.0.0 Safari/537.36","WebKit","Chrome","138.0.0.0","Windows","10.0","https://app.prolific.com/","en-US,en;q=0.9","650ac282d9578d72800bf303","686e379bc37a29ffa5cdc956","68776130e2c104d5ab474084","1","1","650ac282d9578d72800bf303","1","1","2025-07-16T08:41:08.920Z","","","","","","","","","","","ControlQ","","50","","","","","","","","","","","","","","","","","","","","","","","","","","","","",""
"3375","","<div style=""width:500px;"">
  <p>How would you describe your current emotional state?</p>
  </div>","2","html-slider-response","72","1123717","0.0-5.0-3.12","54","1","2025-07-16 08:22:27","1f75c3e559b7213887762d5229550c2b","105.245.233.173","Mozilla/5.0 (Windows NT 10.0; Win64; x64) AppleWebKit/537.36 (KHTML, like Gecko) Chrome/138.0.0.0 Safari/537.36","WebKit","Chrome","138.0.0.0","Windows","10.0","https://app.prolific.com/","en-US,en;q=0.9","650ac282d9578d72800bf303","686e379bc37a29ffa5cdc956","68776130e2c104d5ab474084","1","1","650ac282d9578d72800bf303","1","1","2025-07-16T08:41:12.295Z","","","","","","","","","","","StressQ","","50","","","","","","","","","","","","","","","","","","","","","","","","","","","","",""
"2825","","<div style=""width:500px;"">
  <p>What best describes how you currently feel?</p>
  </div>","3","html-slider-response","73","1126544","0.0-5.0-4.12","54","1","2025-07-16 08:22:27","1f75c3e559b7213887762d5229550c2b","105.245.233.173","Mozilla/5.0 (Windows NT 10.0; Win64; x64) AppleWebKit/537.36 (KHTML, like Gecko) Chrome/138.0.0.0 Safari/537.36","WebKit","Chrome","138.0.0.0","Windows","10.0","https://app.prolific.com/","en-US,en;q=0.9","650ac282d9578d72800bf303","686e379bc37a29ffa5cdc956","68776130e2c104d5ab474084","1","1","650ac282d9578d72800bf303","1","1","2025-07-16T08:41:15.122Z","","","","","","","","","","","MotivationQ","","50","","","","","","","","","","","","","","","","","","","","","","","","","","","","",""
"","","","","ctl-task-cpt","74","1154143","0.0-5.0-0.13","54","1","2025-07-16 08:22:27","1f75c3e559b7213887762d5229550c2b","105.245.233.173","Mozilla/5.0 (Windows NT 10.0; Win64; x64) AppleWebKit/537.36 (KHTML, like Gecko) Chrome/138.0.0.0 Safari/537.36","WebKit","Chrome","138.0.0.0","Windows","10.0","https://app.prolific.com/","en-US,en;q=0.9","650ac282d9578d72800bf303","686e379bc37a29ffa5cdc956","68776130e2c104d5ab474084","1","1","650ac282d9578d72800bf303","1","1","2025-07-16T08:41:42.721Z","","","","","","","","","","","","","","win-only","2","g1:SE,g2:NW","0.8","14","0","1129660.9","2975.4","7976.6","24579.8","1","4","4","6","2","4","3","3","0","0.022727272727272728","1364.7","3000","1130","[""left"",""up""]","{""num_key_presses"":6,""num_perfect"":5,""num_errors"":1,""num_randdir"":0,""num_randdir_good_moves"":0,""num_whilered"":0,""num_whileblue"":1,""num_blue"":1,""num_good_moves"":6}","[298.22232142857143,295.12857142857143,0.1,298.22232142857143,295.12857142857143,100.1,298.22232142857143,295.12857142857143,201,298.22232142857143,295.12857142857143,305,298.22232142857143,295.12857142857143,405.7,353.22232142857143,345.12857142857143,505.7,360.22232142857143,351.12857142857143,610.1,232.22232142857143,277.12857142857143,710.5,118.22232142857143,187.12857142857143,816,111.22232142857143,178.12857142857143,922.7,111.22232142857143,178.12857142857143,1025.2,96.22232142857143,161.12857142857143,1126.7,57.222321428571426,89.12857142857143,1230.8,55.222321428571426,86.12857142857143,1342.4,55.222321428571426,86.12857142857143,1445.9,55.222321428571426,86.12857142857143,1546.1,55.222321428571426,86.12857142857143,1651,55.222321428571426,86.12857142857143,1754.6,55.222321428571426,86.12857142857143,1856.2,55.222321428571426,86.12857142857143,1960.3,55.222321428571426,86.12857142857143,2062.1,55.222321428571426,86.12857142857143,2165.1,55.222321428571426,86.12857142857143,2265.6,55.222321428571426,86.12857142857143,2365.7,55.222321428571426,86.12857142857143,2466.4,55.222321428571426,86.12857142857143,2575.6,55.222321428571426,86.12857142857143,2680.2,55.222321428571426,86.12857142857143,2785.1,55.222321428571426,86.12857142857143,2886.5,55.222321428571426,86.12857142857143,2991.4,55.222321428571426,86.12857142857143,3095.8,55.222321428571426,86.12857142857143,3201.2,55.222321428571426,86.12857142857143,3307.1,55.222321428571426,86.12857142857143,3411.3,55.222321428571426,86.12857142857143,3516.7,55.222321428571426,86.12857142857143,3620.8,55.222321428571426,86.12857142857143,3724.7,55.222321428571426,86.12857142857143,3826.4,55.222321428571426,86.12857142857143,3929.9,55.222321428571426,86.12857142857143,4031.3,55.222321428571426,86.12857142857143,4136.2,55.222321428571426,86.12857142857143,4240.4,55.222321428571426,86.12857142857143,4344.6,55.222321428571426,86.12857142857143,4445.1,55.222321428571426,86.12857142857143,4552.3,55.222321428571426,86.12857142857143,4656,55.222321428571426,86.12857142857143,4757.5,55.222321428571426,86.12857142857143,4860,55.222321428571426,86.12857142857143,4960.9]","[1446.8,1446.8,1000,0,446.8,""smooth"",""up"",""up"",""good_move"",4535.8,3088.7,2707.7,1447.1,381,""smooth"",""left"",""left"",""good_move"",7662.5,3126.2,2673.7,4536.3,452.5,""smooth"",""up"",""up"",""good_move"",10033.2,2370.4,1966.8,7662.8,403.6,""smooth"",""left"",""left"",""good_move"",13010.2,2976.8,2570.3,10033.4,406.5,""smooth"",""up"",""up"",""good_move"",16507,3496.6,3150.3,13010.4,346.3,""while_blue"",""left"",""left"",""good_move""]","",""
"2927","","<div style=""width:500px;"">
  <p>What determined the result of this run?</p>
  </div>","1","html-slider-response","75","1157071","0.0-5.0-1.13","54","1","2025-07-16 08:22:27","1f75c3e559b7213887762d5229550c2b","105.245.233.173","Mozilla/5.0 (Windows NT 10.0; Win64; x64) AppleWebKit/537.36 (KHTML, like Gecko) Chrome/138.0.0.0 Safari/537.36","WebKit","Chrome","138.0.0.0","Windows","10.0","https://app.prolific.com/","en-US,en;q=0.9","650ac282d9578d72800bf303","686e379bc37a29ffa5cdc956","68776130e2c104d5ab474084","1","1","650ac282d9578d72800bf303","1","1","2025-07-16T08:41:45.650Z","","","","","","","","","","","AttribQ","","50","","","","","","","","","","","","","","","","","","","","","","","","","","","","",""
"2968","","<div style=""width:500px;"">
  <p>How much control did you have over the ball?</p>
  </div>","2","html-slider-response","76","1160040","0.0-5.0-2.13","54","1","2025-07-16 08:22:27","1f75c3e559b7213887762d5229550c2b","105.245.233.173","Mozilla/5.0 (Windows NT 10.0; Win64; x64) AppleWebKit/537.36 (KHTML, like Gecko) Chrome/138.0.0.0 Safari/537.36","WebKit","Chrome","138.0.0.0","Windows","10.0","https://app.prolific.com/","en-US,en;q=0.9","650ac282d9578d72800bf303","686e379bc37a29ffa5cdc956","68776130e2c104d5ab474084","1","1","650ac282d9578d72800bf303","1","1","2025-07-16T08:41:48.618Z","","","","","","","","","","","ControlQ","","50","","","","","","","","","","","","","","","","","","","","","","","","","","","","",""
"1940","","<div style=""width:500px;"">
  <p>How would you describe your current emotional state?</p>
  </div>","4","html-slider-response","77","1161982","0.0-5.0-3.13","54","1","2025-07-16 08:22:27","1f75c3e559b7213887762d5229550c2b","105.245.233.173","Mozilla/5.0 (Windows NT 10.0; Win64; x64) AppleWebKit/537.36 (KHTML, like Gecko) Chrome/138.0.0.0 Safari/537.36","WebKit","Chrome","138.0.0.0","Windows","10.0","https://app.prolific.com/","en-US,en;q=0.9","650ac282d9578d72800bf303","686e379bc37a29ffa5cdc956","68776130e2c104d5ab474084","1","1","650ac282d9578d72800bf303","1","1","2025-07-16T08:41:50.560Z","","","","","","","","","","","StressQ","","50","","","","","","","","","","","","","","","","","","","","","","","","","","","","",""
"3918","","<div style=""width:500px;"">
  <p>What best describes how you currently feel?</p>
