"rt","response_timestamp","stimulus","response","trial_type","trial_index","time_elapsed","internal_node_id","run_id","condition","recorded_at","source_code_version","ip","user_agent","device","browser","browser_version","platform","platform_version","referer","accept_language","PROLIFIC_PID","STUDY_ID","SESSION_ID","WEEK","BATCH","prolific_id","week","batch","realtime","success","responses","item_order","radio_event_ids","radio_event_times","key_event_times","mouse_event_times","straightlining","zigzagging","honeypot","eventType","view_history","slider_start","which_type","canvas_config","goals_layout","control_level","trial_number","tutorial_trial_number","trial_start_time","phase1_start_time","phase2_start_time","phase3_start_time","goal_1_value","goal_1_distance","goal_2_value","goal_2_distance","goal_selected","outcome","outcome_total","participant_final_score","participant_initial_score","participant_final_score_prop","goal_choice_rt","allocated_time","allocated_time_remaining","goal_direction","counts","mouse_movements","key_presses","question_order","question_id"
"5028","1753876215434","<p style='font-size:40px;line-height:1.25'><strong>Welcome to the experiment!</strong></p><p style='font-size:1.1em;line-height:1.25'>Thank you for participanting in our experiment again! You will be asked to play the Dysfunctional Ball Game again. We will briefly recap the rules before we start.</p><p style='font-size:1.1em;line-height:1.25'>Press <strong>Next</strong> to continue.</p>","0","custom-html-button-response","0","5031","0.0-0.0","288","1","2025-07-30 11:49:59","1f75c3e559b7213887762d5229550c2b","162.251.248.35","Mozilla/5.0 (Windows NT 10.0; Win64; x64) AppleWebKit/537.36 (KHTML, like Gecko) Chrome/134.0.0.0 Safari/537.36","WebKit","Chrome","134.0.0.0","Windows","10.0","https://app.prolific.com/","en-US,en;q=0.9","67eab317b6f969b3df440160","6877631c9844ddd5501205fc","688a06dfa91592bb0065f9a0","3","1","67eab317b6f969b3df440160","3","1","2025-07-30T11:50:15.435Z","","","","","","","","","","","","","","","","","","","","","","","","","","","","","","","","","","","","","","","","","",""
"13101","","","","fullscreen","1","19136","0.0-1.0","288","1","2025-07-30 11:49:59","1f75c3e559b7213887762d5229550c2b","162.251.248.35","Mozilla/5.0 (Windows NT 10.0; Win64; x64) AppleWebKit/537.36 (KHTML, like Gecko) Chrome/134.0.0.0 Safari/537.36","WebKit","Chrome","134.0.0.0","Windows","10.0","https://app.prolific.com/","en-US,en;q=0.9","67eab317b6f969b3df440160","6877631c9844ddd5501205fc","688a06dfa91592bb0065f9a0","3","1","67eab317b6f969b3df440160","3","1","","true","","","","","","","","","","","","","","","","","","","","","","","","","","","","","","","","","","","","","","","","",""
"20530","1753876250073","<p style='font-size:1.1em;line-height:1.25'>In the following, we will ask you a few questions relating to your feelings in the last 24 hours.<br></p><p style='font-size:1.1em;line-height:1.25'>Press the <strong>Next</strong> button to continue.</p>","0","custom-html-button-response","2","39670","0.0-2.0-0.0","288","1","2025-07-30 11:49:59","1f75c3e559b7213887762d5229550c2b","162.251.248.35","Mozilla/5.0 (Windows NT 10.0; Win64; x64) AppleWebKit/537.36 (KHTML, like Gecko) Chrome/134.0.0.0 Safari/537.36","WebKit","Chrome","134.0.0.0","Windows","10.0","https://app.prolific.com/","en-US,en;q=0.9","67eab317b6f969b3df440160","6877631c9844ddd5501205fc","688a06dfa91592bb0065f9a0","3","1","67eab317b6f969b3df440160","3","1","2025-07-30T11:50:50.074Z","","","","","","","","","","","","","","","","","","","","","","","","","","","","","","","","","","","","","","","","","",""
"81911.69999980927","","","","survey-template","3","121586","0.0-2.0-1.0","288","1","2025-07-30 11:49:59","1f75c3e559b7213887762d5229550c2b","162.251.248.35","Mozilla/5.0 (Windows NT 10.0; Win64; x64) AppleWebKit/537.36 (KHTML, like Gecko) Chrome/134.0.0.0 Safari/537.36","WebKit","Chrome","134.0.0.0","Windows","10.0","https://app.prolific.com/","en-US,en;q=0.9","67eab317b6f969b3df440160","6877631c9844ddd5501205fc","688a06dfa91592bb0065f9a0","3","1","67eab317b6f969b3df440160","3","1","2025-07-30T11:52:11.990Z","","{""Q01"":""1"",""Q02"":""0"",""Q03"":""0"",""Q04"":""1"",""Q05"":""1"",""Q06"":""2"",""Q07"":""1"",""Q08"":""1"",""Q09"":""1"",""Q10"":""1"",""Q11"":""1"",""Q12"":""0"",""Q13"":""5"",""Q14"":""1"",""Q15"":""2"",""Q16"":""1"",""Q17"":""1"",""Q18"":""0"",""Q19"":""0"",""Q20"":""0"",""Q21"":""0"",""Q22"":""0""}","[0,1,2,3,4,5,6,7,8,9,10,11,12,13,14,15,16,17,18,19,20,21]","[""Q01"",""Q02"",""Q03"",""Q04"",""Q05"",""Q06"",""Q07"",""Q08"",""Q09"",""Q10"",""Q11"",""Q12"",""Q13"",""Q14"",""Q15"",""Q16"",""Q17"",""Q18"",""Q19"",""Q20"",""Q21"",""Q22""]","[15612.799999952316,17325,21285.299999952316,23797.099999904633,25557,29125,31212.89999985695,33461,35300.89999985695,38252.699999809265,41549,44036.89999985695,46988.89999985695,49972.799999952316,53452.89999985695,57468.89999985695,59268.89999985695,64516.699999809265,65796.89999985695,76685,78540.89999985695,80548.79999995232]","[]","[0,15612.799999952316,17325,19261.099999904633,21285.299999952316,22733.199999809265,23797.099999904633,25557,29125,31212.89999985695,33461,35300.89999985695,38252.699999809265,41549,44036.89999985695,46988.89999985695,49972.799999952316,53452.89999985695,57468.89999985695,59268.89999985695,61045.09999990463,63229.09999990463,64516.699999809265,65796.89999985695,76685,78540.89999985695,80548.79999995232,81909]","0.5","0.42857142857142855","0","drsp","","","","","","","","","","","","","","","","","","","","","","","","","","","","","","",""
"13386.599999904633","","","","survey-template","4","134975","0.0-2.0-2.0","288","1","2025-07-30 11:49:59","1f75c3e559b7213887762d5229550c2b","162.251.248.35","Mozilla/5.0 (Windows NT 10.0; Win64; x64) AppleWebKit/537.36 (KHTML, like Gecko) Chrome/134.0.0.0 Safari/537.36","WebKit","Chrome","134.0.0.0","Windows","10.0","https://app.prolific.com/","en-US,en;q=0.9","67eab317b6f969b3df440160","6877631c9844ddd5501205fc","688a06dfa91592bb0065f9a0","3","1","67eab317b6f969b3df440160","3","1","2025-07-30T11:52:25.379Z","","{""Q01"":""1"",""Q02"":""2"",""Q03"":""0""}","[0,1,2]","[""Q01"",""Q02"",""Q03""]","[3314,8802,12050]","[]","[26.799999952316284,3314,7226,8802,12050,13386.099999904633]","0.3333333333333333","0","0","stress","","","","","","","","","","","","","","","","","","","","","","","","","","","","","","",""
"28102","","","","instructions","5","163078","0.0-3.0-0.0","288","1","2025-07-30 11:49:59","1f75c3e559b7213887762d5229550c2b","162.251.248.35","Mozilla/5.0 (Windows NT 10.0; Win64; x64) AppleWebKit/537.36 (KHTML, like Gecko) Chrome/134.0.0.0 Safari/537.36","WebKit","Chrome","134.0.0.0","Windows","10.0","https://app.prolific.com/","en-US,en;q=0.9","67eab317b6f969b3df440160","6877631c9844ddd5501205fc","688a06dfa91592bb0065f9a0","3","1","67eab317b6f969b3df440160","3","1","","","","","","","","","","","","","[{""page_index"":0,""viewing_time"":28102}]","","","","","","","","","","","","","","","","","","","","","","","","","","","","","",""
"11918","","<p>Before you start with this game please answer the following three questions yourself. </p>
  <p>Through this game, we measure several aspects of your cognitive performance, such as reaction times, multi-tasking capabilities </p>
  <p>and the ability to assess the situation you are in.</p>
  <p></p>
  <p><b>How good do you usually are in such tasks?</b></p>","88","html-slider-response","6","174998","0.0-4.0-0.0","288","1","2025-07-30 11:49:59","1f75c3e559b7213887762d5229550c2b","162.251.248.35","Mozilla/5.0 (Windows NT 10.0; Win64; x64) AppleWebKit/537.36 (KHTML, like Gecko) Chrome/134.0.0.0 Safari/537.36","WebKit","Chrome","134.0.0.0","Windows","10.0","https://app.prolific.com/","en-US,en;q=0.9","67eab317b6f969b3df440160","6877631c9844ddd5501205fc","688a06dfa91592bb0065f9a0","3","1","67eab317b6f969b3df440160","3","1","2025-07-30T11:53:05.402Z","","","","","","","","","","","PreSkillQ","","50","","","","","","","","","","","","","","","","","","","","","","","","","","","","",""
"7111","","<div style=""width:500px;"">
  <p>How well do you think you will perform in this task compared to other participants?</p>
  </div>","84","html-slider-response","7","182110","0.0-4.0-1.0","288","1","2025-07-30 11:49:59","1f75c3e559b7213887762d5229550c2b","162.251.248.35","Mozilla/5.0 (Windows NT 10.0; Win64; x64) AppleWebKit/537.36 (KHTML, like Gecko) Chrome/134.0.0.0 Safari/537.36","WebKit","Chrome","134.0.0.0","Windows","10.0","https://app.prolific.com/","en-US,en;q=0.9","67eab317b6f969b3df440160","6877631c9844ddd5501205fc","688a06dfa91592bb0065f9a0","3","1","67eab317b6f969b3df440160","3","1","2025-07-30T11:53:12.514Z","","","","","","","","","","","PrePerfQ","","50","","","","","","","","","","","","","","","","","","","","","","","","","","","","",""
"4487","","<div style=""width:500px;"">
  <p>What best describes how you currently feel?</p>
  </div>","90","html-slider-response","8","186598","0.0-4.0-2.0","288","1","2025-07-30 11:49:59","1f75c3e559b7213887762d5229550c2b","162.251.248.35","Mozilla/5.0 (Windows NT 10.0; Win64; x64) AppleWebKit/537.36 (KHTML, like Gecko) Chrome/134.0.0.0 Safari/537.36","WebKit","Chrome","134.0.0.0","Windows","10.0","https://app.prolific.com/","en-US,en;q=0.9","67eab317b6f969b3df440160","6877631c9844ddd5501205fc","688a06dfa91592bb0065f9a0","3","1","67eab317b6f969b3df440160","3","1","2025-07-30T11:53:17.002Z","","","","","","","","","","","PreMotivationQ","","50","","","","","","","","","","","","","","","","","","","","","","","","","","","","",""
"","","","","ctl-task-cpt","9","227516","0.0-5.0-0.0","288","1","2025-07-30 11:49:59","1f75c3e559b7213887762d5229550c2b","162.251.248.35","Mozilla/5.0 (Windows NT 10.0; Win64; x64) AppleWebKit/537.36 (KHTML, like Gecko) Chrome/134.0.0.0 Safari/537.36","WebKit","Chrome","134.0.0.0","Windows","10.0","https://app.prolific.com/","en-US,en;q=0.9","67eab317b6f969b3df440160","6877631c9844ddd5501205fc","688a06dfa91592bb0065f9a0","3","1","67eab317b6f969b3df440160","3","1","2025-07-30T11:53:57.920Z","","","","","","","","","","","","","","win-only","3","g1:SW,g2:NE","1","1","0","196768.7","22808.3","27811","37912.9","1","4","8","6","1","1","1","1","0","0.007575757575757576","1318.1","3000","1175","[""down"",""left""]","{""num_key_presses"":4,""num_perfect"":4,""num_errors"":0,""num_randdir"":0,""num_randdir_good_moves"":0,""num_whilered"":0,""num_whileblue"":0,""num_blue"":0,""num_good_moves"":4}","[323.4683035714286,325.3745535714286,0.5,323.4683035714286,325.3745535714286,102.3,323.4683035714286,325.3745535714286,207.4,323.4683035714286,325.3745535714286,308.4,323.4683035714286,325.3745535714286,412.4,316.4683035714286,333.3745535714286,512.4,240.46830357142858,368.3745535714286,613.2,152.46830357142858,375.3745535714286,718,141.46830357142858,442.3745535714286,822.8,94.46830357142858,523.3745535714286,923.3,67.46830357142858,553.3745535714286,1023.9,59.46830357142857,568.3745535714286,1124,28.46830357142857,613.3745535714286,1227.7,28.46830357142857,613.3745535714286,1330.9,28.46830357142857,613.3745535714286,1432.9,29.46830357142857,613.3745535714286,1538.2,30.46830357142857,613.3745535714286,1643.1,33.46830357142857,614.3745535714286,1748,36.46830357142857,614.3745535714286,1852.5,38.46830357142857,615.3745535714286,1952.7,41.46830357142857,615.3745535714286,2052.7,42.46830357142857,615.3745535714286,2153.8,43.46830357142857,616.3745535714286,2258.3,43.46830357142857,616.3745535714286,2358.4,43.46830357142857,616.3745535714286,2458.4,43.46830357142857,616.3745535714286,2562.7,43.46830357142857,616.3745535714286,2662.8,43.46830357142857,616.3745535714286,2762.8,43.46830357142857,616.3745535714286,2862.9,43.46830357142857,616.3745535714286,2968.3,43.46830357142857,616.3745535714286,3072.6,43.46830357142857,616.3745535714286,3172.7,43.46830357142857,616.3745535714286,3272.8,43.46830357142857,616.3745535714286,3377.2,43.46830357142857,616.3745535714286,3478.3,43.46830357142857,616.3745535714286,3582.2,43.46830357142857,616.3745535714286,3682.4,43.46830357142857,616.3745535714286,3784,43.46830357142857,616.3745535714286,3888.4,43.46830357142857,616.3745535714286,3988.5,43.46830357142857,616.3745535714286,4088.5,43.46830357142857,616.3745535714286,4190,43.46830357142857,616.3745535714286,4292.6,43.46830357142857,616.3745535714286,4392.9,43.46830357142857,616.3745535714286,4498.2,43.46830357142857,616.3745535714286,4598.6,43.46830357142857,616.3745535714286,4702.5,43.46830357142857,616.3745535714286,4803.3,43.46830357142857,616.3745535714286,4907.2]","[1531,1531,1000,0,531,""smooth"",""left"",""left"",""good_move"",3866.3,2334.9,1901.8,1531.4,433.1,""smooth"",""left"",""left"",""good_move"",7570.5,3704,3224.6,3866.5,479.4,""smooth"",""down"",""down"",""good_move"",10012,2441,2006.1,7571,434.9,""smooth"",""down"",""down"",""good_move""]","",""
"5209","","<div style=""width:500px;"">
  <p>What determined the result of this run?</p>
  </div>","100","html-slider-response","10","232726","0.0-5.0-1.0","288","1","2025-07-30 11:49:59","1f75c3e559b7213887762d5229550c2b","162.251.248.35","Mozilla/5.0 (Windows NT 10.0; Win64; x64) AppleWebKit/537.36 (KHTML, like Gecko) Chrome/134.0.0.0 Safari/537.36","WebKit","Chrome","134.0.0.0","Windows","10.0","https://app.prolific.com/","en-US,en;q=0.9","67eab317b6f969b3df440160","6877631c9844ddd5501205fc","688a06dfa91592bb0065f9a0","3","1","67eab317b6f969b3df440160","3","1","2025-07-30T11:54:03.130Z","","","","","","","","","","","AttribQ","","50","","","","","","","","","","","","","","","","","","","","","","","","","","","","",""
"4134","","<div style=""width:500px;"">
  <p>How much control did you have over the ball?</p>
  </div>","100","html-slider-response","11","236862","0.0-5.0-2.0","288","1","2025-07-30 11:49:59","1f75c3e559b7213887762d5229550c2b","162.251.248.35","Mozilla/5.0 (Windows NT 10.0; Win64; x64) AppleWebKit/537.36 (KHTML, like Gecko) Chrome/134.0.0.0 Safari/537.36","WebKit","Chrome","134.0.0.0","Windows","10.0","https://app.prolific.com/","en-US,en;q=0.9","67eab317b6f969b3df440160","6877631c9844ddd5501205fc","688a06dfa91592bb0065f9a0","3","1","67eab317b6f969b3df440160","3","1","2025-07-30T11:54:07.266Z","","","","","","","","","","","ControlQ","","50","","","","","","","","","","","","","","","","","","","","","","","","","","","","",""
"5095","","<div style=""width:500px;"">
  <p>How would you describe your current emotional state?</p>
  </div>","6","html-slider-response","12","241958","0.0-5.0-3.0","288","1","2025-07-30 11:49:59","1f75c3e559b7213887762d5229550c2b","162.251.248.35","Mozilla/5.0 (Windows NT 10.0; Win64; x64) AppleWebKit/537.36 (KHTML, like Gecko) Chrome/134.0.0.0 Safari/537.36","WebKit","Chrome","134.0.0.0","Windows","10.0","https://app.prolific.com/","en-US,en;q=0.9","67eab317b6f969b3df440160","6877631c9844ddd5501205fc","688a06dfa91592bb0065f9a0","3","1","67eab317b6f969b3df440160","3","1","2025-07-30T11:54:12.362Z","","","","","","","","","","","StressQ","","50","","","","","","","","","","","","","","","","","","","","","","","","","","","","",""
"4071","","<div style=""width:500px;"">
  <p>What best describes how you currently feel?</p>
  </div>","89","html-slider-response","13","246030","0.0-5.0-4.0","288","1","2025-07-30 11:49:59","1f75c3e559b7213887762d5229550c2b","162.251.248.35","Mozilla/5.0 (Windows NT 10.0; Win64; x64) AppleWebKit/537.36 (KHTML, like Gecko) Chrome/134.0.0.0 Safari/537.36","WebKit","Chrome","134.0.0.0","Windows","10.0","https://app.prolific.com/","en-US,en;q=0.9","67eab317b6f969b3df440160","6877631c9844ddd5501205fc","688a06dfa91592bb0065f9a0","3","1","67eab317b6f969b3df440160","3","1","2025-07-30T11:54:16.434Z","","","","","","","","","","","MotivationQ","","50","","","","","","","","","","","","","","","","","","","","","","","","","","","","",""
"","","","","ctl-task-cpt","14","286652","0.0-5.0-0.1","288","1","2025-07-30 11:49:59","1f75c3e559b7213887762d5229550c2b","162.251.248.35","Mozilla/5.0 (Windows NT 10.0; Win64; x64) AppleWebKit/537.36 (KHTML, like Gecko) Chrome/134.0.0.0 Safari/537.36","WebKit","Chrome","134.0.0.0","Windows","10.0","https://app.prolific.com/","en-US,en;q=0.9","67eab317b6f969b3df440160","6877631c9844ddd5501205fc","688a06dfa91592bb0065f9a0","3","1","67eab317b6f969b3df440160","3","1","2025-07-30T11:54:57.056Z","","","","","","","","","","","","","","win-only","1","g1:NE,g2:SW","0.9","2","0","256201.1","6894.4","11896.2","37598.1","1","4","4","6","2","4","3","4","1","0.030303030303030304","2075.3","3000","225","[""down"",""left""]","{""num_key_presses"":8,""num_perfect"":7,""num_errors"":1,""num_randdir"":0,""num_randdir_good_moves"":0,""num_whilered"":0,""num_whileblue"":1,""num_blue"":2,""num_good_moves"":7}","[338.2857142857143,335.1919642857143,0.3,338.2857142857143,335.1919642857143,102.3,338.2857142857143,335.1919642857143,205.9,338.2857142857143,335.1919642857143,306.2,338.2857142857143,335.1919642857143,408.1,338.2857142857143,360.1919642857143,511.3,290.2857142857143,436.1919642857143,612.1,275.2857142857143,502.1919642857143,716.7,272.2857142857143,509.1919642857143,821.9,273.2857142857143,490.1919642857143,927.6,400.2857142857143,349.1919642857143,1027.6,426.2857142857143,291.1919642857143,1131.7,349.2857142857143,332.1919642857143,1236.7,290.2857142857143,454.1919642857143,1340.9,242.28571428571428,495.1919642857143,1441.7,155.28571428571428,583.1919642857143,1546.8,96.28571428571428,593.1919642857143,1647.1,69.28571428571428,606.1919642857143,1752.2,66.28571428571428,610.1919642857143,1852.3,66.28571428571428,610.1919642857143,1956.6,66.28571428571428,610.1919642857143,2056.8,66.28571428571428,610.1919642857143,2157.6,66.28571428571428,610.1919642857143,2261.2,66.28571428571428,610.1919642857143,2361.6,66.28571428571428,610.1919642857143,2466,69.28571428571428,612.1919642857143,2566.8,86.28571428571428,608.1919642857143,2666.9,87.28571428571428,608.1919642857143,2766.9,87.28571428571428,608.1919642857143,2871.3,87.28571428571428,608.1919642857143,2971.4,87.28571428571428,608.1919642857143,3076.3,87.28571428571428,608.1919642857143,3176.5,87.28571428571428,608.1919642857143,3276.5,87.28571428571428,608.1919642857143,3376.6,87.28571428571428,608.1919642857143,3477,87.28571428571428,608.1919642857143,3581.2,87.28571428571428,608.1919642857143,3681.7,87.28571428571428,608.1919642857143,3781.7,87.28571428571428,608.1919642857143,3881.7,87.28571428571428,608.1919642857143,3986.8,87.28571428571428,608.1919642857143,4086.9,87.28571428571428,608.1919642857143,4191.2,87.28571428571428,608.1919642857143,4291.2,87.28571428571428,608.1919642857143,4391.4,87.28571428571428,608.1919642857143,4491.4,87.28571428571428,608.1919642857143,4596.7,87.28571428571428,608.1919642857143,4698,87.28571428571428,608.1919642857143,4802.2,87.28571428571428,608.1919642857143,4906.8]","[1413.9,1413.9,1000,0,413.9,""smooth"",""down"",""down"",""good_move"",4293,2878.6,2439.3,1414.4,439.3,""smooth"",""down"",""down"",""good_move"",6965.3,2671.9,2322.9,4293.4,349.1,""smooth"",""down"",""down"",""good_move"",9884.8,2918.9,2586.8,6965.9,332.1,""smooth"",""left"",""left"",""good_move"",12924.6,3039.5,2624.1,9885.2,415.4,""smooth"",""left"",""left"",""good_move"",16485.3,3560.5,3179.9,12924.9,380.5,""while_blue"",""left"",""up"",""bad_move"",18968.6,2482.6,2000.8,16486,481.8,""smooth"",""down"",""down"",""good_move"",25604.7,6635.7,2928.2,22255.1,421.4,""smooth"",""left"",""left"",""good_move""]","",""
"4337","","<div style=""width:500px;"">
  <p>What determined the result of this run?</p>
  </div>","100","html-slider-response","15","290990","0.0-5.0-1.1","288","1","2025-07-30 11:49:59","1f75c3e559b7213887762d5229550c2b","162.251.248.35","Mozilla/5.0 (Windows NT 10.0; Win64; x64) AppleWebKit/537.36 (KHTML, like Gecko) Chrome/134.0.0.0 Safari/537.36","WebKit","Chrome","134.0.0.0","Windows","10.0","https://app.prolific.com/","en-US,en;q=0.9","67eab317b6f969b3df440160","6877631c9844ddd5501205fc","688a06dfa91592bb0065f9a0","3","1","67eab317b6f969b3df440160","3","1","2025-07-30T11:55:01.394Z","","","","","","","","","","","AttribQ","","50","","","","","","","","","","","","","","","","","","","","","","","","","","","","",""
"3086","","<div style=""width:500px;"">
  <p>How much control did you have over the ball?</p>
  </div>","100","html-slider-response","16","294078","0.0-5.0-2.1","288","1","2025-07-30 11:49:59","1f75c3e559b7213887762d5229550c2b","162.251.248.35","Mozilla/5.0 (Windows NT 10.0; Win64; x64) AppleWebKit/537.36 (KHTML, like Gecko) Chrome/134.0.0.0 Safari/537.36","WebKit","Chrome","134.0.0.0","Windows","10.0","https://app.prolific.com/","en-US,en;q=0.9","67eab317b6f969b3df440160","6877631c9844ddd5501205fc","688a06dfa91592bb0065f9a0","3","1","67eab317b6f969b3df440160","3","1","2025-07-30T11:55:04.482Z","","","","","","","","","","","ControlQ","","50","","","","","","","","","","","","","","","","","","","","","","","","","","","","",""
"2559","","<div style=""width:500px;"">
  <p>How would you describe your current emotional state?</p>
  </div>","0","html-slider-response","17","296638","0.0-5.0-3.1","288","1","2025-07-30 11:49:59","1f75c3e559b7213887762d5229550c2b","162.251.248.35","Mozilla/5.0 (Windows NT 10.0; Win64; x64) AppleWebKit/537.36 (KHTML, like Gecko) Chrome/134.0.0.0 Safari/537.36","WebKit","Chrome","134.0.0.0","Windows","10.0","https://app.prolific.com/","en-US,en;q=0.9","67eab317b6f969b3df440160","6877631c9844ddd5501205fc","688a06dfa91592bb0065f9a0","3","1","67eab317b6f969b3df440160","3","1","2025-07-30T11:55:07.042Z","","","","","","","","","","","StressQ","","50","","","","","","","","","","","","","","","","","","","","","","","","","","","","",""
"2550","","<div style=""width:500px;"">
  <p>What best describes how you currently feel?</p>
  </div>","89","html-slider-response","18","299190","0.0-5.0-4.1","288","1","2025-07-30 11:49:59","1f75c3e559b7213887762d5229550c2b","162.251.248.35","Mozilla/5.0 (Windows NT 10.0; Win64; x64) AppleWebKit/537.36 (KHTML, like Gecko) Chrome/134.0.0.0 Safari/537.36","WebKit","Chrome","134.0.0.0","Windows","10.0","https://app.prolific.com/","en-US,en;q=0.9","67eab317b6f969b3df440160","6877631c9844ddd5501205fc","688a06dfa91592bb0065f9a0","3","1","67eab317b6f969b3df440160","3","1","2025-07-30T11:55:09.594Z","","","","","","","","","","","MotivationQ","","50","","","","","","","","","","","","","","","","","","","","","","","","","","","","",""
"","","","","ctl-task-cpt","19","329863","0.0-5.0-0.2","288","1","2025-07-30 11:49:59","1f75c3e559b7213887762d5229550c2b","162.251.248.35","Mozilla/5.0 (Windows NT 10.0; Win64; x64) AppleWebKit/537.36 (KHTML, like Gecko) Chrome/134.0.0.0 Safari/537.36","WebKit","Chrome","134.0.0.0","Windows","10.0","https://app.prolific.com/","en-US,en;q=0.9","67eab317b6f969b3df440160","6877631c9844ddd5501205fc","688a06dfa91592bb0065f9a0","3","1","67eab317b6f969b3df440160","3","1","2025-07-30T11:55:40.268Z","","","","","","","","","","","","","","win-only","0","g1:NW,g2:SE","0.8","3","0","309360.3","2567","7571.3","27666.9","1","4","8","6","2","8","8","12","4","0.09090909090909091","1783.6","3000","95","[""down"",""right""]","{""num_key_presses"":6,""num_perfect"":5,""num_errors"":0,""num_randdir"":1,""num_randdir_good_moves"":1,""num_whilered"":0,""num_whileblue"":0,""num_blue"":1,""num_good_moves"":6}","[345.2857142857143,336.1919642857143,0.1,345.2857142857143,336.1919642857143,103.3,343.2857142857143,336.1919642857143,203.8,343.2857142857143,336.1919642857143,304.6,343.2857142857143,336.1919642857143,410.1,343.2857142857143,336.1919642857143,514.4,343.2857142857143,336.1919642857143,618.3,343.2857142857143,336.1919642857143,718.3,343.2857142857143,336.1919642857143,818.6,343.2857142857143,336.1919642857143,918.6,343.2857142857143,336.1919642857143,1023.6,343.2857142857143,336.1919642857143,1123.7,343.2857142857143,336.1919642857143,1223.7,491.2857142857143,457.1919642857143,1328.6,521.2857142857143,547.1919642857143,1428.7,525.2857142857143,585.1919642857143,1533.5,573.2857142857143,614.1919642857143,1634.2,598.2857142857143,614.1919642857143,1734.3,600.2857142857143,614.1919642857143,1834.3,600.2857142857143,614.1919642857143,1939.4,596.2857142857143,613.1919642857143,2044,531.2857142857143,578.1919642857143,2148.8,447.2857142857143,537.1919642857143,2249.2,447.2857142857143,537.1919642857143,2354.1,446.2857142857143,536.1919642857143,2460.1,446.2857142857143,536.1919642857143,2563.9,446.2857142857143,536.1919642857143,2664.1,446.2857142857143,536.1919642857143,2768.5,446.2857142857143,536.1919642857143,2869.1,446.2857142857143,536.1919642857143,2973.3,446.2857142857143,536.1919642857143,3073.8,446.2857142857143,536.1919642857143,3174.3,446.2857142857143,536.1919642857143,3279,446.2857142857143,536.1919642857143,3379.1,446.2857142857143,536.1919642857143,3479.2,446.2857142857143,536.1919642857143,3584.1,446.2857142857143,536.1919642857143,3689.7,446.2857142857143,536.1919642857143,3794.4,446.2857142857143,536.1919642857143,3899.1,446.2857142857143,536.1919642857143,4003.5,446.2857142857143,536.1919642857143,4103.9,446.2857142857143,536.1919642857143,4204.1,446.2857142857143,536.1919642857143,4304.2,446.2857142857143,536.1919642857143,4409.4,446.2857142857143,536.1919642857143,4509.9,446.2857142857143,536.1919642857143,4610.1,446.2857142857143,536.1919642857143,4710.2,446.2857142857143,536.1919642857143,4810.4,446.2857142857143,536.1919642857143,4914.3]","[1579.4,1579.4,1000,0,579.4,""smooth"",""right"",""right"",""good_move"",4626.3,3046.4,2693.9,1580,352.4,""smooth"",""right"",""right"",""good_move"",7363,2736.5,2267.1,4626.5,469.4,""smooth"",""right"",""right"",""good_move"",13911.2,6548,2455.3,11015.2,440.7,""oops"",""down"",""down"",""good_move"",17474.5,3562.9,3036.9,13911.6,526,""smooth"",""down"",""down"",""good_move"",20010.7,2536,1810.5,17474.7,725.5,""smooth"",""down"",""down"",""good_move""]","",""
"4253","","<div style=""width:500px;"">
  <p>What determined the result of this run?</p>
  </div>","100","html-slider-response","20","334118","0.0-5.0-1.2","288","1","2025-07-30 11:49:59","1f75c3e559b7213887762d5229550c2b","162.251.248.35","Mozilla/5.0 (Windows NT 10.0; Win64; x64) AppleWebKit/537.36 (KHTML, like Gecko) Chrome/134.0.0.0 Safari/537.36","WebKit","Chrome","134.0.0.0","Windows","10.0","https://app.prolific.com/","en-US,en;q=0.9","67eab317b6f969b3df440160","6877631c9844ddd5501205fc","688a06dfa91592bb0065f9a0","3","1","67eab317b6f969b3df440160","3","1","2025-07-30T11:55:44.522Z","","","","","","","","","","","AttribQ","","50","","","","","","","","","","","","","","","","","","","","","","","","","","","","",""
"2191","","<div style=""width:500px;"">
  <p>How much control did you have over the ball?</p>
  </div>","100","html-slider-response","21","336310","0.0-5.0-2.2","288","1","2025-07-30 11:49:59","1f75c3e559b7213887762d5229550c2b","162.251.248.35","Mozilla/5.0 (Windows NT 10.0; Win64; x64) AppleWebKit/537.36 (KHTML, like Gecko) Chrome/134.0.0.0 Safari/537.36","WebKit","Chrome","134.0.0.0","Windows","10.0","https://app.prolific.com/","en-US,en;q=0.9","67eab317b6f969b3df440160","6877631c9844ddd5501205fc","688a06dfa91592bb0065f9a0","3","1","67eab317b6f969b3df440160","3","1","2025-07-30T11:55:46.714Z","","","","","","","","","","","ControlQ","","50","","","","","","","","","","","","","","","","","","","","","","","","","","","","",""
"3654","","<div style=""width:500px;"">
  <p>How would you describe your current emotional state?</p>
  </div>","0","html-slider-response","22","339966","0.0-5.0-3.2","288","1","2025-07-30 11:49:59","1f75c3e559b7213887762d5229550c2b","162.251.248.35","Mozilla/5.0 (Windows NT 10.0; Win64; x64) AppleWebKit/537.36 (KHTML, like Gecko) Chrome/134.0.0.0 Safari/537.36","WebKit","Chrome","134.0.0.0","Windows","10.0","https://app.prolific.com/","en-US,en;q=0.9","67eab317b6f969b3df440160","6877631c9844ddd5501205fc","688a06dfa91592bb0065f9a0","3","1","67eab317b6f969b3df440160","3","1","2025-07-30T11:55:50.370Z","","","","","","","","","","","StressQ","","50","","","","","","","","","","","","","","","","","","","","","","","","","","","","",""
"3038","","<div style=""width:500px;"">
  <p>What best describes how you currently feel?</p>
  </div>","95","html-slider-response","23","343006","0.0-5.0-4.2","288","1","2025-07-30 11:49:59","1f75c3e559b7213887762d5229550c2b","162.251.248.35","Mozilla/5.0 (Windows NT 10.0; Win64; x64) AppleWebKit/537.36 (KHTML, like Gecko) Chrome/134.0.0.0 Safari/537.36","WebKit","Chrome","134.0.0.0","Windows","10.0","https://app.prolific.com/","en-US,en;q=0.9","67eab317b6f969b3df440160","6877631c9844ddd5501205fc","688a06dfa91592bb0065f9a0","3","1","67eab317b6f969b3df440160","3","1","2025-07-30T11:55:53.410Z","","","","","","","","","","","MotivationQ","","50","","","","","","","","","","","","","","","","","","","","","","","","","","","","",""
"","","","","ctl-task-cpt","24","389864","0.0-5.0-0.3","288","1","2025-07-30 11:49:59","1f75c3e559b7213887762d5229550c2b","162.251.248.35","Mozilla/5.0 (Windows NT 10.0; Win64; x64) AppleWebKit/537.36 (KHTML, like Gecko) Chrome/134.0.0.0 Safari/537.36","WebKit","Chrome","134.0.0.0","Windows","10.0","https://app.prolific.com/","en-US,en;q=0.9","67eab317b6f969b3df440160","6877631c9844ddd5501205fc","688a06dfa91592bb0065f9a0","3","1","67eab317b6f969b3df440160","3","1","2025-07-30T11:56:40.268Z","","","","","","","","","","","","","","win-only","0","g1:NW,g2:SE","0.7","4","0","353176.4","5972.7","10975.9","43841","1","4","4","6","2","-4","-5","7","12","0.05303030303030303","2092.4","3000","-2755","[""down"",""right""]","{""num_key_presses"":8,""num_perfect"":5,""num_errors"":1,""num_randdir"":2,""num_randdir_good_moves"":0,""num_whilered"":0,""num_whileblue"":1,""num_blue"":3,""num_good_moves"":6}","[342.2857142857143,345.1919642857143,0.3,342.2857142857143,345.1919642857143,102,342.2857142857143,345.1919642857143,204.3,342.2857142857143,345.1919642857143,307.9,346.2857142857143,343.1919642857143,408.5,346.2857142857143,343.1919642857143,513.5,346.2857142857143,343.1919642857143,625.7,346.2857142857143,343.1919642857143,727.7,346.2857142857143,343.1919642857143,827.9,346.2857142857143,343.1919642857143,929,572.2857142857143,534.1919642857143,1043.2,630.2857142857143,586.1919642857143,1146.8,650.2857142857143,608.1919642857143,1246.8,651.2857142857143,610.1919642857143,1364.7,651.2857142857143,619.1919642857143,1469.4,651.2857142857143,619.1919642857143,1570.6,651.2857142857143,619.1919642857143,1672,651.2857142857143,619.1919642857143,1782.6,651.2857142857143,619.1919642857143,1883.8,651.2857142857143,619.1919642857143,1994.2,651.2857142857143,619.1919642857143,2094.5,651.2857142857143,619.1919642857143,2203,651.2857142857143,619.1919642857143,2308.4,651.2857142857143,619.1919642857143,2413.7,641.2857142857143,619.1919642857143,2517.8,650.2857142857143,593.1919642857143,2618.1,666.2857142857143,579.1919642857143,2724.9,666.2857142857143,579.1919642857143,2827.7,666.2857142857143,579.1919642857143,2927.8,666.2857142857143,579.1919642857143,3028.4,666.2857142857143,579.1919642857143,3133.8,666.2857142857143,579.1919642857143,3238.8,666.2857142857143,579.1919642857143,3346,666.2857142857143,579.1919642857143,3447.9,666.2857142857143,579.1919642857143,3552.6,666.2857142857143,579.1919642857143,3657.7,666.2857142857143,579.1919642857143,3758.1,666.2857142857143,579.1919642857143,3858.1,666.2857142857143,579.1919642857143,3958.5,666.2857142857143,579.1919642857143,4062.5,666.2857142857143,579.1919642857143,4168.4,666.2857142857143,579.1919642857143,4273,666.2857142857143,579.1919642857143,4377.8,666.2857142857143,579.1919642857143,4478.4,666.2857142857143,579.1919642857143,4578.4,666.2857142857143,579.1919642857143,4683.9,666.2857142857143,579.1919642857143,4788.1,666.2857142857143,579.1919642857143,4893.1,666.2857142857143,579.1919642857143,4993.1]","[1629.7,1629.7,1000,0,629.7,""smooth"",""right"",""right"",""good_move"",7001.6,5371.6,1721.1,4877.8,402.7,""oops"",""right"",""left"",""bad_move"",9910.1,2908.2,2436,7001.9,472.2,""smooth"",""down"",""down"",""good_move"",16390,6479.3,2567.5,13334.9,487.6,""smooth"",""down"",""down"",""good_move"",20321.8,3931.6,3524.7,16390.2,406.9,""smooth"",""down"",""down"",""good_move"",23294.8,2972.7,2557.9,20322.1,414.8,""while_blue"",""right"",""right"",""good_move"",26485.7,3190.3,2748.6,23295.4,441.7,""oops"",""right"",""left"",""bad_move"",29461.9,2975.9,2518.3,26486,457.6,""smooth"",""right"",""right"",""good_move""]","",""
"4533","","<div style=""width:500px;"">
  <p>What determined the result of this run?</p>
  </div>","11","html-slider-response","25","394398","0.0-5.0-1.3","288","1","2025-07-30 11:49:59","1f75c3e559b7213887762d5229550c2b","162.251.248.35","Mozilla/5.0 (Windows NT 10.0; Win64; x64) AppleWebKit/537.36 (KHTML, like Gecko) Chrome/134.0.0.0 Safari/537.36","WebKit","Chrome","134.0.0.0","Windows","10.0","https://app.prolific.com/","en-US,en;q=0.9","67eab317b6f969b3df440160","6877631c9844ddd5501205fc","688a06dfa91592bb0065f9a0","3","1","67eab317b6f969b3df440160","3","1","2025-07-30T11:56:44.802Z","","","","","","","","","","","AttribQ","","50","","","","","","","","","","","","","","","","","","","","","","","","","","","","",""
"3487","","<div style=""width:500px;"">
  <p>How much control did you have over the ball?</p>
  </div>","27","html-slider-response","26","397886","0.0-5.0-2.3","288","1","2025-07-30 11:49:59","1f75c3e559b7213887762d5229550c2b","162.251.248.35","Mozilla/5.0 (Windows NT 10.0; Win64; x64) AppleWebKit/537.36 (KHTML, like Gecko) Chrome/134.0.0.0 Safari/537.36","WebKit","Chrome","134.0.0.0","Windows","10.0","https://app.prolific.com/","en-US,en;q=0.9","67eab317b6f969b3df440160","6877631c9844ddd5501205fc","688a06dfa91592bb0065f9a0","3","1","67eab317b6f969b3df440160","3","1","2025-07-30T11:56:48.290Z","","","","","","","","","","","ControlQ","","50","","","","","","","","","","","","","","","","","","","","","","","","","","","","",""
"13982","","<div style=""width:500px;"">
  <p>How would you describe your current emotional state?</p>
  </div>","56","html-slider-response","27","411870","0.0-5.0-3.3","288","1","2025-07-30 11:49:59","1f75c3e559b7213887762d5229550c2b","162.251.248.35","Mozilla/5.0 (Windows NT 10.0; Win64; x64) AppleWebKit/537.36 (KHTML, like Gecko) Chrome/134.0.0.0 Safari/537.36","WebKit","Chrome","134.0.0.0","Windows","10.0","https://app.prolific.com/","en-US,en;q=0.9","67eab317b6f969b3df440160","6877631c9844ddd5501205fc","688a06dfa91592bb0065f9a0","3","1","67eab317b6f969b3df440160","3","1","2025-07-30T11:57:02.274Z","","","","","","","","","","","StressQ","","50","","","","","","","","","","","","","","","","","","","","","","","","","","","","",""
"6462","","<div style=""width:500px;"">
  <p>What best describes how you currently feel?</p>
  </div>","58","html-slider-response","28","418334","0.0-5.0-4.3","288","1","2025-07-30 11:49:59","1f75c3e559b7213887762d5229550c2b","162.251.248.35","Mozilla/5.0 (Windows NT 10.0; Win64; x64) AppleWebKit/537.36 (KHTML, like Gecko) Chrome/134.0.0.0 Safari/537.36","WebKit","Chrome","134.0.0.0","Windows","10.0","https://app.prolific.com/","en-US,en;q=0.9","67eab317b6f969b3df440160","6877631c9844ddd5501205fc","688a06dfa91592bb0065f9a0","3","1","67eab317b6f969b3df440160","3","1","2025-07-30T11:57:08.738Z","","","","","","","","","","","MotivationQ","","50","","","","","","","","","","","","","","","","","","","","","","","","","","","","",""
"","","","","ctl-task-cpt","29","482258","0.0-5.0-0.4","288","1","2025-07-30 11:49:59","1f75c3e559b7213887762d5229550c2b","162.251.248.35","Mozilla/5.0 (Windows NT 10.0; Win64; x64) AppleWebKit/537.36 (KHTML, like Gecko) Chrome/134.0.0.0 Safari/537.36","WebKit","Chrome","134.0.0.0","Windows","10.0","https://app.prolific.com/","en-US,en;q=0.9","67eab317b6f969b3df440160","6877631c9844ddd5501205fc","688a06dfa91592bb0065f9a0","3","1","67eab317b6f969b3df440160","3","1","2025-07-30T11:58:12.663Z","","","","","","","","","","","","","","win-only","3","g1:SW,g2:NE","0.6","5","0","428504.6","33206.1","38206.8","60905.5","1","4","8","6","1","1","1","8","7","0.06060606060606061","2584.6","3000","215","[""down"",""left""]","{""num_key_presses"":6,""num_perfect"":3,""num_errors"":0,""num_randdir"":3,""num_randdir_good_moves"":2,""num_whilered"":0,""num_whileblue"":0,""num_blue"":2,""num_good_moves"":5}","[350.2857142857143,345.1919642857143,1,350.2857142857143,345.1919642857143,105.2,350.2857142857143,345.1919642857143,209.2,350.2857142857143,345.1919642857143,315.9,350.2857142857143,345.1919642857143,419.9,350.2857142857143,345.1919642857143,521.4,350.2857142857143,345.1919642857143,631.5,350.2857142857143,345.1919642857143,736.7,350.2857142857143,345.1919642857143,836.8,346.2857142857143,347.1919642857143,940.8,308.2857142857143,409.1919642857143,1044.8,297.2857142857143,428.1919642857143,1150.1,297.2857142857143,428.1919642857143,1250.2,297.2857142857143,428.1919642857143,1354.5,334.2857142857143,403.1919642857143,1458.1,350.2857142857143,379.1919642857143,1560.4,350.2857142857143,378.1919642857143,1665.2,351.2857142857143,356.1919642857143,1774.3,346.2857142857143,348.1919642857143,1877.4,274.2857142857143,428.1919642857143,1980.4,148.28571428571428,527.1919642857143,2085.1,106.28571428571428,561.1919642857143,2190.3,68.28571428571428,598.1919642857143,2293.5,49.285714285714285,628.1919642857143,2395.6,44.285714285714285,636.1919642857143,2499.8,44.285714285714285,636.1919642857143,2607.4,44.285714285714285,636.1919642857143,2712.9,44.285714285714285,636.1919642857143,2814.8,44.285714285714285,636.1919642857143,2915.1,128.28571428571428,621.1919642857143,3015.5,281.2857142857143,595.1919642857143,3120.1,440.2857142857143,574.1919642857143,3220.5,568.2857142857143,501.1919642857143,3324.7,615.2857142857143,478.1919642857143,3426.5,615.2857142857143,478.1919642857143,3530.8,615.2857142857143,478.1919642857143,3634.5,615.2857142857143,478.1919642857143,3734.7,615.2857142857143,478.1919642857143,3835.4,615.2857142857143,478.1919642857143,3939.8,615.2857142857143,478.1919642857143,4039.8,615.2857142857143,478.1919642857143,4145.2,615.2857142857143,478.1919642857143,4250.4,615.2857142857143,478.1919642857143,4350.7,615.2857142857143,478.1919642857143,4461.8,615.2857142857143,478.1919642857143,4567.1,615.2857142857143,478.1919642857143,4670.5,615.2857142857143,478.1919642857143,4774.6,615.2857142857143,478.1919642857143,4874.9,615.2857142857143,478.1919642857143,4976.2]","[1615.3,1615.3,1000,0,615.3,""smooth"",""down"",""down"",""good_move"",4279.4,2663.7,2202.2,1615.7,461.5,""smooth"",""down"",""down"",""good_move"",7079.2,2799.5,2321.3,4279.7,478.2,""oops"",""left"",""right"",""bad_move"",13014.9,5935.4,2079.2,10389.2,546.5,""oops"",""left"",""left"",""good_move"",19030.8,6015.6,2193.6,16289.6,547.6,""oops"",""left"",""left"",""good_move"",22598.5,3567.5,2967,19031,600.5,""smooth"",""left"",""left"",""good_move""]","",""
"6939","","<div style=""width:500px;"">
  <p>What determined the result of this run?</p>
  </div>","39","html-slider-response","30","489198","0.0-5.0-1.4","288","1","2025-07-30 11:49:59","1f75c3e559b7213887762d5229550c2b","162.251.248.35","Mozilla/5.0 (Windows NT 10.0; Win64; x64) AppleWebKit/537.36 (KHTML, like Gecko) Chrome/134.0.0.0 Safari/537.36","WebKit","Chrome","134.0.0.0","Windows","10.0","https://app.prolific.com/","en-US,en;q=0.9","67eab317b6f969b3df440160","6877631c9844ddd5501205fc","688a06dfa91592bb0065f9a0","3","1","67eab317b6f969b3df440160","3","1","2025-07-30T11:58:19.602Z","","","","","","","","","","","AttribQ","","50","","","","","","","","","","","","","","","","","","","","","","","","","","","","",""
"5046","","<div style=""width:500px;"">
  <p>How much control did you have over the ball?</p>
  </div>","37","html-slider-response","31","494246","0.0-5.0-2.4","288","1","2025-07-30 11:49:59","1f75c3e559b7213887762d5229550c2b","162.251.248.35","Mozilla/5.0 (Windows NT 10.0; Win64; x64) AppleWebKit/537.36 (KHTML, like Gecko) Chrome/134.0.0.0 Safari/537.36","WebKit","Chrome","134.0.0.0","Windows","10.0","https://app.prolific.com/","en-US,en;q=0.9","67eab317b6f969b3df440160","6877631c9844ddd5501205fc","688a06dfa91592bb0065f9a0","3","1","67eab317b6f969b3df440160","3","1","2025-07-30T11:58:24.650Z","","","","","","","","","","","ControlQ","","50","","","","","","","","","","","","","","","","","","","","","","","","","","","","",""
"2798","","<div style=""width:500px;"">
  <p>How would you describe your current emotional state?</p>
  </div>","59","html-slider-response","32","497046","0.0-5.0-3.4","288","1","2025-07-30 11:49:59","1f75c3e559b7213887762d5229550c2b","162.251.248.35","Mozilla/5.0 (Windows NT 10.0; Win64; x64) AppleWebKit/537.36 (KHTML, like Gecko) Chrome/134.0.0.0 Safari/537.36","WebKit","Chrome","134.0.0.0","Windows","10.0","https://app.prolific.com/","en-US,en;q=0.9","67eab317b6f969b3df440160","6877631c9844ddd5501205fc","688a06dfa91592bb0065f9a0","3","1","67eab317b6f969b3df440160","3","1","2025-07-30T11:58:27.450Z","","","","","","","","","","","StressQ","","50","","","","","","","","","","","","","","","","","","","","","","","","","","","","",""
"2342","","<div style=""width:500px;"">
  <p>What best describes how you currently feel?</p>
  </div>","60","html-slider-response","33","499390","0.0-5.0-4.4","288","1","2025-07-30 11:49:59","1f75c3e559b7213887762d5229550c2b","162.251.248.35","Mozilla/5.0 (Windows NT 10.0; Win64; x64) AppleWebKit/537.36 (KHTML, like Gecko) Chrome/134.0.0.0 Safari/537.36","WebKit","Chrome","134.0.0.0","Windows","10.0","https://app.prolific.com/","en-US,en;q=0.9","67eab317b6f969b3df440160","6877631c9844ddd5501205fc","688a06dfa91592bb0065f9a0","3","1","67eab317b6f969b3df440160","3","1","2025-07-30T11:58:29.794Z","","","","","","","","","","","MotivationQ","","50","","","","","","","","","","","","","","","","","","","","","","","","","","","","",""
"","","","","ctl-task-cpt","34","534644","0.0-5.0-0.5","288","1","2025-07-30 11:49:59","1f75c3e559b7213887762d5229550c2b","162.251.248.35","Mozilla/5.0 (Windows NT 10.0; Win64; x64) AppleWebKit/537.36 (KHTML, like Gecko) Chrome/134.0.0.0 Safari/537.36","WebKit","Chrome","134.0.0.0","Windows","10.0","https://app.prolific.com/","en-US,en;q=0.9","67eab317b6f969b3df440160","6877631c9844ddd5501205fc","688a06dfa91592bb0065f9a0","3","1","67eab317b6f969b3df440160","3","1","2025-07-30T11:59:05.048Z","","","","","","","","","","","","","","win-only","3","g1:SW,g2:NE","0.5","6","0","509560.9","1590.9","6594.8","32235.9","1","4","4","6","1","-1","-1","7","8","0.05303030303030303","3416.3","3000","-2530","[""down"",""left""]","{""num_key_presses"":7,""num_perfect"":4,""num_errors"":0,""num_randdir"":3,""num_randdir_good_moves"":0,""num_whilered"":0,""num_whileblue"":0,""num_blue"":1,""num_good_moves"":4}","[340.2857142857143,344.1919642857143,0.2,340.2857142857143,344.1919642857143,113.4,340.2857142857143,344.1919642857143,214.6,340.2857142857143,344.1919642857143,315.3,340.2857142857143,344.1919642857143,420.9,340.2857142857143,344.1919642857143,525.7,340.2857142857143,344.1919642857143,637.7,340.2857142857143,344.1919642857143,740.1,340.2857142857143,344.1919642857143,842.6,340.2857142857143,344.1919642857143,948.2,340.2857142857143,344.1919642857143,1054.8,340.2857142857143,344.1919642857143,1155.2,340.2857142857143,344.1919642857143,1264.9,340.2857142857143,344.1919642857143,1365.3,340.2857142857143,344.1919642857143,1472.5,340.2857142857143,344.1919642857143,1574.5,340.2857142857143,344.1919642857143,1675.1,340.2857142857143,344.1919642857143,1780.7,340.2857142857143,344.1919642857143,1888.3,340.2857142857143,344.1919642857143,1989.4,340.2857142857143,344.1919642857143,2089.4,340.2857142857143,344.1919642857143,2190.1,340.2857142857143,344.1919642857143,2306.5,340.2857142857143,344.1919642857143,2414.8,340.2857142857143,344.1919642857143,2515.2,340.2857142857143,344.1919642857143,2615.9,340.2857142857143,344.1919642857143,2719.9,726.2857142857143,453.1919642857143,2824.5,631.2857142857143,517.1919642857143,2925.1,516.2857142857143,620.1919642857143,3025.1,246.28571428571428,616.1919642857143,3125.1,129.28571428571428,632.1919642857143,3225.3,98.28571428571428,630.1919642857143,3330.7,93.28571428571428,627.1919642857143,3435.6,91.28571428571428,626.1919642857143,3540.6,86.28571428571428,626.1919642857143,3648.2,86.28571428571428,626.1919642857143,3748.9,88.28571428571428,617.1919642857143,3852.9,88.28571428571428,617.1919642857143,3957.9,88.28571428571428,617.1919642857143,4060.1,88.28571428571428,617.1919642857143,4170.6,88.28571428571428,617.1919642857143,4272.9,88.28571428571428,617.1919642857143,4376.3,88.28571428571428,617.1919642857143,4480,88.28571428571428,617.1919642857143,4589.4,88.28571428571428,617.1919642857143,4695.3,88.28571428571428,617.1919642857143,4805.8,88.28571428571428,617.1919642857143,4915.9]","[1443,1443,1000,0,443,""smooth"",""down"",""down"",""good_move"",4362.4,2918.5,2434.9,1443.9,483.6,""smooth"",""down"",""down"",""good_move"",7215.9,2853.3,2116.6,4362.6,736.7,""smooth"",""left"",""left"",""good_move"",11090.5,3874.2,3344.2,7216.3,530,""oops"",""left"",""right"",""bad_move"",14266.5,3175.8,2763.8,11090.8,412,""oops"",""left"",""right"",""bad_move"",20586.7,6320,2377.3,17774.8,434.6,""oops"",""left"",""right"",""bad_move"",23362.4,2775.5,2137.3,20586.9,638.2,""smooth"",""left"",""left"",""good_move""]","",""
"4441","","<div style=""width:500px;"">
  <p>What determined the result of this run?</p>
  </div>","12","html-slider-response","35","539086","0.0-5.0-1.5","288","1","2025-07-30 11:49:59","1f75c3e559b7213887762d5229550c2b","162.251.248.35","Mozilla/5.0 (Windows NT 10.0; Win64; x64) AppleWebKit/537.36 (KHTML, like Gecko) Chrome/134.0.0.0 Safari/537.36","WebKit","Chrome","134.0.0.0","Windows","10.0","https://app.prolific.com/","en-US,en;q=0.9","67eab317b6f969b3df440160","6877631c9844ddd5501205fc","688a06dfa91592bb0065f9a0","3","1","67eab317b6f969b3df440160","3","1","2025-07-30T11:59:09.490Z","","","","","","","","","","","AttribQ","","50","","","","","","","","","","","","","","","","","","","","","","","","","","","","",""
"4158","","<div style=""width:500px;"">
  <p>How much control did you have over the ball?</p>
  </div>","11","html-slider-response","36","543246","0.0-5.0-2.5","288","1","2025-07-30 11:49:59","1f75c3e559b7213887762d5229550c2b","162.251.248.35","Mozilla/5.0 (Windows NT 10.0; Win64; x64) AppleWebKit/537.36 (KHTML, like Gecko) Chrome/134.0.0.0 Safari/537.36","WebKit","Chrome","134.0.0.0","Windows","10.0","https://app.prolific.com/","en-US,en;q=0.9","67eab317b6f969b3df440160","6877631c9844ddd5501205fc","688a06dfa91592bb0065f9a0","3","1","67eab317b6f969b3df440160","3","1","2025-07-30T11:59:13.650Z","","","","","","","","","","","ControlQ","","50","","","","","","","","","","","","","","","","","","","","","","","","","","","","",""
"2943","","<div style=""width:500px;"">
  <p>How would you describe your current emotional state?</p>
  </div>","93","html-slider-response","37","546190","0.0-5.0-3.5","288","1","2025-07-30 11:49:59","1f75c3e559b7213887762d5229550c2b","162.251.248.35","Mozilla/5.0 (Windows NT 10.0; Win64; x64) AppleWebKit/537.36 (KHTML, like Gecko) Chrome/134.0.0.0 Safari/537.36","WebKit","Chrome","134.0.0.0","Windows","10.0","https://app.prolific.com/","en-US,en;q=0.9","67eab317b6f969b3df440160","6877631c9844ddd5501205fc","688a06dfa91592bb0065f9a0","3","1","67eab317b6f969b3df440160","3","1","2025-07-30T11:59:16.594Z","","","","","","","","","","","StressQ","","50","","","","","","","","","","","","","","","","","","","","","","","","","","","","",""
"4496","","<div style=""width:500px;"">
  <p>What best describes how you currently feel?</p>
  </div>","26","html-slider-response","38","550687","0.0-5.0-4.5","288","1","2025-07-30 11:49:59","1f75c3e559b7213887762d5229550c2b","162.251.248.35","Mozilla/5.0 (Windows NT 10.0; Win64; x64) AppleWebKit/537.36 (KHTML, like Gecko) Chrome/134.0.0.0 Safari/537.36","WebKit","Chrome","134.0.0.0","Windows","10.0","https://app.prolific.com/","en-US,en;q=0.9","67eab317b6f969b3df440160","6877631c9844ddd5501205fc","688a06dfa91592bb0065f9a0","3","1","67eab317b6f969b3df440160","3","1","2025-07-30T11:59:21.091Z","","","","","","","","","","","MotivationQ","","50","","","","","","","","","","","","","","","","","","","","","","","","","","","","",""
"","","","","ctl-task-cpt","39","599702","0.0-5.0-0.6","288","1","2025-07-30 11:49:59","1f75c3e559b7213887762d5229550c2b","162.251.248.35","Mozilla/5.0 (Windows NT 10.0; Win64; x64) AppleWebKit/537.36 (KHTML, like Gecko) Chrome/134.0.0.0 Safari/537.36","WebKit","Chrome","134.0.0.0","Windows","10.0","https://app.prolific.com/","en-US,en;q=0.9","67eab317b6f969b3df440160","6877631c9844ddd5501205fc","688a06dfa91592bb0065f9a0","3","1","67eab317b6f969b3df440160","3","1","2025-07-30T12:00:10.106Z","","","","","","","","","","","","","","win-only","2","g1:SE,g2:NW","0.4","7","0","560858.4","1693.3","6702.6","45995.1","1","4","4","6","1","-1","-1","6","7","0.045454545454545456","2285.6","3000","-2310","[""down"",""right""]","{""num_key_presses"":6,""num_perfect"":2,""num_errors"":0,""num_randdir"":4,""num_randdir_good_moves"":1,""num_whilered"":0,""num_whileblue"":0,""num_blue"":5,""num_good_moves"":3}","[351.2857142857143,338.1919642857143,0.2,351.2857142857143,338.1919642857143,106,352.2857142857143,344.1919642857143,207,371.2857142857143,379.1919642857143,307.9,385.2857142857143,382.1919642857143,420.5,402.2857142857143,387.1919642857143,523.2,408.2857142857143,400.1919642857143,644.5,409.2857142857143,429.1919642857143,750.3,447.2857142857143,484.1919642857143,852.8,447.2857142857143,484.1919642857143,959.7,447.2857142857143,484.1919642857143,1068.5,446.2857142857143,487.1919642857143,1172.8,447.2857142857143,492.1919642857143,1280.2,380.2857142857143,439.1919642857143,1382.7,242.28571428571428,196.19196428571428,1485.1,206.28571428571428,147.19196428571428,1585.4,319.2857142857143,329.1919642857143,1687,416.2857142857143,467.1919642857143,1792.9,464.2857142857143,504.1919642857143,1892.9,546.2857142857143,566.1919642857143,2002.9,585.2857142857143,625.1919642857143,2107.3,637.2857142857143,644.1919642857143,2207.8,637.2857142857143,644.1919642857143,2307.9,637.2857142857143,644.1919642857143,2408.1,637.2857142857143,644.1919642857143,2523.4,616.2857142857143,628.1919642857143,2626.5,616.2857142857143,628.1919642857143,2728,618.2857142857143,612.1919642857143,2835.4,618.2857142857143,612.1919642857143,2937.9,618.2857142857143,612.1919642857143,3038.6,618.2857142857143,612.1919642857143,3138.8,627.2857142857143,609.1919642857143,3241,627.2857142857143,609.1919642857143,3342.9,627.2857142857143,609.1919642857143,3459.4,627.2857142857143,609.1919642857143,3562.9,627.2857142857143,609.1919642857143,3673,627.2857142857143,609.1919642857143,3787.5,628.2857142857143,609.1919642857143,3892.8,638.2857142857143,609.1919642857143,3992.8,638.2857142857143,609.1919642857143,4092.9,638.2857142857143,609.1919642857143,4202,638.2857142857143,609.1919642857143,4302.4,638.2857142857143,609.1919642857143,4409.5,638.2857142857143,609.1919642857143,4509.7,638.2857142857143,609.1919642857143,4617.9,638.2857142857143,609.1919642857143,4722.7,638.2857142857143,609.1919642857143,4827.6,638.2857142857143,609.1919642857143,4942.6]","[5076.5,5076.5,2532.2,2009.8,534.5,""oops"",""right"",""up"",""bad_move"",8725,3648.1,3007.4,5077,640.6,""oops"",""right"",""left"",""bad_move"",11885,3159.5,2445.6,8725.5,713.9,""smooth"",""down"",""down"",""good_move"",15215.7,3330.5,2825.8,11885.3,504.7,""oops"",""down"",""right"",""good_move"",22400.8,7184.7,2912.8,18800.6,687.4,""oops"",""down"",""up"",""bad_move"",25557.1,3155.9,2233.8,22401.2,922.1,""smooth"",""right"",""right"",""good_move""]","",""
"11119","","<div style=""width:500px;"">
  <p>What determined the result of this run?</p>
  </div>","19","html-slider-response","40","610822","0.0-5.0-1.6","288","1","2025-07-30 11:49:59","1f75c3e559b7213887762d5229550c2b","162.251.248.35","Mozilla/5.0 (Windows NT 10.0; Win64; x64) AppleWebKit/537.36 (KHTML, like Gecko) Chrome/134.0.0.0 Safari/537.36","WebKit","Chrome","134.0.0.0","Windows","10.0","https://app.prolific.com/","en-US,en;q=0.9","67eab317b6f969b3df440160","6877631c9844ddd5501205fc","688a06dfa91592bb0065f9a0","3","1","67eab317b6f969b3df440160","3","1","2025-07-30T12:00:21.226Z","","","","","","","","","","","AttribQ","","50","","","","","","","","","","","","","","","","","","","","","","","","","","","","",""
"4711","","<div style=""width:500px;"">
  <p>How much control did you have over the ball?</p>
  </div>","24","html-slider-response","41","615534","0.0-5.0-2.6","288","1","2025-07-30 11:49:59","1f75c3e559b7213887762d5229550c2b","162.251.248.35","Mozilla/5.0 (Windows NT 10.0; Win64; x64) AppleWebKit/537.36 (KHTML, like Gecko) Chrome/134.0.0.0 Safari/537.36","WebKit","Chrome","134.0.0.0","Windows","10.0","https://app.prolific.com/","en-US,en;q=0.9","67eab317b6f969b3df440160","6877631c9844ddd5501205fc","688a06dfa91592bb0065f9a0","3","1","67eab317b6f969b3df440160","3","1","2025-07-30T12:00:25.938Z","","","","","","","","","","","ControlQ","","50","","","","","","","","","","","","","","","","","","","","","","","","","","","","",""
"2630","","<div style=""width:500px;"">
  <p>How would you describe your current emotional state?</p>
  </div>","67","html-slider-response","42","618166","0.0-5.0-3.6","288","1","2025-07-30 11:49:59","1f75c3e559b7213887762d5229550c2b","162.251.248.35","Mozilla/5.0 (Windows NT 10.0; Win64; x64) AppleWebKit/537.36 (KHTML, like Gecko) Chrome/134.0.0.0 Safari/537.36","WebKit","Chrome","134.0.0.0","Windows","10.0","https://app.prolific.com/","en-US,en;q=0.9","67eab317b6f969b3df440160","6877631c9844ddd5501205fc","688a06dfa91592bb0065f9a0","3","1","67eab317b6f969b3df440160","3","1","2025-07-30T12:00:28.570Z","","","","","","","","","","","StressQ","","50","","","","","","","","","","","","","","","","","","","","","","","","","","","","",""
"3327","","<div style=""width:500px;"">
  <p>What best describes how you currently feel?</p>
  </div>","39","html-slider-response","43","621494","0.0-5.0-4.6","288","1","2025-07-30 11:49:59","1f75c3e559b7213887762d5229550c2b","162.251.248.35","Mozilla/5.0 (Windows NT 10.0; Win64; x64) AppleWebKit/537.36 (KHTML, like Gecko) Chrome/134.0.0.0 Safari/537.36","WebKit","Chrome","134.0.0.0","Windows","10.0","https://app.prolific.com/","en-US,en;q=0.9","67eab317b6f969b3df440160","6877631c9844ddd5501205fc","688a06dfa91592bb0065f9a0","3","1","67eab317b6f969b3df440160","3","1","2025-07-30T12:00:31.898Z","","","","","","","","","","","MotivationQ","","50","","","","","","","","","","","","","","","","","","","","","","","","","","","","",""
"","","","","ctl-task-cpt","44","659472","0.0-5.0-0.7","288","1","2025-07-30 11:49:59","1f75c3e559b7213887762d5229550c2b","162.251.248.35","Mozilla/5.0 (Windows NT 10.0; Win64; x64) AppleWebKit/537.36 (KHTML, like Gecko) Chrome/134.0.0.0 Safari/537.36","WebKit","Chrome","134.0.0.0","Windows","10.0","https://app.prolific.com/","en-US,en;q=0.9","67eab317b6f969b3df440160","6877631c9844ddd5501205fc","688a06dfa91592bb0065f9a0","3","1","67eab317b6f969b3df440160","3","1","2025-07-30T12:01:09.876Z","","","","","","","","","","","","","","win-only","0","g1:NW,g2:SE","0.3","8","0","631665","846.2","5846.8","34959.7","1","4","8","6","1","-1","-1","5","6","0.03787878787878788","2024.3","3000","-2125","[""left"",""up""]","{""num_key_presses"":7,""num_perfect"":3,""num_errors"":0,""num_randdir"":4,""num_randdir_good_moves"":1,""num_whilered"":0,""num_whileblue"":0,""num_blue"":2,""num_good_moves"":1}","[340.2857142857143,344.1919642857143,0.3,340.2857142857143,344.1919642857143,105.2,340.2857142857143,344.1919642857143,206,340.2857142857143,344.1919642857143,309.8,340.2857142857143,344.1919642857143,410.6,340.2857142857143,344.1919642857143,519.1,340.2857142857143,344.1919642857143,619.9,340.2857142857143,344.1919642857143,721.2,343.2857142857143,359.1919642857143,821.3,481.2857142857143,464.1919642857143,922.5,472.2857142857143,464.1919642857143,1023.8,335.2857142857143,356.1919642857143,1124.4,271.2857142857143,235.19196428571428,1225.5,240.28571428571428,168.19196428571428,1336.4,144.28571428571428,113.19196428571428,1439.9,120.28571428571428,75.19196428571428,1545.1,98.28571428571428,45.191964285714285,1656.2,78.28571428571428,41.191964285714285,1770.6,64.28571428571428,59.191964285714285,1870.6,64.28571428571428,59.191964285714285,1975.3,64.28571428571428,59.191964285714285,2087.6,64.28571428571428,59.191964285714285,2190.7,64.28571428571428,63.191964285714285,2293.3,81.28571428571428,98.19196428571428,2394.4,139.28571428571428,176.19196428571428,2506.7,185.28571428571428,203.19196428571428,2609.1,185.28571428571428,203.19196428571428,2710.2,185.28571428571428,203.19196428571428,2815,185.28571428571428,203.19196428571428,2916,185.28571428571428,203.19196428571428,3019.6,185.28571428571428,203.19196428571428,3124.6,185.28571428571428,203.19196428571428,3237.8,185.28571428571428,203.19196428571428,3356.7,185.28571428571428,203.19196428571428,3471.4,185.28571428571428,203.19196428571428,3572.5,185.28571428571428,203.19196428571428,3674.8,185.28571428571428,203.19196428571428,3776.2,185.28571428571428,203.19196428571428,3880.6,185.28571428571428,203.19196428571428,3984.2,185.28571428571428,203.19196428571428,4087.7,185.28571428571428,203.19196428571428,4190.6,185.28571428571428,203.19196428571428,4294.5,185.28571428571428,203.19196428571428,4403.4,185.28571428571428,203.19196428571428,4504.1,185.28571428571428,203.19196428571428,4606.1,185.28571428571428,203.19196428571428,4710.1,185.28571428571428,203.19196428571428,4810.1,185.28571428571428,203.19196428571428,4914.6]","[1455,1455,1000,0,455,""oops"",""up"",""right"",""bad_move"",4954.7,3499.4,2946.9,1455.3,552.5,""oops"",""up"",""up"",""good_move"",11078.2,6123,1904.2,8607.8,566.2,""oops"",""left"",""right"",""bad_move"",14406.3,3327.8,2500.6,11078.5,827.2,""oops"",""up"",""down"",""bad_move"",17502.3,3095.4,2482.1,14406.9,613.3,""smooth"",""down"",""down"",""bad_move"",20528,3025.4,2485.4,17502.6,540,""smooth"",""down"",""down"",""bad_move"",26422.2,5893.9,2367.3,23569.3,485.6,""smooth"",""down"",""down"",""bad_move""]","",""
"3340","","<div style=""width:500px;"">
  <p>What determined the result of this run?</p>
  </div>","17","html-slider-response","45","662814","0.0-5.0-1.7","288","1","2025-07-30 11:49:59","1f75c3e559b7213887762d5229550c2b","162.251.248.35","Mozilla/5.0 (Windows NT 10.0; Win64; x64) AppleWebKit/537.36 (KHTML, like Gecko) Chrome/134.0.0.0 Safari/537.36","WebKit","Chrome","134.0.0.0","Windows","10.0","https://app.prolific.com/","en-US,en;q=0.9","67eab317b6f969b3df440160","6877631c9844ddd5501205fc","688a06dfa91592bb0065f9a0","3","1","67eab317b6f969b3df440160","3","1","2025-07-30T12:01:13.218Z","","","","","","","","","","","AttribQ","","50","","","","","","","","","","","","","","","","","","","","","","","","","","","","",""
"3038","","<div style=""width:500px;"">
  <p>How much control did you have over the ball?</p>
  </div>","24","html-slider-response","46","665854","0.0-5.0-2.7","288","1","2025-07-30 11:49:59","1f75c3e559b7213887762d5229550c2b","162.251.248.35","Mozilla/5.0 (Windows NT 10.0; Win64; x64) AppleWebKit/537.36 (KHTML, like Gecko) Chrome/134.0.0.0 Safari/537.36","WebKit","Chrome","134.0.0.0","Windows","10.0","https://app.prolific.com/","en-US,en;q=0.9","67eab317b6f969b3df440160","6877631c9844ddd5501205fc","688a06dfa91592bb0065f9a0","3","1","67eab317b6f969b3df440160","3","1","2025-07-30T12:01:16.258Z","","","","","","","","","","","ControlQ","","50","","","","","","","","","","","","","","","","","","","","","","","","","","","","",""
"3191","","<div style=""width:500px;"">
  <p>How would you describe your current emotional state?</p>
  </div>","74","html-slider-response","47","669046","0.0-5.0-3.7","288","1","2025-07-30 11:49:59","1f75c3e559b7213887762d5229550c2b","162.251.248.35","Mozilla/5.0 (Windows NT 10.0; Win64; x64) AppleWebKit/537.36 (KHTML, like Gecko) Chrome/134.0.0.0 Safari/537.36","WebKit","Chrome","134.0.0.0","Windows","10.0","https://app.prolific.com/","en-US,en;q=0.9","67eab317b6f969b3df440160","6877631c9844ddd5501205fc","688a06dfa91592bb0065f9a0","3","1","67eab317b6f969b3df440160","3","1","2025-07-30T12:01:19.450Z","","","","","","","","","","","StressQ","","50","","","","","","","","","","","","","","","","","","","","","","","","","","","","",""
"2334","","<div style=""width:500px;"">
  <p>What best describes how you currently feel?</p>
  </div>","28","html-slider-response","48","671382","0.0-5.0-4.7","288","1","2025-07-30 11:49:59","1f75c3e559b7213887762d5229550c2b","162.251.248.35","Mozilla/5.0 (Windows NT 10.0; Win64; x64) AppleWebKit/537.36 (KHTML, like Gecko) Chrome/134.0.0.0 Safari/537.36","WebKit","Chrome","134.0.0.0","Windows","10.0","https://app.prolific.com/","en-US,en;q=0.9","67eab317b6f969b3df440160","6877631c9844ddd5501205fc","688a06dfa91592bb0065f9a0","3","1","67eab317b6f969b3df440160","3","1","2025-07-30T12:01:21.786Z","","","","","","","","","","","MotivationQ","","50","","","","","","","","","","","","","","","","","","","","","","","","","","","","",""
"","","","","ctl-task-cpt","49","730528","0.0-5.0-0.8","288","1","2025-07-30 11:49:59","1f75c3e559b7213887762d5229550c2b","162.251.248.35","Mozilla/5.0 (Windows NT 10.0; Win64; x64) AppleWebKit/537.36 (KHTML, like Gecko) Chrome/134.0.0.0 Safari/537.36","WebKit","Chrome","134.0.0.0","Windows","10.0","https://app.prolific.com/","en-US,en;q=0.9","67eab317b6f969b3df440160","6877631c9844ddd5501205fc","688a06dfa91592bb0065f9a0","3","1","67eab317b6f969b3df440160","3","1","2025-07-30T12:02:20.932Z","","","","","","","","","","","","","","win-only","1","g1:NE,g2:SW","0.2","9","0","681553.2","3269.7","8270.7","56125.3","1","4","8","6","2","-8","-8","0","5","0","1943.5","3000","-2035","[""down"",""left""]","{""num_key_presses"":8,""num_perfect"":2,""num_errors"":0,""num_randdir"":6,""num_randdir_good_moves"":1,""num_whilered"":0,""num_whileblue"":0,""num_blue"":6,""num_good_moves"":3}","[344.2857142857143,342.1919642857143,0.4,344.2857142857143,342.1919642857143,107.7,344.2857142857143,342.1919642857143,213.5,344.2857142857143,342.1919642857143,317.3,344.2857142857143,342.1919642857143,421.8,344.2857142857143,342.1919642857143,526.3,344.2857142857143,342.1919642857143,636.5,344.2857142857143,342.1919642857143,736.5,341.2857142857143,342.1919642857143,841,324.2857142857143,348.1919642857143,941.4,324.2857142857143,348.1919642857143,1042.4,241.28571428571428,396.1919642857143,1158,217.28571428571428,420.1919642857143,1261.3,113.28571428571428,616.1919642857143,1378.3,47.285714285714285,688.1919642857143,1497.9,47.285714285714285,688.1919642857143,1601.7,26.285714285714285,674.1919642857143,1706.5,22.285714285714285,669.1919642857143,1808.8,22.285714285714285,662.1919642857143,1911.3,22.285714285714285,662.1919642857143,2022.5,22.285714285714285,662.1919642857143,2124.1,22.285714285714285,662.1919642857143,2225.1,22.285714285714285,662.1919642857143,2325.7,153.28571428571428,573.1919642857143,2431.4,248.28571428571428,500.1919642857143,2535.7,284.2857142857143,468.1919642857143,2637.9,284.2857142857143,468.1919642857143,2741.3,284.2857142857143,468.1919642857143,2841.6,284.2857142857143,468.1919642857143,2962.3,284.2857142857143,468.1919642857143,3080.1,284.2857142857143,468.1919642857143,3182.3,284.2857142857143,468.1919642857143,3293.7,284.2857142857143,468.1919642857143,3407.7,284.2857142857143,468.1919642857143,3509.8,284.2857142857143,468.1919642857143,3610.6,284.2857142857143,468.1919642857143,3715.2,284.2857142857143,468.1919642857143,3821.5,284.2857142857143,468.1919642857143,3922.4,284.2857142857143,468.1919642857143,4026.9,284.2857142857143,468.1919642857143,4127.1,284.2857142857143,468.1919642857143,4231.3,284.2857142857143,468.1919642857143,4336.8,284.2857142857143,468.1919642857143,4440.4,284.2857142857143,468.1919642857143,4541.2,284.2857142857143,468.1919642857143,4657.7,284.2857142857143,468.1919642857143,4760.7,284.2857142857143,468.1919642857143,4861.6,284.2857142857143,468.1919642857143,4962.4]","[1454.3,1454.3,1000,0,454.3,""smooth"",""down"",""down"",""good_move"",4054.4,2599.6,2140.7,1454.8,458.9,""oops"",""down"",""up"",""bad_move"",10253.9,6198.5,2313,7530.4,410.5,""smooth"",""down"",""down"",""good_move"",16582.4,6328.2,2707,13413.7,461.7,""oops"",""left"",""up"",""bad_move"",20628.9,4045.9,3334.1,16583,711.8,""oops"",""left"",""left"",""good_move"",28665.4,8036,3632.5,24630.8,402.1,""oops"",""left"",""up"",""bad_move"",38215.6,9549.7,2258.6,35470.2,486.8,""oops"",""left"",""right"",""bad_move"",44606.2,6390.1,2452.3,41611.6,542.3,""oops"",""right"",""up"",""bad_move""]","",""
"2917","","<div style=""width:500px;"">
  <p>What determined the result of this run?</p>
  </div>","0","html-slider-response","50","733446","0.0-5.0-1.8","288","1","2025-07-30 11:49:59","1f75c3e559b7213887762d5229550c2b","162.251.248.35","Mozilla/5.0 (Windows NT 10.0; Win64; x64) AppleWebKit/537.36 (KHTML, like Gecko) Chrome/134.0.0.0 Safari/537.36","WebKit","Chrome","134.0.0.0","Windows","10.0","https://app.prolific.com/","en-US,en;q=0.9","67eab317b6f969b3df440160","6877631c9844ddd5501205fc","688a06dfa91592bb0065f9a0","3","1","67eab317b6f969b3df440160","3","1","2025-07-30T12:02:23.850Z","","","","","","","","","","","AttribQ","","50","","","","","","","","","","","","","","","","","","","","","","","","","","","","",""
"3174","","<div style=""width:500px;"">
  <p>How much control did you have over the ball?</p>
  </div>","0","html-slider-response","51","736622","0.0-5.0-2.8","288","1","2025-07-30 11:49:59","1f75c3e559b7213887762d5229550c2b","162.251.248.35","Mozilla/5.0 (Windows NT 10.0; Win64; x64) AppleWebKit/537.36 (KHTML, like Gecko) Chrome/134.0.0.0 Safari/537.36","WebKit","Chrome","134.0.0.0","Windows","10.0","https://app.prolific.com/","en-US,en;q=0.9","67eab317b6f969b3df440160","6877631c9844ddd5501205fc","688a06dfa91592bb0065f9a0","3","1","67eab317b6f969b3df440160","3","1","2025-07-30T12:02:27.026Z","","","","","","","","","","","ControlQ","","50","","","","","","","","","","","","","","","","","","","","","","","","","","","","",""
"2447","","<div style=""width:500px;"">
  <p>How would you describe your current emotional state?</p>
  </div>","100","html-slider-response","52","739070","0.0-5.0-3.8","288","1","2025-07-30 11:49:59","1f75c3e559b7213887762d5229550c2b","162.251.248.35","Mozilla/5.0 (Windows NT 10.0; Win64; x64) AppleWebKit/537.36 (KHTML, like Gecko) Chrome/134.0.0.0 Safari/537.36","WebKit","Chrome","134.0.0.0","Windows","10.0","https://app.prolific.com/","en-US,en;q=0.9","67eab317b6f969b3df440160","6877631c9844ddd5501205fc","688a06dfa91592bb0065f9a0","3","1","67eab317b6f969b3df440160","3","1","2025-07-30T12:02:29.475Z","","","","","","","","","","","StressQ","","50","","","","","","","","","","","","","","","","","","","","","","","","","","","","",""
"2462","","<div style=""width:500px;"">
  <p>What best describes how you currently feel?</p>
  </div>","0","html-slider-response","53","741534","0.0-5.0-4.8","288","1","2025-07-30 11:49:59","1f75c3e559b7213887762d5229550c2b","162.251.248.35","Mozilla/5.0 (Windows NT 10.0; Win64; x64) AppleWebKit/537.36 (KHTML, like Gecko) Chrome/134.0.0.0 Safari/537.36","WebKit","Chrome","134.0.0.0","Windows","10.0","https://app.prolific.com/","en-US,en;q=0.9","67eab317b6f969b3df440160","6877631c9844ddd5501205fc","688a06dfa91592bb0065f9a0","3","1","67eab317b6f969b3df440160","3","1","2025-07-30T12:02:31.938Z","","","","","","","","","","","MotivationQ","","50","","","","","","","","","","","","","","","","","","","","","","","","","","","","",""
"","","","","ctl-task-cpt","54","792478","0.0-5.0-0.9","288","1","2025-07-30 11:49:59","1f75c3e559b7213887762d5229550c2b","162.251.248.35","Mozilla/5.0 (Windows NT 10.0; Win64; x64) AppleWebKit/537.36 (KHTML, like Gecko) Chrome/134.0.0.0 Safari/537.36","WebKit","Chrome","134.0.0.0","Windows","10.0","https://app.prolific.com/","en-US,en;q=0.9","67eab317b6f969b3df440160","6877631c9844ddd5501205fc","688a06dfa91592bb0065f9a0","3","1","67eab317b6f969b3df440160","3","1","2025-07-30T12:03:22.882Z","","","","","","","","","","","","","","win-only","0","g1:NW,g2:SE","0.4","10","0","751705.2","3509.6","8511.6","47901.1","1","4","4","6","1","-1","-2","0","0","0","1480.5","3000","-1950","[""left"",""up""]","{""num_key_presses"":10,""num_perfect"":4,""num_errors"":1,""num_randdir"":5,""num_randdir_good_moves"":1,""num_whilered"":0,""num_whileblue"":0,""num_blue"":3,""num_good_moves"":5}","[342.2857142857143,337.1919642857143,0.2,342.2857142857143,337.1919642857143,102.1,342.2857142857143,337.1919642857143,209.3,342.2857142857143,337.1919642857143,325.5,342.2857142857143,337.1919642857143,426.4,329.2857142857143,379.1919642857143,538.7,327.2857142857143,398.1919642857143,657.3,324.2857142857143,404.1919642857143,762.2,323.2857142857143,405.1919642857143,871.5,268.2857142857143,290.1919642857143,977.3,186.28571428571428,189.19196428571428,1096.1,112.28571428571428,122.19196428571428,1196.1,62.285714285714285,97.19196428571428,1307.2,61.285714285714285,88.19196428571428,1411.8,61.285714285714285,88.19196428571428,1517,61.285714285714285,88.19196428571428,1622.3,58.285714285714285,104.19196428571428,1729.3,58.285714285714285,104.19196428571428,1832.2,58.285714285714285,104.19196428571428,1935.7,58.285714285714285,104.19196428571428,2044,58.285714285714285,104.19196428571428,2147.2,58.285714285714285,104.19196428571428,2252.2,58.285714285714285,104.19196428571428,2357.4,58.285714285714285,104.19196428571428,2457.5,58.285714285714285,104.19196428571428,2561.2,58.285714285714285,104.19196428571428,2673.6,58.285714285714285,104.19196428571428,2773.9,58.285714285714285,104.19196428571428,2878.4,58.285714285714285,104.19196428571428,2981.1,58.285714285714285,104.19196428571428,3085.3,58.285714285714285,104.19196428571428,3186.7,58.285714285714285,104.19196428571428,3287.3,58.285714285714285,104.19196428571428,3393.4,58.285714285714285,104.19196428571428,3494.7,58.285714285714285,104.19196428571428,3602.6,58.285714285714285,104.19196428571428,3705.8,58.285714285714285,104.19196428571428,3806.4,58.285714285714285,104.19196428571428,3918.4,58.285714285714285,104.19196428571428,4032.6,58.285714285714285,104.19196428571428,4136.2,58.285714285714285,104.19196428571428,4237.4,58.285714285714285,104.19196428571428,4355.2,58.285714285714285,104.19196428571428,4456.6,58.285714285714285,104.19196428571428,4557.2,58.285714285714285,104.19196428571428,4672,58.285714285714285,104.19196428571428,4783.3,58.285714285714285,104.19196428571428,4887,58.285714285714285,104.19196428571428,4987.8]","[1502.2,1502.2,1000,0,502.2,""smooth"",""up"",""up"",""good_move"",3797.2,2294.6,1816,1502.6,478.6,""oops"",""up"",""right"",""bad_move"",6901.3,3103.8,2633,3797.5,470.8,""smooth"",""up"",""up"",""good_move"",9061.4,2160,1700.3,6901.4,459.7,""smooth"",""left"",""left"",""good_move"",12037.6,2975.8,2528.7,9061.8,447.1,""oops"",""left"",""right"",""bad_move"",14560.1,2522.2,2050,12037.9,472.2,""oops"",""left"",""left"",""good_move"",20491,5930.5,1532.3,18450.9,507.8,""smooth"",""left"",""left"",""good_move"",30612.9,10121.6,2098.7,28027.7,486.5,""oops"",""left"",""down"",""bad_move"",33902.9,3289.4,2646,30613.5,643.4,""oops"",""down"",""down"",""bad_move"",35157.2,1253.9,3075.3,33903.3,-1821.4,""error"",""-"",""-"",""no_move""]","",""
"2791","","<div style=""width:500px;"">
  <p>What determined the result of this run?</p>
  </div>","0","html-slider-response","55","795270","0.0-5.0-1.9","288","1","2025-07-30 11:49:59","1f75c3e559b7213887762d5229550c2b","162.251.248.35","Mozilla/5.0 (Windows NT 10.0; Win64; x64) AppleWebKit/537.36 (KHTML, like Gecko) Chrome/134.0.0.0 Safari/537.36","WebKit","Chrome","134.0.0.0","Windows","10.0","https://app.prolific.com/","en-US,en;q=0.9","67eab317b6f969b3df440160","6877631c9844ddd5501205fc","688a06dfa91592bb0065f9a0","3","1","67eab317b6f969b3df440160","3","1","2025-07-30T12:03:25.674Z","","","","","","","","","","","AttribQ","","50","","","","","","","","","","","","","","","","","","","","","","","","","","","","",""
"3198","","<div style=""width:500px;"">
  <p>How much control did you have over the ball?</p>
  </div>","24","html-slider-response","56","798470","0.0-5.0-2.9","288","1","2025-07-30 11:49:59","1f75c3e559b7213887762d5229550c2b","162.251.248.35","Mozilla/5.0 (Windows NT 10.0; Win64; x64) AppleWebKit/537.36 (KHTML, like Gecko) Chrome/134.0.0.0 Safari/537.36","WebKit","Chrome","134.0.0.0","Windows","10.0","https://app.prolific.com/","en-US,en;q=0.9","67eab317b6f969b3df440160","6877631c9844ddd5501205fc","688a06dfa91592bb0065f9a0","3","1","67eab317b6f969b3df440160","3","1","2025-07-30T12:03:28.874Z","","","","","","","","","","","ControlQ","","50","","","","","","","","","","","","","","","","","","","","","","","","","","","","",""
"1982","","<div style=""width:500px;"">
  <p>How would you describe your current emotional state?</p>
  </div>","83","html-slider-response","57","800454","0.0-5.0-3.9","288","1","2025-07-30 11:49:59","1f75c3e559b7213887762d5229550c2b","162.251.248.35","Mozilla/5.0 (Windows NT 10.0; Win64; x64) AppleWebKit/537.36 (KHTML, like Gecko) Chrome/134.0.0.0 Safari/537.36","WebKit","Chrome","134.0.0.0","Windows","10.0","https://app.prolific.com/","en-US,en;q=0.9","67eab317b6f969b3df440160","6877631c9844ddd5501205fc","688a06dfa91592bb0065f9a0","3","1","67eab317b6f969b3df440160","3","1","2025-07-30T12:03:30.858Z","","","","","","","","","","","StressQ","","50","","","","","","","","","","","","","","","","","","","","","","","","","","","","",""
"1951","","<div style=""width:500px;"">
  <p>What best describes how you currently feel?</p>
  </div>","14","html-slider-response","58","802407","0.0-5.0-4.9","288","1","2025-07-30 11:49:59","1f75c3e559b7213887762d5229550c2b","162.251.248.35","Mozilla/5.0 (Windows NT 10.0; Win64; x64) AppleWebKit/537.36 (KHTML, like Gecko) Chrome/134.0.0.0 Safari/537.36","WebKit","Chrome","134.0.0.0","Windows","10.0","https://app.prolific.com/","en-US,en;q=0.9","67eab317b6f969b3df440160","6877631c9844ddd5501205fc","688a06dfa91592bb0065f9a0","3","1","67eab317b6f969b3df440160","3","1","2025-07-30T12:03:32.811Z","","","","","","","","","","","MotivationQ","","50","","","","","","","","","","","","","","","","","","","","","","","","","","","","",""
"","","","","ctl-task-cpt","59","852665","0.0-5.0-0.10","288","1","2025-07-30 11:49:59","1f75c3e559b7213887762d5229550c2b","162.251.248.35","Mozilla/5.0 (Windows NT 10.0; Win64; x64) AppleWebKit/537.36 (KHTML, like Gecko) Chrome/134.0.0.0 Safari/537.36","WebKit","Chrome","134.0.0.0","Windows","10.0","https://app.prolific.com/","en-US,en;q=0.9","67eab317b6f969b3df440160","6877631c9844ddd5501205fc","688a06dfa91592bb0065f9a0","3","1","67eab317b6f969b3df440160","3","1","2025-07-30T12:04:23.069Z","","","","","","","","","","","","","","win-only","1","g1:NE,g2:SW","0.5","11","0","812577.8","5643.2","10646.5","47225.9","1","4","4","6","1","-1","-1","0","0","0","1702.4","3000","-1815","[""up"",""right""]","{""num_key_presses"":7,""num_perfect"":5,""num_errors"":0,""num_randdir"":2,""num_randdir_good_moves"":0,""num_whilered"":0,""num_whileblue"":0,""num_blue"":4,""num_good_moves"":5}","[346.2857142857143,334.1919642857143,0.3,346.2857142857143,334.1919642857143,108,346.2857142857143,334.1919642857143,213.9,346.2857142857143,334.1919642857143,317.2,346.2857142857143,334.1919642857143,417.2,346.2857142857143,334.1919642857143,517.4,346.2857142857143,334.1919642857143,629.4,346.2857142857143,334.1919642857143,735.3,346.2857142857143,334.1919642857143,836,390.2857142857143,292.1919642857143,952.5,472.2857142857143,205.19196428571428,1053.2,528.2857142857143,151.19196428571428,1168.4,546.2857142857143,121.19196428571428,1282.6,601.2857142857143,61.191964285714285,1385.2,625.2857142857143,34.191964285714285,1485.2,625.2857142857143,34.191964285714285,1586.9,625.2857142857143,34.191964285714285,1706.6,625.2857142857143,34.191964285714285,1807.6,625.2857142857143,34.191964285714285,1924.8,618.2857142857143,48.191964285714285,2025.8,605.2857142857143,84.19196428571428,2128.2,603.2857142857143,89.19196428571428,2234.2,588.2857142857143,93.19196428571428,2338.8,588.2857142857143,93.19196428571428,2445.8,588.2857142857143,93.19196428571428,2555.7,588.2857142857143,93.19196428571428,2657.6,588.2857142857143,93.19196428571428,2758,588.2857142857143,93.19196428571428,2859.4,588.2857142857143,93.19196428571428,2963.1,588.2857142857143,93.19196428571428,3068,588.2857142857143,93.19196428571428,3195.6,588.2857142857143,93.19196428571428,3298.9,588.2857142857143,93.19196428571428,3402.2,588.2857142857143,93.19196428571428,3522.6,588.2857142857143,93.19196428571428,3627.7,588.2857142857143,93.19196428571428,3734.7,588.2857142857143,93.19196428571428,3836.7,588.2857142857143,93.19196428571428,3952.2,588.2857142857143,93.19196428571428,4053.7,588.2857142857143,93.19196428571428,4154.4,588.2857142857143,93.19196428571428,4265.7,588.2857142857143,93.19196428571428,4376.7,588.2857142857143,93.19196428571428,4487.9,588.2857142857143,93.19196428571428,4594.9,588.2857142857143,93.19196428571428,4709.9,588.2857142857143,93.19196428571428,4816.8,588.2857142857143,93.19196428571428,4917.6]","[1902.3,1902.3,1000,0,902.3,""oops"",""up"",""left"",""bad_move"",14301.9,12399.1,1928.2,11562.1,811.6,""smooth"",""up"",""up"",""good_move"",20000.6,5698.3,1820.4,17369.7,810.5,""oops"",""up"",""down"",""bad_move"",23373.7,3372.6,2618.3,20001.1,754.3,""smooth"",""up"",""up"",""good_move"",27493.6,4119.7,3500.1,23374,619.6,""smooth"",""up"",""up"",""good_move"",30005.7,2511.7,1889.3,27494,622.4,""smooth"",""right"",""right"",""good_move"",33595.1,3588.9,3163.2,30006.2,425.7,""smooth"",""right"",""right"",""good_move""]","",""
"2852","","<div style=""width:500px;"">
  <p>What determined the result of this run?</p>
  </div>","22","html-slider-response","60","855518","0.0-5.0-1.10","288","1","2025-07-30 11:49:59","1f75c3e559b7213887762d5229550c2b","162.251.248.35","Mozilla/5.0 (Windows NT 10.0; Win64; x64) AppleWebKit/537.36 (KHTML, like Gecko) Chrome/134.0.0.0 Safari/537.36","WebKit","Chrome","134.0.0.0","Windows","10.0","https://app.prolific.com/","en-US,en;q=0.9","67eab317b6f969b3df440160","6877631c9844ddd5501205fc","688a06dfa91592bb0065f9a0","3","1","67eab317b6f969b3df440160","3","1","2025-07-30T12:04:25.922Z","","","","","","","","","","","AttribQ","","50","","","","","","","","","","","","","","","","","","","","","","","","","","","","",""
"2102","","<div style=""width:500px;"">
  <p>How much control did you have over the ball?</p>
  </div>","27","html-slider-response","61","857622","0.0-5.0-2.10","288","1","2025-07-30 11:49:59","1f75c3e559b7213887762d5229550c2b","162.251.248.35","Mozilla/5.0 (Windows NT 10.0; Win64; x64) AppleWebKit/537.36 (KHTML, like Gecko) Chrome/134.0.0.0 Safari/537.36","WebKit","Chrome","134.0.0.0","Windows","10.0","https://app.prolific.com/","en-US,en;q=0.9","67eab317b6f969b3df440160","6877631c9844ddd5501205fc","688a06dfa91592bb0065f9a0","3","1","67eab317b6f969b3df440160","3","1","2025-07-30T12:04:28.026Z","","","","","","","","","","","ControlQ","","50","","","","","","","","","","","","","","","","","","","","","","","","","","","","",""
"2207","","<div style=""width:500px;"">
  <p>How would you describe your current emotional state?</p>
  </div>","81","html-slider-response","62","859831","0.0-5.0-3.10","288","1","2025-07-30 11:49:59","1f75c3e559b7213887762d5229550c2b","162.251.248.35","Mozilla/5.0 (Windows NT 10.0; Win64; x64) AppleWebKit/537.36 (KHTML, like Gecko) Chrome/134.0.0.0 Safari/537.36","WebKit","Chrome","134.0.0.0","Windows","10.0","https://app.prolific.com/","en-US,en;q=0.9","67eab317b6f969b3df440160","6877631c9844ddd5501205fc","688a06dfa91592bb0065f9a0","3","1","67eab317b6f969b3df440160","3","1","2025-07-30T12:04:30.235Z","","","","","","","","","","","StressQ","","50","","","","","","","","","","","","","","","","","","","","","","","","","","","","",""
"1679","","<div style=""width:500px;"">
  <p>What best describes how you currently feel?</p>
  </div>","19","html-slider-response","63","861511","0.0-5.0-4.10","288","1","2025-07-30 11:49:59","1f75c3e559b7213887762d5229550c2b","162.251.248.35","Mozilla/5.0 (Windows NT 10.0; Win64; x64) AppleWebKit/537.36 (KHTML, like Gecko) Chrome/134.0.0.0 Safari/537.36","WebKit","Chrome","134.0.0.0","Windows","10.0","https://app.prolific.com/","en-US,en;q=0.9","67eab317b6f969b3df440160","6877631c9844ddd5501205fc","688a06dfa91592bb0065f9a0","3","1","67eab317b6f969b3df440160","3","1","2025-07-30T12:04:31.915Z","","","","","","","","","","","MotivationQ","","50","","","","","","","","","","","","","","","","","","","","","","","","","","","","",""
"","","","","ctl-task-cpt","64","893763","0.0-5.0-0.11","288","1","2025-07-30 11:49:59","1f75c3e559b7213887762d5229550c2b","162.251.248.35","Mozilla/5.0 (Windows NT 10.0; Win64; x64) AppleWebKit/537.36 (KHTML, like Gecko) Chrome/134.0.0.0 Safari/537.36","WebKit","Chrome","134.0.0.0","Windows","10.0","https://app.prolific.com/","en-US,en;q=0.9","67eab317b6f969b3df440160","6877631c9844ddd5501205fc","688a06dfa91592bb0065f9a0","3","1","67eab317b6f969b3df440160","3","1","2025-07-30T12:05:04.167Z","","","","","","","","","","","","","","win-only","2","g1:SE,g2:NW","0.6","12","0","871681.8","6359.4","11360.9","29201.1","1","4","8","6","1","1","1","1","0","0.007575757575757576","1845.6","3000","1625","[""down"",""right""]","{""num_key_presses"":6,""num_perfect"":5,""num_errors"":0,""num_randdir"":1,""num_randdir_good_moves"":0,""num_whilered"":0,""num_whileblue"":0,""num_blue"":0,""num_good_moves"":5}","[352.2857142857143,339.1919642857143,0.3,352.2857142857143,339.1919642857143,102.6,352.2857142857143,339.1919642857143,219.9,352.2857142857143,339.1919642857143,337.8,352.2857142857143,339.1919642857143,455.6,352.2857142857143,339.1919642857143,567.8,352.2857142857143,339.1919642857143,690.7,352.2857142857143,339.1919642857143,791.1,427.2857142857143,383.1919642857143,908,516.2857142857143,447.1919642857143,1010.9,529.2857142857143,466.1919642857143,1111.8,550.2857142857143,501.1919642857143,1231.6,581.2857142857143,538.1919642857143,1341.7,621.2857142857143,567.1919642857143,1443.7,637.2857142857143,593.1919642857143,1557.8,639.2857142857143,607.1919642857143,1662,641.2857142857143,614.1919642857143,1778.7,641.2857142857143,614.1919642857143,1896.9,641.2857142857143,614.1919642857143,2008.8,641.2857142857143,614.1919642857143,2114.2,645.2857142857143,615.1919642857143,2215.9,662.2857142857143,616.1919642857143,2316.1,662.2857142857143,616.1919642857143,2417.5,662.2857142857143,616.1919642857143,2523.5,662.2857142857143,616.1919642857143,2626.1,662.2857142857143,616.1919642857143,2741.3,662.2857142857143,616.1919642857143,2854.7,662.2857142857143,616.1919642857143,2974.1,662.2857142857143,616.1919642857143,3077.8,662.2857142857143,616.1919642857143,3183.1,662.2857142857143,616.1919642857143,3304,662.2857142857143,616.1919642857143,3406.3,662.2857142857143,616.1919642857143,3521,662.2857142857143,616.1919642857143,3645.3,662.2857142857143,616.1919642857143,3755.7,662.2857142857143,616.1919642857143,3866.8,662.2857142857143,616.1919642857143,3983.9,662.2857142857143,616.1919642857143,4101.2,662.2857142857143,616.1919642857143,4202.7,662.2857142857143,616.1919642857143,4314.7,662.2857142857143,616.1919642857143,4428.7,662.2857142857143,616.1919642857143,4529.7,662.2857142857143,616.1919642857143,4645.1,662.2857142857143,616.1919642857143,4747.9,662.2857142857143,616.1919642857143,4864.8,662.2857142857143,616.1919642857143,4966.5]","[1491.3,1491.4,1000,0,491.4,""smooth"",""down"",""down"",""good_move"",4279.9,2788.2,2305.7,1491.7,482.5,""smooth"",""right"",""right"",""good_move"",8045.3,3764.6,3246.5,4280.7,518.1,""smooth"",""right"",""right"",""good_move"",10887.1,2841.5,2362.4,8045.6,479.1,""oops"",""down"",""up"",""bad_move"",14614.7,3727,3252.2,10887.7,474.8,""smooth"",""down"",""down"",""good_move"",17643.3,3028.1,2555.5,14615.2,472.6,""smooth"",""down"",""down"",""good_move""]","",""
"4595","","<div style=""width:500px;"">
  <p>What determined the result of this run?</p>
  </div>","25","html-slider-response","65","898358","0.0-5.0-1.11","288","1","2025-07-30 11:49:59","1f75c3e559b7213887762d5229550c2b","162.251.248.35","Mozilla/5.0 (Windows NT 10.0; Win64; x64) AppleWebKit/537.36 (KHTML, like Gecko) Chrome/134.0.0.0 Safari/537.36","WebKit","Chrome","134.0.0.0","Windows","10.0","https://app.prolific.com/","en-US,en;q=0.9","67eab317b6f969b3df440160","6877631c9844ddd5501205fc","688a06dfa91592bb0065f9a0","3","1","67eab317b6f969b3df440160","3","1","2025-07-30T12:05:08.762Z","","","","","","","","","","","AttribQ","","50","","","","","","","","","","","","","","","","","","","","","","","","","","","","",""
"3765","","<div style=""width:500px;"">
  <p>How much control did you have over the ball?</p>
  </div>","57","html-slider-response","66","902126","0.0-5.0-2.11","288","1","2025-07-30 11:49:59","1f75c3e559b7213887762d5229550c2b","162.251.248.35","Mozilla/5.0 (Windows NT 10.0; Win64; x64) AppleWebKit/537.36 (KHTML, like Gecko) Chrome/134.0.0.0 Safari/537.36","WebKit","Chrome","134.0.0.0","Windows","10.0","https://app.prolific.com/","en-US,en;q=0.9","67eab317b6f969b3df440160","6877631c9844ddd5501205fc","688a06dfa91592bb0065f9a0","3","1","67eab317b6f969b3df440160","3","1","2025-07-30T12:05:12.530Z","","","","","","","","","","","ControlQ","","50","","","","","","","","","","","","","","","","","","","","","","","","","","","","",""
"3990","","<div style=""width:500px;"">
  <p>How would you describe your current emotional state?</p>
  </div>","48","html-slider-response","67","906117","0.0-5.0-3.11","288","1","2025-07-30 11:49:59","1f75c3e559b7213887762d5229550c2b","162.251.248.35","Mozilla/5.0 (Windows NT 10.0; Win64; x64) AppleWebKit/537.36 (KHTML, like Gecko) Chrome/134.0.0.0 Safari/537.36","WebKit","Chrome","134.0.0.0","Windows","10.0","https://app.prolific.com/","en-US,en;q=0.9","67eab317b6f969b3df440160","6877631c9844ddd5501205fc","688a06dfa91592bb0065f9a0","3","1","67eab317b6f969b3df440160","3","1","2025-07-30T12:05:16.521Z","","","","","","","","","","","StressQ","","50","","","","","","","","","","","","","","","","","","","","","","","","","","","","",""
"2523","","<div style=""width:500px;"">
  <p>What best describes how you currently feel?</p>
  </div>","55","html-slider-response","68","908642","0.0-5.0-4.11","288","1","2025-07-30 11:49:59","1f75c3e559b7213887762d5229550c2b","162.251.248.35","Mozilla/5.0 (Windows NT 10.0; Win64; x64) AppleWebKit/537.36 (KHTML, like Gecko) Chrome/134.0.0.0 Safari/537.36","WebKit","Chrome","134.0.0.0","Windows","10.0","https://app.prolific.com/","en-US,en;q=0.9","67eab317b6f969b3df440160","6877631c9844ddd5501205fc","688a06dfa91592bb0065f9a0","3","1","67eab317b6f969b3df440160","3","1","2025-07-30T12:05:19.046Z","","","","","","","","","","","MotivationQ","","50","","","","","","","","","","","","","","","","","","","","","","","","","","","","",""
"","","","","ctl-task-cpt","69","961174","0.0-5.0-0.12","288","1","2025-07-30 11:49:59","1f75c3e559b7213887762d5229550c2b","162.251.248.35","Mozilla/5.0 (Windows NT 10.0; Win64; x64) AppleWebKit/537.36 (KHTML, like Gecko) Chrome/134.0.0.0 Safari/537.36","WebKit","Chrome","134.0.0.0","Windows","10.0","https://app.prolific.com/","en-US,en;q=0.9","67eab317b6f969b3df440160","6877631c9844ddd5501205fc","688a06dfa91592bb0065f9a0","3","1","67eab317b6f969b3df440160","3","1","2025-07-30T12:06:11.578Z","","","","","","","","","","","","","","win-only","3","g1:SW,g2:NE","0.7","13","0","918812.8","11122.6","16134.8","49511.1","1","4","4","6","1","1","1","2","1","0.015151515151515152","1459.8","3000","670","[""down"",""left""]","{""num_key_presses"":8,""num_perfect"":5,""num_errors"":0,""num_randdir"":3,""num_randdir_good_moves"":1,""num_whilered"":0,""num_whileblue"":0,""num_blue"":3,""num_good_moves"":6}","[339.2857142857143,339.1919642857143,0.3,339.2857142857143,339.1919642857143,103.8,339.2857142857143,339.1919642857143,209.5,339.2857142857143,339.1919642857143,313.1,339.2857142857143,339.1919642857143,418.8,339.2857142857143,339.1919642857143,533.7,341.2857142857143,333.1919642857143,637.2,341.2857142857143,333.1919642857143,738.6,291.2857142857143,371.1919642857143,859.6,125.28571428571428,500.1919642857143,963.6,106.28571428571428,546.1919642857143,1094.2,43.285714285714285,647.1919642857143,1223.4,26.285714285714285,671.1919642857143,1325.8,23.285714285714285,674.1919642857143,1429.5,23.285714285714285,674.1919642857143,1545.4,23.285714285714285,663.1919642857143,1659.4,16.285714285714285,637.1919642857143,1785.8,16.285714285714285,637.1919642857143,1887.9,16.285714285714285,637.1919642857143,1991.6,16.285714285714285,637.1919642857143,2122.3,16.285714285714285,637.1919642857143,2224.4,16.285714285714285,637.1919642857143,2331.2,16.285714285714285,637.1919642857143,2431.5,16.285714285714285,637.1919642857143,2532.7,16.285714285714285,637.1919642857143,2633,16.285714285714285,637.1919642857143,2750.2,16.285714285714285,637.1919642857143,2859.3,16.285714285714285,637.1919642857143,2988.3,16.285714285714285,637.1919642857143,3090.2,16.285714285714285,637.1919642857143,3195.7,16.285714285714285,637.1919642857143,3299.3,16.285714285714285,637.1919642857143,3401.7,16.285714285714285,637.1919642857143,3502.9,16.285714285714285,637.1919642857143,3632.6,16.285714285714285,637.1919642857143,3735.1,16.285714285714285,637.1919642857143,3838,16.285714285714285,637.1919642857143,3938.8,16.285714285714285,637.1919642857143,4044.7,16.285714285714285,637.1919642857143,4147.8,16.285714285714285,637.1919642857143,4252,16.285714285714285,637.1919642857143,4369,16.285714285714285,637.1919642857143,4473.5,16.285714285714285,637.1919642857143,4574.8,16.285714285714285,637.1919642857143,4676.4,16.285714285714285,637.1919642857143,4788.1,16.285714285714285,637.1919642857143,4892.9,16.285714285714285,637.1919642857143,4993.1]","[1529.5,1529.5,1000,0,529.5,""smooth"",""left"",""left"",""good_move"",8465.2,6935.2,2978.2,4975.8,511.2,""oops"",""left"",""right"",""bad_move"",11586.2,3120.5,2404,8465.7,716.5,""oops"",""left"",""up"",""bad_move"",14154.3,2567.8,1686.2,11586.6,881.6,""smooth"",""left"",""left"",""good_move"",17480,3325,2771,14155,554,""smooth"",""left"",""left"",""good_move"",20506.3,3025.4,2476.9,17480.9,548.5,""oops"",""down"",""down"",""good_move"",27188.6,6681.9,1937.1,24736.3,515.2,""smooth"",""down"",""down"",""good_move"",33202.5,6013.4,2508.3,30217.6,476.6,""smooth"",""down"",""down"",""good_move""]","",""
"4463","","<div style=""width:500px;"">
  <p>What determined the result of this run?</p>
  </div>","50","html-slider-response","70","965638","0.0-5.0-1.12","288","1","2025-07-30 11:49:59","1f75c3e559b7213887762d5229550c2b","162.251.248.35","Mozilla/5.0 (Windows NT 10.0; Win64; x64) AppleWebKit/537.36 (KHTML, like Gecko) Chrome/134.0.0.0 Safari/537.36","WebKit","Chrome","134.0.0.0","Windows","10.0","https://app.prolific.com/","en-US,en;q=0.9","67eab317b6f969b3df440160","6877631c9844ddd5501205fc","688a06dfa91592bb0065f9a0","3","1","67eab317b6f969b3df440160","3","1","2025-07-30T12:06:16.042Z","","","","","","","","","","","AttribQ","","50","","","","","","","","","","","","","","","","","","","","","","","","","","","","",""
"2566","","<div style=""width:500px;"">
  <p>How much control did you have over the ball?</p>
  </div>","50","html-slider-response","71","968206","0.0-5.0-2.12","288","1","2025-07-30 11:49:59","1f75c3e559b7213887762d5229550c2b","162.251.248.35","Mozilla/5.0 (Windows NT 10.0; Win64; x64) AppleWebKit/537.36 (KHTML, like Gecko) Chrome/134.0.0.0 Safari/537.36","WebKit","Chrome","134.0.0.0","Windows","10.0","https://app.prolific.com/","en-US,en;q=0.9","67eab317b6f969b3df440160","6877631c9844ddd5501205fc","688a06dfa91592bb0065f9a0","3","1","67eab317b6f969b3df440160","3","1","2025-07-30T12:06:18.610Z","","","","","","","","","","","ControlQ","","50","","","","","","","","","","","","","","","","","","","","","","","","","","","","",""
"4198","","<div style=""width:500px;"">
  <p>How would you describe your current emotional state?</p>
  </div>","45","html-slider-response","72","972406","0.0-5.0-3.12","288","1","2025-07-30 11:49:59","1f75c3e559b7213887762d5229550c2b","162.251.248.35","Mozilla/5.0 (Windows NT 10.0; Win64; x64) AppleWebKit/537.36 (KHTML, like Gecko) Chrome/134.0.0.0 Safari/537.36","WebKit","Chrome","134.0.0.0","Windows","10.0","https://app.prolific.com/","en-US,en;q=0.9","67eab317b6f969b3df440160","6877631c9844ddd5501205fc","688a06dfa91592bb0065f9a0","3","1","67eab317b6f969b3df440160","3","1","2025-07-30T12:06:22.810Z","","","","","","","","","","","StressQ","","50","","","","","","","","","","","","","","","","","","","","","","","","","","","","",""
"2495","","<div style=""width:500px;"">
  <p>What best describes how you currently feel?</p>
  </div>","54","html-slider-response","73","974903","0.0-5.0-4.12","288","1","2025-07-30 11:49:59","1f75c3e559b7213887762d5229550c2b","162.251.248.35","Mozilla/5.0 (Windows NT 10.0; Win64; x64) AppleWebKit/537.36 (KHTML, like Gecko) Chrome/134.0.0.0 Safari/537.36","WebKit","Chrome","134.0.0.0","Windows","10.0","https://app.prolific.com/","en-US,en;q=0.9","67eab317b6f969b3df440160","6877631c9844ddd5501205fc","688a06dfa91592bb0065f9a0","3","1","67eab317b6f969b3df440160","3","1","2025-07-30T12:06:25.307Z","","","","","","","","","","","MotivationQ","","50","","","","","","","","","","","","","","","","","","","","","","","","","","","","",""
"","","","","ctl-task-cpt","74","1031912","0.0-5.0-0.13","288","1","2025-07-30 11:49:59","1f75c3e559b7213887762d5229550c2b","162.251.248.35","Mozilla/5.0 (Windows NT 10.0; Win64; x64) AppleWebKit/537.36 (KHTML, like Gecko) Chrome/134.0.0.0 Safari/537.36","WebKit","Chrome","134.0.0.0","Windows","10.0","https://app.prolific.com/","en-US,en;q=0.9","67eab317b6f969b3df440160","6877631c9844ddd5501205fc","688a06dfa91592bb0065f9a0","3","1","67eab317b6f969b3df440160","3","1","2025-07-30T12:07:22.316Z","","","","","","","","","","","","","","win-only","1","g1:NE,g2:SW","0.8","14","0","985073.8","15845.1","20850.7","53981","1","4","8","6","1","1","1","3","2","0.022727272727272728","1901.8","3000","960","[""up"",""right""]","{""num_key_presses"":8,""num_perfect"":6,""num_errors"":0,""num_randdir"":2,""num_randdir_good_moves"":0,""num_whilered"":0,""num_whileblue"":0,""num_blue"":3,""num_good_moves"":6}","[343.2857142857143,342.1919642857143,0.4,343.2857142857143,342.1919642857143,124,343.2857142857143,342.1919642857143,228.5,343.2857142857143,342.1919642857143,329.7,343.2857142857143,342.1919642857143,430.6,343.2857142857143,342.1919642857143,531.6,343.2857142857143,342.1919642857143,636.4,343.2857142857143,342.1919642857143,736.6,343.2857142857143,342.1919642857143,840.9,343.2857142857143,342.1919642857143,945.7,343.2857142857143,338.1919642857143,1046.9,389.2857142857143,280.1919642857143,1161.3,453.2857142857143,229.19196428571428,1277.1,502.2857142857143,193.19196428571428,1377.3,552.2857142857143,151.19196428571428,1480.8,577.2857142857143,114.19196428571428,1583.4,605.2857142857143,79.19196428571428,1709.6,612.2857142857143,70.19196428571428,1828,612.2857142857143,70.19196428571428,1966,612.2857142857143,70.19196428571428,2072.4,612.2857142857143,70.19196428571428,2173,611.2857142857143,73.19196428571428,2283.8,607.2857142857143,80.19196428571428,2386.2,607.2857142857143,80.19196428571428,2487.4,607.2857142857143,80.19196428571428,2630,607.2857142857143,80.19196428571428,2731.6,607.2857142857143,80.19196428571428,2842.8,607.2857142857143,80.19196428571428,2945.3,607.2857142857143,80.19196428571428,3071.1,607.2857142857143,80.19196428571428,3174.7,607.2857142857143,80.19196428571428,3286.9,607.2857142857143,80.19196428571428,3416.6,607.2857142857143,80.19196428571428,3539.9,607.2857142857143,80.19196428571428,3640,607.2857142857143,80.19196428571428,3740.9,607.2857142857143,80.19196428571428,3842.8,607.2857142857143,80.19196428571428,3949.9,607.2857142857143,80.19196428571428,4053.8,607.2857142857143,80.19196428571428,4156.6,607.2857142857143,80.19196428571428,4260.5,607.2857142857143,80.19196428571428,4360.5,607.2857142857143,80.19196428571428,4474,607.2857142857143,80.19196428571428,4574,607.2857142857143,80.19196428571428,4695.9,607.2857142857143,80.19196428571428,4803.6,607.2857142857143,80.19196428571428,4917.6]","[1582.4,1582.4,1000,0,582.4,""smooth"",""right"",""right"",""good_move"",5393.4,3810.4,3175.9,1583,634.5,""smooth"",""right"",""right"",""good_move"",8475.7,3082,2576,5393.8,506,""smooth"",""up"",""up"",""good_move"",11129.8,2653.1,2159.1,8476.7,494,""oops"",""up"",""left"",""bad_move"",18689.5,7558.7,3096,15116,477.5,""smooth"",""up"",""up"",""good_move"",24056.1,5366.3,1544.4,22005.2,506.5,""oops"",""right"",""down"",""bad_move"",27201.5,3144.6,2250,24056.9,894.6,""smooth"",""right"",""right"",""good_move"",32948,5745.6,1958.4,30491.9,497.7,""smooth"",""up"",""up"",""good_move""]","",""
"3477","","<div style=""width:500px;"">
  <p>What determined the result of this run?</p>
  </div>","51","html-slider-response","75","1035390","0.0-5.0-1.13","288","1","2025-07-30 11:49:59","1f75c3e559b7213887762d5229550c2b","162.251.248.35","Mozilla/5.0 (Windows NT 10.0; Win64; x64) AppleWebKit/537.36 (KHTML, like Gecko) Chrome/134.0.0.0 Safari/537.36","WebKit","Chrome","134.0.0.0","Windows","10.0","https://app.prolific.com/","en-US,en;q=0.9","67eab317b6f969b3df440160","6877631c9844ddd5501205fc","688a06dfa91592bb0065f9a0","3","1","67eab317b6f969b3df440160","3","1","2025-07-30T12:07:25.794Z","","","","","","","","","","","AttribQ","","50","","","","","","","","","","","","","","","","","","","","","","","","","","","","",""
"4342","","<div style=""width:500px;"">
  <p>How much control did you have over the ball?</p>
  </div>","50","html-slider-response","76","1039734","0.0-5.0-2.13","288","1","2025-07-30 11:49:59","1f75c3e559b7213887762d5229550c2b","162.251.248.35","Mozilla/5.0 (Windows NT 10.0; Win64; x64) AppleWebKit/537.36 (KHTML, like Gecko) Chrome/134.0.0.0 Safari/537.36","WebKit","Chrome","134.0.0.0","Windows","10.0","https://app.prolific.com/","en-US,en;q=0.9","67eab317b6f969b3df440160","6877631c9844ddd5501205fc","688a06dfa91592bb0065f9a0","3","1","67eab317b6f969b3df440160","3","1","2025-07-30T12:07:30.138Z","","","","","","","","","","","ControlQ","","50","","","","","","","","","","","","","","","","","","","","","","","","","","","","",""
"4923","","<div style=""width:500px;"">
  <p>How would you describe your current emotional state?</p>
  </div>","52","html-slider-response","77","1044658","0.0-5.0-3.13","288","1","2025-07-30 11:49:59","1f75c3e559b7213887762d5229550c2b","162.251.248.35","Mozilla/5.0 (Windows NT 10.0; Win64; x64) AppleWebKit/537.36 (KHTML, like Gecko) Chrome/134.0.0.0 Safari/537.36","WebKit","Chrome","134.0.0.0","Windows","10.0","https://app.prolific.com/","en-US,en;q=0.9","67eab317b6f969b3df440160","6877631c9844ddd5501205fc","688a06dfa91592bb0065f9a0","3","1","67eab317b6f969b3df440160","3","1","2025-07-30T12:07:35.062Z","","","","","","","","","","","StressQ","","50","","","","","","","","","","","","","","","","","","","","","","","","","","","","",""
"2289","","<div style=""width:500px;"">
  <p>What best describes how you currently feel?</p>
  </div>","47","html-slider-response","78","1046949","0.0-5.0-4.13","288","1","2025-07-30 11:49:59","1f75c3e559b7213887762d5229550c2b","162.251.248.35","Mozilla/5.0 (Windows NT 10.0; Win64; x64) AppleWebKit/537.36 (KHTML, like Gecko) Chrome/134.0.0.0 Safari/537.36","WebKit","Chrome","134.0.0.0","Windows","10.0","https://app.prolific.com/","en-US,en;q=0.9","67eab317b6f969b3df440160","6877631c9844ddd5501205fc","688a06dfa91592bb0065f9a0","3","1","67eab317b6f969b3df440160","3","1","2025-07-30T12:07:37.353Z","","","","","","","","","","","MotivationQ","","50","","","","","","","","","","","","","","","","","","","","","","","","","","","","",""
