"rt","response_timestamp","stimulus","response","trial_type","trial_index","time_elapsed","internal_node_id","run_id","condition","recorded_at","source_code_version","ip","user_agent","device","browser","browser_version","platform","platform_version","referer","accept_language","PROLIFIC_PID","STUDY_ID","SESSION_ID","WEEK","BATCH","prolific_id","week","batch","realtime","success","responses","item_order","radio_event_ids","radio_event_times","key_event_times","mouse_event_times","straightlining","zigzagging","honeypot","eventType","view_history","slider_start","which_type","canvas_config","goals_layout","control_level","trial_number","tutorial_trial_number","trial_start_time","phase1_start_time","phase2_start_time","phase3_start_time","goal_1_value","goal_1_distance","goal_2_value","goal_2_distance","goal_selected","outcome","outcome_total","participant_final_score","participant_initial_score","participant_final_score_prop","goal_choice_rt","allocated_time","allocated_time_remaining","goal_direction","counts","mouse_movements","key_presses","question_order","question_id"
"18359","1752657308033","<p style='font-size:40px;line-height:1.25'><strong>Welcome to the experiment!</strong></p><p style='font-size:1.1em;line-height:1.25'>Thank you for participanting in our experiment again! You will be asked to play the Dysfunctional Ball Game again. We will briefly recap the rules before we start.</p><p style='font-size:1.1em;line-height:1.25'>Press <strong>Next</strong> to continue.</p>","0","custom-html-button-response","0","18365","0.0-0.0","88","1","2025-07-16 09:14:33","1f75c3e559b7213887762d5229550c2b","216.120.189.225","Mozilla/5.0 (Windows NT 10.0; Win64; x64) AppleWebKit/537.36 (KHTML, like Gecko) Chrome/138.0.0.0 Safari/537.36","WebKit","Chrome","138.0.0.0","Windows","10.0","https://app.prolific.com/","en-US,en;q=0.9","663b638be7226d4e3fcc255f","68764874ac79eee8c1d4cb03","68776d6e8e6b22b80e5b8514","2","0","663b638be7226d4e3fcc255f","2","0","2025-07-16T09:15:08.035Z","","","","","","","","","","","","","","","","","","","","","","","","","","","","","","","","","","","","","","","","","",""
"12360","","","","fullscreen","1","31738","0.0-1.0","88","1","2025-07-16 09:14:33","1f75c3e559b7213887762d5229550c2b","216.120.189.225","Mozilla/5.0 (Windows NT 10.0; Win64; x64) AppleWebKit/537.36 (KHTML, like Gecko) Chrome/138.0.0.0 Safari/537.36","WebKit","Chrome","138.0.0.0","Windows","10.0","https://app.prolific.com/","en-US,en;q=0.9","663b638be7226d4e3fcc255f","68764874ac79eee8c1d4cb03","68776d6e8e6b22b80e5b8514","2","0","663b638be7226d4e3fcc255f","2","0","","true","","","","","","","","","","","","","","","","","","","","","","","","","","","","","","","","","","","","","","","","",""
"4664","1752657326074","<p style='font-size:1.1em;line-height:1.25'>In the following, we will ask you a few questions relating to your feelings in the last 24 hours.<br></p><p style='font-size:1.1em;line-height:1.25'>Press the <strong>Next</strong> button to continue.</p>","0","custom-html-button-response","2","36405","0.0-2.0-0.0","88","1","2025-07-16 09:14:33","1f75c3e559b7213887762d5229550c2b","216.120.189.225","Mozilla/5.0 (Windows NT 10.0; Win64; x64) AppleWebKit/537.36 (KHTML, like Gecko) Chrome/138.0.0.0 Safari/537.36","WebKit","Chrome","138.0.0.0","Windows","10.0","https://app.prolific.com/","en-US,en;q=0.9","663b638be7226d4e3fcc255f","68764874ac79eee8c1d4cb03","68776d6e8e6b22b80e5b8514","2","0","663b638be7226d4e3fcc255f","2","0","2025-07-16T09:15:26.075Z","","","","","","","","","","","","","","","","","","","","","","","","","","","","","","","","","","","","","","","","","",""
"105792.5","","","","survey-template","3","142209","0.0-2.0-1.0","88","1","2025-07-16 09:14:33","1f75c3e559b7213887762d5229550c2b","216.120.189.225","Mozilla/5.0 (Windows NT 10.0; Win64; x64) AppleWebKit/537.36 (KHTML, like Gecko) Chrome/138.0.0.0 Safari/537.36","WebKit","Chrome","138.0.0.0","Windows","10.0","https://app.prolific.com/","en-US,en;q=0.9","663b638be7226d4e3fcc255f","68764874ac79eee8c1d4cb03","68776d6e8e6b22b80e5b8514","2","0","663b638be7226d4e3fcc255f","2","0","2025-07-16T09:17:11.879Z","","{""Q01"":""1"",""Q02"":""0"",""Q03"":""0"",""Q04"":""0"",""Q05"":""1"",""Q06"":""0"",""Q07"":""1"",""Q08"":""1"",""Q09"":""0"",""Q10"":""0"",""Q11"":""0"",""Q12"":""0"",""Q13"":""5"",""Q14"":""3"",""Q15"":""0"",""Q16"":""0"",""Q17"":""0"",""Q18"":""0"",""Q19"":""0"",""Q20"":""0"",""Q21"":""0"",""Q22"":""1""}","[0,1,2,3,4,5,6,7,8,9,10,11,12,13,14,15,16,17,18,19,20,21]","[""Q01"",""Q02"",""Q03"",""Q04"",""Q05"",""Q06"",""Q07"",""Q08"",""Q08"",""Q09"",""Q10"",""Q11"",""Q12"",""Q13"",""Q13"",""Q14"",""Q15"",""Q16"",""Q17"",""Q18"",""Q19"",""Q20"",""Q21"",""Q22"",""Q22""]","[5569.800000071526,8640,18218.700000047684,22069.900000095367,24765.600000023842,33750.10000002384,35731.5,38243.10000002384,40371.40000009537,43904.10000002384,49900.800000071526,52066.700000047684,53636.90000009537,54172.800000071526,56029.300000071526,67342.80000007153,77057.90000009537,80661.80000007153,82026,82908.5,86878.30000007153,92944,96588.20000004768,100173.30000007153,104599.90000009537]","[]","[0.10000002384185791,5569.800000071526,8640,18218.700000047684,22069.900000095367,24765.600000023842,33750.10000002384,34830.800000071526,35731.5,38243.10000002384,40371.40000009537,43904.10000002384,49900.800000071526,52066.700000047684,53636.90000009537,54172.800000071526,56029.300000071526,67342.80000007153,77057.90000009537,80661.80000007153,82026,82908.5,86878.30000007153,92944,96588.20000004768,100173.30000007153,104599.90000009537,105779.5]","0.6818181818181818","0.3333333333333333","0","drsp","","","","","","","","","","","","","","","","","","","","","","","","","","","","","","",""
"23372.5","","","","survey-template","4","165587","0.0-2.0-2.0","88","1","2025-07-16 09:14:33","1f75c3e559b7213887762d5229550c2b","216.120.189.225","Mozilla/5.0 (Windows NT 10.0; Win64; x64) AppleWebKit/537.36 (KHTML, like Gecko) Chrome/138.0.0.0 Safari/537.36","WebKit","Chrome","138.0.0.0","Windows","10.0","https://app.prolific.com/","en-US,en;q=0.9","663b638be7226d4e3fcc255f","68764874ac79eee8c1d4cb03","68776d6e8e6b22b80e5b8514","2","0","663b638be7226d4e3fcc255f","2","0","2025-07-16T09:17:35.256Z","","{""Q01"":""0"",""Q02"":""1"",""Q03"":""0""}","[0,1,2]","[""Q01"",""Q02"",""Q03""]","[6049.100000023842,12341,22270]","[]","[6049.100000023842,12341,22270,23371.799999952316]","0.6666666666666666","0","0","stress","","","","","","","","","","","","","","","","","","","","","","","","","","","","","","",""
"39107","","","","instructions","5","204696","0.0-3.0-0.0","88","1","2025-07-16 09:14:33","1f75c3e559b7213887762d5229550c2b","216.120.189.225","Mozilla/5.0 (Windows NT 10.0; Win64; x64) AppleWebKit/537.36 (KHTML, like Gecko) Chrome/138.0.0.0 Safari/537.36","WebKit","Chrome","138.0.0.0","Windows","10.0","https://app.prolific.com/","en-US,en;q=0.9","663b638be7226d4e3fcc255f","68764874ac79eee8c1d4cb03","68776d6e8e6b22b80e5b8514","2","0","663b638be7226d4e3fcc255f","2","0","","","","","","","","","","","","","[{""page_index"":0,""viewing_time"":39107}]","","","","","","","","","","","","","","","","","","","","","","","","","","","","","",""
"25570","","<p>Before you start with this game please answer the following three questions yourself. </p>
  <p>Through this game, we measure several aspects of your cognitive performance, such as reaction times, multi-tasking capabilities </p>
  <p>and the ability to assess the situation you are in.</p>
  <p></p>
  <p><b>How good do you usually are in such tasks?</b></p>","99","html-slider-response","6","230272","0.0-4.0-0.0","88","1","2025-07-16 09:14:33","1f75c3e559b7213887762d5229550c2b","216.120.189.225","Mozilla/5.0 (Windows NT 10.0; Win64; x64) AppleWebKit/537.36 (KHTML, like Gecko) Chrome/138.0.0.0 Safari/537.36","WebKit","Chrome","138.0.0.0","Windows","10.0","https://app.prolific.com/","en-US,en;q=0.9","663b638be7226d4e3fcc255f","68764874ac79eee8c1d4cb03","68776d6e8e6b22b80e5b8514","2","0","663b638be7226d4e3fcc255f","2","0","2025-07-16T09:18:39.941Z","","","","","","","","","","","PreSkillQ","","50","","","","","","","","","","","","","","","","","","","","","","","","","","","","",""
"6492","","<div style=""width:500px;"">
  <p>How well do you think you will perform in this task compared to other participants?</p>
  </div>","99","html-slider-response","7","236768","0.0-4.0-1.0","88","1","2025-07-16 09:14:33","1f75c3e559b7213887762d5229550c2b","216.120.189.225","Mozilla/5.0 (Windows NT 10.0; Win64; x64) AppleWebKit/537.36 (KHTML, like Gecko) Chrome/138.0.0.0 Safari/537.36","WebKit","Chrome","138.0.0.0","Windows","10.0","https://app.prolific.com/","en-US,en;q=0.9","663b638be7226d4e3fcc255f","68764874ac79eee8c1d4cb03","68776d6e8e6b22b80e5b8514","2","0","663b638be7226d4e3fcc255f","2","0","2025-07-16T09:18:46.437Z","","","","","","","","","","","PrePerfQ","","50","","","","","","","","","","","","","","","","","","","","","","","","","","","","",""
"5696","","<div style=""width:500px;"">
  <p>What best describes how you currently feel?</p>
  </div>","100","html-slider-response","8","242467","0.0-4.0-2.0","88","1","2025-07-16 09:14:33","1f75c3e559b7213887762d5229550c2b","216.120.189.225","Mozilla/5.0 (Windows NT 10.0; Win64; x64) AppleWebKit/537.36 (KHTML, like Gecko) Chrome/138.0.0.0 Safari/537.36","WebKit","Chrome","138.0.0.0","Windows","10.0","https://app.prolific.com/","en-US,en;q=0.9","663b638be7226d4e3fcc255f","68764874ac79eee8c1d4cb03","68776d6e8e6b22b80e5b8514","2","0","663b638be7226d4e3fcc255f","2","0","2025-07-16T09:18:52.136Z","","","","","","","","","","","PreMotivationQ","","50","","","","","","","","","","","","","","","","","","","","","","","","","","","","",""
"","","","","ctl-task-cpt","9","279248","0.0-5.0-0.0","88","1","2025-07-16 09:14:33","1f75c3e559b7213887762d5229550c2b","216.120.189.225","Mozilla/5.0 (Windows NT 10.0; Win64; x64) AppleWebKit/537.36 (KHTML, like Gecko) Chrome/138.0.0.0 Safari/537.36","WebKit","Chrome","138.0.0.0","Windows","10.0","https://app.prolific.com/","en-US,en;q=0.9","663b638be7226d4e3fcc255f","68764874ac79eee8c1d4cb03","68776d6e8e6b22b80e5b8514","2","0","663b638be7226d4e3fcc255f","2","0","2025-07-16T09:19:28.918Z","","","","","","","","","","","","","","win-only","0","g1:NW,g2:SE","1","1","0","259123.9","8662.2","13667.7","33769.1","1","4","8","6","2","8","8","8","0","0.06060606060606061","2190.2","3000","1210","[""down"",""right""]","{""num_key_presses"":6,""num_perfect"":6,""num_errors"":0,""num_randdir"":0,""num_randdir_good_moves"":0,""num_whilered"":0,""num_whileblue"":0,""num_blue"":1,""num_good_moves"":6}","[302.22232142857143,294.12857142857143,0.4,302.22232142857143,294.12857142857143,103.8,302.22232142857143,294.12857142857143,206.7,302.22232142857143,294.12857142857143,307.9,302.22232142857143,294.12857142857143,413.1,302.22232142857143,294.12857142857143,513.4,302.22232142857143,294.12857142857143,620.5,302.22232142857143,294.12857142857143,727.9,302.22232142857143,294.12857142857143,831.9,302.22232142857143,294.12857142857143,932.8,310.22232142857143,306.12857142857143,1037.1,427.22232142857143,397.12857142857143,1140.8,464.22232142857143,431.12857142857143,1242.3,464.22232142857143,431.12857142857143,1343.4,464.22232142857143,431.12857142857143,1446.7,477.22232142857143,472.12857142857143,1555.8,499.22232142857143,525.1285714285714,1656.2,502.22232142857143,528.1285714285714,1757,514.2223214285714,534.1285714285714,1858.6,523.2223214285714,541.1285714285714,1967.3,523.2223214285714,541.1285714285714,2074.4,523.2223214285714,541.1285714285714,2175,523.2223214285714,541.1285714285714,2275.3,523.2223214285714,541.1285714285714,2379.8,523.2223214285714,541.1285714285714,2482.3,523.2223214285714,541.1285714285714,2586.3,523.2223214285714,541.1285714285714,2686.6,523.2223214285714,541.1285714285714,2787.1,523.2223214285714,541.1285714285714,2896.4,523.2223214285714,541.1285714285714,3000.7,523.2223214285714,541.1285714285714,3101.9,523.2223214285714,541.1285714285714,3203.5,523.2223214285714,541.1285714285714,3304.1,523.2223214285714,541.1285714285714,3406.4,523.2223214285714,541.1285714285714,3507,523.2223214285714,541.1285714285714,3615.5,523.2223214285714,541.1285714285714,3715.7,523.2223214285714,541.1285714285714,3816,523.2223214285714,541.1285714285714,3920.2,523.2223214285714,541.1285714285714,4020.4,559.2223214285714,541.1285714285714,4120.6,681.2223214285714,505.12857142857143,4222.7,714.2223214285714,485.12857142857143,4330.2,714.2223214285714,485.12857142857143,4432.5,714.2223214285714,485.12857142857143,4535.8,714.2223214285714,485.12857142857143,4636,714.2223214285714,485.12857142857143,4744.7,714.2223214285714,485.12857142857143,4847.8,714.2223214285714,485.12857142857143,4950.5]","[1488.7,1488.7,1000,0,488.7,""smooth"",""down"",""down"",""good_move"",4855,3364.8,2960.2,1490.3,404.5,""smooth"",""right"",""right"",""good_move"",7617.6,2761.5,2391,4856.1,370.5,""smooth"",""right"",""right"",""good_move"",10771,3152.3,2775.8,7618.7,376.5,""smooth"",""down"",""down"",""good_move"",16479.3,5707.7,2720.7,13299.1,459.5,""smooth"",""down"",""down"",""good_move"",19971.8,3492.1,3097.4,16479.7,394.7,""smooth"",""right"",""right"",""good_move""]","",""
"7312","","<div style=""width:500px;"">
  <p>What determined the result of this run?</p>
  </div>","100","html-slider-response","10","286563","0.0-5.0-1.0","88","1","2025-07-16 09:14:33","1f75c3e559b7213887762d5229550c2b","216.120.189.225","Mozilla/5.0 (Windows NT 10.0; Win64; x64) AppleWebKit/537.36 (KHTML, like Gecko) Chrome/138.0.0.0 Safari/537.36","WebKit","Chrome","138.0.0.0","Windows","10.0","https://app.prolific.com/","en-US,en;q=0.9","663b638be7226d4e3fcc255f","68764874ac79eee8c1d4cb03","68776d6e8e6b22b80e5b8514","2","0","663b638be7226d4e3fcc255f","2","0","2025-07-16T09:19:36.233Z","","","","","","","","","","","AttribQ","","50","","","","","","","","","","","","","","","","","","","","","","","","","","","","",""
"4896","","<div style=""width:500px;"">
  <p>How much control did you have over the ball?</p>
  </div>","100","html-slider-response","11","291462","0.0-5.0-2.0","88","1","2025-07-16 09:14:33","1f75c3e559b7213887762d5229550c2b","216.120.189.225","Mozilla/5.0 (Windows NT 10.0; Win64; x64) AppleWebKit/537.36 (KHTML, like Gecko) Chrome/138.0.0.0 Safari/537.36","WebKit","Chrome","138.0.0.0","Windows","10.0","https://app.prolific.com/","en-US,en;q=0.9","663b638be7226d4e3fcc255f","68764874ac79eee8c1d4cb03","68776d6e8e6b22b80e5b8514","2","0","663b638be7226d4e3fcc255f","2","0","2025-07-16T09:19:41.131Z","","","","","","","","","","","ControlQ","","50","","","","","","","","","","","","","","","","","","","","","","","","","","","","",""
"5421","","<div style=""width:500px;"">
  <p>How would you describe your current emotional state?</p>
  </div>","0","html-slider-response","12","296885","0.0-5.0-3.0","88","1","2025-07-16 09:14:33","1f75c3e559b7213887762d5229550c2b","216.120.189.225","Mozilla/5.0 (Windows NT 10.0; Win64; x64) AppleWebKit/537.36 (KHTML, like Gecko) Chrome/138.0.0.0 Safari/537.36","WebKit","Chrome","138.0.0.0","Windows","10.0","https://app.prolific.com/","en-US,en;q=0.9","663b638be7226d4e3fcc255f","68764874ac79eee8c1d4cb03","68776d6e8e6b22b80e5b8514","2","0","663b638be7226d4e3fcc255f","2","0","2025-07-16T09:19:46.555Z","","","","","","","","","","","StressQ","","50","","","","","","","","","","","","","","","","","","","","","","","","","","","","",""
"5917","","<div style=""width:500px;"">
  <p>What best describes how you currently feel?</p>
  </div>","100","html-slider-response","13","302805","0.0-5.0-4.0","88","1","2025-07-16 09:14:33","1f75c3e559b7213887762d5229550c2b","216.120.189.225","Mozilla/5.0 (Windows NT 10.0; Win64; x64) AppleWebKit/537.36 (KHTML, like Gecko) Chrome/138.0.0.0 Safari/537.36","WebKit","Chrome","138.0.0.0","Windows","10.0","https://app.prolific.com/","en-US,en;q=0.9","663b638be7226d4e3fcc255f","68764874ac79eee8c1d4cb03","68776d6e8e6b22b80e5b8514","2","0","663b638be7226d4e3fcc255f","2","0","2025-07-16T09:19:52.474Z","","","","","","","","","","","MotivationQ","","50","","","","","","","","","","","","","","","","","","","","","","","","","","","","",""
"","","","","ctl-task-cpt","14","335193","0.0-5.0-0.1","88","1","2025-07-16 09:14:33","1f75c3e559b7213887762d5229550c2b","216.120.189.225","Mozilla/5.0 (Windows NT 10.0; Win64; x64) AppleWebKit/537.36 (KHTML, like Gecko) Chrome/138.0.0.0 Safari/537.36","WebKit","Chrome","138.0.0.0","Windows","10.0","https://app.prolific.com/","en-US,en;q=0.9","663b638be7226d4e3fcc255f","68764874ac79eee8c1d4cb03","68776d6e8e6b22b80e5b8514","2","0","663b638be7226d4e3fcc255f","2","0","2025-07-16T09:20:24.862Z","","","","","","","","","","","","","","win-only","0","g1:NW,g2:SE","0.9","2","0","319455.8","1858.5","6864.2","29381.3","1","4","4","6","2","4","4","12","8","0.09090909090909091","1363.2","3000","1130","[""down"",""right""]","{""num_key_presses"":6,""num_perfect"":6,""num_errors"":0,""num_randdir"":0,""num_randdir_good_moves"":0,""num_whilered"":0,""num_whileblue"":0,""num_blue"":2,""num_good_moves"":6}","[295.22232142857143,298.12857142857143,0.7,295.22232142857143,298.12857142857143,104.3,295.22232142857143,298.12857142857143,212.4,295.22232142857143,298.12857142857143,315.7,295.22232142857143,298.12857142857143,422.6,295.22232142857143,298.12857142857143,525.7,295.22232142857143,298.12857142857143,631.8,491.22232142857143,509.12857142857143,739.7,532.2223214285714,584.1285714285714,843.5,532.2223214285714,584.1285714285714,949.1,532.2223214285714,584.1285714285714,1055.6,548.2223214285714,557.1285714285714,1160.3,549.2223214285714,552.1285714285714,1261.1,549.2223214285714,552.1285714285714,1372.9,549.2223214285714,552.1285714285714,1479.3,549.2223214285714,552.1285714285714,1606.5,549.2223214285714,552.1285714285714,1707.3,655.2223214285714,445.12857142857143,1809,726.2223214285714,348.12857142857143,1915.9,726.2223214285714,348.12857142857143,2023,726.2223214285714,348.12857142857143,2126.7,726.2223214285714,348.12857142857143,2226.9,726.2223214285714,348.12857142857143,2329.8,726.2223214285714,348.12857142857143,2431.3,726.2223214285714,348.12857142857143,2538.4,726.2223214285714,348.12857142857143,2638.4,726.2223214285714,348.12857142857143,2739.4,726.2223214285714,348.12857142857143,2842.8,726.2223214285714,348.12857142857143,2943.6,726.2223214285714,348.12857142857143,3044.3,726.2223214285714,348.12857142857143,3146.4,726.2223214285714,348.12857142857143,3253.7,726.2223214285714,348.12857142857143,3359,726.2223214285714,348.12857142857143,3459.3,726.2223214285714,348.12857142857143,3564.3,726.2223214285714,348.12857142857143,3669.7,726.2223214285714,348.12857142857143,3772.8,726.2223214285714,348.12857142857143,3879.4,726.2223214285714,348.12857142857143,3986.9,726.2223214285714,348.12857142857143,4091.8,726.2223214285714,348.12857142857143,4195.1,726.2223214285714,348.12857142857143,4300.3,726.2223214285714,348.12857142857143,4403.9,726.2223214285714,348.12857142857143,4505.2,726.2223214285714,348.12857142857143,4605.7,726.2223214285714,348.12857142857143,4707.2,726.2223214285714,348.12857142857143,4815.7,726.2223214285714,348.12857142857143,4916]","[1356.7,1356.8,1000,0,356.8,""smooth"",""right"",""right"",""good_move"",11591.8,10234.3,2700.5,8532.4,359,""smooth"",""right"",""right"",""good_move"",14889.8,3297.1,2599.1,11592.8,697.9,""smooth"",""down"",""down"",""good_move"",17092.4,2201.3,1804.1,14891.1,397.2,""smooth"",""down"",""down"",""good_move"",19628.9,2535.3,2181.6,17093.7,353.7,""smooth"",""right"",""right"",""good_move"",22392.4,2762.1,2366.4,19630.3,395.7,""smooth"",""down"",""down"",""good_move""]","",""
"10540","","<div style=""width:500px;"">
  <p>What determined the result of this run?</p>
  </div>","100","html-slider-response","15","345736","0.0-5.0-1.1","88","1","2025-07-16 09:14:33","1f75c3e559b7213887762d5229550c2b","216.120.189.225","Mozilla/5.0 (Windows NT 10.0; Win64; x64) AppleWebKit/537.36 (KHTML, like Gecko) Chrome/138.0.0.0 Safari/537.36","WebKit","Chrome","138.0.0.0","Windows","10.0","https://app.prolific.com/","en-US,en;q=0.9","663b638be7226d4e3fcc255f","68764874ac79eee8c1d4cb03","68776d6e8e6b22b80e5b8514","2","0","663b638be7226d4e3fcc255f","2","0","2025-07-16T09:20:35.405Z","","","","","","","","","","","AttribQ","","50","","","","","","","","","","","","","","","","","","","","","","","","","","","","",""
"3021","","<div style=""width:500px;"">
  <p>How much control did you have over the ball?</p>
  </div>","100","html-slider-response","16","348759","0.0-5.0-2.1","88","1","2025-07-16 09:14:33","1f75c3e559b7213887762d5229550c2b","216.120.189.225","Mozilla/5.0 (Windows NT 10.0; Win64; x64) AppleWebKit/537.36 (KHTML, like Gecko) Chrome/138.0.0.0 Safari/537.36","WebKit","Chrome","138.0.0.0","Windows","10.0","https://app.prolific.com/","en-US,en;q=0.9","663b638be7226d4e3fcc255f","68764874ac79eee8c1d4cb03","68776d6e8e6b22b80e5b8514","2","0","663b638be7226d4e3fcc255f","2","0","2025-07-16T09:20:38.428Z","","","","","","","","","","","ControlQ","","50","","","","","","","","","","","","","","","","","","","","","","","","","","","","",""
"6056","","<div style=""width:500px;"">
  <p>How would you describe your current emotional state?</p>
  </div>","0","html-slider-response","17","354817","0.0-5.0-3.1","88","1","2025-07-16 09:14:33","1f75c3e559b7213887762d5229550c2b","216.120.189.225","Mozilla/5.0 (Windows NT 10.0; Win64; x64) AppleWebKit/537.36 (KHTML, like Gecko) Chrome/138.0.0.0 Safari/537.36","WebKit","Chrome","138.0.0.0","Windows","10.0","https://app.prolific.com/","en-US,en;q=0.9","663b638be7226d4e3fcc255f","68764874ac79eee8c1d4cb03","68776d6e8e6b22b80e5b8514","2","0","663b638be7226d4e3fcc255f","2","0","2025-07-16T09:20:44.486Z","","","","","","","","","","","StressQ","","50","","","","","","","","","","","","","","","","","","","","","","","","","","","","",""
"8801","","<div style=""width:500px;"">
  <p>What best describes how you currently feel?</p>
  </div>","100","html-slider-response","18","363620","0.0-5.0-4.1","88","1","2025-07-16 09:14:33","1f75c3e559b7213887762d5229550c2b","216.120.189.225","Mozilla/5.0 (Windows NT 10.0; Win64; x64) AppleWebKit/537.36 (KHTML, like Gecko) Chrome/138.0.0.0 Safari/537.36","WebKit","Chrome","138.0.0.0","Windows","10.0","https://app.prolific.com/","en-US,en;q=0.9","663b638be7226d4e3fcc255f","68764874ac79eee8c1d4cb03","68776d6e8e6b22b80e5b8514","2","0","663b638be7226d4e3fcc255f","2","0","2025-07-16T09:20:53.289Z","","","","","","","","","","","MotivationQ","","50","","","","","","","","","","","","","","","","","","","","","","","","","","","","",""
"","","","","ctl-task-cpt","19","398145","0.0-5.0-0.2","88","1","2025-07-16 09:14:33","1f75c3e559b7213887762d5229550c2b","216.120.189.225","Mozilla/5.0 (Windows NT 10.0; Win64; x64) AppleWebKit/537.36 (KHTML, like Gecko) Chrome/138.0.0.0 Safari/537.36","WebKit","Chrome","138.0.0.0","Windows","10.0","https://app.prolific.com/","en-US,en;q=0.9","663b638be7226d4e3fcc255f","68764874ac79eee8c1d4cb03","68776d6e8e6b22b80e5b8514","2","0","663b638be7226d4e3fcc255f","2","0","2025-07-16T09:21:27.815Z","","","","","","","","","","","","","","win-only","3","g1:SW,g2:NE","0.8","3","0","380272.8","1568.1","6569.4","31506.1","1","4","4","6","2","4","3","15","12","0.11363636363636363","1428.5","3000","1045","[""up"",""right""]","{""num_key_presses"":8,""num_perfect"":5,""num_errors"":1,""num_randdir"":2,""num_randdir_good_moves"":2,""num_whilered"":0,""num_whileblue"":1,""num_blue"":2,""num_good_moves"":7}","[293.22232142857143,304.12857142857143,0.2,293.22232142857143,304.12857142857143,102,293.22232142857143,304.12857142857143,208.2,293.22232142857143,304.12857142857143,314.1,293.22232142857143,304.12857142857143,422.3,293.22232142857143,304.12857142857143,524.1,293.22232142857143,304.12857142857143,624.6,351.22232142857143,237.12857142857143,730.5,502.22232142857143,40.128571428571426,832.5,524.2223214285714,12.128571428571426,938.1,570.2223214285714,-24.871428571428574,1042,553.2223214285714,4.128571428571426,1142.4,519.2223214285714,38.128571428571426,1247.5,517.2223214285714,42.128571428571426,1353.1,517.2223214285714,42.128571428571426,1454,517.2223214285714,42.128571428571426,1557.8,517.2223214285714,42.128571428571426,1659.6,517.2223214285714,42.128571428571426,1760.7,682.2223214285714,60.128571428571426,1862.5,726.2223214285714,79.12857142857143,1966.4,732.2223214285714,82.12857142857143,2069.7,732.2223214285714,82.12857142857143,2172,732.2223214285714,82.12857142857143,2276,732.2223214285714,82.12857142857143,2385.5,732.2223214285714,82.12857142857143,2487.9,732.2223214285714,82.12857142857143,2588,732.2223214285714,82.12857142857143,2692.5,732.2223214285714,82.12857142857143,2794,732.2223214285714,82.12857142857143,2901,732.2223214285714,82.12857142857143,3005.3,732.2223214285714,82.12857142857143,3114.2,732.2223214285714,82.12857142857143,3215.2,732.2223214285714,82.12857142857143,3315.6,732.2223214285714,82.12857142857143,3418.1,732.2223214285714,82.12857142857143,3524.9,732.2223214285714,82.12857142857143,3632,732.2223214285714,82.12857142857143,3733.2,732.2223214285714,82.12857142857143,3839.6,732.2223214285714,82.12857142857143,3945.8,732.2223214285714,82.12857142857143,4049.2,732.2223214285714,82.12857142857143,4152.6,732.2223214285714,82.12857142857143,4255.1,732.2223214285714,82.12857142857143,4356.3,732.2223214285714,82.12857142857143,4457,732.2223214285714,82.12857142857143,4557.7,732.2223214285714,82.12857142857143,4663,732.2223214285714,82.12857142857143,4764.2,732.2223214285714,82.12857142857143,4874.2,732.2223214285714,82.12857142857143,4975.5]","[1363.1,1363.1,1000,0,363.1,""smooth"",""up"",""up"",""good_move"",7891,6526.9,2718.4,4819.4,353.2,""smooth"",""right"",""right"",""good_move"",10790.8,2898.8,2537.4,7892,361.4,""oops"",""right"",""right"",""good_move"",13524.3,2732.6,2367.1,10791.9,365.3,""smooth"",""right"",""right"",""good_move"",16505.7,2979.2,2626,13526.5,353.2,""while_blue"",""up"",""left"",""bad_move"",19635.6,3126,2714.8,16509.7,411.1,""oops"",""up"",""up"",""good_move"",22096.8,2460.1,2075.8,19636.7,384.3,""smooth"",""up"",""up"",""good_move"",24801.3,2703.9,2323.3,22097.4,380.6,""smooth"",""right"",""right"",""good_move""]","",""
"6435","","<div style=""width:500px;"">
  <p>What determined the result of this run?</p>
  </div>","97","html-slider-response","20","404583","0.0-5.0-1.2","88","1","2025-07-16 09:14:33","1f75c3e559b7213887762d5229550c2b","216.120.189.225","Mozilla/5.0 (Windows NT 10.0; Win64; x64) AppleWebKit/537.36 (KHTML, like Gecko) Chrome/138.0.0.0 Safari/537.36","WebKit","Chrome","138.0.0.0","Windows","10.0","https://app.prolific.com/","en-US,en;q=0.9","663b638be7226d4e3fcc255f","68764874ac79eee8c1d4cb03","68776d6e8e6b22b80e5b8514","2","0","663b638be7226d4e3fcc255f","2","0","2025-07-16T09:21:34.252Z","","","","","","","","","","","AttribQ","","50","","","","","","","","","","","","","","","","","","","","","","","","","","","","",""
"5204","","<div style=""width:500px;"">
  <p>How much control did you have over the ball?</p>
  </div>","97","html-slider-response","21","409790","0.0-5.0-2.2","88","1","2025-07-16 09:14:33","1f75c3e559b7213887762d5229550c2b","216.120.189.225","Mozilla/5.0 (Windows NT 10.0; Win64; x64) AppleWebKit/537.36 (KHTML, like Gecko) Chrome/138.0.0.0 Safari/537.36","WebKit","Chrome","138.0.0.0","Windows","10.0","https://app.prolific.com/","en-US,en;q=0.9","663b638be7226d4e3fcc255f","68764874ac79eee8c1d4cb03","68776d6e8e6b22b80e5b8514","2","0","663b638be7226d4e3fcc255f","2","0","2025-07-16T09:21:39.459Z","","","","","","","","","","","ControlQ","","50","","","","","","","","","","","","","","","","","","","","","","","","","","","","",""
"3591","","<div style=""width:500px;"">
  <p>How would you describe your current emotional state?</p>
  </div>","0","html-slider-response","22","413383","0.0-5.0-3.2","88","1","2025-07-16 09:14:33","1f75c3e559b7213887762d5229550c2b","216.120.189.225","Mozilla/5.0 (Windows NT 10.0; Win64; x64) AppleWebKit/537.36 (KHTML, like Gecko) Chrome/138.0.0.0 Safari/537.36","WebKit","Chrome","138.0.0.0","Windows","10.0","https://app.prolific.com/","en-US,en;q=0.9","663b638be7226d4e3fcc255f","68764874ac79eee8c1d4cb03","68776d6e8e6b22b80e5b8514","2","0","663b638be7226d4e3fcc255f","2","0","2025-07-16T09:21:43.053Z","","","","","","","","","","","StressQ","","50","","","","","","","","","","","","","","","","","","","","","","","","","","","","",""
"4592","","<div style=""width:500px;"">
  <p>What best describes how you currently feel?</p>
  </div>","100","html-slider-response","23","417978","0.0-5.0-4.2","88","1","2025-07-16 09:14:33","1f75c3e559b7213887762d5229550c2b","216.120.189.225","Mozilla/5.0 (Windows NT 10.0; Win64; x64) AppleWebKit/537.36 (KHTML, like Gecko) Chrome/138.0.0.0 Safari/537.36","WebKit","Chrome","138.0.0.0","Windows","10.0","https://app.prolific.com/","en-US,en;q=0.9","663b638be7226d4e3fcc255f","68764874ac79eee8c1d4cb03","68776d6e8e6b22b80e5b8514","2","0","663b638be7226d4e3fcc255f","2","0","2025-07-16T09:21:47.647Z","","","","","","","","","","","MotivationQ","","50","","","","","","","","","","","","","","","","","","","","","","","","","","","","",""
"","","","","ctl-task-cpt","24","457293","0.0-5.0-0.3","88","1","2025-07-16 09:14:33","1f75c3e559b7213887762d5229550c2b","216.120.189.225","Mozilla/5.0 (Windows NT 10.0; Win64; x64) AppleWebKit/537.36 (KHTML, like Gecko) Chrome/138.0.0.0 Safari/537.36","WebKit","Chrome","138.0.0.0","Windows","10.0","https://app.prolific.com/","en-US,en;q=0.9","663b638be7226d4e3fcc255f","68764874ac79eee8c1d4cb03","68776d6e8e6b22b80e5b8514","2","0","663b638be7226d4e3fcc255f","2","0","2025-07-16T09:22:26.962Z","","","","","","","","","","","","","","win-only","1","g1:NE,g2:SW","0.7","4","0","434631.6","1177.6","6184","36293.4","1","4","8","6","2","8","8","23","15","0.17424242424242425","1503.5","3000","415","[""down"",""left""]","{""num_key_presses"":10,""num_perfect"":7,""num_errors"":0,""num_randdir"":3,""num_randdir_good_moves"":1,""num_whilered"":0,""num_whileblue"":0,""num_blue"":1,""num_good_moves"":8}","[297.22232142857143,295.12857142857143,0.5,297.22232142857143,295.12857142857143,103.2,297.22232142857143,295.12857142857143,205.1,297.22232142857143,295.12857142857143,310.1,297.22232142857143,295.12857142857143,414.8,297.22232142857143,295.12857142857143,526.1,297.22232142857143,295.12857142857143,629.1,62.222321428571426,521.1285714285714,729.8,-40.777678571428574,647.1285714285714,835.7,-41.777678571428574,648.1285714285714,942.6,-41.777678571428574,648.1285714285714,1049.5,42.222321428571426,576.1285714285714,1150.5,66.22232142857143,550.1285714285714,1252.3,75.22232142857143,539.1285714285714,1354.2,80.22232142857143,535.1285714285714,1460.3,80.22232142857143,535.1285714285714,1572.6,80.22232142857143,535.1285714285714,1681.7,80.22232142857143,535.1285714285714,1786.4,80.22232142857143,535.1285714285714,1893.2,-92.77767857142857,484.12857142857143,2003.9,-93.77767857142857,484.12857142857143,2104,-93.77767857142857,484.12857142857143,2210.8,-93.77767857142857,484.12857142857143,2317,-93.77767857142857,484.12857142857143,2419.3,-93.77767857142857,484.12857142857143,2527.4,-93.77767857142857,484.12857142857143,2627.7,-93.77767857142857,484.12857142857143,2734.3,-93.77767857142857,484.12857142857143,2838.9,-93.77767857142857,484.12857142857143,2946.4,-93.77767857142857,484.12857142857143,3051.5,-93.77767857142857,484.12857142857143,3152.7,-93.77767857142857,484.12857142857143,3260,-93.77767857142857,484.12857142857143,3361.1,-93.77767857142857,484.12857142857143,3468.4,-93.77767857142857,484.12857142857143,3581.8,-93.77767857142857,484.12857142857143,3682.9,-93.77767857142857,484.12857142857143,3785.6,-93.77767857142857,484.12857142857143,3892.6,-93.77767857142857,484.12857142857143,3995.6,-93.77767857142857,484.12857142857143,4100.5,-93.77767857142857,484.12857142857143,4204.7,-93.77767857142857,484.12857142857143,4309.5,-93.77767857142857,484.12857142857143,4415.6,-93.77767857142857,484.12857142857143,4523.3,-93.77767857142857,484.12857142857143,4625,-93.77767857142857,484.12857142857143,4735.6,-93.77767857142857,484.12857142857143,4837,-93.77767857142857,484.12857142857143,4941.8]","[1418.2,1418.2,1000,0,418.2,""smooth"",""down"",""down"",""good_move"",4248.7,2828.7,2457.2,1420,371.5,""oops"",""down"",""left"",""good_move"",6628.3,2378.5,2004.7,4249.8,373.9,""oops"",""down"",""right"",""bad_move"",8734,2104.3,1691.3,6629.8,412.9,""oops"",""down"",""right"",""bad_move"",12176.4,3441,3078,8735.4,363,""smooth"",""down"",""down"",""good_move"",15035.3,2857.8,2531,12177.6,326.7,""smooth"",""down"",""down"",""good_move"",22002.7,6965.8,2848.4,18796.9,357.4,""smooth"",""left"",""left"",""good_move"",24765,2761.9,2373.7,22003.1,388.2,""smooth"",""left"",""left"",""good_move"",27859.6,3093.5,2698.1,24766.1,395.4,""smooth"",""left"",""left"",""good_move"",29979.1,2117.8,1758.6,27861.3,359.2,""smooth"",""left"",""left"",""good_move""]","",""
"6899","","<div style=""width:500px;"">
  <p>What determined the result of this run?</p>
  </div>","91","html-slider-response","25","464195","0.0-5.0-1.3","88","1","2025-07-16 09:14:33","1f75c3e559b7213887762d5229550c2b","216.120.189.225","Mozilla/5.0 (Windows NT 10.0; Win64; x64) AppleWebKit/537.36 (KHTML, like Gecko) Chrome/138.0.0.0 Safari/537.36","WebKit","Chrome","138.0.0.0","Windows","10.0","https://app.prolific.com/","en-US,en;q=0.9","663b638be7226d4e3fcc255f","68764874ac79eee8c1d4cb03","68776d6e8e6b22b80e5b8514","2","0","663b638be7226d4e3fcc255f","2","0","2025-07-16T09:22:33.864Z","","","","","","","","","","","AttribQ","","50","","","","","","","","","","","","","","","","","","","","","","","","","","","","",""
"3927","","<div style=""width:500px;"">
  <p>How much control did you have over the ball?</p>
  </div>","89","html-slider-response","26","468124","0.0-5.0-2.3","88","1","2025-07-16 09:14:33","1f75c3e559b7213887762d5229550c2b","216.120.189.225","Mozilla/5.0 (Windows NT 10.0; Win64; x64) AppleWebKit/537.36 (KHTML, like Gecko) Chrome/138.0.0.0 Safari/537.36","WebKit","Chrome","138.0.0.0","Windows","10.0","https://app.prolific.com/","en-US,en;q=0.9","663b638be7226d4e3fcc255f","68764874ac79eee8c1d4cb03","68776d6e8e6b22b80e5b8514","2","0","663b638be7226d4e3fcc255f","2","0","2025-07-16T09:22:37.794Z","","","","","","","","","","","ControlQ","","50","","","","","","","","","","","","","","","","","","","","","","","","","","","","",""
"4166","","<div style=""width:500px;"">
  <p>How would you describe your current emotional state?</p>
  </div>","0","html-slider-response","27","472292","0.0-5.0-3.3","88","1","2025-07-16 09:14:33","1f75c3e559b7213887762d5229550c2b","216.120.189.225","Mozilla/5.0 (Windows NT 10.0; Win64; x64) AppleWebKit/537.36 (KHTML, like Gecko) Chrome/138.0.0.0 Safari/537.36","WebKit","Chrome","138.0.0.0","Windows","10.0","https://app.prolific.com/","en-US,en;q=0.9","663b638be7226d4e3fcc255f","68764874ac79eee8c1d4cb03","68776d6e8e6b22b80e5b8514","2","0","663b638be7226d4e3fcc255f","2","0","2025-07-16T09:22:41.961Z","","","","","","","","","","","StressQ","","50","","","","","","","","","","","","","","","","","","","","","","","","","","","","",""
"3648","","<div style=""width:500px;"">
  <p>What best describes how you currently feel?</p>
  </div>","100","html-slider-response","28","475942","0.0-5.0-4.3","88","1","2025-07-16 09:14:33","1f75c3e559b7213887762d5229550c2b","216.120.189.225","Mozilla/5.0 (Windows NT 10.0; Win64; x64) AppleWebKit/537.36 (KHTML, like Gecko) Chrome/138.0.0.0 Safari/537.36","WebKit","Chrome","138.0.0.0","Windows","10.0","https://app.prolific.com/","en-US,en;q=0.9","663b638be7226d4e3fcc255f","68764874ac79eee8c1d4cb03","68776d6e8e6b22b80e5b8514","2","0","663b638be7226d4e3fcc255f","2","0","2025-07-16T09:22:45.611Z","","","","","","","","","","","MotivationQ","","50","","","","","","","","","","","","","","","","","","","","","","","","","","","","",""
"","","","","ctl-task-cpt","29","520816","0.0-5.0-0.4","88","1","2025-07-16 09:14:33","1f75c3e559b7213887762d5229550c2b","216.120.189.225","Mozilla/5.0 (Windows NT 10.0; Win64; x64) AppleWebKit/537.36 (KHTML, like Gecko) Chrome/138.0.0.0 Safari/537.36","WebKit","Chrome","138.0.0.0","Windows","10.0","https://app.prolific.com/","en-US,en;q=0.9","663b638be7226d4e3fcc255f","68764874ac79eee8c1d4cb03","68776d6e8e6b22b80e5b8514","2","0","663b638be7226d4e3fcc255f","2","0","2025-07-16T09:23:30.485Z","","","","","","","","","","","","","","win-only","2","g1:SE,g2:NW","0.6","5","0","492595","1392.6","6396.9","41853.4","1","4","4","6","2","-4","-5","18","23","0.13636363636363635","1440.6","3000","-2195","[""left"",""up""]","{""num_key_presses"":12,""num_perfect"":7,""num_errors"":1,""num_randdir"":4,""num_randdir_good_moves"":0,""num_whilered"":0,""num_whileblue"":0,""num_blue"":0,""num_good_moves"":7}","[301.22232142857143,294.12857142857143,0.3,301.22232142857143,294.12857142857143,105.2,301.22232142857143,294.12857142857143,211.8,301.22232142857143,294.12857142857143,312.5,301.22232142857143,294.12857142857143,417.7,301.22232142857143,294.12857142857143,521.7,277.22232142857143,281.12857142857143,624.2,130.22232142857143,161.12857142857143,724.5,127.22232142857143,156.12857142857143,828.2,127.22232142857143,156.12857142857143,934.4,127.22232142857143,156.12857142857143,1038.3,71.22232142857143,72.12857142857143,1145.7,55.222321428571426,50.128571428571426,1246,50.222321428571426,44.128571428571426,1347,50.222321428571426,44.128571428571426,1456.7,50.222321428571426,44.128571428571426,1556.9,50.222321428571426,44.128571428571426,1663.1,50.222321428571426,44.128571428571426,1768.1,-144.77767857142857,113.12857142857143,1868.9,-196.77767857142857,139.12857142857143,1970.6,-198.77767857142857,142.12857142857143,2076.9,-198.77767857142857,142.12857142857143,2180.6,-198.77767857142857,142.12857142857143,2283.2,-198.77767857142857,142.12857142857143,2383.6,-198.77767857142857,142.12857142857143,2483.6,-198.77767857142857,142.12857142857143,2588.8,-198.77767857142857,142.12857142857143,2689.7,-198.77767857142857,142.12857142857143,2800.4,-198.77767857142857,142.12857142857143,2907.4,-198.77767857142857,142.12857142857143,3014,-198.77767857142857,142.12857142857143,3122.4,-198.77767857142857,142.12857142857143,3224.5,-198.77767857142857,142.12857142857143,3325.2,-198.77767857142857,142.12857142857143,3436.1,-198.77767857142857,142.12857142857143,3539.7,-198.77767857142857,142.12857142857143,3644.9,-198.77767857142857,142.12857142857143,3750.5,-198.77767857142857,142.12857142857143,3854.8,-198.77767857142857,142.12857142857143,3959.4,-198.77767857142857,142.12857142857143,4063.6,-198.77767857142857,142.12857142857143,4172.4,-198.77767857142857,142.12857142857143,4278.7,-198.77767857142857,142.12857142857143,4378.8,-198.77767857142857,142.12857142857143,4486.7,-198.77767857142857,142.12857142857143,4589.9,-198.77767857142857,142.12857142857143,4691,-198.77767857142857,142.12857142857143,4791.9,-198.77767857142857,142.12857142857143,4894.8,-198.77767857142857,142.12857142857143,4996.9]","[1407.3,1407.3,1000,0,407.3,""smooth"",""up"",""up"",""good_move"",4271.1,2862.9,2495.3,1408.2,367.6,""oops"",""up"",""right"",""bad_move"",7548.8,3275.7,2914.6,4273.1,361.1,""smooth"",""up"",""up"",""good_move"",10231.9,2682,2211.1,7549.9,470.9,""smooth"",""up"",""up"",""good_move"",10343.1,110.5,2532,10232.6,-2421.5,""error"",""-"",""-"",""no_move"",13914.9,3571.2,2200.3,11345.5,369.1,""oops"",""left"",""down"",""bad_move"",17379.9,3464.2,3059.9,13915.7,404.3,""smooth"",""left"",""left"",""good_move"",20620.7,3239.6,2778.4,17381.1,461.2,""smooth"",""left"",""left"",""good_move"",23025,2403.7,1927.7,20621.3,476,""oops"",""left"",""right"",""bad_move"",27009.1,3983,3628.5,23026.2,354.4,""smooth"",""left"",""left"",""good_move"",29379.7,2369.5,2000.5,27010.2,369,""oops"",""left"",""down"",""bad_move"",32168.3,2787.9,2444.4,29380.4,343.5,""smooth"",""left"",""left"",""good_move""]","",""
"7986","","<div style=""width:500px;"">
  <p>What determined the result of this run?</p>
  </div>","0","html-slider-response","30","528803","0.0-5.0-1.4","88","1","2025-07-16 09:14:33","1f75c3e559b7213887762d5229550c2b","216.120.189.225","Mozilla/5.0 (Windows NT 10.0; Win64; x64) AppleWebKit/537.36 (KHTML, like Gecko) Chrome/138.0.0.0 Safari/537.36","WebKit","Chrome","138.0.0.0","Windows","10.0","https://app.prolific.com/","en-US,en;q=0.9","663b638be7226d4e3fcc255f","68764874ac79eee8c1d4cb03","68776d6e8e6b22b80e5b8514","2","0","663b638be7226d4e3fcc255f","2","0","2025-07-16T09:23:38.472Z","","","","","","","","","","","AttribQ","","50","","","","","","","","","","","","","","","","","","","","","","","","","","","","",""
"4810","","<div style=""width:500px;"">
  <p>How much control did you have over the ball?</p>
  </div>","5","html-slider-response","31","533616","0.0-5.0-2.4","88","1","2025-07-16 09:14:33","1f75c3e559b7213887762d5229550c2b","216.120.189.225","Mozilla/5.0 (Windows NT 10.0; Win64; x64) AppleWebKit/537.36 (KHTML, like Gecko) Chrome/138.0.0.0 Safari/537.36","WebKit","Chrome","138.0.0.0","Windows","10.0","https://app.prolific.com/","en-US,en;q=0.9","663b638be7226d4e3fcc255f","68764874ac79eee8c1d4cb03","68776d6e8e6b22b80e5b8514","2","0","663b638be7226d4e3fcc255f","2","0","2025-07-16T09:23:43.285Z","","","","","","","","","","","ControlQ","","50","","","","","","","","","","","","","","","","","","","","","","","","","","","","",""
"4703","","<div style=""width:500px;"">
  <p>How would you describe your current emotional state?</p>
  </div>","0","html-slider-response","32","538322","0.0-5.0-3.4","88","1","2025-07-16 09:14:33","1f75c3e559b7213887762d5229550c2b","216.120.189.225","Mozilla/5.0 (Windows NT 10.0; Win64; x64) AppleWebKit/537.36 (KHTML, like Gecko) Chrome/138.0.0.0 Safari/537.36","WebKit","Chrome","138.0.0.0","Windows","10.0","https://app.prolific.com/","en-US,en;q=0.9","663b638be7226d4e3fcc255f","68764874ac79eee8c1d4cb03","68776d6e8e6b22b80e5b8514","2","0","663b638be7226d4e3fcc255f","2","0","2025-07-16T09:23:47.991Z","","","","","","","","","","","StressQ","","50","","","","","","","","","","","","","","","","","","","","","","","","","","","","",""
"5894","","<div style=""width:500px;"">
  <p>What best describes how you currently feel?</p>
  </div>","100","html-slider-response","33","544218","0.0-5.0-4.4","88","1","2025-07-16 09:14:33","1f75c3e559b7213887762d5229550c2b","216.120.189.225","Mozilla/5.0 (Windows NT 10.0; Win64; x64) AppleWebKit/537.36 (KHTML, like Gecko) Chrome/138.0.0.0 Safari/537.36","WebKit","Chrome","138.0.0.0","Windows","10.0","https://app.prolific.com/","en-US,en;q=0.9","663b638be7226d4e3fcc255f","68764874ac79eee8c1d4cb03","68776d6e8e6b22b80e5b8514","2","0","663b638be7226d4e3fcc255f","2","0","2025-07-16T09:23:53.887Z","","","","","","","","","","","MotivationQ","","50","","","","","","","","","","","","","","","","","","","","","","","","","","","","",""
"","","","","ctl-task-cpt","34","586912","0.0-5.0-0.5","88","1","2025-07-16 09:14:33","1f75c3e559b7213887762d5229550c2b","216.120.189.225","Mozilla/5.0 (Windows NT 10.0; Win64; x64) AppleWebKit/537.36 (KHTML, like Gecko) Chrome/138.0.0.0 Safari/537.36","WebKit","Chrome","138.0.0.0","Windows","10.0","https://app.prolific.com/","en-US,en;q=0.9","663b638be7226d4e3fcc255f","68764874ac79eee8c1d4cb03","68776d6e8e6b22b80e5b8514","2","0","663b638be7226d4e3fcc255f","2","0","2025-07-16T09:24:36.582Z","","","","","","","","","","","","","","win-only","3","g1:SW,g2:NE","0.5","6","0","560869","1341.9","6351.4","39663.8","1","4","8","6","2","8","8","26","18","0.19696969696969696","1370.7","3000","990","[""up"",""right""]","{""num_key_presses"":8,""num_perfect"":4,""num_errors"":0,""num_randdir"":4,""num_randdir_good_moves"":3,""num_whilered"":0,""num_whileblue"":0,""num_blue"":4,""num_good_moves"":7}","[305.22232142857143,295.12857142857143,0.4,305.22232142857143,295.12857142857143,103.7,305.22232142857143,295.12857142857143,205.5,305.22232142857143,295.12857142857143,308.9,305.22232142857143,295.12857142857143,409,305.22232142857143,295.12857142857143,509.8,304.22232142857143,294.12857142857143,610.3,445.22232142857143,127.12857142857143,723.4,445.22232142857143,127.12857142857143,824.1,445.22232142857143,127.12857142857143,927.2,445.22232142857143,127.12857142857143,1027.6,550.2223214285714,52.128571428571426,1134.3,552.2223214285714,51.128571428571426,1241,552.2223214285714,51.128571428571426,1346,552.2223214285714,51.128571428571426,1451.8,552.2223214285714,51.128571428571426,1557,552.2223214285714,51.128571428571426,1670.5,658.2223214285714,37.128571428571426,1776.7,717.2223214285714,38.128571428571426,1884.3,717.2223214285714,38.128571428571426,1985,717.2223214285714,38.128571428571426,2090.3,717.2223214285714,38.128571428571426,2198.1,717.2223214285714,38.128571428571426,2304.1,717.2223214285714,38.128571428571426,2411.3,717.2223214285714,38.128571428571426,2514.1,717.2223214285714,38.128571428571426,2617,717.2223214285714,38.128571428571426,2723,717.2223214285714,38.128571428571426,2824.4,717.2223214285714,38.128571428571426,2931,717.2223214285714,38.128571428571426,3038.5,717.2223214285714,38.128571428571426,3145,717.2223214285714,38.128571428571426,3258.4,717.2223214285714,38.128571428571426,3359.1,717.2223214285714,38.128571428571426,3466.8,717.2223214285714,38.128571428571426,3576.7,717.2223214285714,38.128571428571426,3682.5,717.2223214285714,38.128571428571426,3783.7,717.2223214285714,38.128571428571426,3888.7,717.2223214285714,38.128571428571426,3990.9,717.2223214285714,38.128571428571426,4100.1,717.2223214285714,38.128571428571426,4200.4,717.2223214285714,38.128571428571426,4307.2,717.2223214285714,38.128571428571426,4411.5,717.2223214285714,38.128571428571426,4521.4,717.2223214285714,38.128571428571426,4621.9,717.2223214285714,38.128571428571426,4722.2,717.2223214285714,38.128571428571426,4824.5,717.2223214285714,38.128571428571426,4925]","[1466.1,1466.2,1000,0,466.2,""oops"",""up"",""up"",""good_move"",7336.1,5869.3,2446.1,4485.5,404.5,""oops"",""up"",""left"",""bad_move"",9832,2494.9,2043.7,7337.1,451.2,""smooth"",""up"",""up"",""good_move"",15705.8,5873.1,2557,12865.7,283.1,""smooth"",""up"",""up"",""good_move"",18902.6,3196.6,2747.9,15706,448.7,""smooth"",""right"",""right"",""good_move"",25166.8,6263.1,2292,22466.2,408.7,""smooth"",""right"",""right"",""good_move"",30884.5,5717.4,2348.2,28199,337.4,""oops"",""right"",""right"",""good_move"",33200.7,2314.2,1867.9,30886.5,446.3,""oops"",""right"",""right"",""good_move""]","",""
"4265","","<div style=""width:500px;"">
  <p>What determined the result of this run?</p>
  </div>","90","html-slider-response","35","591180","0.0-5.0-1.5","88","1","2025-07-16 09:14:33","1f75c3e559b7213887762d5229550c2b","216.120.189.225","Mozilla/5.0 (Windows NT 10.0; Win64; x64) AppleWebKit/537.36 (KHTML, like Gecko) Chrome/138.0.0.0 Safari/537.36","WebKit","Chrome","138.0.0.0","Windows","10.0","https://app.prolific.com/","en-US,en;q=0.9","663b638be7226d4e3fcc255f","68764874ac79eee8c1d4cb03","68776d6e8e6b22b80e5b8514","2","0","663b638be7226d4e3fcc255f","2","0","2025-07-16T09:24:40.850Z","","","","","","","","","","","AttribQ","","50","","","","","","","","","","","","","","","","","","","","","","","","","","","","",""
"3993","","<div style=""width:500px;"">
  <p>How much control did you have over the ball?</p>
  </div>","92","html-slider-response","36","595175","0.0-5.0-2.5","88","1","2025-07-16 09:14:33","1f75c3e559b7213887762d5229550c2b","216.120.189.225","Mozilla/5.0 (Windows NT 10.0; Win64; x64) AppleWebKit/537.36 (KHTML, like Gecko) Chrome/138.0.0.0 Safari/537.36","WebKit","Chrome","138.0.0.0","Windows","10.0","https://app.prolific.com/","en-US,en;q=0.9","663b638be7226d4e3fcc255f","68764874ac79eee8c1d4cb03","68776d6e8e6b22b80e5b8514","2","0","663b638be7226d4e3fcc255f","2","0","2025-07-16T09:24:44.845Z","","","","","","","","","","","ControlQ","","50","","","","","","","","","","","","","","","","","","","","","","","","","","","","",""
"3938","","<div style=""width:500px;"">
  <p>How would you describe your current emotional state?</p>
  </div>","0","html-slider-response","37","599116","0.0-5.0-3.5","88","1","2025-07-16 09:14:33","1f75c3e559b7213887762d5229550c2b","216.120.189.225","Mozilla/5.0 (Windows NT 10.0; Win64; x64) AppleWebKit/537.36 (KHTML, like Gecko) Chrome/138.0.0.0 Safari/537.36","WebKit","Chrome","138.0.0.0","Windows","10.0","https://app.prolific.com/","en-US,en;q=0.9","663b638be7226d4e3fcc255f","68764874ac79eee8c1d4cb03","68776d6e8e6b22b80e5b8514","2","0","663b638be7226d4e3fcc255f","2","0","2025-07-16T09:24:48.785Z","","","","","","","","","","","StressQ","","50","","","","","","","","","","","","","","","","","","","","","","","","","","","","",""
"3043","","<div style=""width:500px;"">
  <p>What best describes how you currently feel?</p>
  </div>","100","html-slider-response","38","602161","0.0-5.0-4.5","88","1","2025-07-16 09:14:33","1f75c3e559b7213887762d5229550c2b","216.120.189.225","Mozilla/5.0 (Windows NT 10.0; Win64; x64) AppleWebKit/537.36 (KHTML, like Gecko) Chrome/138.0.0.0 Safari/537.36","WebKit","Chrome","138.0.0.0","Windows","10.0","https://app.prolific.com/","en-US,en;q=0.9","663b638be7226d4e3fcc255f","68764874ac79eee8c1d4cb03","68776d6e8e6b22b80e5b8514","2","0","663b638be7226d4e3fcc255f","2","0","2025-07-16T09:24:51.830Z","","","","","","","","","","","MotivationQ","","50","","","","","","","","","","","","","","","","","","","","","","","","","","","","",""
"","","","","ctl-task-cpt","39","655095","0.0-5.0-0.6","88","1","2025-07-16 09:14:33","1f75c3e559b7213887762d5229550c2b","216.120.189.225","Mozilla/5.0 (Windows NT 10.0; Win64; x64) AppleWebKit/537.36 (KHTML, like Gecko) Chrome/138.0.0.0 Safari/537.36","WebKit","Chrome","138.0.0.0","Windows","10.0","https://app.prolific.com/","en-US,en;q=0.9","663b638be7226d4e3fcc255f","68764874ac79eee8c1d4cb03","68776d6e8e6b22b80e5b8514","2","0","663b638be7226d4e3fcc255f","2","0","2025-07-16T09:25:44.764Z","","","","","","","","","","","","","","win-only","1","g1:NE,g2:SW","0.4","7","0","618814.7","1205.5","6213.1","49896.8","1","4","4","6","2","-4","-4","22","26","0.16666666666666666","1969.4","3000","-2060","[""down"",""left""]","{""num_key_presses"":11,""num_perfect"":4,""num_errors"":0,""num_randdir"":7,""num_randdir_good_moves"":2,""num_whilered"":0,""num_whileblue"":0,""num_blue"":3,""num_good_moves"":6}","[290.22232142857143,291.12857142857143,0.9,290.22232142857143,291.12857142857143,112.9,290.22232142857143,291.12857142857143,215.5,290.22232142857143,291.12857142857143,325.3,290.22232142857143,291.12857142857143,425.9,290.22232142857143,291.12857142857143,533.9,290.22232142857143,291.12857142857143,638.1,184.22232142857143,419.12857142857143,739.4,47.222321428571426,528.1285714285714,852.3,0.22232142857142634,551.1285714285714,956.2,-3.7776785714285737,553.1285714285714,1057.5,-4.777678571428574,553.1285714285714,1158.1,-4.777678571428574,553.1285714285714,1265.8,-4.777678571428574,553.1285714285714,1365.9,-4.777678571428574,553.1285714285714,1469.4,-4.777678571428574,553.1285714285714,1581,-4.777678571428574,553.1285714285714,1681.8,17.222321428571426,549.1285714285714,1785.3,25.222321428571426,547.1285714285714,1887.7,25.222321428571426,547.1285714285714,1997.3,25.222321428571426,547.1285714285714,2097.5,25.222321428571426,547.1285714285714,2209.2,25.222321428571426,547.1285714285714,2313.7,0.22232142857142634,541.1285714285714,2414.4,-164.77767857142857,492.12857142857143,2522.5,-175.77767857142857,490.12857142857143,2630.5,-175.77767857142857,490.12857142857143,2737.5,-175.77767857142857,490.12857142857143,2843.4,-175.77767857142857,490.12857142857143,2946.1,-175.77767857142857,490.12857142857143,3048.7,-175.77767857142857,490.12857142857143,3151.8,-175.77767857142857,490.12857142857143,3256.1,-175.77767857142857,490.12857142857143,3362.8,-175.77767857142857,490.12857142857143,3469.8,-175.77767857142857,490.12857142857143,3570.6,-175.77767857142857,490.12857142857143,3674.7,-175.77767857142857,490.12857142857143,3780.2,-175.77767857142857,490.12857142857143,3880.9,-175.77767857142857,490.12857142857143,3982.2,-175.77767857142857,490.12857142857143,4085.7,-175.77767857142857,490.12857142857143,4195.8,-175.77767857142857,490.12857142857143,4303.5,-175.77767857142857,490.12857142857143,4415.8,-175.77767857142857,490.12857142857143,4523.9,-175.77767857142857,490.12857142857143,4626.7,-175.77767857142857,490.12857142857143,4729,-175.77767857142857,490.12857142857143,4836.4,-175.77767857142857,490.12857142857143,4952]","[1405.3,1405.3,1000,0,405.3,""smooth"",""down"",""down"",""good_move"",4129,2722.8,2365.7,1406.2,357.1,""smooth"",""down"",""down"",""good_move"",7399,3269.5,2867,4129.5,402.5,""smooth"",""down"",""down"",""good_move"",11246.4,3846.7,3503.5,7399.8,343.1,""oops"",""left"",""right"",""bad_move"",18078.8,6830.9,2343.7,15351.8,383.3,""smooth"",""left"",""left"",""good_move"",24004.3,5924.4,2030.3,21553.1,420.9,""oops"",""left"",""right"",""bad_move"",26423.2,2418.6,1957.4,24004.6,461.2,""oops"",""left"",""right"",""bad_move"",29174.2,2750.5,2312.7,26423.7,437.8,""oops"",""left"",""up"",""bad_move"",35152.2,5977.2,2582.5,32221.6,348.1,""oops"",""left"",""down"",""good_move"",37643.5,2490.6,2129.5,35152.9,361.1,""oops"",""left"",""up"",""bad_move"",40995.6,3351.7,2963.2,37643.9,388.5,""oops"",""left"",""down"",""good_move""]","",""
"4283","","<div style=""width:500px;"">
  <p>What determined the result of this run?</p>
  </div>","6","html-slider-response","40","659382","0.0-5.0-1.6","88","1","2025-07-16 09:14:33","1f75c3e559b7213887762d5229550c2b","216.120.189.225","Mozilla/5.0 (Windows NT 10.0; Win64; x64) AppleWebKit/537.36 (KHTML, like Gecko) Chrome/138.0.0.0 Safari/537.36","WebKit","Chrome","138.0.0.0","Windows","10.0","https://app.prolific.com/","en-US,en;q=0.9","663b638be7226d4e3fcc255f","68764874ac79eee8c1d4cb03","68776d6e8e6b22b80e5b8514","2","0","663b638be7226d4e3fcc255f","2","0","2025-07-16T09:25:49.051Z","","","","","","","","","","","AttribQ","","50","","","","","","","","","","","","","","","","","","","","","","","","","","","","",""
"4387","","<div style=""width:500px;"">
  <p>How much control did you have over the ball?</p>
  </div>","12","html-slider-response","41","663772","0.0-5.0-2.6","88","1","2025-07-16 09:14:33","1f75c3e559b7213887762d5229550c2b","216.120.189.225","Mozilla/5.0 (Windows NT 10.0; Win64; x64) AppleWebKit/537.36 (KHTML, like Gecko) Chrome/138.0.0.0 Safari/537.36","WebKit","Chrome","138.0.0.0","Windows","10.0","https://app.prolific.com/","en-US,en;q=0.9","663b638be7226d4e3fcc255f","68764874ac79eee8c1d4cb03","68776d6e8e6b22b80e5b8514","2","0","663b638be7226d4e3fcc255f","2","0","2025-07-16T09:25:53.441Z","","","","","","","","","","","ControlQ","","50","","","","","","","","","","","","","","","","","","","","","","","","","","","","",""
"5748","","<div style=""width:500px;"">
  <p>How would you describe your current emotional state?</p>
  </div>","0","html-slider-response","42","669523","0.0-5.0-3.6","88","1","2025-07-16 09:14:33","1f75c3e559b7213887762d5229550c2b","216.120.189.225","Mozilla/5.0 (Windows NT 10.0; Win64; x64) AppleWebKit/537.36 (KHTML, like Gecko) Chrome/138.0.0.0 Safari/537.36","WebKit","Chrome","138.0.0.0","Windows","10.0","https://app.prolific.com/","en-US,en;q=0.9","663b638be7226d4e3fcc255f","68764874ac79eee8c1d4cb03","68776d6e8e6b22b80e5b8514","2","0","663b638be7226d4e3fcc255f","2","0","2025-07-16T09:25:59.192Z","","","","","","","","","","","StressQ","","50","","","","","","","","","","","","","","","","","","","","","","","","","","","","",""
"4847","","<div style=""width:500px;"">
  <p>What best describes how you currently feel?</p>
  </div>","100","html-slider-response","43","674371","0.0-5.0-4.6","88","1","2025-07-16 09:14:33","1f75c3e559b7213887762d5229550c2b","216.120.189.225","Mozilla/5.0 (Windows NT 10.0; Win64; x64) AppleWebKit/537.36 (KHTML, like Gecko) Chrome/138.0.0.0 Safari/537.36","WebKit","Chrome","138.0.0.0","Windows","10.0","https://app.prolific.com/","en-US,en;q=0.9","663b638be7226d4e3fcc255f","68764874ac79eee8c1d4cb03","68776d6e8e6b22b80e5b8514","2","0","663b638be7226d4e3fcc255f","2","0","2025-07-16T09:26:04.040Z","","","","","","","","","","","MotivationQ","","50","","","","","","","","","","","","","","","","","","","","","","","","","","","","",""
"","","","","ctl-task-cpt","44","745196","0.0-5.0-0.7","88","1","2025-07-16 09:14:33","1f75c3e559b7213887762d5229550c2b","216.120.189.225","Mozilla/5.0 (Windows NT 10.0; Win64; x64) AppleWebKit/537.36 (KHTML, like Gecko) Chrome/138.0.0.0 Safari/537.36","WebKit","Chrome","138.0.0.0","Windows","10.0","https://app.prolific.com/","en-US,en;q=0.9","663b638be7226d4e3fcc255f","68764874ac79eee8c1d4cb03","68776d6e8e6b22b80e5b8514","2","0","663b638be7226d4e3fcc255f","2","0","2025-07-16T09:27:14.865Z","","","","","","","","","","","","","","win-only","1","g1:NE,g2:SW","0.3","8","0","691022.8","1273.2","6276.4","67795.1","1","4","8","6","2","-8","-8","14","22","0.10606060606060606","1059.8","3000","-2040","[""down"",""left""]","{""num_key_presses"":11,""num_perfect"":3,""num_errors"":0,""num_randdir"":8,""num_randdir_good_moves"":5,""num_whilered"":0,""num_whileblue"":0,""num_blue"":8,""num_good_moves"":8}","[291.22232142857143,298.12857142857143,0.8,291.22232142857143,298.12857142857143,109.4,291.22232142857143,298.12857142857143,218.5,291.22232142857143,298.12857142857143,331.4,291.22232142857143,298.12857142857143,440,291.22232142857143,298.12857142857143,542,88.22232142857143,494.12857142857143,649.5,42.222321428571426,546.1285714285714,753.1,36.222321428571426,550.1285714285714,856.4,35.222321428571426,550.1285714285714,957.3,35.222321428571426,550.1285714285714,1086.7,35.222321428571426,550.1285714285714,1193.1,35.222321428571426,550.1285714285714,1294.7,35.222321428571426,550.1285714285714,1399.9,-119.77767857142857,547.1285714285714,1500,-171.77767857142857,549.1285714285714,1600.9,-172.77767857142857,549.1285714285714,1709.2,-172.77767857142857,549.1285714285714,1818.8,-172.77767857142857,549.1285714285714,1923.8,-172.77767857142857,549.1285714285714,2026,-172.77767857142857,549.1285714285714,2131.5,-172.77767857142857,549.1285714285714,2232.6,-172.77767857142857,549.1285714285714,2334.5,-172.77767857142857,549.1285714285714,2440.9,-172.77767857142857,549.1285714285714,2543.4,-172.77767857142857,549.1285714285714,2645.3,-172.77767857142857,549.1285714285714,2750.8,-172.77767857142857,549.1285714285714,2852.7,-172.77767857142857,549.1285714285714,2957.7,-172.77767857142857,549.1285714285714,3059.8,-172.77767857142857,549.1285714285714,3162.8,-172.77767857142857,549.1285714285714,3267.3,-172.77767857142857,549.1285714285714,3371.9,-172.77767857142857,549.1285714285714,3477.1,-172.77767857142857,549.1285714285714,3577.9,-172.77767857142857,549.1285714285714,3687.3,-172.77767857142857,549.1285714285714,3795.5,-172.77767857142857,549.1285714285714,3905.4,-172.77767857142857,549.1285714285714,4005.9,-172.77767857142857,549.1285714285714,4112,-172.77767857142857,549.1285714285714,4218.3,-172.77767857142857,549.1285714285714,4320,-172.77767857142857,549.1285714285714,4424.2,-172.77767857142857,549.1285714285714,4524.7,-172.77767857142857,549.1285714285714,4624.7,-172.77767857142857,549.1285714285714,4731.9,-172.77767857142857,549.1285714285714,4837.3,-172.77767857142857,549.1285714285714,4944.5]","[5243,5243,2821.4,2003.7,417.9,""oops"",""down"",""left"",""good_move"",15146.6,9903,2115.3,12600.2,431.1,""oops"",""down"",""up"",""bad_move"",18690.6,3543.6,3157.5,15147,386.1,""smooth"",""left"",""left"",""good_move"",21148.8,2457.2,2082.9,18691.6,374.3,""oops"",""down"",""down"",""good_move"",28201.3,7052,2839.4,24895.2,466.7,""oops"",""down"",""right"",""bad_move"",30993.3,2790.1,2260.9,28203.4,529,""smooth"",""down"",""down"",""good_move"",34001.6,3007,2616.9,30994.6,390.1,""smooth"",""left"",""left"",""good_move"",40137.5,6132.2,2282.6,37495.4,359.5,""oops"",""down"",""down"",""good_move"",46652.1,6514.2,2206.7,44141.1,304.3,""oops"",""down"",""left"",""good_move"",55927.2,9274.2,2031.2,53505.6,390.4,""oops"",""down"",""up"",""bad_move"",58672.4,2744.6,2386.1,55927.8,358.5,""oops"",""down"",""down"",""good_move""]","",""
"7159","","<div style=""width:500px;"">
  <p>What determined the result of this run?</p>
  </div>","63","html-slider-response","45","752357","0.0-5.0-1.7","88","1","2025-07-16 09:14:33","1f75c3e559b7213887762d5229550c2b","216.120.189.225","Mozilla/5.0 (Windows NT 10.0; Win64; x64) AppleWebKit/537.36 (KHTML, like Gecko) Chrome/138.0.0.0 Safari/537.36","WebKit","Chrome","138.0.0.0","Windows","10.0","https://app.prolific.com/","en-US,en;q=0.9","663b638be7226d4e3fcc255f","68764874ac79eee8c1d4cb03","68776d6e8e6b22b80e5b8514","2","0","663b638be7226d4e3fcc255f","2","0","2025-07-16T09:27:22.026Z","","","","","","","","","","","AttribQ","","50","","","","","","","","","","","","","","","","","","","","","","","","","","","","",""
"6314","","<div style=""width:500px;"">
  <p>How much control did you have over the ball?</p>
  </div>","58","html-slider-response","46","758674","0.0-5.0-2.7","88","1","2025-07-16 09:14:33","1f75c3e559b7213887762d5229550c2b","216.120.189.225","Mozilla/5.0 (Windows NT 10.0; Win64; x64) AppleWebKit/537.36 (KHTML, like Gecko) Chrome/138.0.0.0 Safari/537.36","WebKit","Chrome","138.0.0.0","Windows","10.0","https://app.prolific.com/","en-US,en;q=0.9","663b638be7226d4e3fcc255f","68764874ac79eee8c1d4cb03","68776d6e8e6b22b80e5b8514","2","0","663b638be7226d4e3fcc255f","2","0","2025-07-16T09:27:28.343Z","","","","","","","","","","","ControlQ","","50","","","","","","","","","","","","","","","","","","","","","","","","","","","","",""
"11564","","<div style=""width:500px;"">
  <p>How would you describe your current emotional state?</p>
  </div>","0","html-slider-response","47","770240","0.0-5.0-3.7","88","1","2025-07-16 09:14:33","1f75c3e559b7213887762d5229550c2b","216.120.189.225","Mozilla/5.0 (Windows NT 10.0; Win64; x64) AppleWebKit/537.36 (KHTML, like Gecko) Chrome/138.0.0.0 Safari/537.36","WebKit","Chrome","138.0.0.0","Windows","10.0","https://app.prolific.com/","en-US,en;q=0.9","663b638be7226d4e3fcc255f","68764874ac79eee8c1d4cb03","68776d6e8e6b22b80e5b8514","2","0","663b638be7226d4e3fcc255f","2","0","2025-07-16T09:27:39.910Z","","","","","","","","","","","StressQ","","50","","","","","","","","","","","","","","","","","","","","","","","","","","","","",""
"2857","","<div style=""width:500px;"">
  <p>What best describes how you currently feel?</p>
  </div>","100","html-slider-response","48","773101","0.0-5.0-4.7","88","1","2025-07-16 09:14:33","1f75c3e559b7213887762d5229550c2b","216.120.189.225","Mozilla/5.0 (Windows NT 10.0; Win64; x64) AppleWebKit/537.36 (KHTML, like Gecko) Chrome/138.0.0.0 Safari/537.36","WebKit","Chrome","138.0.0.0","Windows","10.0","https://app.prolific.com/","en-US,en;q=0.9","663b638be7226d4e3fcc255f","68764874ac79eee8c1d4cb03","68776d6e8e6b22b80e5b8514","2","0","663b638be7226d4e3fcc255f","2","0","2025-07-16T09:27:42.770Z","","","","","","","","","","","MotivationQ","","50","","","","","","","","","","","","","","","","","","","","","","","","","","","","",""
"","","","","ctl-task-cpt","49","825572","0.0-5.0-0.8","88","1","2025-07-16 09:14:33","1f75c3e559b7213887762d5229550c2b","216.120.189.225","Mozilla/5.0 (Windows NT 10.0; Win64; x64) AppleWebKit/537.36 (KHTML, like Gecko) Chrome/138.0.0.0 Safari/537.36","WebKit","Chrome","138.0.0.0","Windows","10.0","https://app.prolific.com/","en-US,en;q=0.9","663b638be7226d4e3fcc255f","68764874ac79eee8c1d4cb03","68776d6e8e6b22b80e5b8514","2","0","663b638be7226d4e3fcc255f","2","0","2025-07-16T09:28:35.242Z","","","","","","","","","","","","","","win-only","3","g1:SW,g2:NE","0.2","9","0","789752.3","3189","8192.5","49453.6","1","4","4","6","2","4","4","18","14","0.13636363636363635","1272.4","3000","300","[""up"",""right""]","{""num_key_presses"":12,""num_perfect"":3,""num_errors"":0,""num_randdir"":9,""num_randdir_good_moves"":6,""num_whilered"":0,""num_whileblue"":0,""num_blue"":2,""num_good_moves"":9}","[289.22232142857143,295.12857142857143,0.5,289.22232142857143,295.12857142857143,101.6,289.22232142857143,295.12857142857143,218.7,289.22232142857143,295.12857142857143,322.9,289.22232142857143,295.12857142857143,425.2,289.22232142857143,295.12857142857143,527.2,289.22232142857143,295.12857142857143,628.3,397.22232142857143,179.12857142857143,736.1,522.2223214285714,125.12857142857143,850.1,568.2223214285714,97.12857142857143,955.4,573.2223214285714,79.12857142857143,1058.6,556.2223214285714,58.128571428571426,1158.7,552.2223214285714,58.128571428571426,1276,552.2223214285714,58.128571428571426,1378.6,552.2223214285714,58.128571428571426,1485.3,552.2223214285714,58.128571428571426,1586.3,671.2223214285714,69.12857142857143,1687.7,693.2223214285714,81.12857142857143,1787.8,694.2223214285714,83.12857142857143,1894.5,694.2223214285714,83.12857142857143,1996.8,694.2223214285714,83.12857142857143,2098.1,694.2223214285714,83.12857142857143,2202.5,694.2223214285714,83.12857142857143,2307.2,694.2223214285714,83.12857142857143,2408,694.2223214285714,83.12857142857143,2511.5,694.2223214285714,83.12857142857143,2614.2,694.2223214285714,83.12857142857143,2718.9,694.2223214285714,83.12857142857143,2821.8,694.2223214285714,83.12857142857143,2928.4,694.2223214285714,83.12857142857143,3035.5,694.2223214285714,83.12857142857143,3137,694.2223214285714,83.12857142857143,3238.3,694.2223214285714,83.12857142857143,3340.5,694.2223214285714,83.12857142857143,3444.9,694.2223214285714,83.12857142857143,3557.3,694.2223214285714,83.12857142857143,3660.8,694.2223214285714,83.12857142857143,3765,694.2223214285714,83.12857142857143,3866.4,694.2223214285714,83.12857142857143,3966.5,694.2223214285714,83.12857142857143,4066.9,694.2223214285714,83.12857142857143,4167.7,694.2223214285714,83.12857142857143,4272.2,694.2223214285714,83.12857142857143,4373.9,694.2223214285714,83.12857142857143,4476.5,694.2223214285714,83.12857142857143,4585,694.2223214285714,83.12857142857143,4688.7,694.2223214285714,83.12857142857143,4792,694.2223214285714,83.12857142857143,4899]","[1354.7,1354.7,1000,0,354.7,""smooth"",""up"",""up"",""good_move"",3704.6,2349.2,1980.3,1355.4,368.9,""oops"",""up"",""down"",""bad_move"",6886.1,3181,2796.9,3705.1,384.1,""oops"",""up"",""down"",""bad_move"",9771.9,2885.4,2502.1,6886.5,383.3,""oops"",""right"",""right"",""good_move"",12303.5,2530.9,2159.7,9772.6,371.2,""oops"",""up"",""up"",""good_move"",14568.4,2263.1,1900.4,12305.3,362.7,""oops"",""up"",""down"",""bad_move"",17529,2960,2609.5,14569,350.5,""oops"",""up"",""right"",""good_move"",21245.4,3715.8,3379,17529.6,336.9,""oops"",""up"",""up"",""good_move"",23564.6,2318.5,1968.3,21246.1,350.2,""smooth"",""up"",""up"",""good_move"",26979.1,3413.6,3078.1,23565.6,335.5,""oops"",""up"",""up"",""good_move"",34786.7,7807.2,2853.2,31536.3,397.2,""oops"",""up"",""up"",""good_move"",41106.6,6319.6,2151,38612.6,343,""smooth"",""right"",""right"",""good_move""]","",""
"4824","","<div style=""width:500px;"">
  <p>What determined the result of this run?</p>
  </div>","88","html-slider-response","50","830400","0.0-5.0-1.8","88","1","2025-07-16 09:14:33","1f75c3e559b7213887762d5229550c2b","216.120.189.225","Mozilla/5.0 (Windows NT 10.0; Win64; x64) AppleWebKit/537.36 (KHTML, like Gecko) Chrome/138.0.0.0 Safari/537.36","WebKit","Chrome","138.0.0.0","Windows","10.0","https://app.prolific.com/","en-US,en;q=0.9","663b638be7226d4e3fcc255f","68764874ac79eee8c1d4cb03","68776d6e8e6b22b80e5b8514","2","0","663b638be7226d4e3fcc255f","2","0","2025-07-16T09:28:40.069Z","","","","","","","","","","","AttribQ","","50","","","","","","","","","","","","","","","","","","","","","","","","","","","","",""
"4313","","<div style=""width:500px;"">
  <p>How much control did you have over the ball?</p>
  </div>","92","html-slider-response","51","834715","0.0-5.0-2.8","88","1","2025-07-16 09:14:33","1f75c3e559b7213887762d5229550c2b","216.120.189.225","Mozilla/5.0 (Windows NT 10.0; Win64; x64) AppleWebKit/537.36 (KHTML, like Gecko) Chrome/138.0.0.0 Safari/537.36","WebKit","Chrome","138.0.0.0","Windows","10.0","https://app.prolific.com/","en-US,en;q=0.9","663b638be7226d4e3fcc255f","68764874ac79eee8c1d4cb03","68776d6e8e6b22b80e5b8514","2","0","663b638be7226d4e3fcc255f","2","0","2025-07-16T09:28:44.384Z","","","","","","","","","","","ControlQ","","50","","","","","","","","","","","","","","","","","","","","","","","","","","","","",""
"6535","","<div style=""width:500px;"">
  <p>How would you describe your current emotional state?</p>
  </div>","0","html-slider-response","52","841252","0.0-5.0-3.8","88","1","2025-07-16 09:14:33","1f75c3e559b7213887762d5229550c2b","216.120.189.225","Mozilla/5.0 (Windows NT 10.0; Win64; x64) AppleWebKit/537.36 (KHTML, like Gecko) Chrome/138.0.0.0 Safari/537.36","WebKit","Chrome","138.0.0.0","Windows","10.0","https://app.prolific.com/","en-US,en;q=0.9","663b638be7226d4e3fcc255f","68764874ac79eee8c1d4cb03","68776d6e8e6b22b80e5b8514","2","0","663b638be7226d4e3fcc255f","2","0","2025-07-16T09:28:50.921Z","","","","","","","","","","","StressQ","","50","","","","","","","","","","","","","","","","","","","","","","","","","","","","",""
"8977","","<div style=""width:500px;"">
  <p>What best describes how you currently feel?</p>
  </div>","100","html-slider-response","53","850231","0.0-5.0-4.8","88","1","2025-07-16 09:14:33","1f75c3e559b7213887762d5229550c2b","216.120.189.225","Mozilla/5.0 (Windows NT 10.0; Win64; x64) AppleWebKit/537.36 (KHTML, like Gecko) Chrome/138.0.0.0 Safari/537.36","WebKit","Chrome","138.0.0.0","Windows","10.0","https://app.prolific.com/","en-US,en;q=0.9","663b638be7226d4e3fcc255f","68764874ac79eee8c1d4cb03","68776d6e8e6b22b80e5b8514","2","0","663b638be7226d4e3fcc255f","2","0","2025-07-16T09:28:59.901Z","","","","","","","","","","","MotivationQ","","50","","","","","","","","","","","","","","","","","","","","","","","","","","","","",""
"","","","","ctl-task-cpt","54","896825","0.0-5.0-0.9","88","1","2025-07-16 09:14:33","1f75c3e559b7213887762d5229550c2b","216.120.189.225","Mozilla/5.0 (Windows NT 10.0; Win64; x64) AppleWebKit/537.36 (KHTML, like Gecko) Chrome/138.0.0.0 Safari/537.36","WebKit","Chrome","138.0.0.0","Windows","10.0","https://app.prolific.com/","en-US,en;q=0.9","663b638be7226d4e3fcc255f","68764874ac79eee8c1d4cb03","68776d6e8e6b22b80e5b8514","2","0","663b638be7226d4e3fcc255f","2","0","2025-07-16T09:29:46.494Z","","","","","","","","","","","","","","win-only","3","g1:SW,g2:NE","0.4","10","0","866884.1","1101.7","6104.5","43574.5","1","4","8","6","2","-8","-8","10","18","0.07575757575757576","1122.8","3000","-1985","[""up"",""right""]","{""num_key_presses"":12,""num_perfect"":4,""num_errors"":0,""num_randdir"":8,""num_randdir_good_moves"":3,""num_whilered"":0,""num_whileblue"":0,""num_blue"":1,""num_good_moves"":7}","[300.22232142857143,295.12857142857143,0.6,300.22232142857143,295.12857142857143,103.2,300.22232142857143,295.12857142857143,213.2,300.22232142857143,295.12857142857143,317.4,300.22232142857143,295.12857142857143,426.7,300.22232142857143,295.12857142857143,536.7,300.22232142857143,295.12857142857143,643.2,498.22232142857143,83.12857142857143,744.3,523.2223214285714,51.128571428571426,849.8,536.2223214285714,31.128571428571426,954.6,536.2223214285714,31.128571428571426,1056.2,536.2223214285714,31.128571428571426,1158,536.2223214285714,31.128571428571426,1262.2,536.2223214285714,31.128571428571426,1370,536.2223214285714,31.128571428571426,1471.2,658.2223214285714,47.128571428571426,1571.6,705.2223214285714,76.12857142857143,1676.4,707.2223214285714,78.12857142857143,1781.8,707.2223214285714,78.12857142857143,1894.5,707.2223214285714,78.12857142857143,2000.7,707.2223214285714,78.12857142857143,2106.9,707.2223214285714,78.12857142857143,2213.9,707.2223214285714,78.12857142857143,2324.6,707.2223214285714,78.12857142857143,2430,707.2223214285714,78.12857142857143,2539.9,707.2223214285714,78.12857142857143,2653.1,707.2223214285714,78.12857142857143,2755.1,707.2223214285714,78.12857142857143,2864.7,707.2223214285714,78.12857142857143,2970.1,707.2223214285714,78.12857142857143,3073.2,707.2223214285714,78.12857142857143,3173.2,707.2223214285714,78.12857142857143,3273.5,707.2223214285714,78.12857142857143,3376.4,707.2223214285714,78.12857142857143,3490.7,707.2223214285714,78.12857142857143,3596.2,707.2223214285714,78.12857142857143,3699.8,707.2223214285714,78.12857142857143,3809.8,707.2223214285714,78.12857142857143,3915.3,707.2223214285714,78.12857142857143,4023.5,707.2223214285714,78.12857142857143,4124.6,707.2223214285714,78.12857142857143,4234.5,707.2223214285714,78.12857142857143,4344.8,707.2223214285714,78.12857142857143,4447.4,707.2223214285714,78.12857142857143,4552.8,707.2223214285714,78.12857142857143,4656.3,707.2223214285714,78.12857142857143,4759.4,707.2223214285714,78.12857142857143,4861.3,707.2223214285714,78.12857142857143,4963.5]","[4851.8,4851.9,2414.5,2003.9,433.5,""oops"",""up"",""up"",""good_move"",7127.9,2272.6,1784.6,4855.4,488,""oops"",""right"",""down"",""bad_move"",9796.6,2667,2230.1,7129.7,436.9,""smooth"",""right"",""right"",""good_move"",12804,3006.7,2580.4,9797.3,426.3,""oops"",""right"",""up"",""good_move"",15701.2,2896.5,2478.3,12804.7,418.2,""smooth"",""right"",""right"",""good_move"",19182.2,3480.4,3085.8,15701.9,394.6,""oops"",""right"",""left"",""bad_move"",21564.5,2381,1932,19183.5,449,""smooth"",""up"",""up"",""good_move"",24264.9,2699.2,2350.6,21565.7,348.6,""smooth"",""right"",""right"",""good_move"",26892.7,2627,2264.4,24265.8,362.5,""oops"",""right"",""right"",""good_move"",29925,3031.9,2632.4,26893.2,399.5,""oops"",""up"",""down"",""bad_move"",32454.2,2528.3,2139.6,29925.9,388.7,""oops"",""up"",""left"",""bad_move"",35198,2742.6,2364.4,32455.4,378.2,""oops"",""up"",""down"",""bad_move""]","",""
"7284","","<div style=""width:500px;"">
  <p>What determined the result of this run?</p>
  </div>","7","html-slider-response","55","904111","0.0-5.0-1.9","88","1","2025-07-16 09:14:33","1f75c3e559b7213887762d5229550c2b","216.120.189.225","Mozilla/5.0 (Windows NT 10.0; Win64; x64) AppleWebKit/537.36 (KHTML, like Gecko) Chrome/138.0.0.0 Safari/537.36","WebKit","Chrome","138.0.0.0","Windows","10.0","https://app.prolific.com/","en-US,en;q=0.9","663b638be7226d4e3fcc255f","68764874ac79eee8c1d4cb03","68776d6e8e6b22b80e5b8514","2","0","663b638be7226d4e3fcc255f","2","0","2025-07-16T09:29:53.780Z","","","","","","","","","","","AttribQ","","50","","","","","","","","","","","","","","","","","","","","","","","","","","","","",""
"4347","","<div style=""width:500px;"">
  <p>How much control did you have over the ball?</p>
  </div>","34","html-slider-response","56","908460","0.0-5.0-2.9","88","1","2025-07-16 09:14:33","1f75c3e559b7213887762d5229550c2b","216.120.189.225","Mozilla/5.0 (Windows NT 10.0; Win64; x64) AppleWebKit/537.36 (KHTML, like Gecko) Chrome/138.0.0.0 Safari/537.36","WebKit","Chrome","138.0.0.0","Windows","10.0","https://app.prolific.com/","en-US,en;q=0.9","663b638be7226d4e3fcc255f","68764874ac79eee8c1d4cb03","68776d6e8e6b22b80e5b8514","2","0","663b638be7226d4e3fcc255f","2","0","2025-07-16T09:29:58.129Z","","","","","","","","","","","ControlQ","","50","","","","","","","","","","","","","","","","","","","","","","","","","","","","",""
"6447","","<div style=""width:500px;"">
  <p>How would you describe your current emotional state?</p>
  </div>","0","html-slider-response","57","914909","0.0-5.0-3.9","88","1","2025-07-16 09:14:33","1f75c3e559b7213887762d5229550c2b","216.120.189.225","Mozilla/5.0 (Windows NT 10.0; Win64; x64) AppleWebKit/537.36 (KHTML, like Gecko) Chrome/138.0.0.0 Safari/537.36","WebKit","Chrome","138.0.0.0","Windows","10.0","https://app.prolific.com/","en-US,en;q=0.9","663b638be7226d4e3fcc255f","68764874ac79eee8c1d4cb03","68776d6e8e6b22b80e5b8514","2","0","663b638be7226d4e3fcc255f","2","0","2025-07-16T09:30:04.578Z","","","","","","","","","","","StressQ","","50","","","","","","","","","","","","","","","","","","","","","","","","","","","","",""
"4662","","<div style=""width:500px;"">
  <p>What best describes how you currently feel?</p>
  </div>","100","html-slider-response","58","919573","0.0-5.0-4.9","88","1","2025-07-16 09:14:33","1f75c3e559b7213887762d5229550c2b","216.120.189.225","Mozilla/5.0 (Windows NT 10.0; Win64; x64) AppleWebKit/537.36 (KHTML, like Gecko) Chrome/138.0.0.0 Safari/537.36","WebKit","Chrome","138.0.0.0","Windows","10.0","https://app.prolific.com/","en-US,en;q=0.9","663b638be7226d4e3fcc255f","68764874ac79eee8c1d4cb03","68776d6e8e6b22b80e5b8514","2","0","663b638be7226d4e3fcc255f","2","0","2025-07-16T09:30:09.242Z","","","","","","","","","","","MotivationQ","","50","","","","","","","","","","","","","","","","","","","","","","","","","","","","",""
"","","","","ctl-task-cpt","59","986176","0.0-5.0-0.10","88","1","2025-07-16 09:14:33","1f75c3e559b7213887762d5229550c2b","216.120.189.225","Mozilla/5.0 (Windows NT 10.0; Win64; x64) AppleWebKit/537.36 (KHTML, like Gecko) Chrome/138.0.0.0 Safari/537.36","WebKit","Chrome","138.0.0.0","Windows","10.0","https://app.prolific.com/","en-US,en;q=0.9","663b638be7226d4e3fcc255f","68764874ac79eee8c1d4cb03","68776d6e8e6b22b80e5b8514","2","0","663b638be7226d4e3fcc255f","2","0","2025-07-16T09:31:15.845Z","","","","","","","","","","","","","","win-only","2","g1:SE,g2:NW","0.5","11","0","936225.1","1907.8","6918.3","63574.2","1","4","8","6","2","-8","-8","2","10","0.015151515151515152","1446.5","3000","-1880","[""left"",""up""]","{""num_key_presses"":13,""num_perfect"":7,""num_errors"":0,""num_randdir"":6,""num_randdir_good_moves"":2,""num_whilered"":0,""num_whileblue"":0,""num_blue"":5,""num_good_moves"":9}","[294.22232142857143,294.12857142857143,1.7,294.22232142857143,294.12857142857143,101.3,294.22232142857143,294.12857142857143,203.2,294.22232142857143,294.12857142857143,312,294.22232142857143,294.12857142857143,412.9,294.22232142857143,294.12857142857143,517.6,294.22232142857143,294.12857142857143,618.6,260.22232142857143,258.12857142857143,726.4,120.22232142857143,84.12857142857143,836.1,100.22232142857143,41.128571428571426,959.3,96.22232142857143,34.128571428571426,1077.1,74.22232142857143,31.128571428571426,1190.1,65.22232142857143,37.128571428571426,1297.4,65.22232142857143,37.128571428571426,1407.7,65.22232142857143,37.128571428571426,1507.9,65.22232142857143,37.128571428571426,1611.3,65.22232142857143,37.128571428571426,1732.5,-44.777678571428574,64.12857142857143,1837.3,-148.77767857142857,81.12857142857143,1939.6,-174.77767857142857,114.12857142857143,2042.2,-174.77767857142857,114.12857142857143,2160.9,-174.77767857142857,114.12857142857143,2264,-174.77767857142857,114.12857142857143,2366,-174.77767857142857,114.12857142857143,2474.7,-174.77767857142857,114.12857142857143,2580.9,-174.77767857142857,114.12857142857143,2683.7,-174.77767857142857,114.12857142857143,2786.4,-174.77767857142857,114.12857142857143,2890.4,-174.77767857142857,114.12857142857143,3000.3,-174.77767857142857,114.12857142857143,3103.7,-174.77767857142857,114.12857142857143,3212.2,-174.77767857142857,114.12857142857143,3315.6,-174.77767857142857,114.12857142857143,3419.5,-174.77767857142857,114.12857142857143,3524.8,-174.77767857142857,114.12857142857143,3628.7,-174.77767857142857,114.12857142857143,3732.3,-174.77767857142857,114.12857142857143,3833.6,-174.77767857142857,114.12857142857143,3934,-174.77767857142857,114.12857142857143,4044.6,-174.77767857142857,114.12857142857143,4148.5,-174.77767857142857,114.12857142857143,4255.3,-174.77767857142857,114.12857142857143,4363.4,-174.77767857142857,114.12857142857143,4466.5,-174.77767857142857,114.12857142857143,4577.1,-174.77767857142857,114.12857142857143,4679,-174.77767857142857,114.12857142857143,4790.5,-174.77767857142857,114.12857142857143,4896.9,-174.77767857142857,114.12857142857143,4998.3]","[8849.6,8849.6,3015.5,5415.3,418.9,""smooth"",""up"",""up"",""good_move"",11232.3,2381.5,1999.9,8850.8,381.6,""smooth"",""up"",""up"",""good_move"",13533.3,2300.5,1915.7,11232.8,384.8,""oops"",""left"",""down"",""bad_move"",15916,2381.8,1977,13534.2,404.8,""oops"",""up"",""right"",""bad_move"",22606.7,6690.1,2590.1,19627.1,389.5,""smooth"",""up"",""up"",""good_move"",29256.6,6649.3,2795.7,26096.4,364.5,""smooth"",""up"",""up"",""good_move"",36236.2,6979.2,3294.7,32522.9,418.6,""smooth"",""left"",""left"",""good_move"",40070.1,3832.7,3478.2,36237.4,354.5,""oops"",""left"",""down"",""bad_move"",42522.2,2451.2,2079.1,40071,372.1,""oops"",""left"",""up"",""good_move"",45823.5,3299.8,2872.4,42523.7,427.4,""oops"",""left"",""down"",""bad_move"",48874.1,3048.7,2675.8,45825.4,372.9,""smooth"",""left"",""left"",""good_move"",51579.2,2704.1,2365.5,48875.1,338.6,""smooth"",""left"",""left"",""good_move"",53858.5,2278.8,1946.7,51579.7,332.1,""oops"",""left"",""left"",""good_move""]","",""
"11108","","<div style=""width:500px;"">
  <p>What determined the result of this run?</p>
  </div>","66","html-slider-response","60","997288","0.0-5.0-1.10","88","1","2025-07-16 09:14:33","1f75c3e559b7213887762d5229550c2b","216.120.189.225","Mozilla/5.0 (Windows NT 10.0; Win64; x64) AppleWebKit/537.36 (KHTML, like Gecko) Chrome/138.0.0.0 Safari/537.36","WebKit","Chrome","138.0.0.0","Windows","10.0","https://app.prolific.com/","en-US,en;q=0.9","663b638be7226d4e3fcc255f","68764874ac79eee8c1d4cb03","68776d6e8e6b22b80e5b8514","2","0","663b638be7226d4e3fcc255f","2","0","2025-07-16T09:31:26.958Z","","","","","","","","","","","AttribQ","","50","","","","","","","","","","","","","","","","","","","","","","","","","","","","",""
"5733","","<div style=""width:500px;"">
  <p>How much control did you have over the ball?</p>
  </div>","35","html-slider-response","61","1003023","0.0-5.0-2.10","88","1","2025-07-16 09:14:33","1f75c3e559b7213887762d5229550c2b","216.120.189.225","Mozilla/5.0 (Windows NT 10.0; Win64; x64) AppleWebKit/537.36 (KHTML, like Gecko) Chrome/138.0.0.0 Safari/537.36","WebKit","Chrome","138.0.0.0","Windows","10.0","https://app.prolific.com/","en-US,en;q=0.9","663b638be7226d4e3fcc255f","68764874ac79eee8c1d4cb03","68776d6e8e6b22b80e5b8514","2","0","663b638be7226d4e3fcc255f","2","0","2025-07-16T09:31:32.692Z","","","","","","","","","","","ControlQ","","50","","","","","","","","","","","","","","","","","","","","","","","","","","","","",""
"5286","","<div style=""width:500px;"">
  <p>How would you describe your current emotional state?</p>
  </div>","14","html-slider-response","62","1008312","0.0-5.0-3.10","88","1","2025-07-16 09:14:33","1f75c3e559b7213887762d5229550c2b","216.120.189.225","Mozilla/5.0 (Windows NT 10.0; Win64; x64) AppleWebKit/537.36 (KHTML, like Gecko) Chrome/138.0.0.0 Safari/537.36","WebKit","Chrome","138.0.0.0","Windows","10.0","https://app.prolific.com/","en-US,en;q=0.9","663b638be7226d4e3fcc255f","68764874ac79eee8c1d4cb03","68776d6e8e6b22b80e5b8514","2","0","663b638be7226d4e3fcc255f","2","0","2025-07-16T09:31:37.982Z","","","","","","","","","","","StressQ","","50","","","","","","","","","","","","","","","","","","","","","","","","","","","","",""
"6413","","<div style=""width:500px;"">
  <p>What best describes how you currently feel?</p>
  </div>","100","html-slider-response","63","1014736","0.0-5.0-4.10","88","1","2025-07-16 09:14:33","1f75c3e559b7213887762d5229550c2b","216.120.189.225","Mozilla/5.0 (Windows NT 10.0; Win64; x64) AppleWebKit/537.36 (KHTML, like Gecko) Chrome/138.0.0.0 Safari/537.36","WebKit","Chrome","138.0.0.0","Windows","10.0","https://app.prolific.com/","en-US,en;q=0.9","663b638be7226d4e3fcc255f","68764874ac79eee8c1d4cb03","68776d6e8e6b22b80e5b8514","2","0","663b638be7226d4e3fcc255f","2","0","2025-07-16T09:31:44.406Z","","","","","","","","","","","MotivationQ","","50","","","","","","","","","","","","","","","","","","","","","","","","","","","","",""
"","","","","ctl-task-cpt","64","1042892","0.0-5.0-0.11","88","1","2025-07-16 09:14:33","1f75c3e559b7213887762d5229550c2b","216.120.189.225","Mozilla/5.0 (Windows NT 10.0; Win64; x64) AppleWebKit/537.36 (KHTML, like Gecko) Chrome/138.0.0.0 Safari/537.36","WebKit","Chrome","138.0.0.0","Windows","10.0","https://app.prolific.com/","en-US,en;q=0.9","663b638be7226d4e3fcc255f","68764874ac79eee8c1d4cb03","68776d6e8e6b22b80e5b8514","2","0","663b638be7226d4e3fcc255f","2","0","2025-07-16T09:32:12.561Z","","","","","","","","","","","","","","win-only","3","g1:SW,g2:NE","0.6","12","0","1031399.2","3951.5","8953","25112","1","4","4","6","2","4","4","6","2","0.045454545454545456","1330.5","3000","1830","[""up"",""right""]","{""num_key_presses"":6,""num_perfect"":4,""num_errors"":0,""num_randdir"":2,""num_randdir_good_moves"":2,""num_whilered"":0,""num_whileblue"":0,""num_blue"":0,""num_good_moves"":6}","[288.22232142857143,295.12857142857143,0.5,288.22232142857143,295.12857142857143,100.4,288.22232142857143,295.12857142857143,215.5,288.22232142857143,295.12857142857143,317.3,288.22232142857143,295.12857142857143,427.2,288.22232142857143,295.12857142857143,527.8,330.22232142857143,264.12857142857143,634.9,470.22232142857143,158.12857142857143,746.4,472.22232142857143,154.12857142857143,851.2,481.22232142857143,142.12857142857143,954.3,524.2223214285714,97.12857142857143,1066.7,533.2223214285714,78.12857142857143,1171.7,533.2223214285714,78.12857142857143,1274.5,533.2223214285714,78.12857142857143,1374.9,533.2223214285714,78.12857142857143,1477.8,533.2223214285714,78.12857142857143,1579.1,533.2223214285714,78.12857142857143,1682.2,642.2223214285714,78.12857142857143,1784.9,759.2223214285714,84.12857142857143,1897.5,778.2223214285714,100.12857142857143,2008.7,778.2223214285714,100.12857142857143,2120.6,778.2223214285714,100.12857142857143,2232.9,778.2223214285714,100.12857142857143,2341.6,778.2223214285714,100.12857142857143,2444.5,778.2223214285714,100.12857142857143,2547.6,778.2223214285714,100.12857142857143,2648.6,778.2223214285714,100.12857142857143,2750.8,778.2223214285714,100.12857142857143,2854.5,778.2223214285714,100.12857142857143,2972.4,778.2223214285714,100.12857142857143,3085.5,778.2223214285714,100.12857142857143,3193,778.2223214285714,100.12857142857143,3293.5,778.2223214285714,100.12857142857143,3394.2,778.2223214285714,100.12857142857143,3499.4,778.2223214285714,100.12857142857143,3604.6,778.2223214285714,100.12857142857143,3707.2,778.2223214285714,100.12857142857143,3809.3,778.2223214285714,100.12857142857143,3916,778.2223214285714,100.12857142857143,4031.6,778.2223214285714,100.12857142857143,4138.9,778.2223214285714,100.12857142857143,4245.4,778.2223214285714,100.12857142857143,4352.2,778.2223214285714,100.12857142857143,4462,778.2223214285714,100.12857142857143,4565.3,778.2223214285714,100.12857142857143,4676.1,778.2223214285714,100.12857142857143,4781.4,778.2223214285714,100.12857142857143,4882.8,778.2223214285714,100.12857142857143,4993.6]","[1395,1395,1000,0,395,""smooth"",""up"",""up"",""good_move"",4902.7,3505,3097.7,1397.7,407.3,""oops"",""up"",""up"",""good_move"",7777.1,2873.5,2524.3,4903.7,349.2,""smooth"",""right"",""right"",""good_move"",10597.4,2819.8,2488.4,7777.7,331.3,""smooth"",""right"",""right"",""good_move"",12833.4,2235.2,1876.4,10598.2,358.8,""oops"",""up"",""right"",""good_move"",15969.6,3135.4,2743.1,12834.2,392.3,""smooth"",""up"",""up"",""good_move""]","",""
"6197","","<div style=""width:500px;"">
  <p>What determined the result of this run?</p>
  </div>","93","html-slider-response","65","1049091","0.0-5.0-1.11","88","1","2025-07-16 09:14:33","1f75c3e559b7213887762d5229550c2b","216.120.189.225","Mozilla/5.0 (Windows NT 10.0; Win64; x64) AppleWebKit/537.36 (KHTML, like Gecko) Chrome/138.0.0.0 Safari/537.36","WebKit","Chrome","138.0.0.0","Windows","10.0","https://app.prolific.com/","en-US,en;q=0.9","663b638be7226d4e3fcc255f","68764874ac79eee8c1d4cb03","68776d6e8e6b22b80e5b8514","2","0","663b638be7226d4e3fcc255f","2","0","2025-07-16T09:32:18.760Z","","","","","","","","","","","AttribQ","","50","","","","","","","","","","","","","","","","","","","","","","","","","","","","",""
"6258","","<div style=""width:500px;"">
  <p>How much control did you have over the ball?</p>
  </div>","97","html-slider-response","66","1055351","0.0-5.0-2.11","88","1","2025-07-16 09:14:33","1f75c3e559b7213887762d5229550c2b","216.120.189.225","Mozilla/5.0 (Windows NT 10.0; Win64; x64) AppleWebKit/537.36 (KHTML, like Gecko) Chrome/138.0.0.0 Safari/537.36","WebKit","Chrome","138.0.0.0","Windows","10.0","https://app.prolific.com/","en-US,en;q=0.9","663b638be7226d4e3fcc255f","68764874ac79eee8c1d4cb03","68776d6e8e6b22b80e5b8514","2","0","663b638be7226d4e3fcc255f","2","0","2025-07-16T09:32:25.020Z","","","","","","","","","","","ControlQ","","50","","","","","","","","","","","","","","","","","","","","","","","","","","","","",""
"4427","","<div style=""width:500px;"">
  <p>How would you describe your current emotional state?</p>
  </div>","3","html-slider-response","67","1059779","0.0-5.0-3.11","88","1","2025-07-16 09:14:33","1f75c3e559b7213887762d5229550c2b","216.120.189.225","Mozilla/5.0 (Windows NT 10.0; Win64; x64) AppleWebKit/537.36 (KHTML, like Gecko) Chrome/138.0.0.0 Safari/537.36","WebKit","Chrome","138.0.0.0","Windows","10.0","https://app.prolific.com/","en-US,en;q=0.9","663b638be7226d4e3fcc255f","68764874ac79eee8c1d4cb03","68776d6e8e6b22b80e5b8514","2","0","663b638be7226d4e3fcc255f","2","0","2025-07-16T09:32:29.449Z","","","","","","","","","","","StressQ","","50","","","","","","","","","","","","","","","","","","","","","","","","","","","","",""
"4691","","<div style=""width:500px;"">
  <p>What best describes how you currently feel?</p>
  </div>","100","html-slider-response","68","1064472","0.0-5.0-4.11","88","1","2025-07-16 09:14:33","1f75c3e559b7213887762d5229550c2b","216.120.189.225","Mozilla/5.0 (Windows NT 10.0; Win64; x64) AppleWebKit/537.36 (KHTML, like Gecko) Chrome/138.0.0.0 Safari/537.36","WebKit","Chrome","138.0.0.0","Windows","10.0","https://app.prolific.com/","en-US,en;q=0.9","663b638be7226d4e3fcc255f","68764874ac79eee8c1d4cb03","68776d6e8e6b22b80e5b8514","2","0","663b638be7226d4e3fcc255f","2","0","2025-07-16T09:32:34.142Z","","","","","","","","","","","MotivationQ","","50","","","","","","","","","","","","","","","","","","","","","","","","","","","","",""
"","","","","ctl-task-cpt","69","1102834","0.0-5.0-0.12","88","1","2025-07-16 09:14:33","1f75c3e559b7213887762d5229550c2b","216.120.189.225","Mozilla/5.0 (Windows NT 10.0; Win64; x64) AppleWebKit/537.36 (KHTML, like Gecko) Chrome/138.0.0.0 Safari/537.36","WebKit","Chrome","138.0.0.0","Windows","10.0","https://app.prolific.com/","en-US,en;q=0.9","663b638be7226d4e3fcc255f","68764874ac79eee8c1d4cb03","68776d6e8e6b22b80e5b8514","2","0","663b638be7226d4e3fcc255f","2","0","2025-07-16T09:33:12.503Z","","","","","","","","","","","","","","win-only","1","g1:NE,g2:SW","0.7","13","0","1081123.6","1300.7","6302.7","35331.9","1","4","8","6","2","8","8","14","6","0.10606060606060606","1261.4","3000","1455","[""down"",""left""]","{""num_key_presses"":8,""num_perfect"":5,""num_errors"":0,""num_randdir"":3,""num_randdir_good_moves"":2,""num_whilered"":0,""num_whileblue"":0,""num_blue"":2,""num_good_moves"":7}","[291.22232142857143,300.12857142857143,0.3,291.22232142857143,300.12857142857143,103,291.22232142857143,300.12857142857143,204,291.22232142857143,300.12857142857143,307,291.22232142857143,300.12857142857143,418.1,291.22232142857143,300.12857142857143,528.1,161.22232142857143,392.12857142857143,630.2,32.222321428571426,507.12857142857143,730.2,2.2223214285714263,528.1285714285714,833.8,-13.777678571428574,536.1285714285714,939.8,-5.777678571428574,548.1285714285714,1041.9,21.222321428571426,545.1285714285714,1146,21.222321428571426,545.1285714285714,1249,21.222321428571426,545.1285714285714,1361.1,21.222321428571426,545.1285714285714,1469.2,21.222321428571426,545.1285714285714,1571,-128.77767857142857,544.1285714285714,1682.7,-138.77767857142857,543.1285714285714,1791.1,-138.77767857142857,543.1285714285714,1893.1,-138.77767857142857,543.1285714285714,1997.7,-138.77767857142857,543.1285714285714,2107.8,-138.77767857142857,543.1285714285714,2215.3,-138.77767857142857,543.1285714285714,2328,-138.77767857142857,543.1285714285714,2433.8,-138.77767857142857,543.1285714285714,2546.7,-138.77767857142857,543.1285714285714,2665,-138.77767857142857,543.1285714285714,2769.1,-138.77767857142857,543.1285714285714,2873.5,-138.77767857142857,543.1285714285714,2982,-138.77767857142857,543.1285714285714,3095.8,-138.77767857142857,543.1285714285714,3204.7,-138.77767857142857,543.1285714285714,3321.2,-138.77767857142857,543.1285714285714,3440.8,-138.77767857142857,543.1285714285714,3543.9,-138.77767857142857,543.1285714285714,3651.7,-138.77767857142857,543.1285714285714,3753.7,-138.77767857142857,543.1285714285714,3856.6,-138.77767857142857,543.1285714285714,3957.1,-138.77767857142857,543.1285714285714,4059.7,-138.77767857142857,543.1285714285714,4160.7,-138.77767857142857,543.1285714285714,4271,-138.77767857142857,543.1285714285714,4377.6,-138.77767857142857,543.1285714285714,4495.5,-138.77767857142857,543.1285714285714,4600,-138.77767857142857,543.1285714285714,4705.8,-138.77767857142857,543.1285714285714,4809.6,-138.77767857142857,543.1285714285714,4921.1]","[1439.8,1439.8,1000,0,439.8,""oops"",""down"",""left"",""good_move"",7609.8,6169.4,2290.4,4927.5,391.9,""oops"",""down"",""up"",""bad_move"",13381.2,5770.8,2400.7,10643.9,336.6,""oops"",""down"",""down"",""good_move"",17206.4,3824.7,3452.5,13381.8,372.2,""smooth"",""down"",""down"",""good_move"",20279.5,3070.3,2715.4,17209.2,354.9,""smooth"",""down"",""down"",""good_move"",23258,2977.6,2620.9,20280.4,356.7,""smooth"",""down"",""down"",""good_move"",26447.1,3187.7,2816.6,23259.6,371.1,""smooth"",""left"",""left"",""good_move"",28886.6,2436.6,2070.2,26450,366.4,""smooth"",""left"",""left"",""good_move""]","",""
"7638","","<div style=""width:500px;"">
  <p>What determined the result of this run?</p>
  </div>","99","html-slider-response","70","1110473","0.0-5.0-1.12","88","1","2025-07-16 09:14:33","1f75c3e559b7213887762d5229550c2b","216.120.189.225","Mozilla/5.0 (Windows NT 10.0; Win64; x64) AppleWebKit/537.36 (KHTML, like Gecko) Chrome/138.0.0.0 Safari/537.36","WebKit","Chrome","138.0.0.0","Windows","10.0","https://app.prolific.com/","en-US,en;q=0.9","663b638be7226d4e3fcc255f","68764874ac79eee8c1d4cb03","68776d6e8e6b22b80e5b8514","2","0","663b638be7226d4e3fcc255f","2","0","2025-07-16T09:33:20.142Z","","","","","","","","","","","AttribQ","","50","","","","","","","","","","","","","","","","","","","","","","","","","","","","",""
"6678","","<div style=""width:500px;"">
  <p>How much control did you have over the ball?</p>
  </div>","98","html-slider-response","71","1117153","0.0-5.0-2.12","88","1","2025-07-16 09:14:33","1f75c3e559b7213887762d5229550c2b","216.120.189.225","Mozilla/5.0 (Windows NT 10.0; Win64; x64) AppleWebKit/537.36 (KHTML, like Gecko) Chrome/138.0.0.0 Safari/537.36","WebKit","Chrome","138.0.0.0","Windows","10.0","https://app.prolific.com/","en-US,en;q=0.9","663b638be7226d4e3fcc255f","68764874ac79eee8c1d4cb03","68776d6e8e6b22b80e5b8514","2","0","663b638be7226d4e3fcc255f","2","0","2025-07-16T09:33:26.822Z","","","","","","","","","","","ControlQ","","50","","","","","","","","","","","","","","","","","","","","","","","","","","","","",""
"4876","","<div style=""width:500px;"">
  <p>How would you describe your current emotional state?</p>
  </div>","4","html-slider-response","72","1122033","0.0-5.0-3.12","88","1","2025-07-16 09:14:33","1f75c3e559b7213887762d5229550c2b","216.120.189.225","Mozilla/5.0 (Windows NT 10.0; Win64; x64) AppleWebKit/537.36 (KHTML, like Gecko) Chrome/138.0.0.0 Safari/537.36","WebKit","Chrome","138.0.0.0","Windows","10.0","https://app.prolific.com/","en-US,en;q=0.9","663b638be7226d4e3fcc255f","68764874ac79eee8c1d4cb03","68776d6e8e6b22b80e5b8514","2","0","663b638be7226d4e3fcc255f","2","0","2025-07-16T09:33:31.702Z","","","","","","","","","","","StressQ","","50","","","","","","","","","","","","","","","","","","","","","","","","","","","","",""
"3179","","<div style=""width:500px;"">
  <p>What best describes how you currently feel?</p>
  </div>","100","html-slider-response","73","1125218","0.0-5.0-4.12","88","1","2025-07-16 09:14:33","1f75c3e559b7213887762d5229550c2b","216.120.189.225","Mozilla/5.0 (Windows NT 10.0; Win64; x64) AppleWebKit/537.36 (KHTML, like Gecko) Chrome/138.0.0.0 Safari/537.36","WebKit","Chrome","138.0.0.0","Windows","10.0","https://app.prolific.com/","en-US,en;q=0.9","663b638be7226d4e3fcc255f","68764874ac79eee8c1d4cb03","68776d6e8e6b22b80e5b8514","2","0","663b638be7226d4e3fcc255f","2","0","2025-07-16T09:33:34.887Z","","","","","","","","","","","MotivationQ","","50","","","","","","","","","","","","","","","","","","","","","","","","","","","","",""
