"rt","response_timestamp","stimulus","response","trial_type","trial_index","time_elapsed","internal_node_id","run_id","condition","recorded_at","source_code_version","ip","user_agent","device","browser","browser_version","platform","platform_version","referer","accept_language","PROLIFIC_PID","STUDY_ID","SESSION_ID","WEEK","prolific_id","week","realtime","success","responses","item_order","radio_event_ids","radio_event_times","key_event_times","mouse_event_times","straightlining","zigzagging","honeypot","eventType","view_history","slider_start","which_type","canvas_config","goals_layout","control_level","trial_number","tutorial_trial_number","trial_start_time","phase1_start_time","phase2_start_time","phase3_start_time","goal_1_value","goal_1_distance","goal_2_value","goal_2_distance","goal_selected","outcome","outcome_total","participant_final_score","participant_initial_score","participant_final_score_prop","goal_choice_rt","allocated_time","allocated_time_remaining","goal_direction","counts","mouse_movements","key_presses","question_order","question_id"
"3201","1752150193043","<p style='font-size:40px;line-height:1.25'><strong>Welcome to the experiment!</strong></p><p style='font-size:1.1em;line-height:1.25'>Thank you for participanting in our experiment again! You will be asked to play the Dysfunctional Ball Game again. We will briefly recap the rules before we start.</p><p style='font-size:1.1em;line-height:1.25'>Press <strong>Next</strong> to continue.</p>","0","custom-html-button-response","0","3202","0.0-0.0","34","1","2025-07-10 12:23:10","01610cd0009c79a99da7d0a3353eb402","85.246.21.29","Mozilla/5.0 (Windows NT 10.0; Win64; x64) AppleWebKit/537.36 (KHTML, like Gecko) Chrome/137.0.0.0 Safari/537.36","WebKit","Chrome","137.0.0.0","Windows","10.0","https://app.prolific.com/","pt-PT,pt;q=0.9,en-US;q=0.8,en;q=0.7","65a93241fc1ee8c40991a861","683db7602f5db6a34d12d064","686fb0a5867e7bdf4519aeaf","1","65a93241fc1ee8c40991a861","1","2025-07-10T12:23:13.044Z","","","","","","","","","","","","","","","","","","","","","","","","","","","","","","","","","","","","","","","","","",""
"2471","","","","fullscreen","1","6678","0.0-1.0","34","1","2025-07-10 12:23:10","01610cd0009c79a99da7d0a3353eb402","85.246.21.29","Mozilla/5.0 (Windows NT 10.0; Win64; x64) AppleWebKit/537.36 (KHTML, like Gecko) Chrome/137.0.0.0 Safari/537.36","WebKit","Chrome","137.0.0.0","Windows","10.0","https://app.prolific.com/","pt-PT,pt;q=0.9,en-US;q=0.8,en;q=0.7","65a93241fc1ee8c40991a861","683db7602f5db6a34d12d064","686fb0a5867e7bdf4519aeaf","1","65a93241fc1ee8c40991a861","1","","true","","","","","","","","","","","","","","","","","","","","","","","","","","","","","","","","","","","","","","","","",""
"1471","1752150197990","<p style='font-size:1.1em;line-height:1.25'>In the following, we will ask you a few questions relating to your feelings in the last 24 hours.<br></p><p style='font-size:1.1em;line-height:1.25'>Press the <strong>Next</strong> button to continue.</p>","0","custom-html-button-response","2","8149","0.0-2.0-0.0","34","1","2025-07-10 12:23:10","01610cd0009c79a99da7d0a3353eb402","85.246.21.29","Mozilla/5.0 (Windows NT 10.0; Win64; x64) AppleWebKit/537.36 (KHTML, like Gecko) Chrome/137.0.0.0 Safari/537.36","WebKit","Chrome","137.0.0.0","Windows","10.0","https://app.prolific.com/","pt-PT,pt;q=0.9,en-US;q=0.8,en;q=0.7","65a93241fc1ee8c40991a861","683db7602f5db6a34d12d064","686fb0a5867e7bdf4519aeaf","1","65a93241fc1ee8c40991a861","1","2025-07-10T12:23:17.990Z","","","","","","","","","","","","","","","","","","","","","","","","","","","","","","","","","","","","","","","","","",""
"32250.399999976158","","","","survey-template","3","40403","0.0-2.0-1.0","34","1","2025-07-10 12:23:10","01610cd0009c79a99da7d0a3353eb402","85.246.21.29","Mozilla/5.0 (Windows NT 10.0; Win64; x64) AppleWebKit/537.36 (KHTML, like Gecko) Chrome/137.0.0.0 Safari/537.36","WebKit","Chrome","137.0.0.0","Windows","10.0","https://app.prolific.com/","pt-PT,pt;q=0.9,en-US;q=0.8,en;q=0.7","65a93241fc1ee8c40991a861","683db7602f5db6a34d12d064","686fb0a5867e7bdf4519aeaf","1","65a93241fc1ee8c40991a861","1","2025-07-10T12:23:50.244Z","","{""Q01"":""0"",""Q02"":""0"",""Q03"":""0"",""Q04"":""0"",""Q05"":""0"",""Q06"":""0"",""Q07"":""1"",""Q08"":""0"",""Q09"":""0"",""Q10"":""0"",""Q11"":""0"",""Q12"":""0"",""Q13"":""5"",""Q14"":""0"",""Q15"":""1"",""Q16"":""0"",""Q17"":""0"",""Q18"":""0"",""Q19"":""0"",""Q20"":""0"",""Q21"":""0"",""Q22"":""0""}","[0,1,2,3,4,5,6,7,8,9,10,11,12,13,14,15,16,17,18,19,20,21]","[""Q01"",""Q02"",""Q03"",""Q04"",""Q05"",""Q06"",""Q07"",""Q07"",""Q08"",""Q09"",""Q10"",""Q11"",""Q12"",""Q13"",""Q14"",""Q15"",""Q16"",""Q17"",""Q18"",""Q19"",""Q20"",""Q21"",""Q22""]","[7140.899999976158,7823.199999988079,8765,9351.899999976158,10642.100000023842,11191.300000011921,12099.399999976158,13202.600000023842,14590.699999988079,16165.800000011921,16993.5,17962.69999998808,18537.69999998808,20559.5,21913.69999998808,23919.30000001192,26049.5,27291.5,27958.19999998808,29076.399999976158,30275.399999976158,30989.600000023842,31602.19999998808]","[]","[0.10000002384185791,7140.899999976158,7823.199999988079,8765,9351.899999976158,10642.100000023842,11191.300000011921,12099.399999976158,12776.899999976158,13202.600000023842,14590.699999988079,16165.800000011921,16993.5,17962.69999998808,18537.69999998808,20559.5,21913.69999998808,23919.30000001192,26049.5,27291.5,27958.19999998808,29076.399999976158,29873.5,30275.399999976158,30989.600000023842,31602.19999998808,32244.899999976158]","0.8636363636363636","0.2857142857142857","0","drsp","","","","","","","","","","","","","","","","","","","","","","","","","","","","","","",""
"12065.5","","","","survey-template","4","52470","0.0-2.0-2.0","34","1","2025-07-10 12:23:10","01610cd0009c79a99da7d0a3353eb402","85.246.21.29","Mozilla/5.0 (Windows NT 10.0; Win64; x64) AppleWebKit/537.36 (KHTML, like Gecko) Chrome/137.0.0.0 Safari/537.36","WebKit","Chrome","137.0.0.0","Windows","10.0","https://app.prolific.com/","pt-PT,pt;q=0.9,en-US;q=0.8,en;q=0.7","65a93241fc1ee8c40991a861","683db7602f5db6a34d12d064","686fb0a5867e7bdf4519aeaf","1","65a93241fc1ee8c40991a861","1","2025-07-10T12:24:02.311Z","","{""Q01"":""1"",""Q02"":""0"",""Q03"":""0""}","[0,1,2]","[""Q02"",""Q03"",""Q01""]","[5660.699999988079,8196.300000011921,11317.100000023842]","[]","[2041.300000011921,5660.699999988079,7395.100000023842,8196.300000011921,8760.399999976158,11317.100000023842,12064.800000011921]","0.3333333333333333","0.5","0","stress","","","","","","","","","","","","","","","","","","","","","","","","","","","","","","",""
"1599","","","","instructions","5","54070","0.0-3.0-0.0","34","1","2025-07-10 12:23:10","01610cd0009c79a99da7d0a3353eb402","85.246.21.29","Mozilla/5.0 (Windows NT 10.0; Win64; x64) AppleWebKit/537.36 (KHTML, like Gecko) Chrome/137.0.0.0 Safari/537.36","WebKit","Chrome","137.0.0.0","Windows","10.0","https://app.prolific.com/","pt-PT,pt;q=0.9,en-US;q=0.8,en;q=0.7","65a93241fc1ee8c40991a861","683db7602f5db6a34d12d064","686fb0a5867e7bdf4519aeaf","1","65a93241fc1ee8c40991a861","1","","","","","","","","","","","","","[{""page_index"":0,""viewing_time"":1599}]","","","","","","","","","","","","","","","","","","","","","","","","","","","","","",""
"2475","","<p>Before you start with this game please answer the following three questions yourself. </p>
  <p>Through this game, we measure several aspects of your cognitive performance, such as reaction times, multi-tasking capabilities </p>
  <p>and the ability to assess the situation you are in.</p>
  <p></p>
  <p><b>How good do you usually are in such tasks?</b></p>","100","html-slider-response","6","56547","0.0-4.0-0.0","34","1","2025-07-10 12:23:10","01610cd0009c79a99da7d0a3353eb402","85.246.21.29","Mozilla/5.0 (Windows NT 10.0; Win64; x64) AppleWebKit/537.36 (KHTML, like Gecko) Chrome/137.0.0.0 Safari/537.36","WebKit","Chrome","137.0.0.0","Windows","10.0","https://app.prolific.com/","pt-PT,pt;q=0.9,en-US;q=0.8,en;q=0.7","65a93241fc1ee8c40991a861","683db7602f5db6a34d12d064","686fb0a5867e7bdf4519aeaf","1","65a93241fc1ee8c40991a861","1","2025-07-10T12:24:06.388Z","","","","","","","","","","","PreSkillQ","","50","","","","","","","","","","","","","","","","","","","","","","","","","","","","",""
"3359","","<div style=""width:500px;"">
  <p>How well do you think you will perform in this task compared to other participants?</p>
  </div>","60","html-slider-response","7","59907","0.0-4.0-1.0","34","1","2025-07-10 12:23:10","01610cd0009c79a99da7d0a3353eb402","85.246.21.29","Mozilla/5.0 (Windows NT 10.0; Win64; x64) AppleWebKit/537.36 (KHTML, like Gecko) Chrome/137.0.0.0 Safari/537.36","WebKit","Chrome","137.0.0.0","Windows","10.0","https://app.prolific.com/","pt-PT,pt;q=0.9,en-US;q=0.8,en;q=0.7","65a93241fc1ee8c40991a861","683db7602f5db6a34d12d064","686fb0a5867e7bdf4519aeaf","1","65a93241fc1ee8c40991a861","1","2025-07-10T12:24:09.748Z","","","","","","","","","","","PrePerfQ","","50","","","","","","","","","","","","","","","","","","","","","","","","","","","","",""
"2509","","<div style=""width:500px;"">
  <p>What best describes how you currently feel?</p>
  </div>","100","html-slider-response","8","62416","0.0-4.0-2.0","34","1","2025-07-10 12:23:10","01610cd0009c79a99da7d0a3353eb402","85.246.21.29","Mozilla/5.0 (Windows NT 10.0; Win64; x64) AppleWebKit/537.36 (KHTML, like Gecko) Chrome/137.0.0.0 Safari/537.36","WebKit","Chrome","137.0.0.0","Windows","10.0","https://app.prolific.com/","pt-PT,pt;q=0.9,en-US;q=0.8,en;q=0.7","65a93241fc1ee8c40991a861","683db7602f5db6a34d12d064","686fb0a5867e7bdf4519aeaf","1","65a93241fc1ee8c40991a861","1","2025-07-10T12:24:12.257Z","","","","","","","","","","","PreMotivationQ","","50","","","","","","","","","","","","","","","","","","","","","","","","","","","","",""
"","","","","ctl-task-cpt","9","83490","0.0-5.0-0.0","34","1","2025-07-10 12:23:10","01610cd0009c79a99da7d0a3353eb402","85.246.21.29","Mozilla/5.0 (Windows NT 10.0; Win64; x64) AppleWebKit/537.36 (KHTML, like Gecko) Chrome/137.0.0.0 Safari/537.36","WebKit","Chrome","137.0.0.0","Windows","10.0","https://app.prolific.com/","pt-PT,pt;q=0.9,en-US;q=0.8,en;q=0.7","65a93241fc1ee8c40991a861","683db7602f5db6a34d12d064","686fb0a5867e7bdf4519aeaf","1","65a93241fc1ee8c40991a861","1","2025-07-10T12:24:33.331Z","","","","","","","","","","","","","","win-only","1","g1:NE,g2:SW","1","1","0","63661.4","1182.7","6185.9","18069.7","1","4","8","6","1","1","1","1","0","0.007575757575757576","5003.2","3000","1425","[""up"",""right""]","{""num_key_presses"":4,""num_perfect"":4,""num_errors"":0,""num_randdir"":0,""num_randdir_good_moves"":0,""num_whilered"":0,""num_whileblue"":0,""num_blue"":0,""num_good_moves"":4}","[417.57142857142856,419.47767857142856,0.2,417.57142857142856,419.47767857142856,102.7,417.57142857142856,419.47767857142856,203.6,417.57142857142856,419.47767857142856,304,417.57142857142856,419.47767857142856,408.8,417.57142857142856,419.47767857142856,509.5,417.57142857142856,419.47767857142856,613.3,417.57142857142856,419.47767857142856,717.7,417.57142857142856,419.47767857142856,823.1,417.57142857142856,419.47767857142856,928,417.57142857142856,419.47767857142856,1028.8,417.57142857142856,419.47767857142856,1133,417.57142857142856,419.47767857142856,1233.8,417.57142857142856,419.47767857142856,1338.2,417.57142857142856,419.47767857142856,1438.4,417.57142857142856,419.47767857142856,1543.5,417.57142857142856,419.47767857142856,1648.3,417.57142857142856,418.47767857142856,1752.6,417.57142857142856,418.47767857142856,1853.2,417.57142857142856,418.47767857142856,1959.2,417.57142857142856,418.47767857142856,2062.7,417.57142857142856,418.47767857142856,2163,417.57142857142856,418.47767857142856,2269.5,417.57142857142856,418.47767857142856,2372.7,417.57142857142856,418.47767857142856,2478.4,417.57142857142856,418.47767857142856,2582.5,417.57142857142856,418.47767857142856,2682.9,417.57142857142856,418.47767857142856,2783,417.57142857142856,418.47767857142856,2883.6,417.57142857142856,418.47767857142856,2988,417.57142857142856,418.47767857142856,3088.8,417.57142857142856,418.47767857142856,3192.7,417.57142857142856,418.47767857142856,3293.1,417.57142857142856,418.47767857142856,3393.2,417.57142857142856,418.47767857142856,3493.3,417.57142857142856,418.47767857142856,3597.6,417.57142857142856,418.47767857142856,3698.1,417.57142857142856,418.47767857142856,3798.1,417.57142857142856,418.47767857142856,3898.5,417.57142857142856,418.47767857142856,4002.9,417.57142857142856,418.47767857142856,4108.7,417.57142857142856,418.47767857142856,4213.1,417.57142857142856,418.47767857142856,4313.2,417.57142857142856,418.47767857142856,4418.5,417.57142857142856,418.47767857142856,4523.3,417.57142857142856,418.47767857142856,4627.8,417.57142857142856,418.47767857142856,4728.3,417.57142857142856,418.47767857142856,4829,417.57142857142856,418.47767857142856,4932.7]","[1559.9,1559.9,1000,0,559.9,""smooth"",""up"",""up"",""good_move"",4743.7,3183.5,2789,1560.2,394.5,""smooth"",""right"",""right"",""good_move"",8023.5,3279.4,2941.3,4744.1,338.1,""smooth"",""up"",""up"",""good_move"",11792.2,3768.4,3457.7,8023.8,310.7,""smooth"",""right"",""right"",""good_move""]","",""
"2937","","<div style=""width:500px;"">
  <p>What determined the result of this run?</p>
  </div>","100","html-slider-response","10","86428","0.0-5.0-1.0","34","1","2025-07-10 12:23:10","01610cd0009c79a99da7d0a3353eb402","85.246.21.29","Mozilla/5.0 (Windows NT 10.0; Win64; x64) AppleWebKit/537.36 (KHTML, like Gecko) Chrome/137.0.0.0 Safari/537.36","WebKit","Chrome","137.0.0.0","Windows","10.0","https://app.prolific.com/","pt-PT,pt;q=0.9,en-US;q=0.8,en;q=0.7","65a93241fc1ee8c40991a861","683db7602f5db6a34d12d064","686fb0a5867e7bdf4519aeaf","1","65a93241fc1ee8c40991a861","1","2025-07-10T12:24:36.269Z","","","","","","","","","","","AttribQ","","50","","","","","","","","","","","","","","","","","","","","","","","","","","","","",""
"1491","","<div style=""width:500px;"">
  <p>How much control did you have over the ball?</p>
  </div>","100","html-slider-response","11","87919","0.0-5.0-2.0","34","1","2025-07-10 12:23:10","01610cd0009c79a99da7d0a3353eb402","85.246.21.29","Mozilla/5.0 (Windows NT 10.0; Win64; x64) AppleWebKit/537.36 (KHTML, like Gecko) Chrome/137.0.0.0 Safari/537.36","WebKit","Chrome","137.0.0.0","Windows","10.0","https://app.prolific.com/","pt-PT,pt;q=0.9,en-US;q=0.8,en;q=0.7","65a93241fc1ee8c40991a861","683db7602f5db6a34d12d064","686fb0a5867e7bdf4519aeaf","1","65a93241fc1ee8c40991a861","1","2025-07-10T12:24:37.760Z","","","","","","","","","","","ControlQ","","50","","","","","","","","","","","","","","","","","","","","","","","","","","","","",""
"1961","","<div style=""width:500px;"">
  <p>How would you describe your current emotional state?</p>
  </div>","0","html-slider-response","12","89881","0.0-5.0-3.0","34","1","2025-07-10 12:23:10","01610cd0009c79a99da7d0a3353eb402","85.246.21.29","Mozilla/5.0 (Windows NT 10.0; Win64; x64) AppleWebKit/537.36 (KHTML, like Gecko) Chrome/137.0.0.0 Safari/537.36","WebKit","Chrome","137.0.0.0","Windows","10.0","https://app.prolific.com/","pt-PT,pt;q=0.9,en-US;q=0.8,en;q=0.7","65a93241fc1ee8c40991a861","683db7602f5db6a34d12d064","686fb0a5867e7bdf4519aeaf","1","65a93241fc1ee8c40991a861","1","2025-07-10T12:24:39.722Z","","","","","","","","","","","StressQ","","50","","","","","","","","","","","","","","","","","","","","","","","","","","","","",""
"1861","","<div style=""width:500px;"">
  <p>What best describes how you currently feel?</p>
  </div>","100","html-slider-response","13","91743","0.0-5.0-4.0","34","1","2025-07-10 12:23:10","01610cd0009c79a99da7d0a3353eb402","85.246.21.29","Mozilla/5.0 (Windows NT 10.0; Win64; x64) AppleWebKit/537.36 (KHTML, like Gecko) Chrome/137.0.0.0 Safari/537.36","WebKit","Chrome","137.0.0.0","Windows","10.0","https://app.prolific.com/","pt-PT,pt;q=0.9,en-US;q=0.8,en;q=0.7","65a93241fc1ee8c40991a861","683db7602f5db6a34d12d064","686fb0a5867e7bdf4519aeaf","1","65a93241fc1ee8c40991a861","1","2025-07-10T12:24:41.584Z","","","","","","","","","","","MotivationQ","","50","","","","","","","","","","","","","","","","","","","","","","","","","","","","",""
"","","","","ctl-task-cpt","14","123661","0.0-5.0-0.1","34","1","2025-07-10 12:23:10","01610cd0009c79a99da7d0a3353eb402","85.246.21.29","Mozilla/5.0 (Windows NT 10.0; Win64; x64) AppleWebKit/537.36 (KHTML, like Gecko) Chrome/137.0.0.0 Safari/537.36","WebKit","Chrome","137.0.0.0","Windows","10.0","https://app.prolific.com/","pt-PT,pt;q=0.9,en-US;q=0.8,en;q=0.7","65a93241fc1ee8c40991a861","683db7602f5db6a34d12d064","686fb0a5867e7bdf4519aeaf","1","65a93241fc1ee8c40991a861","1","2025-07-10T12:25:13.502Z","","","","","","","","","","","","","","win-only","1","g1:NE,g2:SW","0.9","2","0","92987","878.1","5882.5","28899.8","1","4","4","6","2","4","4","5","1","0.03787878787878788","840.3","3000","825","[""down"",""left""]","{""num_key_presses"":6,""num_perfect"":5,""num_errors"":0,""num_randdir"":1,""num_randdir_good_moves"":1,""num_whilered"":0,""num_whileblue"":0,""num_blue"":2,""num_good_moves"":6}","[419.57142857142856,423.47767857142856,0.1,419.57142857142856,423.47767857142856,102.6,419.57142857142856,423.47767857142856,204,392.57142857142856,435.47767857142856,310.1,178.57142857142856,616.4776785714286,413,15.57142857142857,775.4776785714286,518.5,47.57142857142857,765.4776785714286,623.4,69.57142857142857,760.4776785714286,727.7,69.57142857142857,760.4776785714286,828.8,69.57142857142857,760.4776785714286,929.4,69.57142857142857,760.4776785714286,1032.8,76.57142857142857,756.4776785714286,1137.7,448.57142857142856,533.4776785714286,1242.5,968.5714285714286,433.47767857142856,1342.5,1077.5714285714287,436.47767857142856,1444.5,1077.5714285714287,436.47767857142856,1547.8,1076.5714285714287,436.47767857142856,1653.1,1074.5714285714287,436.47767857142856,1758.5,1074.5714285714287,436.47767857142856,1858.6,1074.5714285714287,436.47767857142856,1962.8,1074.5714285714287,436.47767857142856,2063.1,1068.5714285714287,438.47767857142856,2164.7,1051.5714285714287,445.47767857142856,2268.9,1051.5714285714287,445.47767857142856,2372.8,1045.5714285714287,443.47767857142856,2473,1043.5714285714287,443.47767857142856,2574.1,1042.5714285714287,443.47767857142856,2678.1,1042.5714285714287,443.47767857142856,2783.5,1042.5714285714287,443.47767857142856,2887.2,1042.5714285714287,443.47767857142856,2988.2,1042.5714285714287,443.47767857142856,3088.2,1042.5714285714287,443.47767857142856,3188.3,1042.5714285714287,443.47767857142856,3289.3,1042.5714285714287,443.47767857142856,3393.5,1042.5714285714287,443.47767857142856,3493.6,1042.5714285714287,443.47767857142856,3597.2,1042.5714285714287,443.47767857142856,3698.9,1042.5714285714287,443.47767857142856,3803.4,1042.5714285714287,442.47767857142856,3907.6,1042.5714285714287,442.47767857142856,4007.8,1042.5714285714287,442.47767857142856,4108.7,1042.5714285714287,442.47767857142856,4213.8,1042.5714285714287,442.47767857142856,4318,1042.5714285714287,442.47767857142856,4418.8,1042.5714285714287,442.47767857142856,4519.2,1042.5714285714287,442.47767857142856,4622.4,1042.5714285714287,442.47767857142856,4722.7,1042.5714285714287,442.47767857142856,4823.5,1042.5714285714287,442.47767857142856,4928.7]","[4481.6,4481.6,2106.5,2004.2,370.9,""smooth"",""left"",""left"",""good_move"",7402.1,2920.2,2497,4481.9,423.4,""smooth"",""down"",""down"",""good_move"",9777.2,2374.7,1976.3,7402.5,398.5,""smooth"",""left"",""left"",""good_move"",12817.7,3040.2,2680.8,9777.5,359.4,""smooth"",""down"",""down"",""good_move"",15761.6,2943.8,2584.2,12817.8,359.6,""smooth"",""left"",""left"",""good_move"",22921.6,7159.7,2853,19769.1,299.5,""oops"",""down"",""down"",""good_move""]","",""
"30652","","<div style=""width:500px;"">
  <p>What determined the result of this run?</p>
  </div>","100","html-slider-response","15","154314","0.0-5.0-1.1","34","1","2025-07-10 12:23:10","01610cd0009c79a99da7d0a3353eb402","85.246.21.29","Mozilla/5.0 (Windows NT 10.0; Win64; x64) AppleWebKit/537.36 (KHTML, like Gecko) Chrome/137.0.0.0 Safari/537.36","WebKit","Chrome","137.0.0.0","Windows","10.0","https://app.prolific.com/","pt-PT,pt;q=0.9,en-US;q=0.8,en;q=0.7","65a93241fc1ee8c40991a861","683db7602f5db6a34d12d064","686fb0a5867e7bdf4519aeaf","1","65a93241fc1ee8c40991a861","1","2025-07-10T12:25:44.155Z","","","","","","","","","","","AttribQ","","50","","","","","","","","","","","","","","","","","","","","","","","","","","","","",""
"1451","","<div style=""width:500px;"">
  <p>How much control did you have over the ball?</p>
  </div>","100","html-slider-response","16","155765","0.0-5.0-2.1","34","1","2025-07-10 12:23:10","01610cd0009c79a99da7d0a3353eb402","85.246.21.29","Mozilla/5.0 (Windows NT 10.0; Win64; x64) AppleWebKit/537.36 (KHTML, like Gecko) Chrome/137.0.0.0 Safari/537.36","WebKit","Chrome","137.0.0.0","Windows","10.0","https://app.prolific.com/","pt-PT,pt;q=0.9,en-US;q=0.8,en;q=0.7","65a93241fc1ee8c40991a861","683db7602f5db6a34d12d064","686fb0a5867e7bdf4519aeaf","1","65a93241fc1ee8c40991a861","1","2025-07-10T12:25:45.606Z","","","","","","","","","","","ControlQ","","50","","","","","","","","","","","","","","","","","","","","","","","","","","","","",""
"1853","","<div style=""width:500px;"">
  <p>How would you describe your current emotional state?</p>
  </div>","0","html-slider-response","17","157620","0.0-5.0-3.1","34","1","2025-07-10 12:23:10","01610cd0009c79a99da7d0a3353eb402","85.246.21.29","Mozilla/5.0 (Windows NT 10.0; Win64; x64) AppleWebKit/537.36 (KHTML, like Gecko) Chrome/137.0.0.0 Safari/537.36","WebKit","Chrome","137.0.0.0","Windows","10.0","https://app.prolific.com/","pt-PT,pt;q=0.9,en-US;q=0.8,en;q=0.7","65a93241fc1ee8c40991a861","683db7602f5db6a34d12d064","686fb0a5867e7bdf4519aeaf","1","65a93241fc1ee8c40991a861","1","2025-07-10T12:25:47.461Z","","","","","","","","","","","StressQ","","50","","","","","","","","","","","","","","","","","","","","","","","","","","","","",""
"13179","","<div style=""width:500px;"">
  <p>What best describes how you currently feel?</p>
  </div>","100","html-slider-response","18","170799","0.0-5.0-4.1","34","1","2025-07-10 12:23:10","01610cd0009c79a99da7d0a3353eb402","85.246.21.29","Mozilla/5.0 (Windows NT 10.0; Win64; x64) AppleWebKit/537.36 (KHTML, like Gecko) Chrome/137.0.0.0 Safari/537.36","WebKit","Chrome","137.0.0.0","Windows","10.0","https://app.prolific.com/","pt-PT,pt;q=0.9,en-US;q=0.8,en;q=0.7","65a93241fc1ee8c40991a861","683db7602f5db6a34d12d064","686fb0a5867e7bdf4519aeaf","1","65a93241fc1ee8c40991a861","1","2025-07-10T12:26:00.641Z","","","","","","","","","","","MotivationQ","","50","","","","","","","","","","","","","","","","","","","","","","","","","","","","",""
"","","","","ctl-task-cpt","19","205350","0.0-5.0-0.2","34","1","2025-07-10 12:23:10","01610cd0009c79a99da7d0a3353eb402","85.246.21.29","Mozilla/5.0 (Windows NT 10.0; Win64; x64) AppleWebKit/537.36 (KHTML, like Gecko) Chrome/137.0.0.0 Safari/537.36","WebKit","Chrome","137.0.0.0","Windows","10.0","https://app.prolific.com/","pt-PT,pt;q=0.9,en-US;q=0.8,en;q=0.7","65a93241fc1ee8c40991a861","683db7602f5db6a34d12d064","686fb0a5867e7bdf4519aeaf","1","65a93241fc1ee8c40991a861","1","2025-07-10T12:26:35.191Z","","","","","","","","","","","","","","win-only","1","g1:NE,g2:SW","0.8","3","0","172044.5","822.5","5826.1","31531.2","1","4","8","6","2","8","8","13","5","0.09848484848484848","677.2","3000","60","[""down"",""left""]","{""num_key_presses"":8,""num_perfect"":6,""num_errors"":0,""num_randdir"":2,""num_randdir_good_moves"":1,""num_whilered"":0,""num_whileblue"":0,""num_blue"":1,""num_good_moves"":7}","[408.57142857142856,421.47767857142856,0.2,408.57142857142856,421.47767857142856,101.1,407.57142857142856,421.47767857142856,203,282.57142857142856,513.4776785714286,303.8,89.57142857142857,724.4776785714286,409.7,93.57142857142857,726.4776785714286,513.3,89.57142857142857,736.4776785714286,618,86.57142857142857,739.4776785714286,723.1,86.57142857142857,739.4776785714286,824.3,85.57142857142857,739.4776785714286,927.8,85.57142857142857,739.4776785714286,1028.3,85.57142857142857,739.4776785714286,1133.2,85.57142857142857,739.4776785714286,1233.2,85.57142857142857,739.4776785714286,1333.6,85.57142857142857,739.4776785714286,1438,85.57142857142857,739.4776785714286,1538.4,85.57142857142857,739.4776785714286,1643.2,85.57142857142857,739.4776785714286,1748.5,85.57142857142857,739.4776785714286,1853.3,85.57142857142857,739.4776785714286,1954.3,85.57142857142857,739.4776785714286,2058.6,85.57142857142857,739.4776785714286,2163.3,85.57142857142857,739.4776785714286,2267.8,85.57142857142857,739.4776785714286,2373.5,85.57142857142857,739.4776785714286,2478.2,85.57142857142857,739.4776785714286,2579.4,85.57142857142857,739.4776785714286,2683.6,85.57142857142857,739.4776785714286,2788,85.57142857142857,739.4776785714286,2888.8,85.57142857142857,739.4776785714286,2989.1,85.57142857142857,739.4776785714286,3093.2,85.57142857142857,739.4776785714286,3197.8,85.57142857142857,739.4776785714286,3297.9,85.57142857142857,739.4776785714286,3397.9,85.57142857142857,739.4776785714286,3503.6,85.57142857142857,739.4776785714286,3607.9,85.57142857142857,739.4776785714286,3707.9,85.57142857142857,739.4776785714286,3808.7,85.57142857142857,739.4776785714286,3913.3,85.57142857142857,739.4776785714286,4013.3,85.57142857142857,739.4776785714286,4118.4,85.57142857142857,739.4776785714286,4222.9,85.57142857142857,739.4776785714286,4323.2,85.57142857142857,739.4776785714286,4423.9,85.57142857142857,739.4776785714286,4528,85.57142857142857,739.4776785714286,4628.5,85.57142857142857,739.4776785714286,4728.5,85.57142857142857,739.4776785714286,4829.1,85.57142857142857,739.4776785714286,4933.7]","[1385.3,1385.3,1000,0,385.3,""oops"",""down"",""left"",""good_move"",4821.6,3435.8,3062.2,1385.8,373.6,""smooth"",""down"",""down"",""good_move"",10185.4,5363.2,2018.4,7805,362,""smooth"",""down"",""down"",""good_move"",13408.5,3222.9,2813,10185.6,409.9,""smooth"",""down"",""down"",""good_move"",16664.1,3255.4,2822,13408.7,433.4,""oops"",""left"",""right"",""bad_move"",20153.2,3488.8,3116.1,16664.4,372.7,""smooth"",""left"",""left"",""good_move"",23048.5,2895.1,2516.8,20153.4,378.3,""smooth"",""left"",""left"",""good_move"",25615.7,2566.9,2285.5,23048.8,281.4,""smooth"",""left"",""left"",""good_move""]","",""
"19167","","<div style=""width:500px;"">
  <p>What determined the result of this run?</p>
  </div>","100","html-slider-response","20","224517","0.0-5.0-1.2","34","1","2025-07-10 12:23:10","01610cd0009c79a99da7d0a3353eb402","85.246.21.29","Mozilla/5.0 (Windows NT 10.0; Win64; x64) AppleWebKit/537.36 (KHTML, like Gecko) Chrome/137.0.0.0 Safari/537.36","WebKit","Chrome","137.0.0.0","Windows","10.0","https://app.prolific.com/","pt-PT,pt;q=0.9,en-US;q=0.8,en;q=0.7","65a93241fc1ee8c40991a861","683db7602f5db6a34d12d064","686fb0a5867e7bdf4519aeaf","1","65a93241fc1ee8c40991a861","1","2025-07-10T12:26:54.358Z","","","","","","","","","","","AttribQ","","50","","","","","","","","","","","","","","","","","","","","","","","","","","","","",""
"5043","","<div style=""width:500px;"">
  <p>How much control did you have over the ball?</p>
  </div>","100","html-slider-response","21","229561","0.0-5.0-2.2","34","1","2025-07-10 12:23:10","01610cd0009c79a99da7d0a3353eb402","85.246.21.29","Mozilla/5.0 (Windows NT 10.0; Win64; x64) AppleWebKit/537.36 (KHTML, like Gecko) Chrome/137.0.0.0 Safari/537.36","WebKit","Chrome","137.0.0.0","Windows","10.0","https://app.prolific.com/","pt-PT,pt;q=0.9,en-US;q=0.8,en;q=0.7","65a93241fc1ee8c40991a861","683db7602f5db6a34d12d064","686fb0a5867e7bdf4519aeaf","1","65a93241fc1ee8c40991a861","1","2025-07-10T12:26:59.402Z","","","","","","","","","","","ControlQ","","50","","","","","","","","","","","","","","","","","","","","","","","","","","","","",""
"1707","","<div style=""width:500px;"">
  <p>How would you describe your current emotional state?</p>
  </div>","0","html-slider-response","22","231269","0.0-5.0-3.2","34","1","2025-07-10 12:23:10","01610cd0009c79a99da7d0a3353eb402","85.246.21.29","Mozilla/5.0 (Windows NT 10.0; Win64; x64) AppleWebKit/537.36 (KHTML, like Gecko) Chrome/137.0.0.0 Safari/537.36","WebKit","Chrome","137.0.0.0","Windows","10.0","https://app.prolific.com/","pt-PT,pt;q=0.9,en-US;q=0.8,en;q=0.7","65a93241fc1ee8c40991a861","683db7602f5db6a34d12d064","686fb0a5867e7bdf4519aeaf","1","65a93241fc1ee8c40991a861","1","2025-07-10T12:27:01.110Z","","","","","","","","","","","StressQ","","50","","","","","","","","","","","","","","","","","","","","","","","","","","","","",""
"1862","","<div style=""width:500px;"">
  <p>What best describes how you currently feel?</p>
  </div>","100","html-slider-response","23","233132","0.0-5.0-4.2","34","1","2025-07-10 12:23:10","01610cd0009c79a99da7d0a3353eb402","85.246.21.29","Mozilla/5.0 (Windows NT 10.0; Win64; x64) AppleWebKit/537.36 (KHTML, like Gecko) Chrome/137.0.0.0 Safari/537.36","WebKit","Chrome","137.0.0.0","Windows","10.0","https://app.prolific.com/","pt-PT,pt;q=0.9,en-US;q=0.8,en;q=0.7","65a93241fc1ee8c40991a861","683db7602f5db6a34d12d064","686fb0a5867e7bdf4519aeaf","1","65a93241fc1ee8c40991a861","1","2025-07-10T12:27:02.973Z","","","","","","","","","","","MotivationQ","","50","","","","","","","","","","","","","","","","","","","","","","","","","","","","",""
"","","","","ctl-task-cpt","24","264492","0.0-5.0-0.3","34","1","2025-07-10 12:23:10","01610cd0009c79a99da7d0a3353eb402","85.246.21.29","Mozilla/5.0 (Windows NT 10.0; Win64; x64) AppleWebKit/537.36 (KHTML, like Gecko) Chrome/137.0.0.0 Safari/537.36","WebKit","Chrome","137.0.0.0","Windows","10.0","https://app.prolific.com/","pt-PT,pt;q=0.9,en-US;q=0.8,en;q=0.7","65a93241fc1ee8c40991a861","683db7602f5db6a34d12d064","686fb0a5867e7bdf4519aeaf","1","65a93241fc1ee8c40991a861","1","2025-07-10T12:27:34.333Z","","","","","","","","","","","","","","win-only","2","g1:SE,g2:NW","0.7","4","0","234377.1","727.6","5729.5","28341.1","1","4","4","6","2","4","3","16","13","0.12121212121212122","910.8","3000","595","[""left"",""up""]","{""num_key_presses"":7,""num_perfect"":3,""num_errors"":1,""num_randdir"":3,""num_randdir_good_moves"":3,""num_whilered"":0,""num_whileblue"":0,""num_blue"":1,""num_good_moves"":6}","[417.57142857142856,406.47767857142856,0.1,417.57142857142856,406.47767857142856,103.2,417.57142857142856,406.47767857142856,203.4,406.57142857142856,433.47767857142856,303.9,411.57142857142856,490.47767857142856,404.3,434.57142857142856,537.4776785714286,509.6,179.57142857142856,247.47767857142856,613.6,54.57142857142857,143.47767857142856,714,58.57142857142857,99.47767857142857,814.9,62.57142857142857,89.47767857142857,915.1,62.57142857142857,89.47767857142857,1018.5,62.57142857142857,89.47767857142857,1124.2,62.57142857142857,89.47767857142857,1229.3,62.57142857142857,89.47767857142857,1333.2,62.57142857142857,89.47767857142857,1434.5,62.57142857142857,89.47767857142857,1539.2,62.57142857142857,89.47767857142857,1643.8,62.57142857142857,89.47767857142857,1749.3,62.57142857142857,89.47767857142857,1852.3,62.57142857142857,89.47767857142857,1955.4,62.57142857142857,89.47767857142857,2055.5,62.57142857142857,89.47767857142857,2159.4,62.57142857142857,89.47767857142857,2263.7,62.57142857142857,89.47767857142857,2363.8,62.57142857142857,89.47767857142857,2463.8,62.57142857142857,89.47767857142857,2568.6,62.57142857142857,89.47767857142857,2668.9,62.57142857142857,89.47767857142857,2769.2,62.57142857142857,89.47767857142857,2873.8,62.57142857142857,89.47767857142857,2974,62.57142857142857,89.47767857142857,3074,62.57142857142857,89.47767857142857,3179,62.57142857142857,89.47767857142857,3280.2,62.57142857142857,89.47767857142857,3384.5,62.57142857142857,89.47767857142857,3484.7,62.57142857142857,89.47767857142857,3588.4,62.57142857142857,89.47767857142857,3689.9,62.57142857142857,89.47767857142857,3790.2,62.57142857142857,89.47767857142857,3893.5,62.57142857142857,89.47767857142857,3993.8,62.57142857142857,89.47767857142857,4094.2,62.57142857142857,89.47767857142857,4199.3,62.57142857142857,89.47767857142857,4301.4,62.57142857142857,89.47767857142857,4404.2,62.57142857142857,89.47767857142857,4506.1,62.57142857142857,89.47767857142857,4608.8,62.57142857142857,89.47767857142857,4708.8,62.57142857142857,89.47767857142857,4809.2,62.57142857142857,89.47767857142857,4915.2]","[324.5,324.5,1000,0,-675.5,""error"",""-"",""-"",""no_move"",3908.8,3584,2162.9,1326.3,419.7,""smooth"",""up"",""up"",""good_move"",10437.1,6527.7,2401.2,7647,388.9,""oops"",""up"",""up"",""good_move"",13884.1,3446.6,2933.9,10437.5,512.7,""oops"",""up"",""up"",""good_move"",16316.8,2432.6,2051.6,13884.2,381,""smooth"",""left"",""left"",""good_move"",19299.9,2982.8,2576.3,16317.1,406.5,""oops"",""left"",""left"",""good_move"",22524.1,3223.9,2880.3,19300.2,343.6,""smooth"",""left"",""left"",""good_move""]","",""
"13483","","<div style=""width:500px;"">
  <p>What determined the result of this run?</p>
  </div>","100","html-slider-response","25","277976","0.0-5.0-1.3","34","1","2025-07-10 12:23:10","01610cd0009c79a99da7d0a3353eb402","85.246.21.29","Mozilla/5.0 (Windows NT 10.0; Win64; x64) AppleWebKit/537.36 (KHTML, like Gecko) Chrome/137.0.0.0 Safari/537.36","WebKit","Chrome","137.0.0.0","Windows","10.0","https://app.prolific.com/","pt-PT,pt;q=0.9,en-US;q=0.8,en;q=0.7","65a93241fc1ee8c40991a861","683db7602f5db6a34d12d064","686fb0a5867e7bdf4519aeaf","1","65a93241fc1ee8c40991a861","1","2025-07-10T12:27:47.817Z","","","","","","","","","","","AttribQ","","50","","","","","","","","","","","","","","","","","","","","","","","","","","","","",""
"3844","","<div style=""width:500px;"">
  <p>How much control did you have over the ball?</p>
  </div>","100","html-slider-response","26","281821","0.0-5.0-2.3","34","1","2025-07-10 12:23:10","01610cd0009c79a99da7d0a3353eb402","85.246.21.29","Mozilla/5.0 (Windows NT 10.0; Win64; x64) AppleWebKit/537.36 (KHTML, like Gecko) Chrome/137.0.0.0 Safari/537.36","WebKit","Chrome","137.0.0.0","Windows","10.0","https://app.prolific.com/","pt-PT,pt;q=0.9,en-US;q=0.8,en;q=0.7","65a93241fc1ee8c40991a861","683db7602f5db6a34d12d064","686fb0a5867e7bdf4519aeaf","1","65a93241fc1ee8c40991a861","1","2025-07-10T12:27:51.662Z","","","","","","","","","","","ControlQ","","50","","","","","","","","","","","","","","","","","","","","","","","","","","","","",""
"1542","","<div style=""width:500px;"">
  <p>How would you describe your current emotional state?</p>
  </div>","0","html-slider-response","27","283364","0.0-5.0-3.3","34","1","2025-07-10 12:23:10","01610cd0009c79a99da7d0a3353eb402","85.246.21.29","Mozilla/5.0 (Windows NT 10.0; Win64; x64) AppleWebKit/537.36 (KHTML, like Gecko) Chrome/137.0.0.0 Safari/537.36","WebKit","Chrome","137.0.0.0","Windows","10.0","https://app.prolific.com/","pt-PT,pt;q=0.9,en-US;q=0.8,en;q=0.7","65a93241fc1ee8c40991a861","683db7602f5db6a34d12d064","686fb0a5867e7bdf4519aeaf","1","65a93241fc1ee8c40991a861","1","2025-07-10T12:27:53.205Z","","","","","","","","","","","StressQ","","50","","","","","","","","","","","","","","","","","","","","","","","","","","","","",""
"1548","","<div style=""width:500px;"">
  <p>What best describes how you currently feel?</p>
  </div>","100","html-slider-response","28","284912","0.0-5.0-4.3","34","1","2025-07-10 12:23:10","01610cd0009c79a99da7d0a3353eb402","85.246.21.29","Mozilla/5.0 (Windows NT 10.0; Win64; x64) AppleWebKit/537.36 (KHTML, like Gecko) Chrome/137.0.0.0 Safari/537.36","WebKit","Chrome","137.0.0.0","Windows","10.0","https://app.prolific.com/","pt-PT,pt;q=0.9,en-US;q=0.8,en;q=0.7","65a93241fc1ee8c40991a861","683db7602f5db6a34d12d064","686fb0a5867e7bdf4519aeaf","1","65a93241fc1ee8c40991a861","1","2025-07-10T12:27:54.754Z","","","","","","","","","","","MotivationQ","","50","","","","","","","","","","","","","","","","","","","","","","","","","","","","",""
"","","","","ctl-task-cpt","29","332537","0.0-5.0-0.4","34","1","2025-07-10 12:23:10","01610cd0009c79a99da7d0a3353eb402","85.246.21.29","Mozilla/5.0 (Windows NT 10.0; Win64; x64) AppleWebKit/537.36 (KHTML, like Gecko) Chrome/137.0.0.0 Safari/537.36","WebKit","Chrome","137.0.0.0","Windows","10.0","https://app.prolific.com/","pt-PT,pt;q=0.9,en-US;q=0.8,en;q=0.7","65a93241fc1ee8c40991a861","683db7602f5db6a34d12d064","686fb0a5867e7bdf4519aeaf","1","65a93241fc1ee8c40991a861","1","2025-07-10T12:28:42.378Z","","","","","","","","","","","","","","win-only","0","g1:NW,g2:SE","0.6","5","0","286157.4","1325.5","6327","44607.7","1","4","4","6","2","-4","-4","12","16","0.09090909090909091","842","3000","-2990","[""down"",""right""]","{""num_key_presses"":7,""num_perfect"":5,""num_errors"":0,""num_randdir"":2,""num_randdir_good_moves"":0,""num_whilered"":0,""num_whileblue"":0,""num_blue"":5,""num_good_moves"":5}","[412.57142857142856,416.47767857142856,0.4,412.57142857142856,416.47767857142856,103.7,412.57142857142856,416.47767857142856,206.3,412.57142857142856,416.47767857142856,310.2,411.57142857142856,416.47767857142856,412.6,399.57142857142856,409.47767857142856,512.9,545.5714285714286,494.47767857142856,616.1,706.5714285714286,729.4776785714286,716.7,708.5714285714286,768.4776785714286,821.5,709.5714285714286,768.4776785714286,926.3,709.5714285714286,768.4776785714286,1033.5,709.5714285714286,768.4776785714286,1135.9,709.5714285714286,768.4776785714286,1236.7,709.5714285714286,768.4776785714286,1336.7,709.5714285714286,768.4776785714286,1442.4,709.5714285714286,768.4776785714286,1545.7,709.5714285714286,768.4776785714286,1646,709.5714285714286,768.4776785714286,1746.2,709.5714285714286,768.4776785714286,1847.1,709.5714285714286,768.4776785714286,1950.9,709.5714285714286,768.4776785714286,2054.5,709.5714285714286,768.4776785714286,2156.5,709.5714285714286,768.4776785714286,2262,709.5714285714286,768.4776785714286,2365.5,709.5714285714286,768.4776785714286,2469.2,709.5714285714286,768.4776785714286,2570.4,709.5714285714286,768.4776785714286,2672.4,709.5714285714286,768.4776785714286,2776.8,709.5714285714286,768.4776785714286,2880.6,709.5714285714286,768.4776785714286,2983.1,709.5714285714286,768.4776785714286,3088,709.5714285714286,768.4776785714286,3192.3,709.5714285714286,768.4776785714286,3299.1,709.5714285714286,768.4776785714286,3400.8,709.5714285714286,768.4776785714286,3502.6,709.5714285714286,768.4776785714286,3607.9,709.5714285714286,768.4776785714286,3712.8,709.5714285714286,768.4776785714286,3817.3,709.5714285714286,768.4776785714286,3920.2,709.5714285714286,768.4776785714286,4026.1,709.5714285714286,768.4776785714286,4130.8,709.5714285714286,768.4776785714286,4232.3,709.5714285714286,768.4776785714286,4336.2,709.5714285714286,768.4776785714286,4440.8,709.5714285714286,768.4776785714286,4545.7,709.5714285714286,768.4776785714286,4650.8,709.5714285714286,768.4776785714286,4752.2,709.5714285714286,768.4776785714286,4853,709.5714285714286,768.4776785714286,4955.7]","[1522,1522,1000,0,522,""smooth"",""down"",""down"",""good_move"",8962.5,7440.2,3377.6,5239.3,345.6,""oops"",""down"",""left"",""bad_move"",11122.1,2159.4,1790.4,8962.7,369,""oops"",""down"",""left"",""bad_move"",23570.5,12448.2,2379.8,20775.1,415.6,""smooth"",""down"",""down"",""good_move"",26426.7,2856,2237.1,23570.7,618.9,""smooth"",""down"",""down"",""good_move"",28674.7,2247.7,1830.4,26427,417.3,""smooth"",""right"",""right"",""good_move"",35474.5,6799.5,3356.5,31748.5,369.5,""smooth"",""right"",""right"",""good_move""]","",""
"2490","","<div style=""width:500px;"">
  <p>What determined the result of this run?</p>
  </div>","0","html-slider-response","30","335028","0.0-5.0-1.4","34","1","2025-07-10 12:23:10","01610cd0009c79a99da7d0a3353eb402","85.246.21.29","Mozilla/5.0 (Windows NT 10.0; Win64; x64) AppleWebKit/537.36 (KHTML, like Gecko) Chrome/137.0.0.0 Safari/537.36","WebKit","Chrome","137.0.0.0","Windows","10.0","https://app.prolific.com/","pt-PT,pt;q=0.9,en-US;q=0.8,en;q=0.7","65a93241fc1ee8c40991a861","683db7602f5db6a34d12d064","686fb0a5867e7bdf4519aeaf","1","65a93241fc1ee8c40991a861","1","2025-07-10T12:28:44.869Z","","","","","","","","","","","AttribQ","","50","","","","","","","","","","","","","","","","","","","","","","","","","","","","",""
"1520","","<div style=""width:500px;"">
  <p>How much control did you have over the ball?</p>
  </div>","0","html-slider-response","31","336549","0.0-5.0-2.4","34","1","2025-07-10 12:23:10","01610cd0009c79a99da7d0a3353eb402","85.246.21.29","Mozilla/5.0 (Windows NT 10.0; Win64; x64) AppleWebKit/537.36 (KHTML, like Gecko) Chrome/137.0.0.0 Safari/537.36","WebKit","Chrome","137.0.0.0","Windows","10.0","https://app.prolific.com/","pt-PT,pt;q=0.9,en-US;q=0.8,en;q=0.7","65a93241fc1ee8c40991a861","683db7602f5db6a34d12d064","686fb0a5867e7bdf4519aeaf","1","65a93241fc1ee8c40991a861","1","2025-07-10T12:28:46.390Z","","","","","","","","","","","ControlQ","","50","","","","","","","","","","","","","","","","","","","","","","","","","","","","",""
"1771","","<div style=""width:500px;"">
  <p>How would you describe your current emotional state?</p>
  </div>","100","html-slider-response","32","338321","0.0-5.0-3.4","34","1","2025-07-10 12:23:10","01610cd0009c79a99da7d0a3353eb402","85.246.21.29","Mozilla/5.0 (Windows NT 10.0; Win64; x64) AppleWebKit/537.36 (KHTML, like Gecko) Chrome/137.0.0.0 Safari/537.36","WebKit","Chrome","137.0.0.0","Windows","10.0","https://app.prolific.com/","pt-PT,pt;q=0.9,en-US;q=0.8,en;q=0.7","65a93241fc1ee8c40991a861","683db7602f5db6a34d12d064","686fb0a5867e7bdf4519aeaf","1","65a93241fc1ee8c40991a861","1","2025-07-10T12:28:48.162Z","","","","","","","","","","","StressQ","","50","","","","","","","","","","","","","","","","","","","","","","","","","","","","",""
"1689","","<div style=""width:500px;"">
  <p>What best describes how you currently feel?</p>
  </div>","0","html-slider-response","33","340011","0.0-5.0-4.4","34","1","2025-07-10 12:23:10","01610cd0009c79a99da7d0a3353eb402","85.246.21.29","Mozilla/5.0 (Windows NT 10.0; Win64; x64) AppleWebKit/537.36 (KHTML, like Gecko) Chrome/137.0.0.0 Safari/537.36","WebKit","Chrome","137.0.0.0","Windows","10.0","https://app.prolific.com/","pt-PT,pt;q=0.9,en-US;q=0.8,en;q=0.7","65a93241fc1ee8c40991a861","683db7602f5db6a34d12d064","686fb0a5867e7bdf4519aeaf","1","65a93241fc1ee8c40991a861","1","2025-07-10T12:28:49.852Z","","","","","","","","","","","MotivationQ","","50","","","","","","","","","","","","","","","","","","","","","","","","","","","","",""
"","","","","ctl-task-cpt","34","373131","0.0-5.0-0.5","34","1","2025-07-10 12:23:10","01610cd0009c79a99da7d0a3353eb402","85.246.21.29","Mozilla/5.0 (Windows NT 10.0; Win64; x64) AppleWebKit/537.36 (KHTML, like Gecko) Chrome/137.0.0.0 Safari/537.36","WebKit","Chrome","137.0.0.0","Windows","10.0","https://app.prolific.com/","pt-PT,pt;q=0.9,en-US;q=0.8,en;q=0.7","65a93241fc1ee8c40991a861","683db7602f5db6a34d12d064","686fb0a5867e7bdf4519aeaf","1","65a93241fc1ee8c40991a861","1","2025-07-10T12:29:22.972Z","","","","","","","","","","","","","","win-only","0","g1:NW,g2:SE","0.5","6","0","341256","851.8","5856.1","30095.3","1","4","8","6","2","-8","-9","3","12","0.022727272727272728","879.5","3000","-2875","[""down"",""right""]","{""num_key_presses"":8,""num_perfect"":2,""num_errors"":1,""num_randdir"":5,""num_randdir_good_moves"":3,""num_whilered"":0,""num_whileblue"":0,""num_blue"":0,""num_good_moves"":5}","[421.57142857142856,425.47767857142856,0.1,421.57142857142856,425.47767857142856,104.2,421.57142857142856,425.47767857142856,205.3,393.57142857142856,437.47767857142856,306.7,250.57142857142856,476.47767857142856,407.3,305.57142857142856,529.4776785714286,513.9,669.5714285714286,708.4776785714286,622.7,747.5714285714286,768.4776785714286,726,759.5714285714286,772.4776785714286,829.4,759.5714285714286,772.4776785714286,929.4,759.5714285714286,772.4776785714286,1034.4,759.5714285714286,772.4776785714286,1138.5,759.5714285714286,772.4776785714286,1239.4,759.5714285714286,772.4776785714286,1339.5,759.5714285714286,772.4776785714286,1440.1,759.5714285714286,772.4776785714286,1544.4,759.5714285714286,772.4776785714286,1644.5,759.5714285714286,772.4776785714286,1749.7,759.5714285714286,772.4776785714286,1853.6,759.5714285714286,772.4776785714286,1955.9,759.5714285714286,772.4776785714286,2058.9,759.5714285714286,772.4776785714286,2161.9,759.5714285714286,772.4776785714286,2264.4,759.5714285714286,772.4776785714286,2368.7,759.5714285714286,772.4776785714286,2470,759.5714285714286,772.4776785714286,2573.6,759.5714285714286,772.4776785714286,2673.9,759.5714285714286,772.4776785714286,2774.3,759.5714285714286,772.4776785714286,2875,759.5714285714286,772.4776785714286,2978.9,759.5714285714286,772.4776785714286,3083.6,759.5714285714286,772.4776785714286,3184,759.5714285714286,772.4776785714286,3289.9,759.5714285714286,772.4776785714286,3394,759.5714285714286,772.4776785714286,3499.4,759.5714285714286,772.4776785714286,3599.7,759.5714285714286,772.4776785714286,3703.4,759.5714285714286,772.4776785714286,3803.9,759.5714285714286,772.4776785714286,3911.9,759.5714285714286,772.4776785714286,4013.9,759.5714285714286,772.4776785714286,4114.2,759.5714285714286,772.4776785714286,4218.8,759.5714285714286,772.4776785714286,4318.9,759.5714285714286,772.4776785714286,4419.5,759.5714285714286,772.4776785714286,4519.5,759.5714285714286,772.4776785714286,4624,759.5714285714286,772.4776785714286,4724.3,759.5714285714286,772.4776785714286,4830.2,759.5714285714286,772.4776785714286,4936.8]","[382.5,382.5,1000,0,-617.5,""error"",""-"",""-"",""no_move"",3934.2,3551.5,2138.3,1388.5,407.4,""oops"",""down"",""down"",""good_move"",7670.4,3735.8,3084.5,3934.6,651.3,""smooth"",""down"",""down"",""good_move"",10669.8,2999.2,2567.6,7670.6,431.6,""oops"",""right"",""down"",""good_move"",13319.2,2649.2,2253.6,10670,395.6,""oops"",""right"",""right"",""good_move"",15646.4,2326.9,1937.1,13319.5,389.8,""oops"",""right"",""left"",""bad_move"",18030,2383.2,2020.1,15646.8,363.1,""oops"",""right"",""up"",""bad_move"",20582.8,2552.5,2191.1,18030.3,361.4,""smooth"",""right"",""right"",""good_move""]","",""
"23725","","<div style=""width:500px;"">
  <p>What determined the result of this run?</p>
  </div>","0","html-slider-response","35","396857","0.0-5.0-1.5","34","1","2025-07-10 12:23:10","01610cd0009c79a99da7d0a3353eb402","85.246.21.29","Mozilla/5.0 (Windows NT 10.0; Win64; x64) AppleWebKit/537.36 (KHTML, like Gecko) Chrome/137.0.0.0 Safari/537.36","WebKit","Chrome","137.0.0.0","Windows","10.0","https://app.prolific.com/","pt-PT,pt;q=0.9,en-US;q=0.8,en;q=0.7","65a93241fc1ee8c40991a861","683db7602f5db6a34d12d064","686fb0a5867e7bdf4519aeaf","1","65a93241fc1ee8c40991a861","1","2025-07-10T12:29:46.698Z","","","","","","","","","","","AttribQ","","50","","","","","","","","","","","","","","","","","","","","","","","","","","","","",""
"1668","","<div style=""width:500px;"">
  <p>How much control did you have over the ball?</p>
  </div>","0","html-slider-response","36","398526","0.0-5.0-2.5","34","1","2025-07-10 12:23:10","01610cd0009c79a99da7d0a3353eb402","85.246.21.29","Mozilla/5.0 (Windows NT 10.0; Win64; x64) AppleWebKit/537.36 (KHTML, like Gecko) Chrome/137.0.0.0 Safari/537.36","WebKit","Chrome","137.0.0.0","Windows","10.0","https://app.prolific.com/","pt-PT,pt;q=0.9,en-US;q=0.8,en;q=0.7","65a93241fc1ee8c40991a861","683db7602f5db6a34d12d064","686fb0a5867e7bdf4519aeaf","1","65a93241fc1ee8c40991a861","1","2025-07-10T12:29:48.367Z","","","","","","","","","","","ControlQ","","50","","","","","","","","","","","","","","","","","","","","","","","","","","","","",""
"2171","","<div style=""width:500px;"">
  <p>How would you describe your current emotional state?</p>
  </div>","100","html-slider-response","37","400698","0.0-5.0-3.5","34","1","2025-07-10 12:23:10","01610cd0009c79a99da7d0a3353eb402","85.246.21.29","Mozilla/5.0 (Windows NT 10.0; Win64; x64) AppleWebKit/537.36 (KHTML, like Gecko) Chrome/137.0.0.0 Safari/537.36","WebKit","Chrome","137.0.0.0","Windows","10.0","https://app.prolific.com/","pt-PT,pt;q=0.9,en-US;q=0.8,en;q=0.7","65a93241fc1ee8c40991a861","683db7602f5db6a34d12d064","686fb0a5867e7bdf4519aeaf","1","65a93241fc1ee8c40991a861","1","2025-07-10T12:29:50.539Z","","","","","","","","","","","StressQ","","50","","","","","","","","","","","","","","","","","","","","","","","","","","","","",""
"1263","","<div style=""width:500px;"">
  <p>What best describes how you currently feel?</p>
  </div>","0","html-slider-response","38","401962","0.0-5.0-4.5","34","1","2025-07-10 12:23:10","01610cd0009c79a99da7d0a3353eb402","85.246.21.29","Mozilla/5.0 (Windows NT 10.0; Win64; x64) AppleWebKit/537.36 (KHTML, like Gecko) Chrome/137.0.0.0 Safari/537.36","WebKit","Chrome","137.0.0.0","Windows","10.0","https://app.prolific.com/","pt-PT,pt;q=0.9,en-US;q=0.8,en;q=0.7","65a93241fc1ee8c40991a861","683db7602f5db6a34d12d064","686fb0a5867e7bdf4519aeaf","1","65a93241fc1ee8c40991a861","1","2025-07-10T12:29:51.803Z","","","","","","","","","","","MotivationQ","","50","","","","","","","","","","","","","","","","","","","","","","","","","","","","",""
"","","","","ctl-task-cpt","39","425448","0.0-5.0-0.6","34","1","2025-07-10 12:23:10","01610cd0009c79a99da7d0a3353eb402","85.246.21.29","Mozilla/5.0 (Windows NT 10.0; Win64; x64) AppleWebKit/537.36 (KHTML, like Gecko) Chrome/137.0.0.0 Safari/537.36","WebKit","Chrome","137.0.0.0","Windows","10.0","https://app.prolific.com/","pt-PT,pt;q=0.9,en-US;q=0.8,en;q=0.7","65a93241fc1ee8c40991a861","683db7602f5db6a34d12d064","686fb0a5867e7bdf4519aeaf","1","65a93241fc1ee8c40991a861","1","2025-07-10T12:30:15.289Z","","","","","","","","","","","","","","win-only","3","g1:SW,g2:NE","0.4","7","0","403206.6","682","5691.7","20461.1","1","4","8","6","2","8","8","11","3","0.08333333333333333","743.2","3000","1640","[""up"",""right""]","{""num_key_presses"":6,""num_perfect"":2,""num_errors"":0,""num_randdir"":4,""num_randdir_good_moves"":4,""num_whilered"":0,""num_whileblue"":0,""num_blue"":0,""num_good_moves"":6}","[412.57142857142856,423.47767857142856,0.1,412.57142857142856,423.47767857142856,101.8,412.57142857142856,423.47767857142856,206.4,411.57142857142856,423.47767857142856,311.7,475.57142857142856,322.47767857142856,415,659.5714285714286,169.47767857142856,519.1,748.5714285714286,128.47767857142856,621.7,753.5714285714286,114.47767857142857,726.5,753.5714285714286,114.47767857142857,828.2,753.5714285714286,114.47767857142857,931.1,753.5714285714286,114.47767857142857,1031.9,753.5714285714286,114.47767857142857,1136.6,753.5714285714286,114.47767857142857,1241.1,753.5714285714286,114.47767857142857,1342.1,753.5714285714286,114.47767857142857,1443,753.5714285714286,114.47767857142857,1547.2,753.5714285714286,114.47767857142857,1652,753.5714285714286,114.47767857142857,1757,753.5714285714286,114.47767857142857,1862.6,753.5714285714286,114.47767857142857,1965.6,753.5714285714286,114.47767857142857,2066.8,753.5714285714286,114.47767857142857,2166.8,753.5714285714286,114.47767857142857,2268.3,753.5714285714286,114.47767857142857,2368.3,753.5714285714286,114.47767857142857,2472.4,753.5714285714286,114.47767857142857,2572.6,753.5714285714286,114.47767857142857,2675.3,753.5714285714286,114.47767857142857,2775.3,753.5714285714286,114.47767857142857,2877.4,753.5714285714286,114.47767857142857,2979.6,753.5714285714286,114.47767857142857,3081.5,753.5714285714286,114.47767857142857,3181.6,753.5714285714286,114.47767857142857,3285.5,753.5714285714286,114.47767857142857,3390.1,753.5714285714286,114.47767857142857,3498,753.5714285714286,114.47767857142857,3602.2,753.5714285714286,114.47767857142857,3704.3,753.5714285714286,114.47767857142857,3808.3,753.5714285714286,114.47767857142857,3911.1,753.5714285714286,114.47767857142857,4012,753.5714285714286,114.47767857142857,4117,753.5714285714286,114.47767857142857,4221.1,753.5714285714286,114.47767857142857,4327.7,753.5714285714286,114.47767857142857,4428.5,753.5714285714286,114.47767857142857,4528.7,753.5714285714286,114.47767857142857,4633.3,753.5714285714286,114.47767857142857,4738.3,753.5714285714286,114.47767857142857,4843.5,753.5714285714286,114.47767857142857,4948.6]","[1388.8,1388.8,1000,0,388.8,""oops"",""up"",""right"",""good_move"",3755.4,2366.4,1880.4,1389.1,486,""smooth"",""up"",""up"",""good_move"",6436,2680.3,2346,3755.8,334.3,""smooth"",""right"",""right"",""good_move"",8692.1,2255.8,1886.4,6436.3,369.4,""oops"",""up"",""up"",""good_move"",11500.3,2807.9,2429,8692.4,379,""oops"",""right"",""up"",""good_move"",14619.4,3118.8,2792.6,11500.6,326.2,""oops"",""right"",""right"",""good_move""]","",""
"2067","","<div style=""width:500px;"">
  <p>What determined the result of this run?</p>
  </div>","59","html-slider-response","40","427517","0.0-5.0-1.6","34","1","2025-07-10 12:23:10","01610cd0009c79a99da7d0a3353eb402","85.246.21.29","Mozilla/5.0 (Windows NT 10.0; Win64; x64) AppleWebKit/537.36 (KHTML, like Gecko) Chrome/137.0.0.0 Safari/537.36","WebKit","Chrome","137.0.0.0","Windows","10.0","https://app.prolific.com/","pt-PT,pt;q=0.9,en-US;q=0.8,en;q=0.7","65a93241fc1ee8c40991a861","683db7602f5db6a34d12d064","686fb0a5867e7bdf4519aeaf","1","65a93241fc1ee8c40991a861","1","2025-07-10T12:30:17.358Z","","","","","","","","","","","AttribQ","","50","","","","","","","","","","","","","","","","","","","","","","","","","","","","",""
"1408","","<div style=""width:500px;"">
  <p>How much control did you have over the ball?</p>
  </div>","0","html-slider-response","41","428926","0.0-5.0-2.6","34","1","2025-07-10 12:23:10","01610cd0009c79a99da7d0a3353eb402","85.246.21.29","Mozilla/5.0 (Windows NT 10.0; Win64; x64) AppleWebKit/537.36 (KHTML, like Gecko) Chrome/137.0.0.0 Safari/537.36","WebKit","Chrome","137.0.0.0","Windows","10.0","https://app.prolific.com/","pt-PT,pt;q=0.9,en-US;q=0.8,en;q=0.7","65a93241fc1ee8c40991a861","683db7602f5db6a34d12d064","686fb0a5867e7bdf4519aeaf","1","65a93241fc1ee8c40991a861","1","2025-07-10T12:30:18.767Z","","","","","","","","","","","ControlQ","","50","","","","","","","","","","","","","","","","","","","","","","","","","","","","",""
"2030","","<div style=""width:500px;"">
  <p>How would you describe your current emotional state?</p>
  </div>","100","html-slider-response","42","430957","0.0-5.0-3.6","34","1","2025-07-10 12:23:10","01610cd0009c79a99da7d0a3353eb402","85.246.21.29","Mozilla/5.0 (Windows NT 10.0; Win64; x64) AppleWebKit/537.36 (KHTML, like Gecko) Chrome/137.0.0.0 Safari/537.36","WebKit","Chrome","137.0.0.0","Windows","10.0","https://app.prolific.com/","pt-PT,pt;q=0.9,en-US;q=0.8,en;q=0.7","65a93241fc1ee8c40991a861","683db7602f5db6a34d12d064","686fb0a5867e7bdf4519aeaf","1","65a93241fc1ee8c40991a861","1","2025-07-10T12:30:20.798Z","","","","","","","","","","","StressQ","","50","","","","","","","","","","","","","","","","","","","","","","","","","","","","",""
"1375","","<div style=""width:500px;"">
  <p>What best describes how you currently feel?</p>
  </div>","0","html-slider-response","43","432333","0.0-5.0-4.6","34","1","2025-07-10 12:23:10","01610cd0009c79a99da7d0a3353eb402","85.246.21.29","Mozilla/5.0 (Windows NT 10.0; Win64; x64) AppleWebKit/537.36 (KHTML, like Gecko) Chrome/137.0.0.0 Safari/537.36","WebKit","Chrome","137.0.0.0","Windows","10.0","https://app.prolific.com/","pt-PT,pt;q=0.9,en-US;q=0.8,en;q=0.7","65a93241fc1ee8c40991a861","683db7602f5db6a34d12d064","686fb0a5867e7bdf4519aeaf","1","65a93241fc1ee8c40991a861","1","2025-07-10T12:30:22.175Z","","","","","","","","","","","MotivationQ","","50","","","","","","","","","","","","","","","","","","","","","","","","","","","","",""
"","","","","ctl-task-cpt","44","480165","0.0-5.0-0.7","34","1","2025-07-10 12:23:10","01610cd0009c79a99da7d0a3353eb402","85.246.21.29","Mozilla/5.0 (Windows NT 10.0; Win64; x64) AppleWebKit/537.36 (KHTML, like Gecko) Chrome/137.0.0.0 Safari/537.36","WebKit","Chrome","137.0.0.0","Windows","10.0","https://app.prolific.com/","pt-PT,pt;q=0.9,en-US;q=0.8,en;q=0.7","65a93241fc1ee8c40991a861","683db7602f5db6a34d12d064","686fb0a5867e7bdf4519aeaf","1","65a93241fc1ee8c40991a861","1","2025-07-10T12:31:10.006Z","","","","","","","","","","","","","","win-only","3","g1:SW,g2:NE","0.3","8","0","433578.4","5147","10150.7","44807.9","1","4","4","6","2","-4","-4","7","11","0.05303030303030303","1039.1","3000","-2170","[""up"",""right""]","{""num_key_presses"":10,""num_perfect"":3,""num_errors"":0,""num_randdir"":7,""num_randdir_good_moves"":2,""num_whilered"":0,""num_whileblue"":0,""num_blue"":0,""num_good_moves"":4}","[422.57142857142856,414.47767857142856,0.3,422.57142857142856,414.47767857142856,105.4,422.57142857142856,414.47767857142856,213.2,422.57142857142856,414.47767857142856,315.1,422.57142857142856,414.47767857142856,419.1,422.57142857142856,414.47767857142856,522.4,425.57142857142856,418.47767857142856,626.5,655.5714285714286,115.47767857142857,738.2,712.5714285714286,55.47767857142857,840.1,735.5714285714286,41.47767857142857,946.5,741.5714285714286,59.47767857142857,1057,741.5714285714286,59.47767857142857,1166.3,741.5714285714286,59.47767857142857,1266.8,741.5714285714286,59.47767857142857,1369,741.5714285714286,59.47767857142857,1469.7,741.5714285714286,59.47767857142857,1576.2,741.5714285714286,59.47767857142857,1680.1,741.5714285714286,59.47767857142857,1781,741.5714285714286,59.47767857142857,1892.6,741.5714285714286,59.47767857142857,2000.4,741.5714285714286,59.47767857142857,2102.6,741.5714285714286,59.47767857142857,2205.5,741.5714285714286,59.47767857142857,2314.5,741.5714285714286,59.47767857142857,2414.8,741.5714285714286,59.47767857142857,2519.7,741.5714285714286,59.47767857142857,2621.9,741.5714285714286,59.47767857142857,2727.8,741.5714285714286,59.47767857142857,2829.9,741.5714285714286,59.47767857142857,2939.7,741.5714285714286,59.47767857142857,3045.1,741.5714285714286,59.47767857142857,3151.8,741.5714285714286,59.47767857142857,3260,741.5714285714286,59.47767857142857,3363.3,741.5714285714286,59.47767857142857,3469.6,741.5714285714286,59.47767857142857,3574,741.5714285714286,59.47767857142857,3675.1,741.5714285714286,59.47767857142857,3781.2,741.5714285714286,59.47767857142857,3882.2,741.5714285714286,59.47767857142857,3988.7,741.5714285714286,59.47767857142857,4090.8,741.5714285714286,59.47767857142857,4191.1,741.5714285714286,59.47767857142857,4298.4,741.5714285714286,59.47767857142857,4405.2,741.5714285714286,59.47767857142857,4506.2,741.5714285714286,59.47767857142857,4610.6,741.5714285714286,59.47767857142857,4713.2,741.5714285714286,59.47767857142857,4820.5,741.5714285714286,59.47767857142857,4925.5]","[1413.9,1413.9,1000,0,413.9,""oops"",""up"",""up"",""good_move"",4948.7,3534.3,3125.7,1414.5,408.5,""oops"",""right"",""left"",""bad_move"",7134.8,2185.8,1680.1,4949,505.7,""smooth"",""up"",""up"",""good_move"",10476.5,3341.4,2996.8,7135.1,344.6,""oops"",""right"",""down"",""bad_move"",13501,3024.1,2663.3,10476.9,360.8,""oops"",""up"",""left"",""bad_move"",16988.9,3487.6,2644.3,13501.3,843.3,""oops"",""left"",""right"",""good_move"",20893.5,3904.2,3561.5,16989.3,342.7,""oops"",""up"",""left"",""bad_move"",23661.5,2767.8,2309.4,20893.7,458.4,""smooth"",""left"",""down"",""bad_move"",27053,3391.3,3031.9,23661.7,359.4,""smooth"",""right"",""right"",""good_move"",30204.9,3151.8,2750.7,27053.1,401.1,""oops"",""right"",""left"",""bad_move""]","",""
"5131","","<div style=""width:500px;"">
  <p>What determined the result of this run?</p>
  </div>","0","html-slider-response","45","485298","0.0-5.0-1.7","34","1","2025-07-10 12:23:10","01610cd0009c79a99da7d0a3353eb402","85.246.21.29","Mozilla/5.0 (Windows NT 10.0; Win64; x64) AppleWebKit/537.36 (KHTML, like Gecko) Chrome/137.0.0.0 Safari/537.36","WebKit","Chrome","137.0.0.0","Windows","10.0","https://app.prolific.com/","pt-PT,pt;q=0.9,en-US;q=0.8,en;q=0.7","65a93241fc1ee8c40991a861","683db7602f5db6a34d12d064","686fb0a5867e7bdf4519aeaf","1","65a93241fc1ee8c40991a861","1","2025-07-10T12:31:15.139Z","","","","","","","","","","","AttribQ","","50","","","","","","","","","","","","","","","","","","","","","","","","","","","","",""
"26017","","<div style=""width:500px;"">
  <p>How much control did you have over the ball?</p>
  </div>","0","html-slider-response","46","511316","0.0-5.0-2.7","34","1","2025-07-10 12:23:10","01610cd0009c79a99da7d0a3353eb402","85.246.21.29","Mozilla/5.0 (Windows NT 10.0; Win64; x64) AppleWebKit/537.36 (KHTML, like Gecko) Chrome/137.0.0.0 Safari/537.36","WebKit","Chrome","137.0.0.0","Windows","10.0","https://app.prolific.com/","pt-PT,pt;q=0.9,en-US;q=0.8,en;q=0.7","65a93241fc1ee8c40991a861","683db7602f5db6a34d12d064","686fb0a5867e7bdf4519aeaf","1","65a93241fc1ee8c40991a861","1","2025-07-10T12:31:41.157Z","","","","","","","","","","","ControlQ","","50","","","","","","","","","","","","","","","","","","","","","","","","","","","","",""
"1918","","<div style=""width:500px;"">
  <p>How would you describe your current emotional state?</p>
  </div>","100","html-slider-response","47","513235","0.0-5.0-3.7","34","1","2025-07-10 12:23:10","01610cd0009c79a99da7d0a3353eb402","85.246.21.29","Mozilla/5.0 (Windows NT 10.0; Win64; x64) AppleWebKit/537.36 (KHTML, like Gecko) Chrome/137.0.0.0 Safari/537.36","WebKit","Chrome","137.0.0.0","Windows","10.0","https://app.prolific.com/","pt-PT,pt;q=0.9,en-US;q=0.8,en;q=0.7","65a93241fc1ee8c40991a861","683db7602f5db6a34d12d064","686fb0a5867e7bdf4519aeaf","1","65a93241fc1ee8c40991a861","1","2025-07-10T12:31:43.076Z","","","","","","","","","","","StressQ","","50","","","","","","","","","","","","","","","","","","","","","","","","","","","","",""
"1555","","<div style=""width:500px;"">
  <p>What best describes how you currently feel?</p>
  </div>","0","html-slider-response","48","514791","0.0-5.0-4.7","34","1","2025-07-10 12:23:10","01610cd0009c79a99da7d0a3353eb402","85.246.21.29","Mozilla/5.0 (Windows NT 10.0; Win64; x64) AppleWebKit/537.36 (KHTML, like Gecko) Chrome/137.0.0.0 Safari/537.36","WebKit","Chrome","137.0.0.0","Windows","10.0","https://app.prolific.com/","pt-PT,pt;q=0.9,en-US;q=0.8,en;q=0.7","65a93241fc1ee8c40991a861","683db7602f5db6a34d12d064","686fb0a5867e7bdf4519aeaf","1","65a93241fc1ee8c40991a861","1","2025-07-10T12:31:44.632Z","","","","","","","","","","","MotivationQ","","50","","","","","","","","","","","","","","","","","","","","","","","","","","","","",""
"","","","","ctl-task-cpt","49","559758","0.0-5.0-0.8","34","1","2025-07-10 12:23:10","01610cd0009c79a99da7d0a3353eb402","85.246.21.29","Mozilla/5.0 (Windows NT 10.0; Win64; x64) AppleWebKit/537.36 (KHTML, like Gecko) Chrome/137.0.0.0 Safari/537.36","WebKit","Chrome","137.0.0.0","Windows","10.0","https://app.prolific.com/","pt-PT,pt;q=0.9,en-US;q=0.8,en;q=0.7","65a93241fc1ee8c40991a861","683db7602f5db6a34d12d064","686fb0a5867e7bdf4519aeaf","1","65a93241fc1ee8c40991a861","1","2025-07-10T12:32:29.599Z","","","","","","","","","","","","","","win-only","0","g1:NW,g2:SE","0.2","9","0","516035.8","689.6","5698.1","41942.7","1","4","8","6","2","8","8","15","7","0.11363636363636363","635","3000","1055","[""down"",""right""]","{""num_key_presses"":8,""num_perfect"":2,""num_errors"":0,""num_randdir"":6,""num_randdir_good_moves"":5,""num_whilered"":0,""num_whileblue"":0,""num_blue"":4,""num_good_moves"":7}","[420.57142857142856,416.47767857142856,0.5,420.57142857142856,416.47767857142856,105.5,420.57142857142856,416.47767857142856,211.5,420.57142857142856,416.47767857142856,322.9,622.5714285714286,635.4776785714286,425.2,715.5714285714286,728.4776785714286,533.1,729.5714285714286,728.4776785714286,634.1,729.5714285714286,728.4776785714286,734.9,729.5714285714286,728.4776785714286,841.7,729.5714285714286,727.4776785714286,950,782.5714285714286,625.4776785714286,1050.6,824.5714285714286,574.4776785714286,1156.1,824.5714285714286,574.4776785714286,1262.2,824.5714285714286,574.4776785714286,1365.1,824.5714285714286,574.4776785714286,1468.1,824.5714285714286,574.4776785714286,1578.3,824.5714285714286,574.4776785714286,1682.3,824.5714285714286,574.4776785714286,1786.7,824.5714285714286,574.4776785714286,1889,824.5714285714286,574.4776785714286,1991.1,824.5714285714286,574.4776785714286,2094.6,824.5714285714286,574.4776785714286,2204.3,824.5714285714286,574.4776785714286,2307.7,824.5714285714286,574.4776785714286,2412.7,824.5714285714286,574.4776785714286,2517.3,824.5714285714286,574.4776785714286,2621.5,824.5714285714286,574.4776785714286,2728.5,824.5714285714286,574.4776785714286,2829.5,824.5714285714286,574.4776785714286,2936.3,824.5714285714286,574.4776785714286,3037.4,824.5714285714286,574.4776785714286,3144.2,824.5714285714286,574.4776785714286,3246,824.5714285714286,574.4776785714286,3349.7,824.5714285714286,574.4776785714286,3457,824.5714285714286,574.4776785714286,3560.9,824.5714285714286,574.4776785714286,3665.5,824.5714285714286,574.4776785714286,3767.1,824.5714285714286,574.4776785714286,3867.7,824.5714285714286,574.4776785714286,3972,824.5714285714286,574.4776785714286,4081.1,824.5714285714286,574.4776785714286,4189,824.5714285714286,574.4776785714286,4293,824.5714285714286,574.4776785714286,4401.1,824.5714285714286,574.4776785714286,4503.1,824.5714285714286,574.4776785714286,4611.9,824.5714285714286,574.4776785714286,4720.8,824.5714285714286,574.4776785714286,4830.3,824.5714285714286,574.4776785714286,4945.3]","[1465.2,1465.2,1000,0,465.2,""oops"",""right"",""up"",""bad_move"",7320.1,5853.8,2119.1,4801.3,399.8,""oops"",""down"",""right"",""good_move"",13929,6608.5,2866.3,10665.5,397.2,""oops"",""down"",""down"",""good_move"",17320.6,3391.4,2847.3,13929.2,544.1,""oops"",""down"",""down"",""good_move"",23479.7,6158.8,2237,20679,563.7,""smooth"",""down"",""down"",""good_move"",30775.5,7295.7,2989.8,27213.5,572.2,""smooth"",""down"",""down"",""good_move"",33559.4,2783.7,2366.8,30775.7,416.9,""oops"",""right"",""right"",""good_move"",36040,2480.3,1951.9,33559.7,528.4,""oops"",""right"",""right"",""good_move""]","",""
"3790","","<div style=""width:500px;"">
  <p>What determined the result of this run?</p>
  </div>","0","html-slider-response","50","563549","0.0-5.0-1.8","34","1","2025-07-10 12:23:10","01610cd0009c79a99da7d0a3353eb402","85.246.21.29","Mozilla/5.0 (Windows NT 10.0; Win64; x64) AppleWebKit/537.36 (KHTML, like Gecko) Chrome/137.0.0.0 Safari/537.36","WebKit","Chrome","137.0.0.0","Windows","10.0","https://app.prolific.com/","pt-PT,pt;q=0.9,en-US;q=0.8,en;q=0.7","65a93241fc1ee8c40991a861","683db7602f5db6a34d12d064","686fb0a5867e7bdf4519aeaf","1","65a93241fc1ee8c40991a861","1","2025-07-10T12:32:33.390Z","","","","","","","","","","","AttribQ","","50","","","","","","","","","","","","","","","","","","","","","","","","","","","","",""
"13128","","<div style=""width:500px;"">
  <p>How much control did you have over the ball?</p>
  </div>","0","html-slider-response","51","576679","0.0-5.0-2.8","34","1","2025-07-10 12:23:10","01610cd0009c79a99da7d0a3353eb402","85.246.21.29","Mozilla/5.0 (Windows NT 10.0; Win64; x64) AppleWebKit/537.36 (KHTML, like Gecko) Chrome/137.0.0.0 Safari/537.36","WebKit","Chrome","137.0.0.0","Windows","10.0","https://app.prolific.com/","pt-PT,pt;q=0.9,en-US;q=0.8,en;q=0.7","65a93241fc1ee8c40991a861","683db7602f5db6a34d12d064","686fb0a5867e7bdf4519aeaf","1","65a93241fc1ee8c40991a861","1","2025-07-10T12:32:46.520Z","","","","","","","","","","","ControlQ","","50","","","","","","","","","","","","","","","","","","","","","","","","","","","","",""
"1557","","<div style=""width:500px;"">
  <p>How would you describe your current emotional state?</p>
  </div>","100","html-slider-response","52","578238","0.0-5.0-3.8","34","1","2025-07-10 12:23:10","01610cd0009c79a99da7d0a3353eb402","85.246.21.29","Mozilla/5.0 (Windows NT 10.0; Win64; x64) AppleWebKit/537.36 (KHTML, like Gecko) Chrome/137.0.0.0 Safari/537.36","WebKit","Chrome","137.0.0.0","Windows","10.0","https://app.prolific.com/","pt-PT,pt;q=0.9,en-US;q=0.8,en;q=0.7","65a93241fc1ee8c40991a861","683db7602f5db6a34d12d064","686fb0a5867e7bdf4519aeaf","1","65a93241fc1ee8c40991a861","1","2025-07-10T12:32:48.079Z","","","","","","","","","","","StressQ","","50","","","","","","","","","","","","","","","","","","","","","","","","","","","","",""
"1724","","<div style=""width:500px;"">
  <p>What best describes how you currently feel?</p>
  </div>","0","html-slider-response","53","579962","0.0-5.0-4.8","34","1","2025-07-10 12:23:10","01610cd0009c79a99da7d0a3353eb402","85.246.21.29","Mozilla/5.0 (Windows NT 10.0; Win64; x64) AppleWebKit/537.36 (KHTML, like Gecko) Chrome/137.0.0.0 Safari/537.36","WebKit","Chrome","137.0.0.0","Windows","10.0","https://app.prolific.com/","pt-PT,pt;q=0.9,en-US;q=0.8,en;q=0.7","65a93241fc1ee8c40991a861","683db7602f5db6a34d12d064","686fb0a5867e7bdf4519aeaf","1","65a93241fc1ee8c40991a861","1","2025-07-10T12:32:49.803Z","","","","","","","","","","","MotivationQ","","50","","","","","","","","","","","","","","","","","","","","","","","","","","","","",""
"","","","","ctl-task-cpt","54","659700","0.0-5.0-0.9","34","1","2025-07-10 12:23:10","01610cd0009c79a99da7d0a3353eb402","85.246.21.29","Mozilla/5.0 (Windows NT 10.0; Win64; x64) AppleWebKit/537.36 (KHTML, like Gecko) Chrome/137.0.0.0 Safari/537.36","WebKit","Chrome","137.0.0.0","Windows","10.0","https://app.prolific.com/","pt-PT,pt;q=0.9,en-US;q=0.8,en;q=0.7","65a93241fc1ee8c40991a861","683db7602f5db6a34d12d064","686fb0a5867e7bdf4519aeaf","1","65a93241fc1ee8c40991a861","1","2025-07-10T12:34:09.541Z","","","","","","","","","","","","","","win-only","1","g1:NE,g2:SW","0.4","10","0","581207.3","9304.5","14309.2","76715.9","1","4","4","6","2","4","3","18","15","0.13636363636363635","643.2","3000","115","[""down"",""left""]","{""num_key_presses"":16,""num_perfect"":7,""num_errors"":1,""num_randdir"":8,""num_randdir_good_moves"":4,""num_whilered"":0,""num_whileblue"":1,""num_blue"":5,""num_good_moves"":11}","[416.57142857142856,407.47767857142856,0.4,416.57142857142856,407.47767857142856,106,416.57142857142856,407.47767857142856,215.1,416.57142857142856,407.47767857142856,315.7,293.57142857142856,496.47767857142856,417.8,105.57142857142857,732.4776785714286,520.9,91.57142857142857,784.4776785714286,622.3,91.57142857142857,784.4776785714286,732.8,91.57142857142857,784.4776785714286,833,91.57142857142857,784.4776785714286,939,91.57142857142857,784.4776785714286,1045.2,91.57142857142857,784.4776785714286,1147,91.57142857142857,784.4776785714286,1255.2,91.57142857142857,784.4776785714286,1366.2,91.57142857142857,784.4776785714286,1469.2,91.57142857142857,784.4776785714286,1574.7,91.57142857142857,784.4776785714286,1676.9,91.57142857142857,784.4776785714286,1782.3,91.57142857142857,784.4776785714286,1885.5,91.57142857142857,784.4776785714286,1986.2,91.57142857142857,784.4776785714286,2092.2,91.57142857142857,784.4776785714286,2192.6,91.57142857142857,784.4776785714286,2295.4,91.57142857142857,784.4776785714286,2396.3,91.57142857142857,784.4776785714286,2502.8,91.57142857142857,784.4776785714286,2613.6,91.57142857142857,784.4776785714286,2716.8,91.57142857142857,784.4776785714286,2820.5,91.57142857142857,784.4776785714286,2920.8,91.57142857142857,784.4776785714286,3033.5,91.57142857142857,784.4776785714286,3140.5,91.57142857142857,784.4776785714286,3243.7,91.57142857142857,784.4776785714286,3345.8,91.57142857142857,784.4776785714286,3449.5,91.57142857142857,784.4776785714286,3549.6,91.57142857142857,784.4776785714286,3657.3,91.57142857142857,784.4776785714286,3760.5,91.57142857142857,784.4776785714286,3868,91.57142857142857,784.4776785714286,3969.3,91.57142857142857,784.4776785714286,4070.8,91.57142857142857,784.4776785714286,4172.2,91.57142857142857,784.4776785714286,4275.9,91.57142857142857,784.4776785714286,4389,91.57142857142857,784.4776785714286,4490.3,91.57142857142857,784.4776785714286,4591.6,91.57142857142857,784.4776785714286,4695.4,91.57142857142857,784.4776785714286,4797.9,91.57142857142857,784.4776785714286,4902.1]","[4945.5,4945.6,2558.5,2014.9,372.2,""smooth"",""down"",""down"",""good_move"",7449.9,2503.9,2080.8,4946,423.1,""oops"",""left"",""up"",""bad_move"",10233.3,2783.1,2420.9,7450.2,362.2,""oops"",""down"",""up"",""bad_move"",13288.8,3055.2,2740.3,10233.6,314.9,""oops"",""left"",""left"",""good_move"",15569.9,2280.8,1720.7,13289.2,560,""smooth"",""left"",""left"",""good_move"",18953.6,3383.5,2994.6,15570.1,388.9,""oops"",""down"",""up"",""bad_move"",21473,2519,1989.7,18954,529.3,""oops"",""left"",""left"",""good_move"",24289.2,2816.2,2463.2,21473.1,353,""while_blue"",""down"",""down"",""good_move"",27952.9,3663.1,3224.3,24289.8,438.8,""smooth"",""down"",""down"",""good_move"",31472.9,3519.8,3058.3,27953.1,461.5,""oops"",""right"",""down"",""good_move"",42122.3,10649.2,2939.3,38751.3,431.7,""smooth"",""right"",""right"",""bad_move"",49320.6,7198.1,2773.4,46079,468.2,""oops"",""down"",""right"",""bad_move"",53386,4065.3,3292.2,49320.8,773.1,""oops"",""down"",""left"",""good_move"",56977.8,3591.4,3064,53386.5,527.3,""smooth"",""down"",""down"",""good_move"",59817,2838.7,2443.2,56978.3,395.5,""smooth"",""down"",""down"",""good_move"",62224.6,2407.5,2002.6,59817.1,404.9,""smooth"",""left"",""left"",""good_move""]","",""
"21311","","<div style=""width:500px;"">
  <p>What determined the result of this run?</p>
  </div>","0","html-slider-response","55","681012","0.0-5.0-1.9","34","1","2025-07-10 12:23:10","01610cd0009c79a99da7d0a3353eb402","85.246.21.29","Mozilla/5.0 (Windows NT 10.0; Win64; x64) AppleWebKit/537.36 (KHTML, like Gecko) Chrome/137.0.0.0 Safari/537.36","WebKit","Chrome","137.0.0.0","Windows","10.0","https://app.prolific.com/","pt-PT,pt;q=0.9,en-US;q=0.8,en;q=0.7","65a93241fc1ee8c40991a861","683db7602f5db6a34d12d064","686fb0a5867e7bdf4519aeaf","1","65a93241fc1ee8c40991a861","1","2025-07-10T12:34:30.853Z","","","","","","","","","","","AttribQ","","50","","","","","","","","","","","","","","","","","","","","","","","","","","","","",""
"2789","","<div style=""width:500px;"">
  <p>How much control did you have over the ball?</p>
  </div>","0","html-slider-response","56","683803","0.0-5.0-2.9","34","1","2025-07-10 12:23:10","01610cd0009c79a99da7d0a3353eb402","85.246.21.29","Mozilla/5.0 (Windows NT 10.0; Win64; x64) AppleWebKit/537.36 (KHTML, like Gecko) Chrome/137.0.0.0 Safari/537.36","WebKit","Chrome","137.0.0.0","Windows","10.0","https://app.prolific.com/","pt-PT,pt;q=0.9,en-US;q=0.8,en;q=0.7","65a93241fc1ee8c40991a861","683db7602f5db6a34d12d064","686fb0a5867e7bdf4519aeaf","1","65a93241fc1ee8c40991a861","1","2025-07-10T12:34:33.644Z","","","","","","","","","","","ControlQ","","50","","","","","","","","","","","","","","","","","","","","","","","","","","","","",""
"12077","","<div style=""width:500px;"">
  <p>How would you describe your current emotional state?</p>
  </div>","100","html-slider-response","57","695881","0.0-5.0-3.9","34","1","2025-07-10 12:23:10","01610cd0009c79a99da7d0a3353eb402","85.246.21.29","Mozilla/5.0 (Windows NT 10.0; Win64; x64) AppleWebKit/537.36 (KHTML, like Gecko) Chrome/137.0.0.0 Safari/537.36","WebKit","Chrome","137.0.0.0","Windows","10.0","https://app.prolific.com/","pt-PT,pt;q=0.9,en-US;q=0.8,en;q=0.7","65a93241fc1ee8c40991a861","683db7602f5db6a34d12d064","686fb0a5867e7bdf4519aeaf","1","65a93241fc1ee8c40991a861","1","2025-07-10T12:34:45.722Z","","","","","","","","","","","StressQ","","50","","","","","","","","","","","","","","","","","","","","","","","","","","","","",""
"1417","","<div style=""width:500px;"">
  <p>What best describes how you currently feel?</p>
  </div>","0","html-slider-response","58","697303","0.0-5.0-4.9","34","1","2025-07-10 12:23:10","01610cd0009c79a99da7d0a3353eb402","85.246.21.29","Mozilla/5.0 (Windows NT 10.0; Win64; x64) AppleWebKit/537.36 (KHTML, like Gecko) Chrome/137.0.0.0 Safari/537.36","WebKit","Chrome","137.0.0.0","Windows","10.0","https://app.prolific.com/","pt-PT,pt;q=0.9,en-US;q=0.8,en;q=0.7","65a93241fc1ee8c40991a861","683db7602f5db6a34d12d064","686fb0a5867e7bdf4519aeaf","1","65a93241fc1ee8c40991a861","1","2025-07-10T12:34:47.144Z","","","","","","","","","","","MotivationQ","","50","","","","","","","","","","","","","","","","","","","","","","","","","","","","",""
"","","","","ctl-task-cpt","59","760130","0.0-5.0-0.10","34","1","2025-07-10 12:23:10","01610cd0009c79a99da7d0a3353eb402","85.246.21.29","Mozilla/5.0 (Windows NT 10.0; Win64; x64) AppleWebKit/537.36 (KHTML, like Gecko) Chrome/137.0.0.0 Safari/537.36","WebKit","Chrome","137.0.0.0","Windows","10.0","https://app.prolific.com/","pt-PT,pt;q=0.9,en-US;q=0.8,en;q=0.7","65a93241fc1ee8c40991a861","683db7602f5db6a34d12d064","686fb0a5867e7bdf4519aeaf","1","65a93241fc1ee8c40991a861","1","2025-07-10T12:35:49.972Z","","","","","","","","","","","","","","win-only","3","g1:SW,g2:NE","0.5","11","0","698548","749.4","5759.8","59798.8","1","4","4","6","2","4","4","22","18","0.16666666666666666","974.1","3000","360","[""up"",""right""]","{""num_key_presses"":14,""num_perfect"":7,""num_errors"":0,""num_randdir"":7,""num_randdir_good_moves"":3,""num_whilered"":0,""num_whileblue"":0,""num_blue"":3,""num_good_moves"":10}","[419.57142857142856,423.47767857142856,0.1,419.57142857142856,423.47767857142856,105.3,419.57142857142856,423.47767857142856,207.9,419.57142857142856,423.47767857142856,314.7,247.57142857142856,597.4776785714286,424,141.57142857142856,688.4776785714286,524.3,186.57142857142856,665.4776785714286,632.9,718.5714285714286,130.47767857142856,740.3,767.5714285714286,101.47767857142857,842,767.5714285714286,101.47767857142857,949.7,767.5714285714286,101.47767857142857,1065.7,767.5714285714286,101.47767857142857,1174.4,767.5714285714286,101.47767857142857,1278.6,767.5714285714286,101.47767857142857,1380,767.5714285714286,101.47767857142857,1486.7,767.5714285714286,101.47767857142857,1590.2,767.5714285714286,101.47767857142857,1695.6,767.5714285714286,101.47767857142857,1797,767.5714285714286,101.47767857142857,1901.6,767.5714285714286,101.47767857142857,2003.1,767.5714285714286,101.47767857142857,2108.8,767.5714285714286,101.47767857142857,2209.1,767.5714285714286,101.47767857142857,2309.4,767.5714285714286,101.47767857142857,2414.3,767.5714285714286,101.47767857142857,2520.4,767.5714285714286,101.47767857142857,2625.7,767.5714285714286,101.47767857142857,2725.7,767.5714285714286,101.47767857142857,2828.6,767.5714285714286,101.47767857142857,2929,767.5714285714286,101.47767857142857,3040.1,767.5714285714286,101.47767857142857,3148.5,767.5714285714286,101.47767857142857,3255,767.5714285714286,101.47767857142857,3356.1,767.5714285714286,101.47767857142857,3462.6,767.5714285714286,101.47767857142857,3567.7,767.5714285714286,101.47767857142857,3669.4,767.5714285714286,101.47767857142857,3775.9,767.5714285714286,101.47767857142857,3880.8,767.5714285714286,101.47767857142857,3988.3,767.5714285714286,101.47767857142857,4095.4,767.5714285714286,101.47767857142857,4204.2,767.5714285714286,101.47767857142857,4307,767.5714285714286,101.47767857142857,4410,767.5714285714286,101.47767857142857,4513.7,767.5714285714286,101.47767857142857,4618.6,767.5714285714286,101.47767857142857,4720,767.5714285714286,101.47767857142857,4827.6,767.5714285714286,101.47767857142857,4935.4]","[1385.8,1385.8,1000,0,385.8,""oops"",""up"",""left"",""bad_move"",7601.3,6215,2454.4,4689.2,457.7,""oops"",""up"",""down"",""bad_move"",10865.4,3263.8,2876,7601.6,387.8,""smooth"",""up"",""up"",""good_move"",13753,2887.1,2513,10866,374.1,""smooth"",""up"",""up"",""good_move"",16641.5,2888.2,2542,13753.3,346.2,""oops"",""up"",""left"",""bad_move"",19794.3,3152.4,2779.7,16641.9,372.7,""smooth"",""up"",""up"",""good_move"",22945.8,3151.3,2755.5,19794.5,395.8,""oops"",""up"",""right"",""good_move"",26257.3,3311.3,2853.5,22946,457.8,""smooth"",""up"",""up"",""good_move"",29385.4,3127.9,2801.6,26257.5,326.3,""smooth"",""right"",""right"",""good_move"",32929.9,3544.4,3161.2,29385.5,383.2,""oops"",""right"",""left"",""bad_move"",40354.2,7423.9,2984.6,36947.3,422.3,""smooth"",""right"",""right"",""good_move"",47121.3,6766.9,2795.8,43918.3,407.2,""smooth"",""right"",""right"",""good_move"",50457.4,3335.9,2882.6,47121.5,453.3,""oops"",""right"",""right"",""good_move"",53833.3,3375.4,3003.6,50457.9,371.8,""oops"",""right"",""right"",""good_move""]","",""
"10019","","<div style=""width:500px;"">
  <p>What determined the result of this run?</p>
  </div>","0","html-slider-response","60","770151","0.0-5.0-1.10","34","1","2025-07-10 12:23:10","01610cd0009c79a99da7d0a3353eb402","85.246.21.29","Mozilla/5.0 (Windows NT 10.0; Win64; x64) AppleWebKit/537.36 (KHTML, like Gecko) Chrome/137.0.0.0 Safari/537.36","WebKit","Chrome","137.0.0.0","Windows","10.0","https://app.prolific.com/","pt-PT,pt;q=0.9,en-US;q=0.8,en;q=0.7","65a93241fc1ee8c40991a861","683db7602f5db6a34d12d064","686fb0a5867e7bdf4519aeaf","1","65a93241fc1ee8c40991a861","1","2025-07-10T12:35:59.992Z","","","","","","","","","","","AttribQ","","50","","","","","","","","","","","","","","","","","","","","","","","","","","","","",""
"1211","","<div style=""width:500px;"">
  <p>How much control did you have over the ball?</p>
  </div>","0","html-slider-response","61","771363","0.0-5.0-2.10","34","1","2025-07-10 12:23:10","01610cd0009c79a99da7d0a3353eb402","85.246.21.29","Mozilla/5.0 (Windows NT 10.0; Win64; x64) AppleWebKit/537.36 (KHTML, like Gecko) Chrome/137.0.0.0 Safari/537.36","WebKit","Chrome","137.0.0.0","Windows","10.0","https://app.prolific.com/","pt-PT,pt;q=0.9,en-US;q=0.8,en;q=0.7","65a93241fc1ee8c40991a861","683db7602f5db6a34d12d064","686fb0a5867e7bdf4519aeaf","1","65a93241fc1ee8c40991a861","1","2025-07-10T12:36:01.204Z","","","","","","","","","","","ControlQ","","50","","","","","","","","","","","","","","","","","","","","","","","","","","","","",""
"1169","","<div style=""width:500px;"">
  <p>How would you describe your current emotional state?</p>
  </div>","0","html-slider-response","62","772533","0.0-5.0-3.10","34","1","2025-07-10 12:23:10","01610cd0009c79a99da7d0a3353eb402","85.246.21.29","Mozilla/5.0 (Windows NT 10.0; Win64; x64) AppleWebKit/537.36 (KHTML, like Gecko) Chrome/137.0.0.0 Safari/537.36","WebKit","Chrome","137.0.0.0","Windows","10.0","https://app.prolific.com/","pt-PT,pt;q=0.9,en-US;q=0.8,en;q=0.7","65a93241fc1ee8c40991a861","683db7602f5db6a34d12d064","686fb0a5867e7bdf4519aeaf","1","65a93241fc1ee8c40991a861","1","2025-07-10T12:36:02.374Z","","","","","","","","","","","StressQ","","50","","","","","","","","","","","","","","","","","","","","","","","","","","","","",""
"1340","","<div style=""width:500px;"">
  <p>What best describes how you currently feel?</p>
  </div>","0","html-slider-response","63","773874","0.0-5.0-4.10","34","1","2025-07-10 12:23:10","01610cd0009c79a99da7d0a3353eb402","85.246.21.29","Mozilla/5.0 (Windows NT 10.0; Win64; x64) AppleWebKit/537.36 (KHTML, like Gecko) Chrome/137.0.0.0 Safari/537.36","WebKit","Chrome","137.0.0.0","Windows","10.0","https://app.prolific.com/","pt-PT,pt;q=0.9,en-US;q=0.8,en;q=0.7","65a93241fc1ee8c40991a861","683db7602f5db6a34d12d064","686fb0a5867e7bdf4519aeaf","1","65a93241fc1ee8c40991a861","1","2025-07-10T12:36:03.715Z","","","","","","","","","","","MotivationQ","","50","","","","","","","","","","","","","","","","","","","","","","","","","","","","",""
"","","","","ctl-task-cpt","64","839775","0.0-5.0-0.11","34","1","2025-07-10 12:23:10","01610cd0009c79a99da7d0a3353eb402","85.246.21.29","Mozilla/5.0 (Windows NT 10.0; Win64; x64) AppleWebKit/537.36 (KHTML, like Gecko) Chrome/137.0.0.0 Safari/537.36","WebKit","Chrome","137.0.0.0","Windows","10.0","https://app.prolific.com/","pt-PT,pt;q=0.9,en-US;q=0.8,en;q=0.7","65a93241fc1ee8c40991a861","683db7602f5db6a34d12d064","686fb0a5867e7bdf4519aeaf","1","65a93241fc1ee8c40991a861","1","2025-07-10T12:37:09.616Z","","","","","","","","","","","","","","win-only","3","g1:SW,g2:NE","0.6","12","0","775119.4","1008.3","6014.6","62883.3","1","4","8","6","2","8","7","29","22","0.2196969696969697","898.7","3000","880","[""up"",""right""]","{""num_key_presses"":13,""num_perfect"":7,""num_errors"":1,""num_randdir"":5,""num_randdir_good_moves"":2,""num_whilered"":0,""num_whileblue"":0,""num_blue"":5,""num_good_moves"":9}","[423.57142857142856,412.47767857142856,0.1,423.57142857142856,412.47767857142856,108.1,423.57142857142856,412.47767857142856,212.5,422.57142857142856,412.47767857142856,324.2,254.57142857142856,523.4776785714286,437.6,187.57142857142856,577.4776785714286,546.2,333.57142857142856,401.47767857142856,651.6,766.5714285714286,103.47767857142857,762.5,806.5714285714286,66.47767857142857,864.1,806.5714285714286,66.47767857142857,970.4,806.5714285714286,66.47767857142857,1073,806.5714285714286,66.47767857142857,1174.2,806.5714285714286,66.47767857142857,1276.6,806.5714285714286,66.47767857142857,1381,806.5714285714286,66.47767857142857,1483.1,806.5714285714286,66.47767857142857,1592.6,806.5714285714286,66.47767857142857,1695.3,806.5714285714286,66.47767857142857,1798.5,806.5714285714286,66.47767857142857,1910.1,806.5714285714286,66.47767857142857,2014.5,806.5714285714286,66.47767857142857,2117.7,806.5714285714286,66.47767857142857,2232.1,806.5714285714286,66.47767857142857,2343.7,806.5714285714286,66.47767857142857,2451.5,806.5714285714286,66.47767857142857,2559.6,806.5714285714286,66.47767857142857,2662.7,806.5714285714286,66.47767857142857,2763.9,806.5714285714286,66.47767857142857,2865.4,806.5714285714286,66.47767857142857,2970,806.5714285714286,66.47767857142857,3074.5,806.5714285714286,66.47767857142857,3176.3,806.5714285714286,66.47767857142857,3282,806.5714285714286,66.47767857142857,3389.3,806.5714285714286,66.47767857142857,3495.9,806.5714285714286,66.47767857142857,3599.4,806.5714285714286,66.47767857142857,3707.5,806.5714285714286,66.47767857142857,3809.2,806.5714285714286,66.47767857142857,3914.3,806.5714285714286,66.47767857142857,4023.2,806.5714285714286,66.47767857142857,4128.9,806.5714285714286,66.47767857142857,4233.6,806.5714285714286,66.47767857142857,4337.7,806.5714285714286,66.47767857142857,4443.4,806.5714285714286,66.47767857142857,4548.6,806.5714285714286,66.47767857142857,4651.8,806.5714285714286,66.47767857142857,4759.3,806.5714285714286,66.47767857142857,4866.8,806.5714285714286,66.47767857142857,4975.6]","[383.9,383.9,1000,0,-616.1,""error"",""-"",""-"",""no_move"",7766.7,7382.6,1896.8,5455,414.9,""smooth"",""right"",""right"",""good_move"",11582.9,3815.8,3338,7767.1,477.8,""smooth"",""right"",""right"",""good_move"",14622.7,3039.5,2630.8,11583.2,408.7,""smooth"",""right"",""right"",""good_move"",18567.2,3944.4,3576.6,14622.8,367.8,""smooth"",""up"",""up"",""good_move"",24903.6,6335.9,2858,21713.5,332.1,""oops"",""up"",""up"",""good_move"",28031.3,3127.5,2646.1,24903.9,481.4,""oops"",""up"",""left"",""bad_move"",31087.7,3056,2667.1,28031.7,388.9,""smooth"",""right"",""right"",""good_move"",34358.8,3270.6,2952,31088.2,318.6,""oops"",""up"",""left"",""bad_move"",40790.7,6431.9,2838.7,37586.3,365.8,""oops"",""right"",""left"",""bad_move"",47182.3,6391.4,2465.7,44219.9,496.7,""smooth"",""up"",""up"",""good_move"",54110.8,6928.2,1899.6,51754.9,456.3,""oops"",""right"",""right"",""good_move"",56694.9,2583.8,2162,54111.1,421.8,""smooth"",""right"",""right"",""good_move""]","",""
"57129","","<div style=""width:500px;"">
  <p>What determined the result of this run?</p>
  </div>","0","html-slider-response","65","896906","0.0-5.0-1.11","34","1","2025-07-10 12:23:10","01610cd0009c79a99da7d0a3353eb402","85.246.21.29","Mozilla/5.0 (Windows NT 10.0; Win64; x64) AppleWebKit/537.36 (KHTML, like Gecko) Chrome/137.0.0.0 Safari/537.36","WebKit","Chrome","137.0.0.0","Windows","10.0","https://app.prolific.com/","pt-PT,pt;q=0.9,en-US;q=0.8,en;q=0.7","65a93241fc1ee8c40991a861","683db7602f5db6a34d12d064","686fb0a5867e7bdf4519aeaf","1","65a93241fc1ee8c40991a861","1","2025-07-10T12:38:06.747Z","","","","","","","","","","","AttribQ","","50","","","","","","","","","","","","","","","","","","","","","","","","","","","","",""
"4623","","<div style=""width:500px;"">
  <p>How much control did you have over the ball?</p>
  </div>","0","html-slider-response","66","901531","0.0-5.0-2.11","34","1","2025-07-10 12:23:10","01610cd0009c79a99da7d0a3353eb402","85.246.21.29","Mozilla/5.0 (Windows NT 10.0; Win64; x64) AppleWebKit/537.36 (KHTML, like Gecko) Chrome/137.0.0.0 Safari/537.36","WebKit","Chrome","137.0.0.0","Windows","10.0","https://app.prolific.com/","pt-PT,pt;q=0.9,en-US;q=0.8,en;q=0.7","65a93241fc1ee8c40991a861","683db7602f5db6a34d12d064","686fb0a5867e7bdf4519aeaf","1","65a93241fc1ee8c40991a861","1","2025-07-10T12:38:11.372Z","","","","","","","","","","","ControlQ","","50","","","","","","","","","","","","","","","","","","","","","","","","","","","","",""
"1676","","<div style=""width:500px;"">
  <p>How would you describe your current emotional state?</p>
  </div>","0","html-slider-response","67","903208","0.0-5.0-3.11","34","1","2025-07-10 12:23:10","01610cd0009c79a99da7d0a3353eb402","85.246.21.29","Mozilla/5.0 (Windows NT 10.0; Win64; x64) AppleWebKit/537.36 (KHTML, like Gecko) Chrome/137.0.0.0 Safari/537.36","WebKit","Chrome","137.0.0.0","Windows","10.0","https://app.prolific.com/","pt-PT,pt;q=0.9,en-US;q=0.8,en;q=0.7","65a93241fc1ee8c40991a861","683db7602f5db6a34d12d064","686fb0a5867e7bdf4519aeaf","1","65a93241fc1ee8c40991a861","1","2025-07-10T12:38:13.049Z","","","","","","","","","","","StressQ","","50","","","","","","","","","","","","","","","","","","","","","","","","","","","","",""
"2257","","<div style=""width:500px;"">
  <p>What best describes how you currently feel?</p>
  </div>","0","html-slider-response","68","905467","0.0-5.0-4.11","34","1","2025-07-10 12:23:10","01610cd0009c79a99da7d0a3353eb402","85.246.21.29","Mozilla/5.0 (Windows NT 10.0; Win64; x64) AppleWebKit/537.36 (KHTML, like Gecko) Chrome/137.0.0.0 Safari/537.36","WebKit","Chrome","137.0.0.0","Windows","10.0","https://app.prolific.com/","pt-PT,pt;q=0.9,en-US;q=0.8,en;q=0.7","65a93241fc1ee8c40991a861","683db7602f5db6a34d12d064","686fb0a5867e7bdf4519aeaf","1","65a93241fc1ee8c40991a861","1","2025-07-10T12:38:15.308Z","","","","","","","","","","","MotivationQ","","50","","","","","","","","","","","","","","","","","","","","","","","","","","","","",""
"","","","","ctl-task-cpt","69","939741","0.0-5.0-0.12","34","1","2025-07-10 12:23:10","01610cd0009c79a99da7d0a3353eb402","85.246.21.29","Mozilla/5.0 (Windows NT 10.0; Win64; x64) AppleWebKit/537.36 (KHTML, like Gecko) Chrome/137.0.0.0 Safari/537.36","WebKit","Chrome","137.0.0.0","Windows","10.0","https://app.prolific.com/","pt-PT,pt;q=0.9,en-US;q=0.8,en;q=0.7","65a93241fc1ee8c40991a861","683db7602f5db6a34d12d064","686fb0a5867e7bdf4519aeaf","1","65a93241fc1ee8c40991a861","1","2025-07-10T12:38:49.582Z","","","","","","","","","","","","","","win-only","3","g1:SW,g2:NE","0.7","13","0","906712","874.4","5877","31249.7","1","4","4","6","2","4","4","33","29","0.25","718.6","3000","1185","[""up"",""right""]","{""num_key_presses"":8,""num_perfect"":6,""num_errors"":0,""num_randdir"":2,""num_randdir_good_moves"":1,""num_whilered"":0,""num_whileblue"":0,""num_blue"":1,""num_good_moves"":7}","[418.57142857142856,419.47767857142856,0.1,418.57142857142856,419.47767857142856,100.3,418.57142857142856,419.47767857142856,200.3,418.57142857142856,419.47767857142856,300.7,418.57142857142856,419.47767857142856,400.7,523.5714285714286,339.47767857142856,513.2,740.5714285714286,129.47767857142856,628.3,755.5714285714286,107.47767857142857,739.1,755.5714285714286,107.47767857142857,839.4,754.5714285714286,109.47767857142857,949,735.5714285714286,166.47767857142856,1049,740.5714285714286,253.47767857142856,1151.2,736.5714285714286,263.47767857142856,1254.7,736.5714285714286,263.47767857142856,1367.9,736.5714285714286,263.47767857142856,1468.2,736.5714285714286,263.47767857142856,1573,736.5714285714286,263.47767857142856,1676.1,736.5714285714286,263.47767857142856,1776.8,736.5714285714286,263.47767857142856,1887.3,736.5714285714286,263.47767857142856,1995.9,736.5714285714286,263.47767857142856,2104.5,736.5714285714286,263.47767857142856,2207.8,736.5714285714286,263.47767857142856,2318.6,736.5714285714286,263.47767857142856,2427.9,736.5714285714286,263.47767857142856,2536.7,736.5714285714286,263.47767857142856,2640.7,736.5714285714286,263.47767857142856,2747.5,736.5714285714286,263.47767857142856,2850.3,736.5714285714286,263.47767857142856,2951.6,736.5714285714286,263.47767857142856,3060.6,736.5714285714286,263.47767857142856,3164.2,736.5714285714286,263.47767857142856,3270.6,736.5714285714286,263.47767857142856,3381,736.5714285714286,263.47767857142856,3484.6,736.5714285714286,263.47767857142856,3590.5,736.5714285714286,263.47767857142856,3698.3,736.5714285714286,263.47767857142856,3803.6,736.5714285714286,263.47767857142856,3904.2,736.5714285714286,263.47767857142856,4012.9,736.5714285714286,263.47767857142856,4113.5,736.5714285714286,263.47767857142856,4223.3,736.5714285714286,263.47767857142856,4330.7,736.5714285714286,263.47767857142856,4439.4,736.5714285714286,263.47767857142856,4542,736.5714285714286,263.47767857142856,4648.5,736.5714285714286,263.47767857142856,4758,736.5714285714286,263.47767857142856,4867.7,736.5714285714286,263.47767857142856,4977.8]","[1519.2,1519.2,1000,0,519.2,""oops"",""right"",""right"",""good_move"",4087.6,2568.2,2086.5,1519.4,481.7,""oops"",""up"",""down"",""bad_move"",7335.8,3248,2874.2,4087.8,373.8,""smooth"",""up"",""up"",""good_move"",9559.5,2223.5,1292.5,7336,931.1,""smooth"",""up"",""up"",""good_move"",11687.2,2127.5,1757.3,9559.7,370.2,""smooth"",""up"",""up"",""good_move"",15303.8,3616.6,3240,11687.2,376.6,""smooth"",""up"",""up"",""good_move"",22471.7,7167.7,3243.1,18817.7,410.9,""smooth"",""right"",""right"",""good_move"",25191.6,2719.6,2212,22472,507.7,""smooth"",""right"",""right"",""good_move""]","",""
"51661","","<div style=""width:500px;"">
  <p>What determined the result of this run?</p>
  </div>","0","html-slider-response","70","991403","0.0-5.0-1.12","34","1","2025-07-10 12:23:10","01610cd0009c79a99da7d0a3353eb402","85.246.21.29","Mozilla/5.0 (Windows NT 10.0; Win64; x64) AppleWebKit/537.36 (KHTML, like Gecko) Chrome/137.0.0.0 Safari/537.36","WebKit","Chrome","137.0.0.0","Windows","10.0","https://app.prolific.com/","pt-PT,pt;q=0.9,en-US;q=0.8,en;q=0.7","65a93241fc1ee8c40991a861","683db7602f5db6a34d12d064","686fb0a5867e7bdf4519aeaf","1","65a93241fc1ee8c40991a861","1","2025-07-10T12:39:41.244Z","","","","","","","","","","","AttribQ","","50","","","","","","","","","","","","","","","","","","","","","","","","","","","","",""
"1274","","<div style=""width:500px;"">
  <p>How much control did you have over the ball?</p>
  </div>","0","html-slider-response","71","992680","0.0-5.0-2.12","34","1","2025-07-10 12:23:10","01610cd0009c79a99da7d0a3353eb402","85.246.21.29","Mozilla/5.0 (Windows NT 10.0; Win64; x64) AppleWebKit/537.36 (KHTML, like Gecko) Chrome/137.0.0.0 Safari/537.36","WebKit","Chrome","137.0.0.0","Windows","10.0","https://app.prolific.com/","pt-PT,pt;q=0.9,en-US;q=0.8,en;q=0.7","65a93241fc1ee8c40991a861","683db7602f5db6a34d12d064","686fb0a5867e7bdf4519aeaf","1","65a93241fc1ee8c40991a861","1","2025-07-10T12:39:42.521Z","","","","","","","","","","","ControlQ","","50","","","","","","","","","","","","","","","","","","","","","","","","","","","","",""
"1732","","<div style=""width:500px;"">
  <p>How would you describe your current emotional state?</p>
  </div>","0","html-slider-response","72","994413","0.0-5.0-3.12","34","1","2025-07-10 12:23:10","01610cd0009c79a99da7d0a3353eb402","85.246.21.29","Mozilla/5.0 (Windows NT 10.0; Win64; x64) AppleWebKit/537.36 (KHTML, like Gecko) Chrome/137.0.0.0 Safari/537.36","WebKit","Chrome","137.0.0.0","Windows","10.0","https://app.prolific.com/","pt-PT,pt;q=0.9,en-US;q=0.8,en;q=0.7","65a93241fc1ee8c40991a861","683db7602f5db6a34d12d064","686fb0a5867e7bdf4519aeaf","1","65a93241fc1ee8c40991a861","1","2025-07-10T12:39:44.254Z","","","","","","","","","","","StressQ","","50","","","","","","","","","","","","","","","","","","","","","","","","","","","","",""
"41549","","<div style=""width:500px;"">
  <p>What best describes how you currently feel?</p>
  </div>","0","html-slider-response","73","1035963","0.0-5.0-4.12","34","1","2025-07-10 12:23:10","01610cd0009c79a99da7d0a3353eb402","85.246.21.29","Mozilla/5.0 (Windows NT 10.0; Win64; x64) AppleWebKit/537.36 (KHTML, like Gecko) Chrome/137.0.0.0 Safari/537.36","WebKit","Chrome","137.0.0.0","Windows","10.0","https://app.prolific.com/","pt-PT,pt;q=0.9,en-US;q=0.8,en;q=0.7","65a93241fc1ee8c40991a861","683db7602f5db6a34d12d064","686fb0a5867e7bdf4519aeaf","1","65a93241fc1ee8c40991a861","1","2025-07-10T12:40:25.804Z","","","","","","","","","","","MotivationQ","","50","","","","","","","","","","","","","","","","","","","","","","","","","","","","",""
"","","","","ctl-task-cpt","74","1065389","0.0-5.0-0.13","34","1","2025-07-10 12:23:10","01610cd0009c79a99da7d0a3353eb402","85.246.21.29","Mozilla/5.0 (Windows NT 10.0; Win64; x64) AppleWebKit/537.36 (KHTML, like Gecko) Chrome/137.0.0.0 Safari/537.36","WebKit","Chrome","137.0.0.0","Windows","10.0","https://app.prolific.com/","pt-PT,pt;q=0.9,en-US;q=0.8,en;q=0.7","65a93241fc1ee8c40991a861","683db7602f5db6a34d12d064","686fb0a5867e7bdf4519aeaf","1","65a93241fc1ee8c40991a861","1","2025-07-10T12:40:55.230Z","","","","","","","","","","","","","","win-only","1","g1:NE,g2:SW","0.8","14","0","1037208.8","1747.7","6756.1","26405.8","1","4","8","6","2","8","8","41","33","0.3106060606060606","942.7","3000","1720","[""down"",""left""]","{""num_key_presses"":6,""num_perfect"":5,""num_errors"":0,""num_randdir"":1,""num_randdir_good_moves"":1,""num_whilered"":0,""num_whileblue"":0,""num_blue"":1,""num_good_moves"":6}","[414.57142857142856,414.47767857142856,0.3,414.57142857142856,414.47767857142856,114.1,414.57142857142856,414.47767857142856,232.1,414.57142857142856,414.47767857142856,350,418.57142857142856,409.47767857142856,472.1,308.57142857142856,498.47767857142856,575.2,-6.428571428571431,822.4776785714286,678,5.571428571428569,815.4776785714286,778.7,22.57142857142857,800.4776785714286,900.2,36.57142857142857,788.4776785714286,1023.5,36.57142857142857,788.4776785714286,1145.9,36.57142857142857,788.4776785714286,1262.8,36.57142857142857,788.4776785714286,1364.2,36.57142857142857,788.4776785714286,1486.3,36.57142857142857,788.4776785714286,1604,36.57142857142857,788.4776785714286,1721.9,36.57142857142857,788.4776785714286,1840.9,36.57142857142857,788.4776785714286,1959,36.57142857142857,788.4776785714286,2081,36.57142857142857,788.4776785714286,2198.4,36.57142857142857,788.4776785714286,2316.4,36.57142857142857,788.4776785714286,2434.7,36.57142857142857,788.4776785714286,2550.1,36.57142857142857,788.4776785714286,2667.4,36.57142857142857,788.4776785714286,2786.2,36.57142857142857,788.4776785714286,2904.8,36.57142857142857,788.4776785714286,3023.1,36.57142857142857,788.4776785714286,3139.5,36.57142857142857,788.4776785714286,3256.4,36.57142857142857,788.4776785714286,3374.6,36.57142857142857,788.4776785714286,3492.4,36.57142857142857,788.4776785714286,3610.3,36.57142857142857,788.4776785714286,3728.2,36.57142857142857,788.4776785714286,3845.2,36.57142857142857,788.4776785714286,3964.7,36.57142857142857,788.4776785714286,4081.7,36.57142857142857,788.4776785714286,4200.4,36.57142857142857,788.4776785714286,4317.9,36.57142857142857,788.4776785714286,4434.9,36.57142857142857,788.4776785714286,4557,36.57142857142857,788.4776785714286,4674.8,36.57142857142857,788.4776785714286,4782.9,36.57142857142857,788.4776785714286,4891.4,36.57142857142857,788.4776785714286,4997.8]","[1527,1527,1000,0,527.1,""smooth"",""down"",""down"",""good_move"",4935.3,3408,2697.1,1527.3,710.9,""smooth"",""down"",""down"",""good_move"",8023.1,3087.6,2708.7,4935.5,378.9,""oops"",""left"",""left"",""good_move"",10823.3,2799.7,2415.8,8023.6,383.9,""smooth"",""down"",""down"",""good_move"",13487.1,2663.7,2251.3,10823.4,412.4,""smooth"",""left"",""left"",""good_move"",19454.9,5967.7,2238.7,16821.6,394.6,""smooth"",""left"",""left"",""good_move""]","",""
"1504","","<div style=""width:500px;"">
  <p>What determined the result of this run?</p>
