"rt","response_timestamp","stimulus","response","trial_type","trial_index","time_elapsed","internal_node_id","run_id","condition","recorded_at","source_code_version","ip","user_agent","device","browser","browser_version","platform","platform_version","referer","accept_language","PROLIFIC_PID","STUDY_ID","SESSION_ID","WEEK","prolific_id","week","realtime","success","responses","item_order","radio_event_ids","radio_event_times","key_event_times","mouse_event_times","straightlining","zigzagging","honeypot","eventType","view_history","slider_start","which_type","canvas_config","goals_layout","control_level","trial_number","tutorial_trial_number","trial_start_time","phase1_start_time","phase2_start_time","phase3_start_time","goal_1_value","goal_1_distance","goal_2_value","goal_2_distance","goal_selected","outcome","outcome_total","participant_final_score","participant_initial_score","participant_final_score_prop","goal_choice_rt","allocated_time","allocated_time_remaining","goal_direction","counts","mouse_movements","key_presses","question_order","question_id"
"2106","1752050375184","<p style='font-size:40px;line-height:1.25'><strong>Welcome to the experiment!</strong></p><p style='font-size:1.1em;line-height:1.25'>Thank you for participanting in our experiment again! You will be asked to play the Dysfunctional Ball Game again. We will briefly recap the rules before we start.</p><p style='font-size:1.1em;line-height:1.25'>Press <strong>Next</strong> to continue.</p>","0","custom-html-button-response","0","2109","0.0-0.0","10","1","2025-07-09 08:39:30","01610cd0009c79a99da7d0a3353eb402","2.84.221.131","Mozilla/5.0 (Windows NT 10.0; Win64; x64) AppleWebKit/537.36 (KHTML, like Gecko) Chrome/138.0.0.0 Safari/537.36","WebKit","Chrome","138.0.0.0","Windows","10.0","https://app.prolific.com/","en-GB,en;q=0.9,bg-BG;q=0.8,bg;q=0.7,en-US;q=0.6","615d8873c11a1982c8838b54","683db7602f5db6a34d12d064","686e2ab8e764ff0a5cf1aa86","1","615d8873c11a1982c8838b54","1","2025-07-09T08:39:35.185Z","","","","","","","","","","","","","","","","","","","","","","","","","","","","","","","","","","","","","","","","","",""
"19269","","","","fullscreen","1","22398","0.0-1.0","10","1","2025-07-09 08:39:30","01610cd0009c79a99da7d0a3353eb402","2.84.221.131","Mozilla/5.0 (Windows NT 10.0; Win64; x64) AppleWebKit/537.36 (KHTML, like Gecko) Chrome/138.0.0.0 Safari/537.36","WebKit","Chrome","138.0.0.0","Windows","10.0","https://app.prolific.com/","en-GB,en;q=0.9,bg-BG;q=0.8,bg;q=0.7,en-US;q=0.6","615d8873c11a1982c8838b54","683db7602f5db6a34d12d064","686e2ab8e764ff0a5cf1aa86","1","615d8873c11a1982c8838b54","1","","true","","","","","","","","","","","","","","","","","","","","","","","","","","","","","","","","","","","","","","","","",""
"6425","1752050401900","<p style='font-size:1.1em;line-height:1.25'>In the following, we will ask you a few questions relating to your feelings in the last 24 hours.<br></p><p style='font-size:1.1em;line-height:1.25'>Press the <strong>Next</strong> button to continue.</p>","0","custom-html-button-response","2","28825","0.0-2.0-0.0","10","1","2025-07-09 08:39:30","01610cd0009c79a99da7d0a3353eb402","2.84.221.131","Mozilla/5.0 (Windows NT 10.0; Win64; x64) AppleWebKit/537.36 (KHTML, like Gecko) Chrome/138.0.0.0 Safari/537.36","WebKit","Chrome","138.0.0.0","Windows","10.0","https://app.prolific.com/","en-GB,en;q=0.9,bg-BG;q=0.8,bg;q=0.7,en-US;q=0.6","615d8873c11a1982c8838b54","683db7602f5db6a34d12d064","686e2ab8e764ff0a5cf1aa86","1","615d8873c11a1982c8838b54","1","2025-07-09T08:40:01.901Z","","","","","","","","","","","","","","","","","","","","","","","","","","","","","","","","","","","","","","","","","",""
"89122.09999996424","","","","survey-template","3","117956","0.0-2.0-1.0","10","1","2025-07-09 08:39:30","01610cd0009c79a99da7d0a3353eb402","2.84.221.131","Mozilla/5.0 (Windows NT 10.0; Win64; x64) AppleWebKit/537.36 (KHTML, like Gecko) Chrome/138.0.0.0 Safari/537.36","WebKit","Chrome","138.0.0.0","Windows","10.0","https://app.prolific.com/","en-GB,en;q=0.9,bg-BG;q=0.8,bg;q=0.7,en-US;q=0.6","615d8873c11a1982c8838b54","683db7602f5db6a34d12d064","686e2ab8e764ff0a5cf1aa86","1","615d8873c11a1982c8838b54","1","2025-07-09T08:41:31.032Z","","{""Q01"":""1"",""Q02"":""1"",""Q03"":""0"",""Q04"":""1"",""Q05"":""2"",""Q06"":""1"",""Q07"":""2"",""Q08"":""0"",""Q09"":""2"",""Q10"":""2"",""Q11"":""3"",""Q12"":""0"",""Q13"":""5"",""Q14"":""0"",""Q15"":""3"",""Q16"":""2"",""Q17"":""3"",""Q18"":""1"",""Q19"":""2"",""Q20"":""2"",""Q21"":""2"",""Q22"":""0""}","[0,1,2,3,4,5,6,7,8,9,10,11,12,13,14,15,16,17,18,19,20,21]","[""Q01"",""Q02"",""Q04"",""Q05"",""Q06"",""Q07"",""Q08"",""Q09"",""Q10"",""Q11"",""Q12"",""Q13"",""Q14"",""Q15"",""Q16"",""Q17"",""Q18"",""Q19"",""Q20"",""Q21"",""Q22"",""Q03""]","[5021.099999964237,6210.800000011921,9995.5,12875.699999988079,15822.099999964237,20668.30000001192,23420.5,26869.30000001192,29471.19999998808,31836.69999998808,35473.39999997616,37940.59999996424,40569.30000001192,45174,50309.80000001192,52494.89999997616,55966.09999996424,61963.80000001192,68959.89999997616,75863.59999996424,79803.69999998808,86465.19999998808]","[]","[0.09999996423721313,5021.099999964237,6210.800000011921,7849,9995.5,12875.699999988079,15822.099999964237,20668.30000001192,23420.5,26869.30000001192,29471.19999998808,31836.69999998808,35473.39999997616,37940.59999996424,40569.30000001192,45174,50309.80000001192,52494.89999997616,55966.09999996424,61963.80000001192,68959.89999997616,75863.59999996424,79803.69999998808,81683,86465.19999998808,89119.69999998808]","0.36363636363636365","0.5238095238095238","0","drsp","","","","","","","","","","","","","","","","","","","","","","","","","","","","","","",""
"16742.200000047684","","","","survey-template","4","134700","0.0-2.0-2.0","10","1","2025-07-09 08:39:30","01610cd0009c79a99da7d0a3353eb402","2.84.221.131","Mozilla/5.0 (Windows NT 10.0; Win64; x64) AppleWebKit/537.36 (KHTML, like Gecko) Chrome/138.0.0.0 Safari/537.36","WebKit","Chrome","138.0.0.0","Windows","10.0","https://app.prolific.com/","en-GB,en;q=0.9,bg-BG;q=0.8,bg;q=0.7,en-US;q=0.6","615d8873c11a1982c8838b54","683db7602f5db6a34d12d064","686e2ab8e764ff0a5cf1aa86","1","615d8873c11a1982c8838b54","1","2025-07-09T08:41:47.776Z","","{""Q01"":""1"",""Q02"":""2"",""Q03"":""2""}","[0,1,2]","[""Q01"",""Q02"",""Q03""]","[4584.600000023842,11288.600000023842,15239.200000047684]","[]","[4584.600000023842,11288.600000023842,15239.200000047684,16741.600000023842]","0.3333333333333333","0.5","0","stress","","","","","","","","","","","","","","","","","","","","","","","","","","","","","","",""
"66226","","","","instructions","5","200928","0.0-3.0-0.0","10","1","2025-07-09 08:39:30","01610cd0009c79a99da7d0a3353eb402","2.84.221.131","Mozilla/5.0 (Windows NT 10.0; Win64; x64) AppleWebKit/537.36 (KHTML, like Gecko) Chrome/138.0.0.0 Safari/537.36","WebKit","Chrome","138.0.0.0","Windows","10.0","https://app.prolific.com/","en-GB,en;q=0.9,bg-BG;q=0.8,bg;q=0.7,en-US;q=0.6","615d8873c11a1982c8838b54","683db7602f5db6a34d12d064","686e2ab8e764ff0a5cf1aa86","1","615d8873c11a1982c8838b54","1","","","","","","","","","","","","","[{""page_index"":0,""viewing_time"":66226}]","","","","","","","","","","","","","","","","","","","","","","","","","","","","","",""
"5830","","<p>Before you start with this game please answer the following three questions yourself. </p>
  <p>Through this game, we measure several aspects of your cognitive performance, such as reaction times, multi-tasking capabilities </p>
  <p>and the ability to assess the situation you are in.</p>
  <p></p>
  <p><b>How good do you usually are in such tasks?</b></p>","100","html-slider-response","6","206761","0.0-4.0-0.0","10","1","2025-07-09 08:39:30","01610cd0009c79a99da7d0a3353eb402","2.84.221.131","Mozilla/5.0 (Windows NT 10.0; Win64; x64) AppleWebKit/537.36 (KHTML, like Gecko) Chrome/138.0.0.0 Safari/537.36","WebKit","Chrome","138.0.0.0","Windows","10.0","https://app.prolific.com/","en-GB,en;q=0.9,bg-BG;q=0.8,bg;q=0.7,en-US;q=0.6","615d8873c11a1982c8838b54","683db7602f5db6a34d12d064","686e2ab8e764ff0a5cf1aa86","1","615d8873c11a1982c8838b54","1","2025-07-09T08:42:59.837Z","","","","","","","","","","","PreSkillQ","","50","","","","","","","","","","","","","","","","","","","","","","","","","","","","",""
"5426","","<div style=""width:500px;"">
  <p>How well do you think you will perform in this task compared to other participants?</p>
  </div>","81","html-slider-response","7","212187","0.0-4.0-1.0","10","1","2025-07-09 08:39:30","01610cd0009c79a99da7d0a3353eb402","2.84.221.131","Mozilla/5.0 (Windows NT 10.0; Win64; x64) AppleWebKit/537.36 (KHTML, like Gecko) Chrome/138.0.0.0 Safari/537.36","WebKit","Chrome","138.0.0.0","Windows","10.0","https://app.prolific.com/","en-GB,en;q=0.9,bg-BG;q=0.8,bg;q=0.7,en-US;q=0.6","615d8873c11a1982c8838b54","683db7602f5db6a34d12d064","686e2ab8e764ff0a5cf1aa86","1","615d8873c11a1982c8838b54","1","2025-07-09T08:43:05.263Z","","","","","","","","","","","PrePerfQ","","50","","","","","","","","","","","","","","","","","","","","","","","","","","","","",""
"9344","","<div style=""width:500px;"">
  <p>What best describes how you currently feel?</p>
  </div>","20","html-slider-response","8","221532","0.0-4.0-2.0","10","1","2025-07-09 08:39:30","01610cd0009c79a99da7d0a3353eb402","2.84.221.131","Mozilla/5.0 (Windows NT 10.0; Win64; x64) AppleWebKit/537.36 (KHTML, like Gecko) Chrome/138.0.0.0 Safari/537.36","WebKit","Chrome","138.0.0.0","Windows","10.0","https://app.prolific.com/","en-GB,en;q=0.9,bg-BG;q=0.8,bg;q=0.7,en-US;q=0.6","615d8873c11a1982c8838b54","683db7602f5db6a34d12d064","686e2ab8e764ff0a5cf1aa86","1","615d8873c11a1982c8838b54","1","2025-07-09T08:43:14.608Z","","","","","","","","","","","PreMotivationQ","","50","","","","","","","","","","","","","","","","","","","","","","","","","","","","",""
"","","","","ctl-task-cpt","9","255890","0.0-5.0-0.0","10","1","2025-07-09 08:39:30","01610cd0009c79a99da7d0a3353eb402","2.84.221.131","Mozilla/5.0 (Windows NT 10.0; Win64; x64) AppleWebKit/537.36 (KHTML, like Gecko) Chrome/138.0.0.0 Safari/537.36","WebKit","Chrome","138.0.0.0","Windows","10.0","https://app.prolific.com/","en-GB,en;q=0.9,bg-BG;q=0.8,bg;q=0.7,en-US;q=0.6","615d8873c11a1982c8838b54","683db7602f5db6a34d12d064","686e2ab8e764ff0a5cf1aa86","1","615d8873c11a1982c8838b54","1","2025-07-09T08:43:48.966Z","","","","","","","","","","","","","","win-only","3","g1:SW,g2:NE","1","1","0","224387.7","4234.6","9236.1","31350.3","1","4","4","6","2","4","4","4","0","0.030303030303030304","918.4","3000","1140","[""up"",""right""]","{""num_key_presses"":6,""num_perfect"":6,""num_errors"":0,""num_randdir"":0,""num_randdir_good_moves"":0,""num_whilered"":0,""num_whileblue"":0,""num_blue"":2,""num_good_moves"":6}","[421.57142857142856,419.47767857142856,0.3,421.57142857142856,419.47767857142856,101.5,421.57142857142856,419.47767857142856,201.6,424.57142857142856,419.47767857142856,302.3,629.5714285714286,211.47767857142856,406.4,584.5714285714286,146.47767857142856,506.7,963.5714285714286,-13.52232142857143,611.8,913.5714285714286,13.47767857142857,719.2,777.5714285714286,75.47767857142857,822.2,769.5714285714286,78.47767857142857,926.6,768.5714285714286,78.47767857142857,1027,768.5714285714286,78.47767857142857,1135.9,768.5714285714286,78.47767857142857,1241.4,768.5714285714286,78.47767857142857,1352.1,768.5714285714286,78.47767857142857,1457.3,768.5714285714286,78.47767857142857,1561.7,768.5714285714286,78.47767857142857,1667.8,768.5714285714286,78.47767857142857,1771.2,768.5714285714286,78.47767857142857,1872,768.5714285714286,78.47767857142857,1977.6,768.5714285714286,78.47767857142857,2084.6,768.5714285714286,78.47767857142857,2186.1,768.5714285714286,78.47767857142857,2286.6,768.5714285714286,78.47767857142857,2386.8,768.5714285714286,78.47767857142857,2491.6,768.5714285714286,78.47767857142857,2591.8,768.5714285714286,78.47767857142857,2691.9,768.5714285714286,78.47767857142857,2801.6,768.5714285714286,78.47767857142857,2905.8,768.5714285714286,78.47767857142857,3006.8,768.5714285714286,78.47767857142857,3110.9,768.5714285714286,78.47767857142857,3211.5,768.5714285714286,78.47767857142857,3312.3,768.5714285714286,78.47767857142857,3418.7,768.5714285714286,78.47767857142857,3521.4,768.5714285714286,78.47767857142857,3626.1,768.5714285714286,78.47767857142857,3726.9,768.5714285714286,78.47767857142857,3835.3,768.5714285714286,78.47767857142857,3935.9,768.5714285714286,78.47767857142857,4036.4,768.5714285714286,78.47767857142857,4141.2,768.5714285714286,78.47767857142857,4241.2,768.5714285714286,78.47767857142857,4341.3,768.5714285714286,78.47767857142857,4441.6,768.5714285714286,78.47767857142857,4541.9,768.5714285714286,78.47767857142857,4651.1,768.5714285714286,78.47767857142857,4751.1,768.5714285714286,78.47767857142857,4851.9,768.5714285714286,78.47767857142857,4957.1]","[1381.2,1381.3,1000,0,381.3,""smooth"",""right"",""right"",""good_move"",2906.8,1525.2,1179.5,1381.6,345.7,""smooth"",""right"",""right"",""good_move"",9502.1,6595.1,2894.9,6316.1,291.1,""smooth"",""up"",""up"",""good_move"",11594.8,2092.4,1766.8,9502.4,325.6,""smooth"",""up"",""up"",""good_move"",18901,7306,2637.1,15919.6,344.3,""smooth"",""up"",""up"",""good_move"",22002.6,3101.4,2782.3,18901.2,319.1,""smooth"",""right"",""right"",""good_move""]","",""
"5246","","<div style=""width:500px;"">
  <p>What determined the result of this run?</p>
  </div>","100","html-slider-response","10","261137","0.0-5.0-1.0","10","1","2025-07-09 08:39:30","01610cd0009c79a99da7d0a3353eb402","2.84.221.131","Mozilla/5.0 (Windows NT 10.0; Win64; x64) AppleWebKit/537.36 (KHTML, like Gecko) Chrome/138.0.0.0 Safari/537.36","WebKit","Chrome","138.0.0.0","Windows","10.0","https://app.prolific.com/","en-GB,en;q=0.9,bg-BG;q=0.8,bg;q=0.7,en-US;q=0.6","615d8873c11a1982c8838b54","683db7602f5db6a34d12d064","686e2ab8e764ff0a5cf1aa86","1","615d8873c11a1982c8838b54","1","2025-07-09T08:43:54.213Z","","","","","","","","","","","AttribQ","","50","","","","","","","","","","","","","","","","","","","","","","","","","","","","",""
"4453","","<div style=""width:500px;"">
  <p>How much control did you have over the ball?</p>
  </div>","100","html-slider-response","11","265592","0.0-5.0-2.0","10","1","2025-07-09 08:39:30","01610cd0009c79a99da7d0a3353eb402","2.84.221.131","Mozilla/5.0 (Windows NT 10.0; Win64; x64) AppleWebKit/537.36 (KHTML, like Gecko) Chrome/138.0.0.0 Safari/537.36","WebKit","Chrome","138.0.0.0","Windows","10.0","https://app.prolific.com/","en-GB,en;q=0.9,bg-BG;q=0.8,bg;q=0.7,en-US;q=0.6","615d8873c11a1982c8838b54","683db7602f5db6a34d12d064","686e2ab8e764ff0a5cf1aa86","1","615d8873c11a1982c8838b54","1","2025-07-09T08:43:58.668Z","","","","","","","","","","","ControlQ","","50","","","","","","","","","","","","","","","","","","","","","","","","","","","","",""
"11331","","<div style=""width:500px;"">
  <p>How would you describe your current emotional state?</p>
  </div>","30","html-slider-response","12","276924","0.0-5.0-3.0","10","1","2025-07-09 08:39:30","01610cd0009c79a99da7d0a3353eb402","2.84.221.131","Mozilla/5.0 (Windows NT 10.0; Win64; x64) AppleWebKit/537.36 (KHTML, like Gecko) Chrome/138.0.0.0 Safari/537.36","WebKit","Chrome","138.0.0.0","Windows","10.0","https://app.prolific.com/","en-GB,en;q=0.9,bg-BG;q=0.8,bg;q=0.7,en-US;q=0.6","615d8873c11a1982c8838b54","683db7602f5db6a34d12d064","686e2ab8e764ff0a5cf1aa86","1","615d8873c11a1982c8838b54","1","2025-07-09T08:44:10.000Z","","","","","","","","","","","StressQ","","50","","","","","","","","","","","","","","","","","","","","","","","","","","","","",""
"8163","","<div style=""width:500px;"">
  <p>What best describes how you currently feel?</p>
  </div>","83","html-slider-response","13","285090","0.0-5.0-4.0","10","1","2025-07-09 08:39:30","01610cd0009c79a99da7d0a3353eb402","2.84.221.131","Mozilla/5.0 (Windows NT 10.0; Win64; x64) AppleWebKit/537.36 (KHTML, like Gecko) Chrome/138.0.0.0 Safari/537.36","WebKit","Chrome","138.0.0.0","Windows","10.0","https://app.prolific.com/","en-GB,en;q=0.9,bg-BG;q=0.8,bg;q=0.7,en-US;q=0.6","615d8873c11a1982c8838b54","683db7602f5db6a34d12d064","686e2ab8e764ff0a5cf1aa86","1","615d8873c11a1982c8838b54","1","2025-07-09T08:44:18.166Z","","","","","","","","","","","MotivationQ","","50","","","","","","","","","","","","","","","","","","","","","","","","","","","","",""
"","","","","ctl-task-cpt","14","316013","0.0-5.0-0.1","10","1","2025-07-09 08:39:30","01610cd0009c79a99da7d0a3353eb402","2.84.221.131","Mozilla/5.0 (Windows NT 10.0; Win64; x64) AppleWebKit/537.36 (KHTML, like Gecko) Chrome/138.0.0.0 Safari/537.36","WebKit","Chrome","138.0.0.0","Windows","10.0","https://app.prolific.com/","en-GB,en;q=0.9,bg-BG;q=0.8,bg;q=0.7,en-US;q=0.6","615d8873c11a1982c8838b54","683db7602f5db6a34d12d064","686e2ab8e764ff0a5cf1aa86","1","615d8873c11a1982c8838b54","1","2025-07-09T08:44:49.089Z","","","","","","","","","","","","","","win-only","0","g1:NW,g2:SE","0.9","2","0","287942.2","1515.4","6520.9","27916.5","1","4","8","6","2","8","7","11","4","0.08333333333333333","997","3000","1260","[""down"",""right""]","{""num_key_presses"":7,""num_perfect"":5,""num_errors"":1,""num_randdir"":1,""num_randdir_good_moves"":1,""num_whilered"":0,""num_whileblue"":0,""num_blue"":1,""num_good_moves"":6}","[414.57142857142856,420.47767857142856,0.2,414.57142857142856,420.47767857142856,101,414.57142857142856,420.47767857142856,201,414.57142857142856,420.47767857142856,301.3,379.57142857142856,389.47767857142856,406,425.57142857142856,345.47767857142856,506.7,656.5714285714286,652.4776785714286,619.2,678.5714285714286,708.4776785714286,720.6,678.5714285714286,718.4776785714286,821.6,696.5714285714286,728.4776785714286,925.6,714.5714285714286,736.4776785714286,1035.7,714.5714285714286,736.4776785714286,1152.3,714.5714285714286,736.4776785714286,1255.5,714.5714285714286,736.4776785714286,1355.9,714.5714285714286,736.4776785714286,1460.6,714.5714285714286,736.4776785714286,1568.9,714.5714285714286,736.4776785714286,1670.4,714.5714285714286,736.4776785714286,1770.6,714.5714285714286,736.4776785714286,1876.8,714.5714285714286,736.4776785714286,1984.2,714.5714285714286,736.4776785714286,2085,714.5714285714286,736.4776785714286,2190.1,714.5714285714286,736.4776785714286,2291.3,714.5714285714286,736.4776785714286,2391.6,714.5714285714286,736.4776785714286,2501.4,714.5714285714286,736.4776785714286,2606.2,714.5714285714286,736.4776785714286,2719,714.5714285714286,736.4776785714286,2820.9,714.5714285714286,736.4776785714286,2920.9,714.5714285714286,736.4776785714286,3026,714.5714285714286,736.4776785714286,3136,714.5714285714286,736.4776785714286,3236.9,714.5714285714286,736.4776785714286,3340.5,714.5714285714286,736.4776785714286,3451.6,714.5714285714286,736.4776785714286,3555.3,714.5714285714286,736.4776785714286,3655.9,714.5714285714286,736.4776785714286,3773.8,714.5714285714286,736.4776785714286,3876.3,714.5714285714286,736.4776785714286,3984.1,714.5714285714286,736.4776785714286,4084.4,714.5714285714286,736.4776785714286,4184.8,714.5714285714286,736.4776785714286,4285.4,714.5714285714286,736.4776785714286,4391.1,714.5714285714286,736.4776785714286,4500.8,714.5714285714286,736.4776785714286,4601.8,714.5714285714286,736.4776785714286,4705,714.5714285714286,736.4776785714286,4805,714.5714285714286,736.4776785714286,4905.6]","[1330,1329.9,1000,0.1,329.9,""smooth"",""down"",""down"",""good_move"",4495.8,3165.6,2812.2,1330.2,353.4,""smooth"",""down"",""down"",""good_move"",4762.4,266.3,2169.2,4496.1,-1902.9,""error"",""-"",""-"",""no_move"",12488.6,7726,2747.2,9365.1,376.3,""smooth"",""down"",""down"",""good_move"",15367.7,2878.9,2507.7,12488.9,371.2,""oops"",""right"",""right"",""good_move"",18438.4,3070.3,2699.1,15368.1,371.2,""smooth"",""right"",""right"",""good_move"",21296,2857.3,2544.7,18438.7,312.6,""smooth"",""right"",""right"",""good_move""]","",""
"3892","","<div style=""width:500px;"">
  <p>What determined the result of this run?</p>
  </div>","100","html-slider-response","15","319906","0.0-5.0-1.1","10","1","2025-07-09 08:39:30","01610cd0009c79a99da7d0a3353eb402","2.84.221.131","Mozilla/5.0 (Windows NT 10.0; Win64; x64) AppleWebKit/537.36 (KHTML, like Gecko) Chrome/138.0.0.0 Safari/537.36","WebKit","Chrome","138.0.0.0","Windows","10.0","https://app.prolific.com/","en-GB,en;q=0.9,bg-BG;q=0.8,bg;q=0.7,en-US;q=0.6","615d8873c11a1982c8838b54","683db7602f5db6a34d12d064","686e2ab8e764ff0a5cf1aa86","1","615d8873c11a1982c8838b54","1","2025-07-09T08:44:52.983Z","","","","","","","","","","","AttribQ","","50","","","","","","","","","","","","","","","","","","","","","","","","","","","","",""
"3199","","<div style=""width:500px;"">
  <p>How much control did you have over the ball?</p>
  </div>","100","html-slider-response","16","323107","0.0-5.0-2.1","10","1","2025-07-09 08:39:30","01610cd0009c79a99da7d0a3353eb402","2.84.221.131","Mozilla/5.0 (Windows NT 10.0; Win64; x64) AppleWebKit/537.36 (KHTML, like Gecko) Chrome/138.0.0.0 Safari/537.36","WebKit","Chrome","138.0.0.0","Windows","10.0","https://app.prolific.com/","en-GB,en;q=0.9,bg-BG;q=0.8,bg;q=0.7,en-US;q=0.6","615d8873c11a1982c8838b54","683db7602f5db6a34d12d064","686e2ab8e764ff0a5cf1aa86","1","615d8873c11a1982c8838b54","1","2025-07-09T08:44:56.183Z","","","","","","","","","","","ControlQ","","50","","","","","","","","","","","","","","","","","","","","","","","","","","","","",""
"3971","","<div style=""width:500px;"">
  <p>How would you describe your current emotional state?</p>
  </div>","33","html-slider-response","17","327079","0.0-5.0-3.1","10","1","2025-07-09 08:39:30","01610cd0009c79a99da7d0a3353eb402","2.84.221.131","Mozilla/5.0 (Windows NT 10.0; Win64; x64) AppleWebKit/537.36 (KHTML, like Gecko) Chrome/138.0.0.0 Safari/537.36","WebKit","Chrome","138.0.0.0","Windows","10.0","https://app.prolific.com/","en-GB,en;q=0.9,bg-BG;q=0.8,bg;q=0.7,en-US;q=0.6","615d8873c11a1982c8838b54","683db7602f5db6a34d12d064","686e2ab8e764ff0a5cf1aa86","1","615d8873c11a1982c8838b54","1","2025-07-09T08:45:00.155Z","","","","","","","","","","","StressQ","","50","","","","","","","","","","","","","","","","","","","","","","","","","","","","",""
"3923","","<div style=""width:500px;"">
  <p>What best describes how you currently feel?</p>
  </div>","77","html-slider-response","18","331003","0.0-5.0-4.1","10","1","2025-07-09 08:39:30","01610cd0009c79a99da7d0a3353eb402","2.84.221.131","Mozilla/5.0 (Windows NT 10.0; Win64; x64) AppleWebKit/537.36 (KHTML, like Gecko) Chrome/138.0.0.0 Safari/537.36","WebKit","Chrome","138.0.0.0","Windows","10.0","https://app.prolific.com/","en-GB,en;q=0.9,bg-BG;q=0.8,bg;q=0.7,en-US;q=0.6","615d8873c11a1982c8838b54","683db7602f5db6a34d12d064","686e2ab8e764ff0a5cf1aa86","1","615d8873c11a1982c8838b54","1","2025-07-09T08:45:04.079Z","","","","","","","","","","","MotivationQ","","50","","","","","","","","","","","","","","","","","","","","","","","","","","","","",""
"","","","","ctl-task-cpt","19","369623","0.0-5.0-0.2","10","1","2025-07-09 08:39:30","01610cd0009c79a99da7d0a3353eb402","2.84.221.131","Mozilla/5.0 (Windows NT 10.0; Win64; x64) AppleWebKit/537.36 (KHTML, like Gecko) Chrome/138.0.0.0 Safari/537.36","WebKit","Chrome","138.0.0.0","Windows","10.0","https://app.prolific.com/","en-GB,en;q=0.9,bg-BG;q=0.8,bg;q=0.7,en-US;q=0.6","615d8873c11a1982c8838b54","683db7602f5db6a34d12d064","686e2ab8e764ff0a5cf1aa86","1","615d8873c11a1982c8838b54","1","2025-07-09T08:45:42.699Z","","","","","","","","","","","","","","win-only","0","g1:NW,g2:SE","0.8","3","0","333855.6","1184.3","6187.2","35605.8","1","4","8","6","2","8","7","18","11","0.13636363636363635","715","3000","270","[""down"",""right""]","{""num_key_presses"":10,""num_perfect"":8,""num_errors"":1,""num_randdir"":1,""num_randdir_good_moves"":0,""num_whilered"":0,""num_whileblue"":1,""num_blue"":2,""num_good_moves"":8}","[419.57142857142856,412.47767857142856,0.4,419.57142857142856,413.47767857142856,114,419.57142857142856,414.47767857142856,214.8,415.57142857142856,420.47767857142856,316.6,590.5714285714286,517.4776785714286,423.8,787.5714285714286,730.4776785714286,531,797.5714285714286,766.4776785714286,635.2,798.5714285714286,768.4776785714286,739,795.5714285714286,765.4776785714286,842.6,794.5714285714286,764.4776785714286,946.2,794.5714285714286,764.4776785714286,1046.3,794.5714285714286,764.4776785714286,1152.9,794.5714285714286,764.4776785714286,1255.8,794.5714285714286,764.4776785714286,1356,794.5714285714286,764.4776785714286,1456.5,794.5714285714286,764.4776785714286,1561.9,794.5714285714286,764.4776785714286,1664,794.5714285714286,764.4776785714286,1764.4,794.5714285714286,764.4776785714286,1868.3,794.5714285714286,764.4776785714286,1972,794.5714285714286,764.4776785714286,2072.2,794.5714285714286,764.4776785714286,2178.8,794.5714285714286,764.4776785714286,2285.5,794.5714285714286,764.4776785714286,2387.9,794.5714285714286,764.4776785714286,2491.4,794.5714285714286,764.4776785714286,2591.6,794.5714285714286,764.4776785714286,2691.8,794.5714285714286,764.4776785714286,2800,794.5714285714286,764.4776785714286,2901.7,794.5714285714286,764.4776785714286,3001.7,794.5714285714286,764.4776785714286,3107.2,794.5714285714286,764.4776785714286,3214,794.5714285714286,764.4776785714286,3321.1,794.5714285714286,764.4776785714286,3422.9,794.5714285714286,764.4776785714286,3526.3,794.5714285714286,764.4776785714286,3635.5,794.5714285714286,764.4776785714286,3735.9,794.5714285714286,764.4776785714286,3837.5,794.5714285714286,764.4776785714286,3937.6,794.5714285714286,764.4776785714286,4041.1,794.5714285714286,764.4776785714286,4141.6,794.5714285714286,764.4776785714286,4242.8,794.5714285714286,764.4776785714286,4349.3,794.5714285714286,764.4776785714286,4451.8,794.5714285714286,764.4776785714286,4552.9,794.5714285714286,764.4776785714286,4656.4,794.5714285714286,764.4776785714286,4756.4,794.5714285714286,764.4776785714286,4864.8,794.5714285714286,764.4776785714286,4972.2]","[1302.9,1302.9,1000,0,302.9,""smooth"",""down"",""down"",""good_move"",3720.5,2417.3,2095.2,1303.2,322.1,""smooth"",""down"",""down"",""good_move"",5873,2152.2,1841.1,3720.8,311.1,""smooth"",""down"",""down"",""good_move"",8220.8,2347.5,2013.9,5873.3,333.6,""oops"",""right"",""up"",""bad_move"",11361.7,3140.5,2824.9,8221.2,315.6,""smooth"",""right"",""right"",""good_move"",17965,6603,2899.1,14715.2,350.7,""smooth"",""right"",""right"",""good_move"",20711.7,2746.6,2336.5,17965.1,410.1,""smooth"",""right"",""right"",""good_move"",23611.8,2899.8,2627.6,20712,272.2,""while_blue"",""down"",""up"",""bad_move"",26077.1,2465,2104.9,23612.1,360.1,""smooth"",""down"",""down"",""good_move"",29327.8,3250.5,2939.1,26077.3,311.4,""smooth"",""down"",""down"",""good_move""]","",""
"2869","","<div style=""width:500px;"">
  <p>What determined the result of this run?</p>
  </div>","100","html-slider-response","20","372493","0.0-5.0-1.2","10","1","2025-07-09 08:39:30","01610cd0009c79a99da7d0a3353eb402","2.84.221.131","Mozilla/5.0 (Windows NT 10.0; Win64; x64) AppleWebKit/537.36 (KHTML, like Gecko) Chrome/138.0.0.0 Safari/537.36","WebKit","Chrome","138.0.0.0","Windows","10.0","https://app.prolific.com/","en-GB,en;q=0.9,bg-BG;q=0.8,bg;q=0.7,en-US;q=0.6","615d8873c11a1982c8838b54","683db7602f5db6a34d12d064","686e2ab8e764ff0a5cf1aa86","1","615d8873c11a1982c8838b54","1","2025-07-09T08:45:45.569Z","","","","","","","","","","","AttribQ","","50","","","","","","","","","","","","","","","","","","","","","","","","","","","","",""
"4078","","<div style=""width:500px;"">
  <p>How much control did you have over the ball?</p>
  </div>","94","html-slider-response","21","376573","0.0-5.0-2.2","10","1","2025-07-09 08:39:30","01610cd0009c79a99da7d0a3353eb402","2.84.221.131","Mozilla/5.0 (Windows NT 10.0; Win64; x64) AppleWebKit/537.36 (KHTML, like Gecko) Chrome/138.0.0.0 Safari/537.36","WebKit","Chrome","138.0.0.0","Windows","10.0","https://app.prolific.com/","en-GB,en;q=0.9,bg-BG;q=0.8,bg;q=0.7,en-US;q=0.6","615d8873c11a1982c8838b54","683db7602f5db6a34d12d064","686e2ab8e764ff0a5cf1aa86","1","615d8873c11a1982c8838b54","1","2025-07-09T08:45:49.649Z","","","","","","","","","","","ControlQ","","50","","","","","","","","","","","","","","","","","","","","","","","","","","","","",""
"3034","","<div style=""width:500px;"">
  <p>How would you describe your current emotional state?</p>
  </div>","20","html-slider-response","22","379608","0.0-5.0-3.2","10","1","2025-07-09 08:39:30","01610cd0009c79a99da7d0a3353eb402","2.84.221.131","Mozilla/5.0 (Windows NT 10.0; Win64; x64) AppleWebKit/537.36 (KHTML, like Gecko) Chrome/138.0.0.0 Safari/537.36","WebKit","Chrome","138.0.0.0","Windows","10.0","https://app.prolific.com/","en-GB,en;q=0.9,bg-BG;q=0.8,bg;q=0.7,en-US;q=0.6","615d8873c11a1982c8838b54","683db7602f5db6a34d12d064","686e2ab8e764ff0a5cf1aa86","1","615d8873c11a1982c8838b54","1","2025-07-09T08:45:52.685Z","","","","","","","","","","","StressQ","","50","","","","","","","","","","","","","","","","","","","","","","","","","","","","",""
"3472","","<div style=""width:500px;"">
  <p>What best describes how you currently feel?</p>
  </div>","86","html-slider-response","23","383082","0.0-5.0-4.2","10","1","2025-07-09 08:39:30","01610cd0009c79a99da7d0a3353eb402","2.84.221.131","Mozilla/5.0 (Windows NT 10.0; Win64; x64) AppleWebKit/537.36 (KHTML, like Gecko) Chrome/138.0.0.0 Safari/537.36","WebKit","Chrome","138.0.0.0","Windows","10.0","https://app.prolific.com/","en-GB,en;q=0.9,bg-BG;q=0.8,bg;q=0.7,en-US;q=0.6","615d8873c11a1982c8838b54","683db7602f5db6a34d12d064","686e2ab8e764ff0a5cf1aa86","1","615d8873c11a1982c8838b54","1","2025-07-09T08:45:56.158Z","","","","","","","","","","","MotivationQ","","50","","","","","","","","","","","","","","","","","","","","","","","","","","","","",""
"","","","","ctl-task-cpt","24","432480","0.0-5.0-0.3","10","1","2025-07-09 08:39:30","01610cd0009c79a99da7d0a3353eb402","2.84.221.131","Mozilla/5.0 (Windows NT 10.0; Win64; x64) AppleWebKit/537.36 (KHTML, like Gecko) Chrome/138.0.0.0 Safari/537.36","WebKit","Chrome","138.0.0.0","Windows","10.0","https://app.prolific.com/","en-GB,en;q=0.9,bg-BG;q=0.8,bg;q=0.7,en-US;q=0.6","615d8873c11a1982c8838b54","683db7602f5db6a34d12d064","686e2ab8e764ff0a5cf1aa86","1","615d8873c11a1982c8838b54","1","2025-07-09T08:46:45.556Z","","","","","","","","","","","","","","win-only","2","g1:SE,g2:NW","0.7","4","0","385935.7","1179","6181","46380.3","1","4","4","6","2","-4","-4","14","18","0.10606060606060606","851.5","3000","-2265","[""left"",""up""]","{""num_key_presses"":11,""num_perfect"":8,""num_errors"":0,""num_randdir"":3,""num_randdir_good_moves"":0,""num_whilered"":0,""num_whileblue"":0,""num_blue"":2,""num_good_moves"":8}","[413.57142857142856,417.47767857142856,0.1,414.57142857142856,417.47767857142856,101.4,414.57142857142856,417.47767857142856,207,415.57142857142856,418.47767857142856,312.2,339.57142857142856,350.47767857142856,417.2,177.57142857142856,168.47767857142856,521.9,160.57142857142856,96.47767857142857,622.3,146.57142857142856,92.47767857142857,722.3,124.57142857142857,94.47767857142857,827.4,121.57142857142857,94.47767857142857,927.4,122.57142857142857,97.47767857142857,1033.4,123.57142857142857,97.47767857142857,1134.1,123.57142857142857,97.47767857142857,1234.9,123.57142857142857,97.47767857142857,1336.6,123.57142857142857,97.47767857142857,1437,123.57142857142857,97.47767857142857,1538.5,123.57142857142857,97.47767857142857,1642.7,123.57142857142857,97.47767857142857,1745.5,123.57142857142857,97.47767857142857,1847.1,123.57142857142857,97.47767857142857,1951.6,123.57142857142857,97.47767857142857,2052.1,123.57142857142857,97.47767857142857,2173.3,123.57142857142857,97.47767857142857,2277.3,123.57142857142857,97.47767857142857,2382,123.57142857142857,97.47767857142857,2482,123.57142857142857,97.47767857142857,2582.1,123.57142857142857,97.47767857142857,2686.7,123.57142857142857,97.47767857142857,2799,123.57142857142857,97.47767857142857,2901.7,123.57142857142857,97.47767857142857,3007,123.57142857142857,97.47767857142857,3107,123.57142857142857,97.47767857142857,3216.1,123.57142857142857,97.47767857142857,3316.3,123.57142857142857,97.47767857142857,3416.3,123.57142857142857,97.47767857142857,3516.6,123.57142857142857,97.47767857142857,3633.1,123.57142857142857,97.47767857142857,3749.6,123.57142857142857,97.47767857142857,3850.1,123.57142857142857,97.47767857142857,3950.7,123.57142857142857,97.47767857142857,4052.5,123.57142857142857,97.47767857142857,4158.5,123.57142857142857,97.47767857142857,4263.5,123.57142857142857,97.47767857142857,4366.9,123.57142857142857,97.47767857142857,4467.2,123.57142857142857,97.47767857142857,4582.3,123.57142857142857,97.47767857142857,4682.5,123.57142857142857,97.47767857142857,4788.5,123.57142857142857,97.47767857142857,4892.3]","[1378.6,1378.6,1000,0,378.6,""smooth"",""up"",""up"",""good_move"",3814.7,2435.7,2081.1,1379,354.6,""smooth"",""up"",""up"",""good_move"",6473.5,2658.4,2312.2,3815.1,346.2,""smooth"",""up"",""up"",""good_move"",9632.1,3158.4,2782.8,6473.7,375.6,""oops"",""left"",""right"",""bad_move"",19134.5,9502.1,2769.7,16015,349.8,""smooth"",""left"",""left"",""good_move"",21757.7,2622.9,2277.4,19135,345.4,""smooth"",""left"",""left"",""good_move"",25417.9,3659.8,3365.4,21758.1,294.4,""smooth"",""left"",""left"",""good_move"",28525.3,3107.2,2747.1,25418.1,360.2,""oops"",""left"",""right"",""bad_move"",31681.4,3155.8,2714.8,28525.6,441,""oops"",""left"",""right"",""bad_move"",34913.3,3231.5,2901,31681.8,330.5,""smooth"",""left"",""left"",""good_move"",37282.2,2368.7,1997.4,34913.5,371.3,""smooth"",""left"",""left"",""good_move""]","",""
"7410","","<div style=""width:500px;"">
  <p>What determined the result of this run?</p>
  </div>","0","html-slider-response","25","439891","0.0-5.0-1.3","10","1","2025-07-09 08:39:30","01610cd0009c79a99da7d0a3353eb402","2.84.221.131","Mozilla/5.0 (Windows NT 10.0; Win64; x64) AppleWebKit/537.36 (KHTML, like Gecko) Chrome/138.0.0.0 Safari/537.36","WebKit","Chrome","138.0.0.0","Windows","10.0","https://app.prolific.com/","en-GB,en;q=0.9,bg-BG;q=0.8,bg;q=0.7,en-US;q=0.6","615d8873c11a1982c8838b54","683db7602f5db6a34d12d064","686e2ab8e764ff0a5cf1aa86","1","615d8873c11a1982c8838b54","1","2025-07-09T08:46:52.967Z","","","","","","","","","","","AttribQ","","50","","","","","","","","","","","","","","","","","","","","","","","","","","","","",""
"4592","","<div style=""width:500px;"">
  <p>How much control did you have over the ball?</p>
  </div>","7","html-slider-response","26","444484","0.0-5.0-2.3","10","1","2025-07-09 08:39:30","01610cd0009c79a99da7d0a3353eb402","2.84.221.131","Mozilla/5.0 (Windows NT 10.0; Win64; x64) AppleWebKit/537.36 (KHTML, like Gecko) Chrome/138.0.0.0 Safari/537.36","WebKit","Chrome","138.0.0.0","Windows","10.0","https://app.prolific.com/","en-GB,en;q=0.9,bg-BG;q=0.8,bg;q=0.7,en-US;q=0.6","615d8873c11a1982c8838b54","683db7602f5db6a34d12d064","686e2ab8e764ff0a5cf1aa86","1","615d8873c11a1982c8838b54","1","2025-07-09T08:46:57.560Z","","","","","","","","","","","ControlQ","","50","","","","","","","","","","","","","","","","","","","","","","","","","","","","",""
"3036","","<div style=""width:500px;"">
  <p>How would you describe your current emotional state?</p>
  </div>","19","html-slider-response","27","447521","0.0-5.0-3.3","10","1","2025-07-09 08:39:30","01610cd0009c79a99da7d0a3353eb402","2.84.221.131","Mozilla/5.0 (Windows NT 10.0; Win64; x64) AppleWebKit/537.36 (KHTML, like Gecko) Chrome/138.0.0.0 Safari/537.36","WebKit","Chrome","138.0.0.0","Windows","10.0","https://app.prolific.com/","en-GB,en;q=0.9,bg-BG;q=0.8,bg;q=0.7,en-US;q=0.6","615d8873c11a1982c8838b54","683db7602f5db6a34d12d064","686e2ab8e764ff0a5cf1aa86","1","615d8873c11a1982c8838b54","1","2025-07-09T08:47:00.597Z","","","","","","","","","","","StressQ","","50","","","","","","","","","","","","","","","","","","","","","","","","","","","","",""
"3044","","<div style=""width:500px;"">
  <p>What best describes how you currently feel?</p>
  </div>","72","html-slider-response","28","450566","0.0-5.0-4.3","10","1","2025-07-09 08:39:30","01610cd0009c79a99da7d0a3353eb402","2.84.221.131","Mozilla/5.0 (Windows NT 10.0; Win64; x64) AppleWebKit/537.36 (KHTML, like Gecko) Chrome/138.0.0.0 Safari/537.36","WebKit","Chrome","138.0.0.0","Windows","10.0","https://app.prolific.com/","en-GB,en;q=0.9,bg-BG;q=0.8,bg;q=0.7,en-US;q=0.6","615d8873c11a1982c8838b54","683db7602f5db6a34d12d064","686e2ab8e764ff0a5cf1aa86","1","615d8873c11a1982c8838b54","1","2025-07-09T08:47:03.642Z","","","","","","","","","","","MotivationQ","","50","","","","","","","","","","","","","","","","","","","","","","","","","","","","",""
"","","","","ctl-task-cpt","29","493306","0.0-5.0-0.4","10","1","2025-07-09 08:39:30","01610cd0009c79a99da7d0a3353eb402","2.84.221.131","Mozilla/5.0 (Windows NT 10.0; Win64; x64) AppleWebKit/537.36 (KHTML, like Gecko) Chrome/138.0.0.0 Safari/537.36","WebKit","Chrome","138.0.0.0","Windows","10.0","https://app.prolific.com/","en-GB,en;q=0.9,bg-BG;q=0.8,bg;q=0.7,en-US;q=0.6","615d8873c11a1982c8838b54","683db7602f5db6a34d12d064","686e2ab8e764ff0a5cf1aa86","1","615d8873c11a1982c8838b54","1","2025-07-09T08:47:46.382Z","","","","","","","","","","","","","","win-only","2","g1:SE,g2:NW","0.6","5","0","453420.4","1073.2","6079.5","39726.1","1","4","4","6","2","-4","-4","10","14","0.07575757575757576","698","3000","-2485","[""left"",""up""]","{""num_key_presses"":11,""num_perfect"":7,""num_errors"":0,""num_randdir"":4,""num_randdir_good_moves"":1,""num_whilered"":0,""num_whileblue"":0,""num_blue"":0,""num_good_moves"":8}","[413.57142857142856,411.47767857142856,0.1,413.57142857142856,411.47767857142856,104.1,421.57142857142856,414.47767857142856,204.9,409.57142857142856,411.47767857142856,306.8,192.57142857142856,237.47767857142856,408,23.57142857142857,94.47767857142857,508.4,26.57142857142857,69.47767857142857,625.6,37.57142857142857,63.47767857142857,732.2,37.57142857142857,63.47767857142857,832.7,44.57142857142857,72.47767857142857,932.9,261.57142857142856,269.47767857142856,1040.3,344.57142857142856,341.47767857142856,1143.4,344.57142857142856,341.47767857142856,1248.1,344.57142857142856,341.47767857142856,1352.6,344.57142857142856,341.47767857142856,1453.7,344.57142857142856,341.47767857142856,1558.9,344.57142857142856,341.47767857142856,1663.2,344.57142857142856,341.47767857142856,1769,344.57142857142856,341.47767857142856,1872.4,344.57142857142856,341.47767857142856,1977.1,344.57142857142856,341.47767857142856,2079.8,344.57142857142856,341.47767857142856,2183.4,344.57142857142856,341.47767857142856,2288.5,344.57142857142856,341.47767857142856,2395.8,344.57142857142856,341.47767857142856,2503.6,344.57142857142856,341.47767857142856,2607.4,344.57142857142856,341.47767857142856,2713.6,344.57142857142856,341.47767857142856,2813.6,344.57142857142856,341.47767857142856,2918.1,344.57142857142856,341.47767857142856,3022.6,344.57142857142856,341.47767857142856,3123.2,344.57142857142856,341.47767857142856,3223.4,344.57142857142856,341.47767857142856,3327.1,344.57142857142856,341.47767857142856,3427.2,344.57142857142856,341.47767857142856,3532.7,344.57142857142856,341.47767857142856,3634.2,344.57142857142856,341.47767857142856,3735.6,344.57142857142856,341.47767857142856,3838.1,344.57142857142856,341.47767857142856,3938.8,344.57142857142856,341.47767857142856,4042.7,344.57142857142856,341.47767857142856,4156.5,344.57142857142856,341.47767857142856,4258.1,344.57142857142856,341.47767857142856,4368.2,344.57142857142856,341.47767857142856,4468.5,344.57142857142856,341.47767857142856,4572,344.57142857142856,341.47767857142856,4672.5,344.57142857142856,341.47767857142856,4772.8,344.57142857142856,341.47767857142856,4882.3,344.57142857142856,341.47767857142856,4985]","[1367.1,1367.1,1000,0,367.2,""smooth"",""up"",""up"",""good_move"",4641,3273.4,2919.5,1367.6,353.9,""smooth"",""up"",""up"",""good_move"",7713,3071.8,2710.6,4641.3,361.2,""oops"",""up"",""left"",""good_move"",10550.5,2837.1,2522.5,7713.4,314.6,""smooth"",""up"",""up"",""good_move"",13916.8,3365.9,3039.9,10550.9,326,""oops"",""left"",""right"",""bad_move"",16648.2,2731.1,2362.9,13917.1,368.2,""smooth"",""left"",""left"",""good_move"",19795.3,3146.8,2845.7,16648.5,301.1,""oops"",""left"",""right"",""bad_move"",22547.5,2751.7,2441.1,19795.9,310.6,""smooth"",""left"",""left"",""good_move"",25444.3,2896.5,2566.7,22547.8,329.8,""smooth"",""left"",""left"",""good_move"",28353.3,2908.8,2579.6,25444.6,329.1,""oops"",""left"",""down"",""bad_move"",31113.1,2759.4,2429.1,28353.7,330.3,""smooth"",""left"",""left"",""good_move""]","",""
"9859","","<div style=""width:500px;"">
  <p>What determined the result of this run?</p>
  </div>","0","html-slider-response","30","503166","0.0-5.0-1.4","10","1","2025-07-09 08:39:30","01610cd0009c79a99da7d0a3353eb402","2.84.221.131","Mozilla/5.0 (Windows NT 10.0; Win64; x64) AppleWebKit/537.36 (KHTML, like Gecko) Chrome/138.0.0.0 Safari/537.36","WebKit","Chrome","138.0.0.0","Windows","10.0","https://app.prolific.com/","en-GB,en;q=0.9,bg-BG;q=0.8,bg;q=0.7,en-US;q=0.6","615d8873c11a1982c8838b54","683db7602f5db6a34d12d064","686e2ab8e764ff0a5cf1aa86","1","615d8873c11a1982c8838b54","1","2025-07-09T08:47:56.242Z","","","","","","","","","","","AttribQ","","50","","","","","","","","","","","","","","","","","","","","","","","","","","","","",""
"3153","","<div style=""width:500px;"">
  <p>How much control did you have over the ball?</p>
  </div>","6","html-slider-response","31","506320","0.0-5.0-2.4","10","1","2025-07-09 08:39:30","01610cd0009c79a99da7d0a3353eb402","2.84.221.131","Mozilla/5.0 (Windows NT 10.0; Win64; x64) AppleWebKit/537.36 (KHTML, like Gecko) Chrome/138.0.0.0 Safari/537.36","WebKit","Chrome","138.0.0.0","Windows","10.0","https://app.prolific.com/","en-GB,en;q=0.9,bg-BG;q=0.8,bg;q=0.7,en-US;q=0.6","615d8873c11a1982c8838b54","683db7602f5db6a34d12d064","686e2ab8e764ff0a5cf1aa86","1","615d8873c11a1982c8838b54","1","2025-07-09T08:47:59.397Z","","","","","","","","","","","ControlQ","","50","","","","","","","","","","","","","","","","","","","","","","","","","","","","",""
"2480","","<div style=""width:500px;"">
  <p>How would you describe your current emotional state?</p>
  </div>","23","html-slider-response","32","508802","0.0-5.0-3.4","10","1","2025-07-09 08:39:30","01610cd0009c79a99da7d0a3353eb402","2.84.221.131","Mozilla/5.0 (Windows NT 10.0; Win64; x64) AppleWebKit/537.36 (KHTML, like Gecko) Chrome/138.0.0.0 Safari/537.36","WebKit","Chrome","138.0.0.0","Windows","10.0","https://app.prolific.com/","en-GB,en;q=0.9,bg-BG;q=0.8,bg;q=0.7,en-US;q=0.6","615d8873c11a1982c8838b54","683db7602f5db6a34d12d064","686e2ab8e764ff0a5cf1aa86","1","615d8873c11a1982c8838b54","1","2025-07-09T08:48:01.878Z","","","","","","","","","","","StressQ","","50","","","","","","","","","","","","","","","","","","","","","","","","","","","","",""
"2404","","<div style=""width:500px;"">
  <p>What best describes how you currently feel?</p>
  </div>","80","html-slider-response","33","511208","0.0-5.0-4.4","10","1","2025-07-09 08:39:30","01610cd0009c79a99da7d0a3353eb402","2.84.221.131","Mozilla/5.0 (Windows NT 10.0; Win64; x64) AppleWebKit/537.36 (KHTML, like Gecko) Chrome/138.0.0.0 Safari/537.36","WebKit","Chrome","138.0.0.0","Windows","10.0","https://app.prolific.com/","en-GB,en;q=0.9,bg-BG;q=0.8,bg;q=0.7,en-US;q=0.6","615d8873c11a1982c8838b54","683db7602f5db6a34d12d064","686e2ab8e764ff0a5cf1aa86","1","615d8873c11a1982c8838b54","1","2025-07-09T08:48:04.284Z","","","","","","","","","","","MotivationQ","","50","","","","","","","","","","","","","","","","","","","","","","","","","","","","",""
"","","","","ctl-task-cpt","34","571300","0.0-5.0-0.5","10","1","2025-07-09 08:39:30","01610cd0009c79a99da7d0a3353eb402","2.84.221.131","Mozilla/5.0 (Windows NT 10.0; Win64; x64) AppleWebKit/537.36 (KHTML, like Gecko) Chrome/138.0.0.0 Safari/537.36","WebKit","Chrome","138.0.0.0","Windows","10.0","https://app.prolific.com/","en-GB,en;q=0.9,bg-BG;q=0.8,bg;q=0.7,en-US;q=0.6","615d8873c11a1982c8838b54","683db7602f5db6a34d12d064","686e2ab8e764ff0a5cf1aa86","1","615d8873c11a1982c8838b54","1","2025-07-09T08:49:04.376Z","","","","","","","","","","","","","","win-only","1","g1:NE,g2:SW","0.5","6","0","514061.5","1001","6002","57075.4","1","4","8","6","2","-8","-8","2","10","0.015151515151515152","756.2","3000","-2115","[""down"",""left""]","{""num_key_presses"":12,""num_perfect"":5,""num_errors"":0,""num_randdir"":7,""num_randdir_good_moves"":3,""num_whilered"":0,""num_whileblue"":0,""num_blue"":4,""num_good_moves"":8}","[416.57142857142856,416.47767857142856,0.2,416.57142857142856,416.47767857142856,104.8,416.57142857142856,416.47767857142856,204.8,416.57142857142856,416.47767857142856,304.9,388.57142857142856,400.47767857142856,420.3,131.57142857142856,656.4776785714286,524.4,84.57142857142857,731.4776785714286,628,81.57142857142857,742.4776785714286,732.6,81.57142857142857,744.4776785714286,834.7,81.57142857142857,744.4776785714286,935,81.57142857142857,744.4776785714286,1035.2,81.57142857142857,744.4776785714286,1139.2,81.57142857142857,744.4776785714286,1244.9,81.57142857142857,744.4776785714286,1348,81.57142857142857,744.4776785714286,1449.5,81.57142857142857,744.4776785714286,1555,81.57142857142857,744.4776785714286,1657.7,81.57142857142857,744.4776785714286,1759.2,81.57142857142857,744.4776785714286,1859.4,81.57142857142857,744.4776785714286,1959.6,81.57142857142857,744.4776785714286,2065,81.57142857142857,744.4776785714286,2170.3,81.57142857142857,744.4776785714286,2276.1,81.57142857142857,744.4776785714286,2381,81.57142857142857,744.4776785714286,2485.4,81.57142857142857,744.4776785714286,2590,81.57142857142857,744.4776785714286,2696.5,81.57142857142857,744.4776785714286,2800,81.57142857142857,744.4776785714286,2900.3,81.57142857142857,744.4776785714286,3005.7,81.57142857142857,744.4776785714286,3106,81.57142857142857,744.4776785714286,3223.7,81.57142857142857,744.4776785714286,3324.2,81.57142857142857,744.4776785714286,3429.7,81.57142857142857,744.4776785714286,3529.7,81.57142857142857,744.4776785714286,3630.1,81.57142857142857,744.4776785714286,3735.2,81.57142857142857,744.4776785714286,3840.3,81.57142857142857,744.4776785714286,3957.2,81.57142857142857,744.4776785714286,4057.5,81.57142857142857,744.4776785714286,4157.6,81.57142857142857,744.4776785714286,4259.6,81.57142857142857,744.4776785714286,4365.1,81.57142857142857,744.4776785714286,4466.1,81.57142857142857,744.4776785714286,4567.1,81.57142857142857,744.4776785714286,4675.8,81.57142857142857,744.4776785714286,4792.8,81.57142857142857,744.4776785714286,4896.2]","[1323.8,1323.8,1000,0,323.8,""oops"",""down"",""down"",""good_move"",3745.3,2420.9,2065.8,1324.5,355,""smooth"",""down"",""down"",""good_move"",7330,3584.4,3226.3,3745.6,358.1,""oops"",""down"",""right"",""bad_move"",9615.2,2284.9,1927.6,7330.3,357.3,""smooth"",""down"",""down"",""good_move"",12853,3237.4,2874.6,9615.7,362.7,""smooth"",""left"",""left"",""good_move"",15217.1,2363.7,1965.7,12853.4,398,""smooth"",""left"",""left"",""good_move"",25737.9,10520.6,2680.3,22669.1,388.5,""oops"",""left"",""up"",""bad_move"",28362.8,2624.7,2250.3,25738.1,374.4,""smooth"",""left"",""left"",""good_move"",31722.9,3359.5,3007.9,28363.4,351.6,""oops"",""left"",""left"",""good_move"",34585.5,2862.4,2517,31723.1,345.4,""oops"",""down"",""right"",""bad_move"",40895.4,6309.4,2428.2,38107.2,360,""oops"",""down"",""left"",""good_move"",43905.9,3010.2,2681.8,40895.7,328.4,""oops"",""down"",""right"",""bad_move""]","",""
"4223","","<div style=""width:500px;"">
  <p>What determined the result of this run?</p>
  </div>","18","html-slider-response","35","575524","0.0-5.0-1.5","10","1","2025-07-09 08:39:30","01610cd0009c79a99da7d0a3353eb402","2.84.221.131","Mozilla/5.0 (Windows NT 10.0; Win64; x64) AppleWebKit/537.36 (KHTML, like Gecko) Chrome/138.0.0.0 Safari/537.36","WebKit","Chrome","138.0.0.0","Windows","10.0","https://app.prolific.com/","en-GB,en;q=0.9,bg-BG;q=0.8,bg;q=0.7,en-US;q=0.6","615d8873c11a1982c8838b54","683db7602f5db6a34d12d064","686e2ab8e764ff0a5cf1aa86","1","615d8873c11a1982c8838b54","1","2025-07-09T08:49:08.600Z","","","","","","","","","","","AttribQ","","50","","","","","","","","","","","","","","","","","","","","","","","","","","","","",""
"2382","","<div style=""width:500px;"">
  <p>How much control did you have over the ball?</p>
  </div>","0","html-slider-response","36","577907","0.0-5.0-2.5","10","1","2025-07-09 08:39:30","01610cd0009c79a99da7d0a3353eb402","2.84.221.131","Mozilla/5.0 (Windows NT 10.0; Win64; x64) AppleWebKit/537.36 (KHTML, like Gecko) Chrome/138.0.0.0 Safari/537.36","WebKit","Chrome","138.0.0.0","Windows","10.0","https://app.prolific.com/","en-GB,en;q=0.9,bg-BG;q=0.8,bg;q=0.7,en-US;q=0.6","615d8873c11a1982c8838b54","683db7602f5db6a34d12d064","686e2ab8e764ff0a5cf1aa86","1","615d8873c11a1982c8838b54","1","2025-07-09T08:49:10.984Z","","","","","","","","","","","ControlQ","","50","","","","","","","","","","","","","","","","","","","","","","","","","","","","",""
"3563","","<div style=""width:500px;"">
  <p>How would you describe your current emotional state?</p>
  </div>","18","html-slider-response","37","581473","0.0-5.0-3.5","10","1","2025-07-09 08:39:30","01610cd0009c79a99da7d0a3353eb402","2.84.221.131","Mozilla/5.0 (Windows NT 10.0; Win64; x64) AppleWebKit/537.36 (KHTML, like Gecko) Chrome/138.0.0.0 Safari/537.36","WebKit","Chrome","138.0.0.0","Windows","10.0","https://app.prolific.com/","en-GB,en;q=0.9,bg-BG;q=0.8,bg;q=0.7,en-US;q=0.6","615d8873c11a1982c8838b54","683db7602f5db6a34d12d064","686e2ab8e764ff0a5cf1aa86","1","615d8873c11a1982c8838b54","1","2025-07-09T08:49:14.549Z","","","","","","","","","","","StressQ","","50","","","","","","","","","","","","","","","","","","","","","","","","","","","","",""
"3386","","<div style=""width:500px;"">
  <p>What best describes how you currently feel?</p>
  </div>","83","html-slider-response","38","584860","0.0-5.0-4.5","10","1","2025-07-09 08:39:30","01610cd0009c79a99da7d0a3353eb402","2.84.221.131","Mozilla/5.0 (Windows NT 10.0; Win64; x64) AppleWebKit/537.36 (KHTML, like Gecko) Chrome/138.0.0.0 Safari/537.36","WebKit","Chrome","138.0.0.0","Windows","10.0","https://app.prolific.com/","en-GB,en;q=0.9,bg-BG;q=0.8,bg;q=0.7,en-US;q=0.6","615d8873c11a1982c8838b54","683db7602f5db6a34d12d064","686e2ab8e764ff0a5cf1aa86","1","615d8873c11a1982c8838b54","1","2025-07-09T08:49:17.936Z","","","","","","","","","","","MotivationQ","","50","","","","","","","","","","","","","","","","","","","","","","","","","","","","",""
"","","","","ctl-task-cpt","39","629629","0.0-5.0-0.6","10","1","2025-07-09 08:39:30","01610cd0009c79a99da7d0a3353eb402","2.84.221.131","Mozilla/5.0 (Windows NT 10.0; Win64; x64) AppleWebKit/537.36 (KHTML, like Gecko) Chrome/138.0.0.0 Safari/537.36","WebKit","Chrome","138.0.0.0","Windows","10.0","https://app.prolific.com/","en-GB,en;q=0.9,bg-BG;q=0.8,bg;q=0.7,en-US;q=0.6","615d8873c11a1982c8838b54","683db7602f5db6a34d12d064","686e2ab8e764ff0a5cf1aa86","1","615d8873c11a1982c8838b54","1","2025-07-09T08:50:02.705Z","","","","","","","","","","","","","","win-only","1","g1:NE,g2:SW","0.4","7","0","587712.5","884.1","5892.5","41751.3","1","4","4","6","2","-4","-4","0","2","0","844","3000","-2260","[""down"",""left""]","{""num_key_presses"":11,""num_perfect"":5,""num_errors"":0,""num_randdir"":6,""num_randdir_good_moves"":1,""num_whilered"":0,""num_whileblue"":0,""num_blue"":1,""num_good_moves"":6}","[414.57142857142856,412.47767857142856,0.1,414.57142857142856,412.47767857142856,102.5,414.57142857142856,412.47767857142856,203.4,414.57142857142856,412.47767857142856,318,320.57142857142856,465.47767857142856,422.5,233.57142857142856,576.4776785714286,538.1,157.57142857142856,694.4776785714286,638.8,134.57142857142856,716.4776785714286,739.5,115.57142857142857,734.4776785714286,845.9,115.57142857142857,735.4776785714286,946.9,115.57142857142857,735.4776785714286,1061.1,115.57142857142857,735.4776785714286,1176.6,115.57142857142857,735.4776785714286,1287.1,115.57142857142857,735.4776785714286,1394.4,115.57142857142857,735.4776785714286,1501.4,115.57142857142857,735.4776785714286,1607.8,115.57142857142857,735.4776785714286,1717.4,115.57142857142857,735.4776785714286,1818.1,115.57142857142857,735.4776785714286,1927.2,115.57142857142857,735.4776785714286,2031.4,115.57142857142857,735.4776785714286,2145.4,115.57142857142857,735.4776785714286,2246.3,115.57142857142857,735.4776785714286,2346.9,115.57142857142857,735.4776785714286,2448.2,115.57142857142857,735.4776785714286,2551.2,115.57142857142857,735.4776785714286,2652,115.57142857142857,735.4776785714286,2762.2,115.57142857142857,735.4776785714286,2866.4,115.57142857142857,735.4776785714286,2966.6,115.57142857142857,735.4776785714286,3074.4,115.57142857142857,735.4776785714286,3177.7,115.57142857142857,735.4776785714286,3293.6,115.57142857142857,735.4776785714286,3393.8,115.57142857142857,735.4776785714286,3503.9,115.57142857142857,735.4776785714286,3617.9,115.57142857142857,735.4776785714286,3727,115.57142857142857,735.4776785714286,3828,115.57142857142857,735.4776785714286,3943.3,115.57142857142857,735.4776785714286,4061.9,115.57142857142857,735.4776785714286,4172.6,115.57142857142857,735.4776785714286,4282.3,115.57142857142857,735.4776785714286,4386.1,115.57142857142857,735.4776785714286,4486.8,115.57142857142857,735.4776785714286,4592.5,115.57142857142857,735.4776785714286,4696,115.57142857142857,735.4776785714286,4797,115.57142857142857,735.4776785714286,4903.4]","[1348.6,1348.6,1000,0,348.6,""oops"",""down"",""right"",""bad_move"",8084.1,6735.2,2461.5,5213.9,408.7,""oops"",""down"",""up"",""bad_move"",10826.9,2742.4,2350,8084.5,392.4,""smooth"",""down"",""down"",""good_move"",14246.1,3418.7,3060.6,10827.4,358.1,""oops"",""down"",""up"",""bad_move"",16845.7,2599.5,2062.3,14246.2,537.2,""smooth"",""down"",""down"",""good_move"",19196.4,2350.5,1958.4,16845.9,392.1,""oops"",""down"",""up"",""bad_move"",22159,2962.3,2599.2,19196.7,363.1,""oops"",""down"",""down"",""good_move"",24585.3,2426,2053,22159.3,373,""oops"",""down"",""right"",""bad_move"",28142.3,3556.6,3204.8,24585.7,351.8,""smooth"",""down"",""down"",""good_move"",31155,3012.3,2658.7,28142.7,353.6,""smooth"",""down"",""down"",""good_move"",34058.7,2903.4,2513,31155.3,390.4,""smooth"",""down"",""down"",""good_move""]","",""
"2948","","<div style=""width:500px;"">
  <p>What determined the result of this run?</p>
  </div>","0","html-slider-response","40","632578","0.0-5.0-1.6","10","1","2025-07-09 08:39:30","01610cd0009c79a99da7d0a3353eb402","2.84.221.131","Mozilla/5.0 (Windows NT 10.0; Win64; x64) AppleWebKit/537.36 (KHTML, like Gecko) Chrome/138.0.0.0 Safari/537.36","WebKit","Chrome","138.0.0.0","Windows","10.0","https://app.prolific.com/","en-GB,en;q=0.9,bg-BG;q=0.8,bg;q=0.7,en-US;q=0.6","615d8873c11a1982c8838b54","683db7602f5db6a34d12d064","686e2ab8e764ff0a5cf1aa86","1","615d8873c11a1982c8838b54","1","2025-07-09T08:50:05.654Z","","","","","","","","","","","AttribQ","","50","","","","","","","","","","","","","","","","","","","","","","","","","","","","",""
"2203","","<div style=""width:500px;"">
  <p>How much control did you have over the ball?</p>
  </div>","0","html-slider-response","41","634782","0.0-5.0-2.6","10","1","2025-07-09 08:39:30","01610cd0009c79a99da7d0a3353eb402","2.84.221.131","Mozilla/5.0 (Windows NT 10.0; Win64; x64) AppleWebKit/537.36 (KHTML, like Gecko) Chrome/138.0.0.0 Safari/537.36","WebKit","Chrome","138.0.0.0","Windows","10.0","https://app.prolific.com/","en-GB,en;q=0.9,bg-BG;q=0.8,bg;q=0.7,en-US;q=0.6","615d8873c11a1982c8838b54","683db7602f5db6a34d12d064","686e2ab8e764ff0a5cf1aa86","1","615d8873c11a1982c8838b54","1","2025-07-09T08:50:07.858Z","","","","","","","","","","","ControlQ","","50","","","","","","","","","","","","","","","","","","","","","","","","","","","","",""
"3010","","<div style=""width:500px;"">
  <p>How would you describe your current emotional state?</p>
  </div>","21","html-slider-response","42","637794","0.0-5.0-3.6","10","1","2025-07-09 08:39:30","01610cd0009c79a99da7d0a3353eb402","2.84.221.131","Mozilla/5.0 (Windows NT 10.0; Win64; x64) AppleWebKit/537.36 (KHTML, like Gecko) Chrome/138.0.0.0 Safari/537.36","WebKit","Chrome","138.0.0.0","Windows","10.0","https://app.prolific.com/","en-GB,en;q=0.9,bg-BG;q=0.8,bg;q=0.7,en-US;q=0.6","615d8873c11a1982c8838b54","683db7602f5db6a34d12d064","686e2ab8e764ff0a5cf1aa86","1","615d8873c11a1982c8838b54","1","2025-07-09T08:50:10.870Z","","","","","","","","","","","StressQ","","50","","","","","","","","","","","","","","","","","","","","","","","","","","","","",""
"2382","","<div style=""width:500px;"">
  <p>What best describes how you currently feel?</p>
  </div>","77","html-slider-response","43","640178","0.0-5.0-4.6","10","1","2025-07-09 08:39:30","01610cd0009c79a99da7d0a3353eb402","2.84.221.131","Mozilla/5.0 (Windows NT 10.0; Win64; x64) AppleWebKit/537.36 (KHTML, like Gecko) Chrome/138.0.0.0 Safari/537.36","WebKit","Chrome","138.0.0.0","Windows","10.0","https://app.prolific.com/","en-GB,en;q=0.9,bg-BG;q=0.8,bg;q=0.7,en-US;q=0.6","615d8873c11a1982c8838b54","683db7602f5db6a34d12d064","686e2ab8e764ff0a5cf1aa86","1","615d8873c11a1982c8838b54","1","2025-07-09T08:50:13.254Z","","","","","","","","","","","MotivationQ","","50","","","","","","","","","","","","","","","","","","","","","","","","","","","","",""
"","","","","ctl-task-cpt","44","700130","0.0-5.0-0.7","10","1","2025-07-09 08:39:30","01610cd0009c79a99da7d0a3353eb402","2.84.221.131","Mozilla/5.0 (Windows NT 10.0; Win64; x64) AppleWebKit/537.36 (KHTML, like Gecko) Chrome/138.0.0.0 Safari/537.36","WebKit","Chrome","138.0.0.0","Windows","10.0","https://app.prolific.com/","en-GB,en;q=0.9,bg-BG;q=0.8,bg;q=0.7,en-US;q=0.6","615d8873c11a1982c8838b54","683db7602f5db6a34d12d064","686e2ab8e764ff0a5cf1aa86","1","615d8873c11a1982c8838b54","1","2025-07-09T08:51:13.206Z","","","","","","","","","","","","","","win-only","3","g1:SW,g2:NE","0.3","8","0","643030.7","918.7","5921.6","56941.7","1","4","8","6","2","-8","-8","0","0","0","777.3","3000","-2165","[""up"",""right""]","{""num_key_presses"":12,""num_perfect"":3,""num_errors"":0,""num_randdir"":9,""num_randdir_good_moves"":3,""num_whilered"":0,""num_whileblue"":0,""num_blue"":4,""num_good_moves"":6}","[413.57142857142856,416.47767857142856,0.2,413.57142857142856,416.47767857142856,101.5,413.57142857142856,416.47767857142856,202.3,413.57142857142856,416.47767857142856,302.9,570.5714285714286,237.47767857142856,416.6,655.5714285714286,169.47767857142856,527.6,705.5714285714286,123.47767857142857,643.7,727.5714285714286,101.47767857142857,748.6,728.5714285714286,99.47767857142857,852.1,728.5714285714286,99.47767857142857,954.2,728.5714285714286,99.47767857142857,1054.7,728.5714285714286,99.47767857142857,1161.8,728.5714285714286,99.47767857142857,1269.9,728.5714285714286,99.47767857142857,1373.2,728.5714285714286,99.47767857142857,1477.3,728.5714285714286,99.47767857142857,1581.9,728.5714285714286,99.47767857142857,1682.1,728.5714285714286,99.47767857142857,1782.8,728.5714285714286,99.47767857142857,1882.8,728.5714285714286,99.47767857142857,1990.4,728.5714285714286,99.47767857142857,2098.6,728.5714285714286,99.47767857142857,2202.4,728.5714285714286,99.47767857142857,2311.7,728.5714285714286,99.47767857142857,2423.9,728.5714285714286,99.47767857142857,2527.8,728.5714285714286,99.47767857142857,2635.4,728.5714285714286,99.47767857142857,2739.5,728.5714285714286,99.47767857142857,2853.8,728.5714285714286,99.47767857142857,2957.1,728.5714285714286,99.47767857142857,3057.3,728.5714285714286,99.47767857142857,3158.6,728.5714285714286,99.47767857142857,3276.4,728.5714285714286,99.47767857142857,3377.9,728.5714285714286,99.47767857142857,3484.4,728.5714285714286,99.47767857142857,3603.3,728.5714285714286,99.47767857142857,3707.3,728.5714285714286,99.47767857142857,3815.6,728.5714285714286,99.47767857142857,3917.6,728.5714285714286,99.47767857142857,4018.3,728.5714285714286,99.47767857142857,4121.6,728.5714285714286,99.47767857142857,4224.4,728.5714285714286,99.47767857142857,4327.3,728.5714285714286,99.47767857142857,4430,728.5714285714286,99.47767857142857,4532.7,728.5714285714286,99.47767857142857,4636.6,728.5714285714286,99.47767857142857,4738,728.5714285714286,99.47767857142857,4838.5,728.5714285714286,99.47767857142857,4943.3]","[1367.8,1367.8,1000,0,367.8,""smooth"",""right"",""right"",""good_move"",3784.8,2416.6,2021.9,1368.3,394.7,""oops"",""right"",""right"",""good_move"",6790.1,3005,2684.6,3785.1,320.4,""oops"",""up"",""down"",""bad_move"",9133.3,2342.7,1985.1,6790.6,357.6,""oops"",""up"",""down"",""bad_move"",12086.1,2952.7,2562.5,9133.4,390.2,""smooth"",""up"",""up"",""good_move"",14682.7,2596.3,2302.1,12086.4,294.2,""oops"",""right"",""right"",""good_move"",22079.1,7396.1,2756.2,18999.4,323.5,""oops"",""up"",""down"",""bad_move"",25359.8,3280.3,2916.9,22079.5,363.4,""smooth"",""up"",""up"",""good_move"",31701.9,6341.7,2586.1,28734.6,381.2,""oops"",""up"",""down"",""bad_move"",34538,2835.7,2378.5,31702.3,457.2,""oops"",""up"",""left"",""bad_move"",37336.9,2798.5,2466.6,34538.4,331.9,""oops"",""up"",""right"",""good_move"",44052.4,6715.1,2704.7,40944.6,403.1,""oops"",""up"",""left"",""bad_move""]","",""
"4508","","<div style=""width:500px;"">
  <p>What determined the result of this run?</p>
  </div>","0","html-slider-response","45","704639","0.0-5.0-1.7","10","1","2025-07-09 08:39:30","01610cd0009c79a99da7d0a3353eb402","2.84.221.131","Mozilla/5.0 (Windows NT 10.0; Win64; x64) AppleWebKit/537.36 (KHTML, like Gecko) Chrome/138.0.0.0 Safari/537.36","WebKit","Chrome","138.0.0.0","Windows","10.0","https://app.prolific.com/","en-GB,en;q=0.9,bg-BG;q=0.8,bg;q=0.7,en-US;q=0.6","615d8873c11a1982c8838b54","683db7602f5db6a34d12d064","686e2ab8e764ff0a5cf1aa86","1","615d8873c11a1982c8838b54","1","2025-07-09T08:51:17.715Z","","","","","","","","","","","AttribQ","","50","","","","","","","","","","","","","","","","","","","","","","","","","","","","",""
"2076","","<div style=""width:500px;"">
  <p>How much control did you have over the ball?</p>
  </div>","0","html-slider-response","46","706716","0.0-5.0-2.7","10","1","2025-07-09 08:39:30","01610cd0009c79a99da7d0a3353eb402","2.84.221.131","Mozilla/5.0 (Windows NT 10.0; Win64; x64) AppleWebKit/537.36 (KHTML, like Gecko) Chrome/138.0.0.0 Safari/537.36","WebKit","Chrome","138.0.0.0","Windows","10.0","https://app.prolific.com/","en-GB,en;q=0.9,bg-BG;q=0.8,bg;q=0.7,en-US;q=0.6","615d8873c11a1982c8838b54","683db7602f5db6a34d12d064","686e2ab8e764ff0a5cf1aa86","1","615d8873c11a1982c8838b54","1","2025-07-09T08:51:19.792Z","","","","","","","","","","","ControlQ","","50","","","","","","","","","","","","","","","","","","","","","","","","","","","","",""
"2655","","<div style=""width:500px;"">
  <p>How would you describe your current emotional state?</p>
  </div>","20","html-slider-response","47","709372","0.0-5.0-3.7","10","1","2025-07-09 08:39:30","01610cd0009c79a99da7d0a3353eb402","2.84.221.131","Mozilla/5.0 (Windows NT 10.0; Win64; x64) AppleWebKit/537.36 (KHTML, like Gecko) Chrome/138.0.0.0 Safari/537.36","WebKit","Chrome","138.0.0.0","Windows","10.0","https://app.prolific.com/","en-GB,en;q=0.9,bg-BG;q=0.8,bg;q=0.7,en-US;q=0.6","615d8873c11a1982c8838b54","683db7602f5db6a34d12d064","686e2ab8e764ff0a5cf1aa86","1","615d8873c11a1982c8838b54","1","2025-07-09T08:51:22.448Z","","","","","","","","","","","StressQ","","50","","","","","","","","","","","","","","","","","","","","","","","","","","","","",""
"2373","","<div style=""width:500px;"">
  <p>What best describes how you currently feel?</p>
  </div>","83","html-slider-response","48","711746","0.0-5.0-4.7","10","1","2025-07-09 08:39:30","01610cd0009c79a99da7d0a3353eb402","2.84.221.131","Mozilla/5.0 (Windows NT 10.0; Win64; x64) AppleWebKit/537.36 (KHTML, like Gecko) Chrome/138.0.0.0 Safari/537.36","WebKit","Chrome","138.0.0.0","Windows","10.0","https://app.prolific.com/","en-GB,en;q=0.9,bg-BG;q=0.8,bg;q=0.7,en-US;q=0.6","615d8873c11a1982c8838b54","683db7602f5db6a34d12d064","686e2ab8e764ff0a5cf1aa86","1","615d8873c11a1982c8838b54","1","2025-07-09T08:51:24.822Z","","","","","","","","","","","MotivationQ","","50","","","","","","","","","","","","","","","","","","","","","","","","","","","","",""
"","","","","ctl-task-cpt","49","775226","0.0-5.0-0.8","10","1","2025-07-09 08:39:30","01610cd0009c79a99da7d0a3353eb402","2.84.221.131","Mozilla/5.0 (Windows NT 10.0; Win64; x64) AppleWebKit/537.36 (KHTML, like Gecko) Chrome/138.0.0.0 Safari/537.36","WebKit","Chrome","138.0.0.0","Windows","10.0","https://app.prolific.com/","en-GB,en;q=0.9,bg-BG;q=0.8,bg;q=0.7,en-US;q=0.6","615d8873c11a1982c8838b54","683db7602f5db6a34d12d064","686e2ab8e764ff0a5cf1aa86","1","615d8873c11a1982c8838b54","1","2025-07-09T08:52:28.303Z","","","","","","","","","","","","","","win-only","1","g1:NE,g2:SW","0.2","9","0","714600.7","1157.6","6178.8","60460","1","4","4","6","2","-4","-5","0","0","0","963.9","3000","-2185","[""down"",""left""]","{""num_key_presses"":12,""num_perfect"":3,""num_errors"":1,""num_randdir"":8,""num_randdir_good_moves"":2,""num_whilered"":0,""num_whileblue"":0,""num_blue"":5,""num_good_moves"":5}","[411.57142857142856,419.47767857142856,0.3,411.57142857142856,419.47767857142856,103.7,411.57142857142856,419.47767857142856,208.7,430.57142857142856,405.47767857142856,312.5,443.57142857142856,365.47767857142856,432.9,87.57142857142857,620.4776785714286,533.4,13.57142857142857,717.4776785714286,638.2,13.57142857142857,745.4776785714286,748.2,32.57142857142857,756.4776785714286,854.6,36.57142857142857,757.4776785714286,958.1,38.57142857142857,757.4776785714286,1058.8,38.57142857142857,757.4776785714286,1163.9,38.57142857142857,757.4776785714286,1266.7,38.57142857142857,757.4776785714286,1368.2,38.57142857142857,757.4776785714286,1468.2,38.57142857142857,757.4776785714286,1569.2,38.57142857142857,757.4776785714286,1673.3,38.57142857142857,757.4776785714286,1783.9,38.57142857142857,757.4776785714286,1886.3,38.57142857142857,757.4776785714286,1990.1,38.57142857142857,757.4776785714286,2093.4,38.57142857142857,757.4776785714286,2202.7,38.57142857142857,757.4776785714286,2304.3,38.57142857142857,757.4776785714286,2408.4,38.57142857142857,757.4776785714286,2513,38.57142857142857,757.4776785714286,2621.1,38.57142857142857,757.4776785714286,2723.3,38.57142857142857,757.4776785714286,2823.9,38.57142857142857,757.4776785714286,2929.1,38.57142857142857,757.4776785714286,3030,38.57142857142857,757.4776785714286,3133.7,38.57142857142857,757.4776785714286,3235.5,38.57142857142857,757.4776785714286,3338.6,38.57142857142857,757.4776785714286,3439.1,38.57142857142857,757.4776785714286,3539.2,38.57142857142857,757.4776785714286,3643.7,38.57142857142857,757.4776785714286,3760.4,38.57142857142857,757.4776785714286,3863.2,38.57142857142857,757.4776785714286,3968.6,38.57142857142857,757.4776785714286,4073.6,38.57142857142857,757.4776785714286,4182.9,38.57142857142857,757.4776785714286,4300.3,38.57142857142857,757.4776785714286,4405.8,38.57142857142857,757.4776785714286,4509.9,38.57142857142857,757.4776785714286,4610,38.57142857142857,757.4776785714286,4715,38.57142857142857,757.4776785714286,4818.1,38.57142857142857,757.4776785714286,4921.6]","[5341.4,5341.4,2951.1,2024.3,366,""oops"",""down"",""down"",""good_move"",10765.2,5423.5,1937.7,8422.8,404.7,""oops"",""down"",""up"",""bad_move"",20145.6,9380,2468.3,17299.3,378,""oops"",""down"",""up"",""bad_move"",23212.5,3066.5,2656.8,20146,409.7,""oops"",""left"",""right"",""bad_move"",26352.1,3139.3,2667.5,23212.8,471.8,""oops"",""right"",""up"",""bad_move"",29605.2,3252.8,2945.3,26352.4,307.5,""oops"",""down"",""left"",""good_move"",30865.1,1259.5,2065.8,29605.6,-806.3,""error"",""-"",""-"",""no_move"",34452.4,3586.8,2190.2,31871.4,390.8,""oops"",""down"",""right"",""bad_move"",37271.4,2818.6,2460.3,34452.8,358.3,""oops"",""down"",""right"",""bad_move"",40327.9,3056.2,2653.9,37271.7,402.3,""smooth"",""down"",""down"",""good_move"",43367.7,3039.3,2670.2,40328.4,369.1,""smooth"",""down"",""down"",""good_move"",47014.5,3646.6,3296.7,43367.9,349.9,""smooth"",""down"",""down"",""good_move""]","",""
"2781","","<div style=""width:500px;"">
  <p>What determined the result of this run?</p>
  </div>","0","html-slider-response","50","778008","0.0-5.0-1.8","10","1","2025-07-09 08:39:30","01610cd0009c79a99da7d0a3353eb402","2.84.221.131","Mozilla/5.0 (Windows NT 10.0; Win64; x64) AppleWebKit/537.36 (KHTML, like Gecko) Chrome/138.0.0.0 Safari/537.36","WebKit","Chrome","138.0.0.0","Windows","10.0","https://app.prolific.com/","en-GB,en;q=0.9,bg-BG;q=0.8,bg;q=0.7,en-US;q=0.6","615d8873c11a1982c8838b54","683db7602f5db6a34d12d064","686e2ab8e764ff0a5cf1aa86","1","615d8873c11a1982c8838b54","1","2025-07-09T08:52:31.084Z","","","","","","","","","","","AttribQ","","50","","","","","","","","","","","","","","","","","","","","","","","","","","","","",""
"2739","","<div style=""width:500px;"">
  <p>How much control did you have over the ball?</p>
  </div>","0","html-slider-response","51","780749","0.0-5.0-2.8","10","1","2025-07-09 08:39:30","01610cd0009c79a99da7d0a3353eb402","2.84.221.131","Mozilla/5.0 (Windows NT 10.0; Win64; x64) AppleWebKit/537.36 (KHTML, like Gecko) Chrome/138.0.0.0 Safari/537.36","WebKit","Chrome","138.0.0.0","Windows","10.0","https://app.prolific.com/","en-GB,en;q=0.9,bg-BG;q=0.8,bg;q=0.7,en-US;q=0.6","615d8873c11a1982c8838b54","683db7602f5db6a34d12d064","686e2ab8e764ff0a5cf1aa86","1","615d8873c11a1982c8838b54","1","2025-07-09T08:52:33.825Z","","","","","","","","","","","ControlQ","","50","","","","","","","","","","","","","","","","","","","","","","","","","","","","",""
"2473","","<div style=""width:500px;"">
  <p>How would you describe your current emotional state?</p>
  </div>","26","html-slider-response","52","783225","0.0-5.0-3.8","10","1","2025-07-09 08:39:30","01610cd0009c79a99da7d0a3353eb402","2.84.221.131","Mozilla/5.0 (Windows NT 10.0; Win64; x64) AppleWebKit/537.36 (KHTML, like Gecko) Chrome/138.0.0.0 Safari/537.36","WebKit","Chrome","138.0.0.0","Windows","10.0","https://app.prolific.com/","en-GB,en;q=0.9,bg-BG;q=0.8,bg;q=0.7,en-US;q=0.6","615d8873c11a1982c8838b54","683db7602f5db6a34d12d064","686e2ab8e764ff0a5cf1aa86","1","615d8873c11a1982c8838b54","1","2025-07-09T08:52:36.301Z","","","","","","","","","","","StressQ","","50","","","","","","","","","","","","","","","","","","","","","","","","","","","","",""
"3587","","<div style=""width:500px;"">
  <p>What best describes how you currently feel?</p>
  </div>","70","html-slider-response","53","786814","0.0-5.0-4.8","10","1","2025-07-09 08:39:30","01610cd0009c79a99da7d0a3353eb402","2.84.221.131","Mozilla/5.0 (Windows NT 10.0; Win64; x64) AppleWebKit/537.36 (KHTML, like Gecko) Chrome/138.0.0.0 Safari/537.36","WebKit","Chrome","138.0.0.0","Windows","10.0","https://app.prolific.com/","en-GB,en;q=0.9,bg-BG;q=0.8,bg;q=0.7,en-US;q=0.6","615d8873c11a1982c8838b54","683db7602f5db6a34d12d064","686e2ab8e764ff0a5cf1aa86","1","615d8873c11a1982c8838b54","1","2025-07-09T08:52:39.890Z","","","","","","","","","","","MotivationQ","","50","","","","","","","","","","","","","","","","","","","","","","","","","","","","",""
"","","","","ctl-task-cpt","54","845562","0.0-5.0-0.9","10","1","2025-07-09 08:39:30","01610cd0009c79a99da7d0a3353eb402","2.84.221.131","Mozilla/5.0 (Windows NT 10.0; Win64; x64) AppleWebKit/537.36 (KHTML, like Gecko) Chrome/138.0.0.0 Safari/537.36","WebKit","Chrome","138.0.0.0","Windows","10.0","https://app.prolific.com/","en-GB,en;q=0.9,bg-BG;q=0.8,bg;q=0.7,en-US;q=0.6","615d8873c11a1982c8838b54","683db7602f5db6a34d12d064","686e2ab8e764ff0a5cf1aa86","1","615d8873c11a1982c8838b54","1","2025-07-09T08:53:38.638Z","","","","","","","","","","","","","","win-only","0","g1:NW,g2:SE","0.4","10","0","789667.5","955.7","5979.5","55720.6","1","4","8","6","2","8","8","8","0","0.06060606060606061","810.3","3000","1030","[""down"",""right""]","{""num_key_presses"":8,""num_perfect"":3,""num_errors"":0,""num_randdir"":5,""num_randdir_good_moves"":4,""num_whilered"":0,""num_whileblue"":0,""num_blue"":8,""num_good_moves"":7}","[418.57142857142856,414.47767857142856,0.3,418.57142857142856,414.47767857142856,101.9,418.57142857142856,414.47767857142856,220.1,400.57142857142856,408.47767857142856,331.9,480.57142857142856,497.47767857142856,455,705.5714285714286,711.4776785714286,560.3,723.5714285714286,734.4776785714286,661.2,736.5714285714286,743.4776785714286,775.1,740.5714285714286,745.4776785714286,883.3,740.5714285714286,745.4776785714286,1004.4,740.5714285714286,745.4776785714286,1105.5,740.5714285714286,745.4776785714286,1205.9,740.5714285714286,745.4776785714286,1309.5,740.5714285714286,745.4776785714286,1414.7,740.5714285714286,745.4776785714286,1515.5,740.5714285714286,745.4776785714286,1625.3,740.5714285714286,745.4776785714286,1736,740.5714285714286,745.4776785714286,1837.3,740.5714285714286,745.4776785714286,1940,740.5714285714286,745.4776785714286,2040.7,740.5714285714286,745.4776785714286,2145.4,740.5714285714286,745.4776785714286,2251.1,740.5714285714286,745.4776785714286,2354.8,740.5714285714286,745.4776785714286,2460.8,740.5714285714286,745.4776785714286,2562.4,740.5714285714286,745.4776785714286,2665.3,740.5714285714286,745.4776785714286,2765.8,740.5714285714286,745.4776785714286,2873.2,740.5714285714286,745.4776785714286,2977.1,740.5714285714286,745.4776785714286,3080.7,740.5714285714286,745.4776785714286,3202.7,740.5714285714286,745.4776785714286,3304.7,740.5714285714286,745.4776785714286,3420.1,740.5714285714286,745.4776785714286,3520.5,740.5714285714286,745.4776785714286,3641.1,740.5714285714286,745.4776785714286,3746.3,740.5714285714286,745.4776785714286,3848.2,740.5714285714286,745.4776785714286,3955.7,740.5714285714286,745.4776785714286,4060.2,740.5714285714286,745.4776785714286,4174.8,740.5714285714286,745.4776785714286,4275.4,740.5714285714286,745.4776785714286,4376,740.5714285714286,745.4776785714286,4480.1,740.5714285714286,745.4776785714286,4580.2,740.5714285714286,745.4776785714286,4680.9,740.5714285714286,745.4776785714286,4803.8,740.5714285714286,745.4776785714286,4908.1]","[1349.4,1349.4,1000,0,349.4,""smooth"",""down"",""down"",""good_move"",3949.7,2599.9,2238,1349.8,361.9,""oops"",""down"",""right"",""good_move"",7013.1,3063.1,2701.7,3950,361.4,""oops"",""down"",""left"",""bad_move"",20128.8,13115.3,1713.1,17998.5,417.2,""smooth"",""down"",""down"",""good_move"",30377.3,10248.3,2462.8,27516.9,397.6,""oops"",""right"",""right"",""good_move"",39536.7,9159,2566.5,36619.3,351,""oops"",""right"",""down"",""good_move"",46355.4,6818.4,2949.1,43085.5,320.8,""smooth"",""right"",""right"",""good_move"",49637.9,3282.3,2965,46355.6,317.3,""oops"",""right"",""right"",""good_move""]","",""
"3557","","<div style=""width:500px;"">
  <p>What determined the result of this run?</p>
  </div>","70","html-slider-response","55","849120","0.0-5.0-1.9","10","1","2025-07-09 08:39:30","01610cd0009c79a99da7d0a3353eb402","2.84.221.131","Mozilla/5.0 (Windows NT 10.0; Win64; x64) AppleWebKit/537.36 (KHTML, like Gecko) Chrome/138.0.0.0 Safari/537.36","WebKit","Chrome","138.0.0.0","Windows","10.0","https://app.prolific.com/","en-GB,en;q=0.9,bg-BG;q=0.8,bg;q=0.7,en-US;q=0.6","615d8873c11a1982c8838b54","683db7602f5db6a34d12d064","686e2ab8e764ff0a5cf1aa86","1","615d8873c11a1982c8838b54","1","2025-07-09T08:53:42.196Z","","","","","","","","","","","AttribQ","","50","","","","","","","","","","","","","","","","","","","","","","","","","","","","",""
"3056","","<div style=""width:500px;"">
  <p>How much control did you have over the ball?</p>
  </div>","64","html-slider-response","56","852178","0.0-5.0-2.9","10","1","2025-07-09 08:39:30","01610cd0009c79a99da7d0a3353eb402","2.84.221.131","Mozilla/5.0 (Windows NT 10.0; Win64; x64) AppleWebKit/537.36 (KHTML, like Gecko) Chrome/138.0.0.0 Safari/537.36","WebKit","Chrome","138.0.0.0","Windows","10.0","https://app.prolific.com/","en-GB,en;q=0.9,bg-BG;q=0.8,bg;q=0.7,en-US;q=0.6","615d8873c11a1982c8838b54","683db7602f5db6a34d12d064","686e2ab8e764ff0a5cf1aa86","1","615d8873c11a1982c8838b54","1","2025-07-09T08:53:45.254Z","","","","","","","","","","","ControlQ","","50","","","","","","","","","","","","","","","","","","","","","","","","","","","","",""
"3403","","<div style=""width:500px;"">
  <p>How would you describe your current emotional state?</p>
  </div>","21","html-slider-response","57","855583","0.0-5.0-3.9","10","1","2025-07-09 08:39:30","01610cd0009c79a99da7d0a3353eb402","2.84.221.131","Mozilla/5.0 (Windows NT 10.0; Win64; x64) AppleWebKit/537.36 (KHTML, like Gecko) Chrome/138.0.0.0 Safari/537.36","WebKit","Chrome","138.0.0.0","Windows","10.0","https://app.prolific.com/","en-GB,en;q=0.9,bg-BG;q=0.8,bg;q=0.7,en-US;q=0.6","615d8873c11a1982c8838b54","683db7602f5db6a34d12d064","686e2ab8e764ff0a5cf1aa86","1","615d8873c11a1982c8838b54","1","2025-07-09T08:53:48.659Z","","","","","","","","","","","StressQ","","50","","","","","","","","","","","","","","","","","","","","","","","","","","","","",""
"3058","","<div style=""width:500px;"">
  <p>What best describes how you currently feel?</p>
  </div>","73","html-slider-response","58","858644","0.0-5.0-4.9","10","1","2025-07-09 08:39:30","01610cd0009c79a99da7d0a3353eb402","2.84.221.131","Mozilla/5.0 (Windows NT 10.0; Win64; x64) AppleWebKit/537.36 (KHTML, like Gecko) Chrome/138.0.0.0 Safari/537.36","WebKit","Chrome","138.0.0.0","Windows","10.0","https://app.prolific.com/","en-GB,en;q=0.9,bg-BG;q=0.8,bg;q=0.7,en-US;q=0.6","615d8873c11a1982c8838b54","683db7602f5db6a34d12d064","686e2ab8e764ff0a5cf1aa86","1","615d8873c11a1982c8838b54","1","2025-07-09T08:53:51.720Z","","","","","","","","","","","MotivationQ","","50","","","","","","","","","","","","","","","","","","","","","","","","","","","","",""
"","","","","ctl-task-cpt","59","904011","0.0-5.0-0.10","10","1","2025-07-09 08:39:30","01610cd0009c79a99da7d0a3353eb402","2.84.221.131","Mozilla/5.0 (Windows NT 10.0; Win64; x64) AppleWebKit/537.36 (KHTML, like Gecko) Chrome/138.0.0.0 Safari/537.36","WebKit","Chrome","138.0.0.0","Windows","10.0","https://app.prolific.com/","en-GB,en;q=0.9,bg-BG;q=0.8,bg;q=0.7,en-US;q=0.6","615d8873c11a1982c8838b54","683db7602f5db6a34d12d064","686e2ab8e764ff0a5cf1aa86","1","615d8873c11a1982c8838b54","1","2025-07-09T08:54:37.087Z","","","","","","","","","","","","","","win-only","2","g1:SE,g2:NW","0.5","11","0","861496.8","9215.8","14221.9","42351.6","1","4","8","6","2","8","8","16","8","0.12121212121212122","738.4","3000","645","[""left"",""up""]","{""num_key_presses"":10,""num_perfect"":5,""num_errors"":0,""num_randdir"":5,""num_randdir_good_moves"":3,""num_whilered"":0,""num_whileblue"":0,""num_blue"":1,""num_good_moves"":8}","[417.57142857142856,417.47767857142856,0.2,417.57142857142856,417.47767857142856,104.4,417.57142857142856,417.47767857142856,205.1,367.57142857142856,384.47767857142856,310.4,240.57142857142856,219.47767857142856,421.2,173.57142857142856,151.47767857142856,524.3,140.57142857142856,107.47767857142857,624.4,121.57142857142857,91.47767857142857,726.7,121.57142857142857,91.47767857142857,830.1,121.57142857142857,91.47767857142857,930.1,121.57142857142857,91.47767857142857,1030.3,121.57142857142857,91.47767857142857,1134.8,121.57142857142857,91.47767857142857,1236.2,121.57142857142857,91.47767857142857,1339.8,121.57142857142857,91.47767857142857,1442.5,121.57142857142857,91.47767857142857,1552.6,121.57142857142857,91.47767857142857,1659.2,121.57142857142857,91.47767857142857,1759.4,121.57142857142857,91.47767857142857,1868.9,121.57142857142857,91.47767857142857,1970.1,121.57142857142857,91.47767857142857,2074.5,121.57142857142857,91.47767857142857,2175.3,121.57142857142857,91.47767857142857,2281.7,121.57142857142857,91.47767857142857,2384.5,121.57142857142857,91.47767857142857,2496.8,121.57142857142857,91.47767857142857,2600.3,121.57142857142857,91.47767857142857,2716.8,121.57142857142857,91.47767857142857,2819.7,121.57142857142857,91.47767857142857,2919.8,121.57142857142857,91.47767857142857,3020.8,121.57142857142857,91.47767857142857,3122.2,121.57142857142857,91.47767857142857,3226,121.57142857142857,91.47767857142857,3328.5,121.57142857142857,91.47767857142857,3441.2,121.57142857142857,91.47767857142857,3548,121.57142857142857,91.47767857142857,3657.6,121.57142857142857,91.47767857142857,3759.9,121.57142857142857,91.47767857142857,3869.9,121.57142857142857,91.47767857142857,3975.2,121.57142857142857,91.47767857142857,4076.2,121.57142857142857,91.47767857142857,4180.1,121.57142857142857,91.47767857142857,4288.7,121.57142857142857,91.47767857142857,4390,121.57142857142857,91.47767857142857,4490.5,121.57142857142857,91.47767857142857,4595.6,121.57142857142857,91.47767857142857,4703.9,121.57142857142857,91.47767857142857,4804.7,121.57142857142857,91.47767857142857,4910.1]","[1313.9,1313.9,1000,0,313.9,""smooth"",""up"",""up"",""good_move"",3961.4,2647.2,2342.4,1314.2,304.8,""oops"",""up"",""down"",""bad_move"",7015.5,3053.6,2768.9,3961.9,284.7,""oops"",""up"",""left"",""good_move"",9721.1,2705,2382.5,7016.1,322.5,""oops"",""up"",""right"",""bad_move"",15243.6,5522.2,1912,12904.4,427.2,""oops"",""up"",""up"",""good_move"",17563.1,2319.1,1886.2,15244,432.9,""smooth"",""up"",""up"",""good_move"",20392.2,2828.7,2464.1,17563.5,364.6,""smooth"",""up"",""up"",""good_move"",22669.2,2276.7,1929.1,20392.6,347.6,""smooth"",""left"",""left"",""good_move"",25511,2841.3,2486.6,22669.7,354.7,""oops"",""left"",""left"",""good_move"",27986.7,2475.5,2118.6,25511.2,356.9,""smooth"",""left"",""left"",""good_move""]","",""
"3079","","<div style=""width:500px;"">
  <p>What determined the result of this run?</p>
  </div>","81","html-slider-response","60","907091","0.0-5.0-1.10","10","1","2025-07-09 08:39:30","01610cd0009c79a99da7d0a3353eb402","2.84.221.131","Mozilla/5.0 (Windows NT 10.0; Win64; x64) AppleWebKit/537.36 (KHTML, like Gecko) Chrome/138.0.0.0 Safari/537.36","WebKit","Chrome","138.0.0.0","Windows","10.0","https://app.prolific.com/","en-GB,en;q=0.9,bg-BG;q=0.8,bg;q=0.7,en-US;q=0.6","615d8873c11a1982c8838b54","683db7602f5db6a34d12d064","686e2ab8e764ff0a5cf1aa86","1","615d8873c11a1982c8838b54","1","2025-07-09T08:54:40.167Z","","","","","","","","","","","AttribQ","","50","","","","","","","","","","","","","","","","","","","","","","","","","","","","",""
"2382","","<div style=""width:500px;"">
  <p>How much control did you have over the ball?</p>
  </div>","80","html-slider-response","61","909474","0.0-5.0-2.10","10","1","2025-07-09 08:39:30","01610cd0009c79a99da7d0a3353eb402","2.84.221.131","Mozilla/5.0 (Windows NT 10.0; Win64; x64) AppleWebKit/537.36 (KHTML, like Gecko) Chrome/138.0.0.0 Safari/537.36","WebKit","Chrome","138.0.0.0","Windows","10.0","https://app.prolific.com/","en-GB,en;q=0.9,bg-BG;q=0.8,bg;q=0.7,en-US;q=0.6","615d8873c11a1982c8838b54","683db7602f5db6a34d12d064","686e2ab8e764ff0a5cf1aa86","1","615d8873c11a1982c8838b54","1","2025-07-09T08:54:42.550Z","","","","","","","","","","","ControlQ","","50","","","","","","","","","","","","","","","","","","","","","","","","","","","","",""
"2708","","<div style=""width:500px;"">
  <p>How would you describe your current emotional state?</p>
  </div>","19","html-slider-response","62","912183","0.0-5.0-3.10","10","1","2025-07-09 08:39:30","01610cd0009c79a99da7d0a3353eb402","2.84.221.131","Mozilla/5.0 (Windows NT 10.0; Win64; x64) AppleWebKit/537.36 (KHTML, like Gecko) Chrome/138.0.0.0 Safari/537.36","WebKit","Chrome","138.0.0.0","Windows","10.0","https://app.prolific.com/","en-GB,en;q=0.9,bg-BG;q=0.8,bg;q=0.7,en-US;q=0.6","615d8873c11a1982c8838b54","683db7602f5db6a34d12d064","686e2ab8e764ff0a5cf1aa86","1","615d8873c11a1982c8838b54","1","2025-07-09T08:54:45.259Z","","","","","","","","","","","StressQ","","50","","","","","","","","","","","","","","","","","","","","","","","","","","","","",""
"2327","","<div style=""width:500px;"">
  <p>What best describes how you currently feel?</p>
  </div>","73","html-slider-response","63","914511","0.0-5.0-4.10","10","1","2025-07-09 08:39:30","01610cd0009c79a99da7d0a3353eb402","2.84.221.131","Mozilla/5.0 (Windows NT 10.0; Win64; x64) AppleWebKit/537.36 (KHTML, like Gecko) Chrome/138.0.0.0 Safari/537.36","WebKit","Chrome","138.0.0.0","Windows","10.0","https://app.prolific.com/","en-GB,en;q=0.9,bg-BG;q=0.8,bg;q=0.7,en-US;q=0.6","615d8873c11a1982c8838b54","683db7602f5db6a34d12d064","686e2ab8e764ff0a5cf1aa86","1","615d8873c11a1982c8838b54","1","2025-07-09T08:54:47.587Z","","","","","","","","","","","MotivationQ","","50","","","","","","","","","","","","","","","","","","","","","","","","","","","","",""
"","","","","ctl-task-cpt","64","960479","0.0-5.0-0.11","10","1","2025-07-09 08:39:30","01610cd0009c79a99da7d0a3353eb402","2.84.221.131","Mozilla/5.0 (Windows NT 10.0; Win64; x64) AppleWebKit/537.36 (KHTML, like Gecko) Chrome/138.0.0.0 Safari/537.36","WebKit","Chrome","138.0.0.0","Windows","10.0","https://app.prolific.com/","en-GB,en;q=0.9,bg-BG;q=0.8,bg;q=0.7,en-US;q=0.6","615d8873c11a1982c8838b54","683db7602f5db6a34d12d064","686e2ab8e764ff0a5cf1aa86","1","615d8873c11a1982c8838b54","1","2025-07-09T08:55:33.555Z","","","","","","","","","","","","","","win-only","0","g1:NW,g2:SE","0.6","12","0","917364.3","977.5","5980.9","42943.1","1","4","4","6","2","-4","-4","12","16","0.09090909090909091","841.9","3000","-2310","[""down"",""right""]","{""num_key_presses"":12,""num_perfect"":8,""num_errors"":0,""num_randdir"":4,""num_randdir_good_moves"":1,""num_whilered"":0,""num_whileblue"":0,""num_blue"":1,""num_good_moves"":8}","[418.57142857142856,416.47767857142856,0.3,418.57142857142856,416.47767857142856,104.4,410.57142857142856,419.47767857142856,205.7,469.57142857142856,512.4776785714286,308.7,893.5714285714286,897.4776785714286,410.6,919.5714285714286,909.4776785714286,517.8,856.5714285714286,838.4776785714286,633.3,768.5714285714286,759.4776785714286,738.3,762.5714285714286,753.4776785714286,845.1,762.5714285714286,753.4776785714286,963.6,762.5714285714286,753.4776785714286,1067.4,762.5714285714286,753.4776785714286,1178,762.5714285714286,753.4776785714286,1291.3,762.5714285714286,753.4776785714286,1395.1,762.5714285714286,753.4776785714286,1498.7,762.5714285714286,753.4776785714286,1611.7,762.5714285714286,753.4776785714286,1713.7,762.5714285714286,753.4776785714286,1818.9,762.5714285714286,753.4776785714286,1924.1,762.5714285714286,753.4776785714286,2027.9,762.5714285714286,753.4776785714286,2127.9,762.5714285714286,753.4776785714286,2229.2,762.5714285714286,753.4776785714286,2329.3,762.5714285714286,753.4776785714286,2433.4,762.5714285714286,753.4776785714286,2533.6,762.5714285714286,753.4776785714286,2635,762.5714285714286,753.4776785714286,2738.1,762.5714285714286,753.4776785714286,2843,762.5714285714286,753.4776785714286,2943.3,762.5714285714286,753.4776785714286,3067.2,762.5714285714286,753.4776785714286,3167.9,762.5714285714286,753.4776785714286,3268.1,762.5714285714286,753.4776785714286,3373.9,762.5714285714286,753.4776785714286,3478.9,762.5714285714286,753.4776785714286,3578.9,762.5714285714286,753.4776785714286,3691.2,762.5714285714286,753.4776785714286,3793.4,762.5714285714286,753.4776785714286,3900.5,762.5714285714286,753.4776785714286,4002.9,762.5714285714286,753.4776785714286,4116.7,762.5714285714286,753.4776785714286,4218,762.5714285714286,753.4776785714286,4332.2,762.5714285714286,753.4776785714286,4433,762.5714285714286,753.4776785714286,4537.9,762.5714285714286,753.4776785714286,4643.2,762.5714285714286,753.4776785714286,4759.7,762.5714285714286,753.4776785714286,4863,762.5714285714286,753.4776785714286,4968.6]","[1376.9,1377,1000,0,377,""smooth"",""down"",""down"",""good_move"",3860.5,2483,2096.7,1377.6,386.3,""smooth"",""down"",""down"",""good_move"",6935.9,3075,2699.3,3860.9,375.7,""oops"",""right"",""left"",""bad_move"",9290,2353.5,1882.8,6936.6,470.6,""smooth"",""right"",""right"",""good_move"",14776.1,5485.6,2070.8,12375.1,330.2,""smooth"",""down"",""down"",""good_move"",17157.6,2381.1,2034.7,14776.5,346.4,""oops"",""right"",""right"",""good_move"",20121.9,2964,2572.3,17157.9,391.7,""oops"",""right"",""left"",""bad_move"",23522.8,3400.3,3088.6,20122.5,311.7,""oops"",""right"",""left"",""bad_move"",26070.4,2547.4,2151.2,23523.1,396.1,""smooth"",""left"",""left"",""bad_move"",28924.3,2853.6,2543.9,26070.7,309.7,""smooth"",""right"",""right"",""good_move"",31325.2,2400.7,2080,28924.6,320.7,""smooth"",""right"",""right"",""good_move"",33994.7,2669.3,2339.5,31325.4,329.8,""smooth"",""right"",""right"",""good_move""]","",""
"4283","","<div style=""width:500px;"">
  <p>What determined the result of this run?</p>
  </div>","27","html-slider-response","65","964764","0.0-5.0-1.11","10","1","2025-07-09 08:39:30","01610cd0009c79a99da7d0a3353eb402","2.84.221.131","Mozilla/5.0 (Windows NT 10.0; Win64; x64) AppleWebKit/537.36 (KHTML, like Gecko) Chrome/138.0.0.0 Safari/537.36","WebKit","Chrome","138.0.0.0","Windows","10.0","https://app.prolific.com/","en-GB,en;q=0.9,bg-BG;q=0.8,bg;q=0.7,en-US;q=0.6","615d8873c11a1982c8838b54","683db7602f5db6a34d12d064","686e2ab8e764ff0a5cf1aa86","1","615d8873c11a1982c8838b54","1","2025-07-09T08:55:37.840Z","","","","","","","","","","","AttribQ","","50","","","","","","","","","","","","","","","","","","","","","","","","","","","","",""
"4348","","<div style=""width:500px;"">
  <p>How much control did you have over the ball?</p>
  </div>","21","html-slider-response","66","969114","0.0-5.0-2.11","10","1","2025-07-09 08:39:30","01610cd0009c79a99da7d0a3353eb402","2.84.221.131","Mozilla/5.0 (Windows NT 10.0; Win64; x64) AppleWebKit/537.36 (KHTML, like Gecko) Chrome/138.0.0.0 Safari/537.36","WebKit","Chrome","138.0.0.0","Windows","10.0","https://app.prolific.com/","en-GB,en;q=0.9,bg-BG;q=0.8,bg;q=0.7,en-US;q=0.6","615d8873c11a1982c8838b54","683db7602f5db6a34d12d064","686e2ab8e764ff0a5cf1aa86","1","615d8873c11a1982c8838b54","1","2025-07-09T08:55:42.190Z","","","","","","","","","","","ControlQ","","50","","","","","","","","","","","","","","","","","","","","","","","","","","","","",""
"2389","","<div style=""width:500px;"">
  <p>How would you describe your current emotional state?</p>
  </div>","21","html-slider-response","67","971505","0.0-5.0-3.11","10","1","2025-07-09 08:39:30","01610cd0009c79a99da7d0a3353eb402","2.84.221.131","Mozilla/5.0 (Windows NT 10.0; Win64; x64) AppleWebKit/537.36 (KHTML, like Gecko) Chrome/138.0.0.0 Safari/537.36","WebKit","Chrome","138.0.0.0","Windows","10.0","https://app.prolific.com/","en-GB,en;q=0.9,bg-BG;q=0.8,bg;q=0.7,en-US;q=0.6","615d8873c11a1982c8838b54","683db7602f5db6a34d12d064","686e2ab8e764ff0a5cf1aa86","1","615d8873c11a1982c8838b54","1","2025-07-09T08:55:44.581Z","","","","","","","","","","","StressQ","","50","","","","","","","","","","","","","","","","","","","","","","","","","","","","",""
"1904","","<div style=""width:500px;"">
  <p>What best describes how you currently feel?</p>
  </div>","73","html-slider-response","68","973412","0.0-5.0-4.11","10","1","2025-07-09 08:39:30","01610cd0009c79a99da7d0a3353eb402","2.84.221.131","Mozilla/5.0 (Windows NT 10.0; Win64; x64) AppleWebKit/537.36 (KHTML, like Gecko) Chrome/138.0.0.0 Safari/537.36","WebKit","Chrome","138.0.0.0","Windows","10.0","https://app.prolific.com/","en-GB,en;q=0.9,bg-BG;q=0.8,bg;q=0.7,en-US;q=0.6","615d8873c11a1982c8838b54","683db7602f5db6a34d12d064","686e2ab8e764ff0a5cf1aa86","1","615d8873c11a1982c8838b54","1","2025-07-09T08:55:46.488Z","","","","","","","","","","","MotivationQ","","50","","","","","","","","","","","","","","","","","","","","","","","","","","","","",""
"","","","","ctl-task-cpt","69","999779","0.0-5.0-0.12","10","1","2025-07-09 08:39:30","01610cd0009c79a99da7d0a3353eb402","2.84.221.131","Mozilla/5.0 (Windows NT 10.0; Win64; x64) AppleWebKit/537.36 (KHTML, like Gecko) Chrome/138.0.0.0 Safari/537.36","WebKit","Chrome","138.0.0.0","Windows","10.0","https://app.prolific.com/","en-GB,en;q=0.9,bg-BG;q=0.8,bg;q=0.7,en-US;q=0.6","615d8873c11a1982c8838b54","683db7602f5db6a34d12d064","686e2ab8e764ff0a5cf1aa86","1","615d8873c11a1982c8838b54","1","2025-07-09T08:56:12.855Z","","","","","","","","","","","","","","win-only","0","g1:NW,g2:SE","0.7","13","0","976264.4","1128.4","6137.3","23345.7","1","4","8","6","2","8","8","20","12","0.15151515151515152","904.8","3000","1610","[""down"",""right""]","{""num_key_presses"":6,""num_perfect"":4,""num_errors"":0,""num_randdir"":2,""num_randdir_good_moves"":2,""num_whilered"":0,""num_whileblue"":0,""num_blue"":1,""num_good_moves"":6}","[413.57142857142856,427.47767857142856,0.3,413.57142857142856,427.47767857142856,101.4,413.57142857142856,427.47767857142856,204.8,413.57142857142856,427.47767857142856,311.1,541.5714285714286,558.4776785714286,412.1,774.5714285714286,750.4776785714286,512.9,871.5714285714286,819.4776785714286,612.9,857.5714285714286,809.4776785714286,717.3,805.5714285714286,772.4776785714286,820.3,792.5714285714286,770.4776785714286,922.2,792.5714285714286,770.4776785714286,1022.3,792.5714285714286,770.4776785714286,1126,792.5714285714286,770.4776785714286,1227.9,792.5714285714286,770.4776785714286,1345.3,792.5714285714286,770.4776785714286,1446.8,792.5714285714286,770.4776785714286,1547.4,792.5714285714286,770.4776785714286,1648,792.5714285714286,770.4776785714286,1753.9,792.5714285714286,770.4776785714286,1857.6,792.5714285714286,770.4776785714286,1957.6,792.5714285714286,770.4776785714286,2064.2,792.5714285714286,770.4776785714286,2175.6,792.5714285714286,770.4776785714286,2277.4,792.5714285714286,770.4776785714286,2384.9,792.5714285714286,770.4776785714286,2487.6,792.5714285714286,770.4776785714286,2597.2,792.5714285714286,770.4776785714286,2702.3,792.5714285714286,770.4776785714286,2802.8,792.5714285714286,770.4776785714286,2908.6,792.5714285714286,770.4776785714286,3013.4,792.5714285714286,770.4776785714286,3117.2,792.5714285714286,770.4776785714286,3227.5,792.5714285714286,770.4776785714286,3328.5,792.5714285714286,770.4776785714286,3437,792.5714285714286,770.4776785714286,3547.3,792.5714285714286,770.4776785714286,3655.9,792.5714285714286,770.4776785714286,3757.1,792.5714285714286,770.4776785714286,3857.2,792.5714285714286,770.4776785714286,3957.3,792.5714285714286,770.4776785714286,4057.9,792.5714285714286,770.4776785714286,4162.4,792.5714285714286,770.4776785714286,4267.1,792.5714285714286,770.4776785714286,4367.1,792.5714285714286,770.4776785714286,4472.3,792.5714285714286,770.4776785714286,4572.3,792.5714285714286,770.4776785714286,4675.3,792.5714285714286,770.4776785714286,4778.2,792.5714285714286,770.4776785714286,4878.2,792.5714285714286,770.4776785714286,4979.2]","[1345.7,1345.7,1000,0,345.7,""smooth"",""down"",""down"",""good_move"",3415.3,2069.3,1772.4,1346,296.9,""smooth"",""down"",""down"",""good_move"",5390.8,1975.3,1597.1,3415.5,378.2,""oops"",""down"",""right"",""good_move"",7827.3,2436.2,2098.3,5391.2,337.8,""oops"",""down"",""right"",""good_move"",10899.2,3071.6,2754,7827.6,317.6,""smooth"",""down"",""down"",""good_move"",17058.3,6158.8,2426.6,14298.4,333.3,""smooth"",""right"",""right"",""good_move""]","",""
"4530","","<div style=""width:500px;"">
  <p>What determined the result of this run?</p>
  </div>","68","html-slider-response","70","1004310","0.0-5.0-1.12","10","1","2025-07-09 08:39:30","01610cd0009c79a99da7d0a3353eb402","2.84.221.131","Mozilla/5.0 (Windows NT 10.0; Win64; x64) AppleWebKit/537.36 (KHTML, like Gecko) Chrome/138.0.0.0 Safari/537.36","WebKit","Chrome","138.0.0.0","Windows","10.0","https://app.prolific.com/","en-GB,en;q=0.9,bg-BG;q=0.8,bg;q=0.7,en-US;q=0.6","615d8873c11a1982c8838b54","683db7602f5db6a34d12d064","686e2ab8e764ff0a5cf1aa86","1","615d8873c11a1982c8838b54","1","2025-07-09T08:56:17.386Z","","","","","","","","","","","AttribQ","","50","","","","","","","","","","","","","","","","","","","","","","","","","","","","",""
"3353","","<div style=""width:500px;"">
  <p>How much control did you have over the ball?</p>
  </div>","60","html-slider-response","71","1007664","0.0-5.0-2.12","10","1","2025-07-09 08:39:30","01610cd0009c79a99da7d0a3353eb402","2.84.221.131","Mozilla/5.0 (Windows NT 10.0; Win64; x64) AppleWebKit/537.36 (KHTML, like Gecko) Chrome/138.0.0.0 Safari/537.36","WebKit","Chrome","138.0.0.0","Windows","10.0","https://app.prolific.com/","en-GB,en;q=0.9,bg-BG;q=0.8,bg;q=0.7,en-US;q=0.6","615d8873c11a1982c8838b54","683db7602f5db6a34d12d064","686e2ab8e764ff0a5cf1aa86","1","615d8873c11a1982c8838b54","1","2025-07-09T08:56:20.740Z","","","","","","","","","","","ControlQ","","50","","","","","","","","","","","","","","","","","","","","","","","","","","","","",""
"2350","","<div style=""width:500px;"">
  <p>How would you describe your current emotional state?</p>
  </div>","26","html-slider-response","72","1010016","0.0-5.0-3.12","10","1","2025-07-09 08:39:30","01610cd0009c79a99da7d0a3353eb402","2.84.221.131","Mozilla/5.0 (Windows NT 10.0; Win64; x64) AppleWebKit/537.36 (KHTML, like Gecko) Chrome/138.0.0.0 Safari/537.36","WebKit","Chrome","138.0.0.0","Windows","10.0","https://app.prolific.com/","en-GB,en;q=0.9,bg-BG;q=0.8,bg;q=0.7,en-US;q=0.6","615d8873c11a1982c8838b54","683db7602f5db6a34d12d064","686e2ab8e764ff0a5cf1aa86","1","615d8873c11a1982c8838b54","1","2025-07-09T08:56:23.092Z","","","","","","","","","","","StressQ","","50","","","","","","","","","","","","","","","","","","","","","","","","","","","","",""
"2602","","<div style=""width:500px;"">
  <p>What best describes how you currently feel?</p>
  </div>","71","html-slider-response","73","1012620","0.0-5.0-4.12","10","1","2025-07-09 08:39:30","01610cd0009c79a99da7d0a3353eb402","2.84.221.131","Mozilla/5.0 (Windows NT 10.0; Win64; x64) AppleWebKit/537.36 (KHTML, like Gecko) Chrome/138.0.0.0 Safari/537.36","WebKit","Chrome","138.0.0.0","Windows","10.0","https://app.prolific.com/","en-GB,en;q=0.9,bg-BG;q=0.8,bg;q=0.7,en-US;q=0.6","615d8873c11a1982c8838b54","683db7602f5db6a34d12d064","686e2ab8e764ff0a5cf1aa86","1","615d8873c11a1982c8838b54","1","2025-07-09T08:56:25.696Z","","","","","","","","","","","MotivationQ","","50","","","","","","","","","","","","","","","","","","","","","","","","","","","","",""
