"rt","response_timestamp","stimulus","response","trial_type","trial_index","time_elapsed","internal_node_id","run_id","condition","recorded_at","source_code_version","ip","user_agent","device","browser","browser_version","platform","platform_version","referer","accept_language","PROLIFIC_PID","STUDY_ID","SESSION_ID","WEEK","BATCH","prolific_id","week","batch","realtime","success","responses","item_order","radio_event_ids","radio_event_times","key_event_times","mouse_event_times","straightlining","zigzagging","honeypot","eventType","view_history","slider_start","which_type","canvas_config","goals_layout","control_level","trial_number","tutorial_trial_number","trial_start_time","phase1_start_time","phase2_start_time","phase3_start_time","goal_1_value","goal_1_distance","goal_2_value","goal_2_distance","goal_selected","outcome","outcome_total","participant_final_score","participant_initial_score","participant_final_score_prop","goal_choice_rt","allocated_time","allocated_time_remaining","goal_direction","counts","mouse_movements","key_presses","question_order","question_id"
"3395","1753939540842","<p style='font-size:40px;line-height:1.25'><strong>Welcome to the experiment!</strong></p><p style='font-size:1.1em;line-height:1.25'>Thank you for participanting in our experiment again! You will be asked to play the Dysfunctional Ball Game again. We will briefly recap the rules before we start.</p><p style='font-size:1.1em;line-height:1.25'>Press <strong>Next</strong> to continue.</p>","0","custom-html-button-response","0","3400","0.0-0.0","302","1","2025-07-31 05:25:32","1f75c3e559b7213887762d5229550c2b","175.176.9.30","Mozilla/5.0 (Windows NT 10.0; Win64; x64) AppleWebKit/537.36 (KHTML, like Gecko) Chrome/138.0.0.0 Safari/537.36","WebKit","Chrome","138.0.0.0","Windows","10.0","https://app.prolific.com/","en-US,en;q=0.9","65f0831414fd6e9e51e08708","6877631c9844ddd5501205fc","688afd92311d94410195f69f","3","1","65f0831414fd6e9e51e08708","3","1","2025-07-31T05:25:40.844Z","","","","","","","","","","","","","","","","","","","","","","","","","","","","","","","","","","","","","","","","","",""
"1669","","","","fullscreen","1","6081","0.0-1.0","302","1","2025-07-31 05:25:32","1f75c3e559b7213887762d5229550c2b","175.176.9.30","Mozilla/5.0 (Windows NT 10.0; Win64; x64) AppleWebKit/537.36 (KHTML, like Gecko) Chrome/138.0.0.0 Safari/537.36","WebKit","Chrome","138.0.0.0","Windows","10.0","https://app.prolific.com/","en-US,en;q=0.9","65f0831414fd6e9e51e08708","6877631c9844ddd5501205fc","688afd92311d94410195f69f","3","1","65f0831414fd6e9e51e08708","3","1","","true","","","","","","","","","","","","","","","","","","","","","","","","","","","","","","","","","","","","","","","","",""
"1576","1753939545103","<p style='font-size:1.1em;line-height:1.25'>In the following, we will ask you a few questions relating to your feelings in the last 24 hours.<br></p><p style='font-size:1.1em;line-height:1.25'>Press the <strong>Next</strong> button to continue.</p>","0","custom-html-button-response","2","7659","0.0-2.0-0.0","302","1","2025-07-31 05:25:32","1f75c3e559b7213887762d5229550c2b","175.176.9.30","Mozilla/5.0 (Windows NT 10.0; Win64; x64) AppleWebKit/537.36 (KHTML, like Gecko) Chrome/138.0.0.0 Safari/537.36","WebKit","Chrome","138.0.0.0","Windows","10.0","https://app.prolific.com/","en-US,en;q=0.9","65f0831414fd6e9e51e08708","6877631c9844ddd5501205fc","688afd92311d94410195f69f","3","1","65f0831414fd6e9e51e08708","3","1","2025-07-31T05:25:45.103Z","","","","","","","","","","","","","","","","","","","","","","","","","","","","","","","","","","","","","","","","","",""
"75639.60000002384","","","","survey-template","3","83309","0.0-2.0-1.0","302","1","2025-07-31 05:25:32","1f75c3e559b7213887762d5229550c2b","175.176.9.30","Mozilla/5.0 (Windows NT 10.0; Win64; x64) AppleWebKit/537.36 (KHTML, like Gecko) Chrome/138.0.0.0 Safari/537.36","WebKit","Chrome","138.0.0.0","Windows","10.0","https://app.prolific.com/","en-US,en;q=0.9","65f0831414fd6e9e51e08708","6877631c9844ddd5501205fc","688afd92311d94410195f69f","3","1","65f0831414fd6e9e51e08708","3","1","2025-07-31T05:27:00.753Z","","{""Q01"":""1"",""Q02"":""0"",""Q03"":""0"",""Q04"":""0"",""Q05"":""1"",""Q06"":""0"",""Q07"":""1"",""Q08"":""1"",""Q09"":""1"",""Q10"":""1"",""Q11"":""0"",""Q12"":""0"",""Q13"":""5"",""Q14"":""1"",""Q15"":""1"",""Q16"":""1"",""Q17"":""0"",""Q18"":""0"",""Q19"":""0"",""Q20"":""0"",""Q21"":""0"",""Q22"":""0""}","[0,1,2,3,4,5,6,7,8,9,10,11,12,13,14,15,16,17,18,19,20,21]","[""Q01"",""Q02"",""Q03"",""Q04"",""Q05"",""Q06"",""Q07"",""Q08"",""Q09"",""Q10"",""Q11"",""Q12"",""Q12"",""Q13"",""Q14"",""Q14"",""Q15"",""Q16"",""Q17"",""Q18"",""Q19"",""Q20"",""Q21"",""Q22""]","[5571.600000023842,7049.900000095367,8661.700000047684,9967.800000071526,12357.900000095367,14434.100000023842,16042.700000047684,24368.300000071526,25851.5,36012.200000047684,37897.5,41048.300000071526,42491.40000009537,45192.700000047684,48258.60000002384,49911.800000071526,52998.800000071526,55181.700000047684,57283,59559.40000009537,67134.30000007153,68602.30000007153,71245.10000002384,73188.10000002384]","[]","[0.10000002384185791,5571.600000023842,7049.900000095367,8661.700000047684,9967.800000071526,12357.900000095367,14434.100000023842,16042.700000047684,24368.300000071526,25851.5,28178.900000095367,34123.200000047684,36012.200000047684,37897.5,41048.300000071526,42491.40000009537,45192.700000047684,48258.60000002384,49911.800000071526,52998.800000071526,55181.700000047684,57283,59559.40000009537,67134.30000007153,68602.30000007153,71245.10000002384,73188.10000002384,75629.10000002384]","0.5454545454545454","0.3333333333333333","0","drsp","","","","","","","","","","","","","","","","","","","","","","","","","","","","","","",""
"7492","","","","survey-template","4","90805","0.0-2.0-2.0","302","1","2025-07-31 05:25:32","1f75c3e559b7213887762d5229550c2b","175.176.9.30","Mozilla/5.0 (Windows NT 10.0; Win64; x64) AppleWebKit/537.36 (KHTML, like Gecko) Chrome/138.0.0.0 Safari/537.36","WebKit","Chrome","138.0.0.0","Windows","10.0","https://app.prolific.com/","en-US,en;q=0.9","65f0831414fd6e9e51e08708","6877631c9844ddd5501205fc","688afd92311d94410195f69f","3","1","65f0831414fd6e9e51e08708","3","1","2025-07-31T05:27:08.249Z","","{""Q01"":""1"",""Q02"":""5"",""Q03"":""0""}","[0,1,2]","[""Q01"",""Q02"",""Q03""]","[3058.2999999523163,4963.100000023842,6312.899999976158]","[]","[3058.2999999523163,4963.100000023842,6312.899999976158,7490.399999976158]","0.6666666666666666","0.5","0","stress","","","","","","","","","","","","","","","","","","","","","","","","","","","","","","",""
"49128","","","","instructions","5","139934","0.0-3.0-0.0","302","1","2025-07-31 05:25:32","1f75c3e559b7213887762d5229550c2b","175.176.9.30","Mozilla/5.0 (Windows NT 10.0; Win64; x64) AppleWebKit/537.36 (KHTML, like Gecko) Chrome/138.0.0.0 Safari/537.36","WebKit","Chrome","138.0.0.0","Windows","10.0","https://app.prolific.com/","en-US,en;q=0.9","65f0831414fd6e9e51e08708","6877631c9844ddd5501205fc","688afd92311d94410195f69f","3","1","65f0831414fd6e9e51e08708","3","1","","","","","","","","","","","","","[{""page_index"":0,""viewing_time"":49127}]","","","","","","","","","","","","","","","","","","","","","","","","","","","","","",""
"4783","","<p>Before you start with this game please answer the following three questions yourself. </p>
  <p>Through this game, we measure several aspects of your cognitive performance, such as reaction times, multi-tasking capabilities </p>
  <p>and the ability to assess the situation you are in.</p>
  <p></p>
  <p><b>How good do you usually are in such tasks?</b></p>","66","html-slider-response","6","144719","0.0-4.0-0.0","302","1","2025-07-31 05:25:32","1f75c3e559b7213887762d5229550c2b","175.176.9.30","Mozilla/5.0 (Windows NT 10.0; Win64; x64) AppleWebKit/537.36 (KHTML, like Gecko) Chrome/138.0.0.0 Safari/537.36","WebKit","Chrome","138.0.0.0","Windows","10.0","https://app.prolific.com/","en-US,en;q=0.9","65f0831414fd6e9e51e08708","6877631c9844ddd5501205fc","688afd92311d94410195f69f","3","1","65f0831414fd6e9e51e08708","3","1","2025-07-31T05:28:02.163Z","","","","","","","","","","","PreSkillQ","","50","","","","","","","","","","","","","","","","","","","","","","","","","","","","",""
"3274","","<div style=""width:500px;"">
  <p>How well do you think you will perform in this task compared to other participants?</p>
  </div>","76","html-slider-response","7","147995","0.0-4.0-1.0","302","1","2025-07-31 05:25:32","1f75c3e559b7213887762d5229550c2b","175.176.9.30","Mozilla/5.0 (Windows NT 10.0; Win64; x64) AppleWebKit/537.36 (KHTML, like Gecko) Chrome/138.0.0.0 Safari/537.36","WebKit","Chrome","138.0.0.0","Windows","10.0","https://app.prolific.com/","en-US,en;q=0.9","65f0831414fd6e9e51e08708","6877631c9844ddd5501205fc","688afd92311d94410195f69f","3","1","65f0831414fd6e9e51e08708","3","1","2025-07-31T05:28:05.439Z","","","","","","","","","","","PrePerfQ","","50","","","","","","","","","","","","","","","","","","","","","","","","","","","","",""
"2269","","<div style=""width:500px;"">
  <p>What best describes how you currently feel?</p>
  </div>","68","html-slider-response","8","150265","0.0-4.0-2.0","302","1","2025-07-31 05:25:32","1f75c3e559b7213887762d5229550c2b","175.176.9.30","Mozilla/5.0 (Windows NT 10.0; Win64; x64) AppleWebKit/537.36 (KHTML, like Gecko) Chrome/138.0.0.0 Safari/537.36","WebKit","Chrome","138.0.0.0","Windows","10.0","https://app.prolific.com/","en-US,en;q=0.9","65f0831414fd6e9e51e08708","6877631c9844ddd5501205fc","688afd92311d94410195f69f","3","1","65f0831414fd6e9e51e08708","3","1","2025-07-31T05:28:07.710Z","","","","","","","","","","","PreMotivationQ","","50","","","","","","","","","","","","","","","","","","","","","","","","","","","","",""
"","","","","ctl-task-cpt","9","168826","0.0-5.0-0.0","302","1","2025-07-31 05:25:32","1f75c3e559b7213887762d5229550c2b","175.176.9.30","Mozilla/5.0 (Windows NT 10.0; Win64; x64) AppleWebKit/537.36 (KHTML, like Gecko) Chrome/138.0.0.0 Safari/537.36","WebKit","Chrome","138.0.0.0","Windows","10.0","https://app.prolific.com/","en-US,en;q=0.9","65f0831414fd6e9e51e08708","6877631c9844ddd5501205fc","688afd92311d94410195f69f","3","1","65f0831414fd6e9e51e08708","3","1","2025-07-31T05:28:26.270Z","","","","","","","","","","","","","","win-only","1","g1:NE,g2:SW","1","1","0","156490.9","1382.3","6386.6","15549.3","1","4","8","6","1","1","0","0","0","0","1952.6","3000","1890","[""up"",""right""]","{""num_key_presses"":4,""num_perfect"":3,""num_errors"":1,""num_randdir"":0,""num_randdir_good_moves"":0,""num_whilered"":0,""num_whileblue"":1,""num_blue"":1,""num_good_moves"":4}","[294.22232142857143,294.12857142857143,0.4,294.22232142857143,294.12857142857143,102.9,294.22232142857143,294.12857142857143,203.5,294.22232142857143,294.12857142857143,308.2,294.22232142857143,294.12857142857143,409.2,294.22232142857143,294.12857142857143,516.7,294.22232142857143,294.12857142857143,616.9,294.22232142857143,294.12857142857143,717,294.22232142857143,294.12857142857143,818.9,294.22232142857143,294.12857142857143,921.1,318.22232142857143,257.12857142857143,1022.4,382.22232142857143,183.12857142857143,1129.6,455.22232142857143,143.12857142857143,1238.1,484.22232142857143,114.12857142857143,1338.1,496.22232142857143,106.12857142857143,1439,504.22232142857143,98.12857142857143,1542.8,506.22232142857143,88.12857142857143,1648.2,506.22232142857143,86.12857142857143,1754.7,506.22232142857143,86.12857142857143,1855.3,506.22232142857143,86.12857142857143,1961.7,506.22232142857143,86.12857142857143,2069.2,506.22232142857143,86.12857142857143,2177.6,506.22232142857143,86.12857142857143,2278,506.22232142857143,86.12857142857143,2382.1,506.22232142857143,86.12857142857143,2487.8,506.22232142857143,86.12857142857143,2587.9,506.22232142857143,86.12857142857143,2688.5,506.22232142857143,86.12857142857143,2789.8,506.22232142857143,86.12857142857143,2897.8,506.22232142857143,86.12857142857143,2997.9,506.22232142857143,86.12857142857143,3098.4,506.22232142857143,86.12857142857143,3205.6,506.22232142857143,86.12857142857143,3307.2,506.22232142857143,86.12857142857143,3418.2,506.22232142857143,86.12857142857143,3518.4,506.22232142857143,86.12857142857143,3619.7,506.22232142857143,86.12857142857143,3725.8,506.22232142857143,86.12857142857143,3827.8,506.22232142857143,86.12857142857143,3937.4,506.22232142857143,86.12857142857143,4038.1,506.22232142857143,86.12857142857143,4147.8,506.22232142857143,86.12857142857143,4247.8,506.22232142857143,86.12857142857143,4348,506.22232142857143,86.12857142857143,4448.1,506.22232142857143,86.12857142857143,4553.9,506.22232142857143,86.12857142857143,4663.1,506.22232142857143,86.12857142857143,4767.5,506.22232142857143,86.12857142857143,4867.8,506.22232142857143,86.12857142857143,4970.7]","[1514.5,1514.4,1000,0.1,514.5,""smooth"",""up"",""up"",""good_move"",3232.1,1716.8,1144.1,1515.4,572.6,""smooth"",""right"",""right"",""good_move"",5515.6,2281.9,1799.2,3233.8,482.7,""smooth"",""up"",""up"",""good_move"",9025.9,3509.2,3086.5,5516.7,422.7,""while_blue"",""right"",""right"",""good_move""]","",""
"6607","","<div style=""width:500px;"">
  <p>What determined the result of this run?</p>
  </div>","55","html-slider-response","10","175436","0.0-5.0-1.0","302","1","2025-07-31 05:25:32","1f75c3e559b7213887762d5229550c2b","175.176.9.30","Mozilla/5.0 (Windows NT 10.0; Win64; x64) AppleWebKit/537.36 (KHTML, like Gecko) Chrome/138.0.0.0 Safari/537.36","WebKit","Chrome","138.0.0.0","Windows","10.0","https://app.prolific.com/","en-US,en;q=0.9","65f0831414fd6e9e51e08708","6877631c9844ddd5501205fc","688afd92311d94410195f69f","3","1","65f0831414fd6e9e51e08708","3","1","2025-07-31T05:28:32.880Z","","","","","","","","","","","AttribQ","","50","","","","","","","","","","","","","","","","","","","","","","","","","","","","",""
"3395","","<div style=""width:500px;"">
  <p>How much control did you have over the ball?</p>
  </div>","70","html-slider-response","11","178833","0.0-5.0-2.0","302","1","2025-07-31 05:25:32","1f75c3e559b7213887762d5229550c2b","175.176.9.30","Mozilla/5.0 (Windows NT 10.0; Win64; x64) AppleWebKit/537.36 (KHTML, like Gecko) Chrome/138.0.0.0 Safari/537.36","WebKit","Chrome","138.0.0.0","Windows","10.0","https://app.prolific.com/","en-US,en;q=0.9","65f0831414fd6e9e51e08708","6877631c9844ddd5501205fc","688afd92311d94410195f69f","3","1","65f0831414fd6e9e51e08708","3","1","2025-07-31T05:28:36.277Z","","","","","","","","","","","ControlQ","","50","","","","","","","","","","","","","","","","","","","","","","","","","","","","",""
"3192","","<div style=""width:500px;"">
  <p>How would you describe your current emotional state?</p>
  </div>","53","html-slider-response","12","182027","0.0-5.0-3.0","302","1","2025-07-31 05:25:32","1f75c3e559b7213887762d5229550c2b","175.176.9.30","Mozilla/5.0 (Windows NT 10.0; Win64; x64) AppleWebKit/537.36 (KHTML, like Gecko) Chrome/138.0.0.0 Safari/537.36","WebKit","Chrome","138.0.0.0","Windows","10.0","https://app.prolific.com/","en-US,en;q=0.9","65f0831414fd6e9e51e08708","6877631c9844ddd5501205fc","688afd92311d94410195f69f","3","1","65f0831414fd6e9e51e08708","3","1","2025-07-31T05:28:39.471Z","","","","","","","","","","","StressQ","","50","","","","","","","","","","","","","","","","","","","","","","","","","","","","",""
"4556","","<div style=""width:500px;"">
  <p>What best describes how you currently feel?</p>
  </div>","91","html-slider-response","13","186584","0.0-5.0-4.0","302","1","2025-07-31 05:25:32","1f75c3e559b7213887762d5229550c2b","175.176.9.30","Mozilla/5.0 (Windows NT 10.0; Win64; x64) AppleWebKit/537.36 (KHTML, like Gecko) Chrome/138.0.0.0 Safari/537.36","WebKit","Chrome","138.0.0.0","Windows","10.0","https://app.prolific.com/","en-US,en;q=0.9","65f0831414fd6e9e51e08708","6877631c9844ddd5501205fc","688afd92311d94410195f69f","3","1","65f0831414fd6e9e51e08708","3","1","2025-07-31T05:28:44.028Z","","","","","","","","","","","MotivationQ","","50","","","","","","","","","","","","","","","","","","","","","","","","","","","","",""
"","","","","ctl-task-cpt","14","224705","0.0-5.0-0.1","302","1","2025-07-31 05:25:32","1f75c3e559b7213887762d5229550c2b","175.176.9.30","Mozilla/5.0 (Windows NT 10.0; Win64; x64) AppleWebKit/537.36 (KHTML, like Gecko) Chrome/138.0.0.0 Safari/537.36","WebKit","Chrome","138.0.0.0","Windows","10.0","https://app.prolific.com/","en-US,en;q=0.9","65f0831414fd6e9e51e08708","6877631c9844ddd5501205fc","688afd92311d94410195f69f","3","1","65f0831414fd6e9e51e08708","3","1","2025-07-31T05:29:22.149Z","","","","","","","","","","","","","","win-only","0","g1:NW,g2:SE","0.9","2","0","192807","1385.7","6389.2","35107.8","1","4","4","6","1","1","1","1","0","0.007575757575757576","1429.1","3000","415","[""left"",""up""]","{""num_key_presses"":6,""num_perfect"":5,""num_errors"":0,""num_randdir"":1,""num_randdir_good_moves"":0,""num_whilered"":0,""num_whileblue"":0,""num_blue"":3,""num_good_moves"":5}","[293.22232142857143,299.12857142857143,0.3,293.22232142857143,299.12857142857143,105.2,293.22232142857143,299.12857142857143,211.5,293.22232142857143,299.12857142857143,315.6,293.22232142857143,299.12857142857143,423,293.22232142857143,299.12857142857143,528.2,293.22232142857143,299.12857142857143,631.5,293.22232142857143,299.12857142857143,732.8,283.22232142857143,288.12857142857143,843.9,128.22232142857143,136.12857142857143,947.2,29.222321428571426,77.12857142857143,1047.8,9.222321428571426,66.12857142857143,1158.2,11.222321428571426,63.128571428571426,1262,11.222321428571426,65.12857142857143,1373.2,11.222321428571426,65.12857142857143,1478.7,11.222321428571426,65.12857142857143,1581.5,11.222321428571426,65.12857142857143,1692.5,11.222321428571426,65.12857142857143,1796.4,11.222321428571426,65.12857142857143,1902.9,11.222321428571426,65.12857142857143,2011.8,11.222321428571426,65.12857142857143,2115.1,11.222321428571426,65.12857142857143,2218.2,11.222321428571426,65.12857142857143,2318.4,11.222321428571426,65.12857142857143,2421.6,11.222321428571426,65.12857142857143,2524.7,11.222321428571426,65.12857142857143,2629.8,11.222321428571426,65.12857142857143,2730.3,11.222321428571426,65.12857142857143,2831.5,11.222321428571426,65.12857142857143,2964.2,11.222321428571426,65.12857142857143,3066.2,11.222321428571426,65.12857142857143,3166.6,11.222321428571426,65.12857142857143,3268.6,11.222321428571426,65.12857142857143,3378.2,11.222321428571426,65.12857142857143,3483.1,11.222321428571426,65.12857142857143,3588.4,11.222321428571426,65.12857142857143,3693.8,11.222321428571426,65.12857142857143,3793.9,11.222321428571426,65.12857142857143,3894.2,11.222321428571426,65.12857142857143,3995.9,11.222321428571426,65.12857142857143,4097.6,11.222321428571426,65.12857142857143,4202,11.222321428571426,65.12857142857143,4303.3,11.222321428571426,65.12857142857143,4405,11.222321428571426,65.12857142857143,4512.3,11.222321428571426,65.12857142857143,4615.4,11.222321428571426,65.12857142857143,4719,11.222321428571426,65.12857142857143,4829.6,11.222321428571426,65.12857142857143,4930.6]","[1488.4,1488.6,1000,0,488.6,""smooth"",""up"",""up"",""good_move"",8124.4,6635.1,2603.6,4994.5,526.3,""smooth"",""left"",""left"",""good_move"",15145.2,7020.3,3097.7,11454.4,593.1,""oops"",""left"",""right"",""bad_move"",18987.1,3840.9,2950.1,15146.2,890.8,""smooth"",""up"",""up"",""good_move"",26035.6,7048.1,2962.7,22599.9,473,""smooth"",""left"",""left"",""good_move"",28577.8,2541.3,1558.4,26036.6,982.8,""smooth"",""left"",""left"",""good_move""]","",""
"4334","","<div style=""width:500px;"">
  <p>What determined the result of this run?</p>
  </div>","89","html-slider-response","15","229041","0.0-5.0-1.1","302","1","2025-07-31 05:25:32","1f75c3e559b7213887762d5229550c2b","175.176.9.30","Mozilla/5.0 (Windows NT 10.0; Win64; x64) AppleWebKit/537.36 (KHTML, like Gecko) Chrome/138.0.0.0 Safari/537.36","WebKit","Chrome","138.0.0.0","Windows","10.0","https://app.prolific.com/","en-US,en;q=0.9","65f0831414fd6e9e51e08708","6877631c9844ddd5501205fc","688afd92311d94410195f69f","3","1","65f0831414fd6e9e51e08708","3","1","2025-07-31T05:29:26.485Z","","","","","","","","","","","AttribQ","","50","","","","","","","","","","","","","","","","","","","","","","","","","","","","",""
"2351","","<div style=""width:500px;"">
  <p>How much control did you have over the ball?</p>
  </div>","78","html-slider-response","16","231394","0.0-5.0-2.1","302","1","2025-07-31 05:25:32","1f75c3e559b7213887762d5229550c2b","175.176.9.30","Mozilla/5.0 (Windows NT 10.0; Win64; x64) AppleWebKit/537.36 (KHTML, like Gecko) Chrome/138.0.0.0 Safari/537.36","WebKit","Chrome","138.0.0.0","Windows","10.0","https://app.prolific.com/","en-US,en;q=0.9","65f0831414fd6e9e51e08708","6877631c9844ddd5501205fc","688afd92311d94410195f69f","3","1","65f0831414fd6e9e51e08708","3","1","2025-07-31T05:29:28.838Z","","","","","","","","","","","ControlQ","","50","","","","","","","","","","","","","","","","","","","","","","","","","","","","",""
"3881","","<div style=""width:500px;"">
  <p>How would you describe your current emotional state?</p>
  </div>","19","html-slider-response","17","235277","0.0-5.0-3.1","302","1","2025-07-31 05:25:32","1f75c3e559b7213887762d5229550c2b","175.176.9.30","Mozilla/5.0 (Windows NT 10.0; Win64; x64) AppleWebKit/537.36 (KHTML, like Gecko) Chrome/138.0.0.0 Safari/537.36","WebKit","Chrome","138.0.0.0","Windows","10.0","https://app.prolific.com/","en-US,en;q=0.9","65f0831414fd6e9e51e08708","6877631c9844ddd5501205fc","688afd92311d94410195f69f","3","1","65f0831414fd6e9e51e08708","3","1","2025-07-31T05:29:32.722Z","","","","","","","","","","","StressQ","","50","","","","","","","","","","","","","","","","","","","","","","","","","","","","",""
"2561","","<div style=""width:500px;"">
  <p>What best describes how you currently feel?</p>
  </div>","83","html-slider-response","18","237840","0.0-5.0-4.1","302","1","2025-07-31 05:25:32","1f75c3e559b7213887762d5229550c2b","175.176.9.30","Mozilla/5.0 (Windows NT 10.0; Win64; x64) AppleWebKit/537.36 (KHTML, like Gecko) Chrome/138.0.0.0 Safari/537.36","WebKit","Chrome","138.0.0.0","Windows","10.0","https://app.prolific.com/","en-US,en;q=0.9","65f0831414fd6e9e51e08708","6877631c9844ddd5501205fc","688afd92311d94410195f69f","3","1","65f0831414fd6e9e51e08708","3","1","2025-07-31T05:29:35.284Z","","","","","","","","","","","MotivationQ","","50","","","","","","","","","","","","","","","","","","","","","","","","","","","","",""
"","","","","ctl-task-cpt","19","288388","0.0-5.0-0.2","302","1","2025-07-31 05:25:32","1f75c3e559b7213887762d5229550c2b","175.176.9.30","Mozilla/5.0 (Windows NT 10.0; Win64; x64) AppleWebKit/537.36 (KHTML, like Gecko) Chrome/138.0.0.0 Safari/537.36","WebKit","Chrome","138.0.0.0","Windows","10.0","https://app.prolific.com/","en-US,en;q=0.9","65f0831414fd6e9e51e08708","6877631c9844ddd5501205fc","688afd92311d94410195f69f","3","1","65f0831414fd6e9e51e08708","3","1","2025-07-31T05:30:25.833Z","","","","","","","","","","","","","","win-only","1","g1:NE,g2:SW","0.8","3","0","244064.5","1322.4","6324.1","47519.1","1","4","8","6","1","-1","-1","0","1","0","1571","3000","-2185","[""up"",""right""]","{""num_key_presses"":7,""num_perfect"":5,""num_errors"":0,""num_randdir"":2,""num_randdir_good_moves"":0,""num_whilered"":0,""num_whileblue"":0,""num_blue"":5,""num_good_moves"":5}","[293.22232142857143,293.12857142857143,0.5,293.22232142857143,293.12857142857143,100.3,293.22232142857143,293.12857142857143,211.8,293.22232142857143,293.12857142857143,319.3,293.22232142857143,293.12857142857143,421.9,293.22232142857143,293.12857142857143,522.5,293.22232142857143,293.12857142857143,631.8,293.22232142857143,293.12857142857143,732.7,428.22232142857143,173.12857142857143,835.3,462.22232142857143,124.12857142857143,935.6,481.22232142857143,112.12857142857143,1038.2,505.22232142857143,90.12857142857143,1142,519.2223214285714,85.12857142857143,1242.4,520.2223214285714,84.12857142857143,1342.5,520.2223214285714,84.12857142857143,1450.4,520.2223214285714,84.12857142857143,1553.2,520.2223214285714,84.12857142857143,1653.8,520.2223214285714,84.12857142857143,1763.3,520.2223214285714,84.12857142857143,1875.7,520.2223214285714,84.12857142857143,1980.8,520.2223214285714,84.12857142857143,2084.4,520.2223214285714,84.12857142857143,2184.5,520.2223214285714,84.12857142857143,2286.5,520.2223214285714,84.12857142857143,2387.1,520.2223214285714,84.12857142857143,2492.2,520.2223214285714,84.12857142857143,2593.6,520.2223214285714,84.12857142857143,2696.7,520.2223214285714,84.12857142857143,2804.8,520.2223214285714,84.12857142857143,2906.5,520.2223214285714,84.12857142857143,3012.9,520.2223214285714,84.12857142857143,3113.4,520.2223214285714,84.12857142857143,3218.6,520.2223214285714,84.12857142857143,3323.3,520.2223214285714,84.12857142857143,3433.8,520.2223214285714,84.12857142857143,3535.3,520.2223214285714,84.12857142857143,3638.8,520.2223214285714,84.12857142857143,3742,520.2223214285714,84.12857142857143,3842.5,520.2223214285714,84.12857142857143,3942.9,520.2223214285714,84.12857142857143,4043,520.2223214285714,84.12857142857143,4144.6,520.2223214285714,84.12857142857143,4248,520.2223214285714,84.12857142857143,4349.4,520.2223214285714,84.12857142857143,4449.6,520.2223214285714,84.12857142857143,4551.6,520.2223214285714,84.12857142857143,4661.6,520.2223214285714,84.12857142857143,4762.6,520.2223214285714,84.12857142857143,4864,520.2223214285714,84.12857142857143,4967.4]","[1613.1,1613.1,1000,0.1,613.1,""smooth"",""up"",""up"",""good_move"",4613,2998.7,2449.8,1614.3,549,""oops"",""right"",""left"",""bad_move"",23987.3,19373.6,2738.4,20725.1,523.9,""oops"",""right"",""left"",""bad_move"",27799.2,3811,3037,23988.2,774,""smooth"",""up"",""up"",""good_move"",31161.8,3362.4,2827.4,27799.6,534.9,""smooth"",""right"",""right"",""good_move"",34565.9,3402.5,2926.1,31163.4,476.4,""smooth"",""right"",""right"",""good_move"",37810.9,3244.6,2847.4,34566.4,397.2,""smooth"",""right"",""right"",""good_move""]","",""
"3345","","<div style=""width:500px;"">
  <p>What determined the result of this run?</p>
  </div>","85","html-slider-response","20","291736","0.0-5.0-1.2","302","1","2025-07-31 05:25:32","1f75c3e559b7213887762d5229550c2b","175.176.9.30","Mozilla/5.0 (Windows NT 10.0; Win64; x64) AppleWebKit/537.36 (KHTML, like Gecko) Chrome/138.0.0.0 Safari/537.36","WebKit","Chrome","138.0.0.0","Windows","10.0","https://app.prolific.com/","en-US,en;q=0.9","65f0831414fd6e9e51e08708","6877631c9844ddd5501205fc","688afd92311d94410195f69f","3","1","65f0831414fd6e9e51e08708","3","1","2025-07-31T05:30:29.180Z","","","","","","","","","","","AttribQ","","50","","","","","","","","","","","","","","","","","","","","","","","","","","","","",""
"5666","","<div style=""width:500px;"">
  <p>How much control did you have over the ball?</p>
  </div>","4","html-slider-response","21","297403","0.0-5.0-2.2","302","1","2025-07-31 05:25:32","1f75c3e559b7213887762d5229550c2b","175.176.9.30","Mozilla/5.0 (Windows NT 10.0; Win64; x64) AppleWebKit/537.36 (KHTML, like Gecko) Chrome/138.0.0.0 Safari/537.36","WebKit","Chrome","138.0.0.0","Windows","10.0","https://app.prolific.com/","en-US,en;q=0.9","65f0831414fd6e9e51e08708","6877631c9844ddd5501205fc","688afd92311d94410195f69f","3","1","65f0831414fd6e9e51e08708","3","1","2025-07-31T05:30:34.847Z","","","","","","","","","","","ControlQ","","50","","","","","","","","","","","","","","","","","","","","","","","","","","","","",""
"3108","","<div style=""width:500px;"">
  <p>How would you describe your current emotional state?</p>
  </div>","68","html-slider-response","22","300513","0.0-5.0-3.2","302","1","2025-07-31 05:25:32","1f75c3e559b7213887762d5229550c2b","175.176.9.30","Mozilla/5.0 (Windows NT 10.0; Win64; x64) AppleWebKit/537.36 (KHTML, like Gecko) Chrome/138.0.0.0 Safari/537.36","WebKit","Chrome","138.0.0.0","Windows","10.0","https://app.prolific.com/","en-US,en;q=0.9","65f0831414fd6e9e51e08708","6877631c9844ddd5501205fc","688afd92311d94410195f69f","3","1","65f0831414fd6e9e51e08708","3","1","2025-07-31T05:30:37.957Z","","","","","","","","","","","StressQ","","50","","","","","","","","","","","","","","","","","","","","","","","","","","","","",""
"3785","","<div style=""width:500px;"">
  <p>What best describes how you currently feel?</p>
  </div>","85","html-slider-response","23","304300","0.0-5.0-4.2","302","1","2025-07-31 05:25:32","1f75c3e559b7213887762d5229550c2b","175.176.9.30","Mozilla/5.0 (Windows NT 10.0; Win64; x64) AppleWebKit/537.36 (KHTML, like Gecko) Chrome/138.0.0.0 Safari/537.36","WebKit","Chrome","138.0.0.0","Windows","10.0","https://app.prolific.com/","en-US,en;q=0.9","65f0831414fd6e9e51e08708","6877631c9844ddd5501205fc","688afd92311d94410195f69f","3","1","65f0831414fd6e9e51e08708","3","1","2025-07-31T05:30:41.744Z","","","","","","","","","","","MotivationQ","","50","","","","","","","","","","","","","","","","","","","","","","","","","","","","",""
"","","","","ctl-task-cpt","24","334456","0.0-5.0-0.3","302","1","2025-07-31 05:25:32","1f75c3e559b7213887762d5229550c2b","175.176.9.30","Mozilla/5.0 (Windows NT 10.0; Win64; x64) AppleWebKit/537.36 (KHTML, like Gecko) Chrome/138.0.0.0 Safari/537.36","WebKit","Chrome","138.0.0.0","Windows","10.0","https://app.prolific.com/","en-US,en;q=0.9","65f0831414fd6e9e51e08708","6877631c9844ddd5501205fc","688afd92311d94410195f69f","3","1","65f0831414fd6e9e51e08708","3","1","2025-07-31T05:31:11.900Z","","","","","","","","","","","","","","win-only","0","g1:NW,g2:SE","0.7","4","0","310524.6","1077.6","6078.4","27138.6","1","4","4","6","1","1","1","1","0","0.007575757575757576","1673.9","3000","865","[""left"",""up""]","{""num_key_presses"":6,""num_perfect"":4,""num_errors"":0,""num_randdir"":2,""num_randdir_good_moves"":1,""num_whilered"":0,""num_whileblue"":0,""num_blue"":1,""num_good_moves"":5}","[291.22232142857143,300.12857142857143,0.3,291.22232142857143,300.12857142857143,105.7,291.22232142857143,300.12857142857143,215.4,291.22232142857143,300.12857142857143,315.4,291.22232142857143,300.12857142857143,415.5,291.22232142857143,300.12857142857143,521.5,291.22232142857143,300.12857142857143,624.7,291.22232142857143,300.12857142857143,725.8,291.22232142857143,300.12857142857143,835.4,64.22232142857143,45.128571428571426,938.1,8.222321428571426,-36.871428571428574,1043,5.222321428571426,-40.871428571428574,1145.3,18.222321428571426,-15.871428571428574,1248.8,33.222321428571426,11.128571428571426,1355.2,34.222321428571426,21.128571428571426,1455.7,34.222321428571426,21.128571428571426,1560.5,34.222321428571426,21.128571428571426,1665.6,34.222321428571426,21.128571428571426,1771.6,34.222321428571426,21.128571428571426,1875.9,34.222321428571426,21.128571428571426,1979.4,34.222321428571426,21.128571428571426,2096.9,34.222321428571426,21.128571428571426,2197.1,34.222321428571426,21.128571428571426,2300.3,34.222321428571426,21.128571428571426,2415,34.222321428571426,21.128571428571426,2515.3,34.222321428571426,21.128571428571426,2622.3,34.222321428571426,21.128571428571426,2726.4,34.222321428571426,21.128571428571426,2830.4,34.222321428571426,21.128571428571426,2931.6,34.222321428571426,21.128571428571426,3039,34.222321428571426,21.128571428571426,3141.7,34.222321428571426,21.128571428571426,3246.7,34.222321428571426,21.128571428571426,3346.7,34.222321428571426,21.128571428571426,3448.7,34.222321428571426,21.128571428571426,3556.2,34.222321428571426,21.128571428571426,3659.1,34.222321428571426,21.128571428571426,3765.4,34.222321428571426,21.128571428571426,3877.3,34.222321428571426,21.128571428571426,3980.2,34.222321428571426,21.128571428571426,4093.1,34.222321428571426,21.128571428571426,4199.6,34.222321428571426,21.128571428571426,4305,34.222321428571426,21.128571428571426,4408.8,34.222321428571426,21.128571428571426,4509.5,34.222321428571426,21.128571428571426,4614.7,34.222321428571426,21.128571428571426,4715.1,34.222321428571426,21.128571428571426,4822,34.222321428571426,21.128571428571426,4929]","[1513.4,1513.4,1000,0,513.4,""oops"",""up"",""up"",""good_move"",5132.7,3617.9,2813.5,1514.8,804.4,""smooth"",""left"",""left"",""good_move"",7750.9,2617.3,1981.6,5133.6,635.8,""smooth"",""up"",""up"",""good_move"",14602.5,6851.2,2508.3,11604.9,489.3,""oops"",""left"",""right"",""bad_move"",17067.6,2463.7,1899.2,14604,564.4,""smooth"",""left"",""left"",""good_move"",20911.6,3842.8,3333.9,17068.8,508.9,""smooth"",""left"",""left"",""good_move""]","",""
"3301","","<div style=""width:500px;"">
  <p>What determined the result of this run?</p>
  </div>","89","html-slider-response","25","337760","0.0-5.0-1.3","302","1","2025-07-31 05:25:32","1f75c3e559b7213887762d5229550c2b","175.176.9.30","Mozilla/5.0 (Windows NT 10.0; Win64; x64) AppleWebKit/537.36 (KHTML, like Gecko) Chrome/138.0.0.0 Safari/537.36","WebKit","Chrome","138.0.0.0","Windows","10.0","https://app.prolific.com/","en-US,en;q=0.9","65f0831414fd6e9e51e08708","6877631c9844ddd5501205fc","688afd92311d94410195f69f","3","1","65f0831414fd6e9e51e08708","3","1","2025-07-31T05:31:15.204Z","","","","","","","","","","","AttribQ","","50","","","","","","","","","","","","","","","","","","","","","","","","","","","","",""
"7043","","<div style=""width:500px;"">
  <p>How much control did you have over the ball?</p>
  </div>","81","html-slider-response","26","344804","0.0-5.0-2.3","302","1","2025-07-31 05:25:32","1f75c3e559b7213887762d5229550c2b","175.176.9.30","Mozilla/5.0 (Windows NT 10.0; Win64; x64) AppleWebKit/537.36 (KHTML, like Gecko) Chrome/138.0.0.0 Safari/537.36","WebKit","Chrome","138.0.0.0","Windows","10.0","https://app.prolific.com/","en-US,en;q=0.9","65f0831414fd6e9e51e08708","6877631c9844ddd5501205fc","688afd92311d94410195f69f","3","1","65f0831414fd6e9e51e08708","3","1","2025-07-31T05:31:22.249Z","","","","","","","","","","","ControlQ","","50","","","","","","","","","","","","","","","","","","","","","","","","","","","","",""
"4986","","<div style=""width:500px;"">
  <p>How would you describe your current emotional state?</p>
  </div>","9","html-slider-response","27","349793","0.0-5.0-3.3","302","1","2025-07-31 05:25:32","1f75c3e559b7213887762d5229550c2b","175.176.9.30","Mozilla/5.0 (Windows NT 10.0; Win64; x64) AppleWebKit/537.36 (KHTML, like Gecko) Chrome/138.0.0.0 Safari/537.36","WebKit","Chrome","138.0.0.0","Windows","10.0","https://app.prolific.com/","en-US,en;q=0.9","65f0831414fd6e9e51e08708","6877631c9844ddd5501205fc","688afd92311d94410195f69f","3","1","65f0831414fd6e9e51e08708","3","1","2025-07-31T05:31:27.237Z","","","","","","","","","","","StressQ","","50","","","","","","","","","","","","","","","","","","","","","","","","","","","","",""
"3207","","<div style=""width:500px;"">
  <p>What best describes how you currently feel?</p>
  </div>","83","html-slider-response","28","353004","0.0-5.0-4.3","302","1","2025-07-31 05:25:32","1f75c3e559b7213887762d5229550c2b","175.176.9.30","Mozilla/5.0 (Windows NT 10.0; Win64; x64) AppleWebKit/537.36 (KHTML, like Gecko) Chrome/138.0.0.0 Safari/537.36","WebKit","Chrome","138.0.0.0","Windows","10.0","https://app.prolific.com/","en-US,en;q=0.9","65f0831414fd6e9e51e08708","6877631c9844ddd5501205fc","688afd92311d94410195f69f","3","1","65f0831414fd6e9e51e08708","3","1","2025-07-31T05:31:30.448Z","","","","","","","","","","","MotivationQ","","50","","","","","","","","","","","","","","","","","","","","","","","","","","","","",""
"","","","","ctl-task-cpt","29","388983","0.0-5.0-0.4","302","1","2025-07-31 05:25:32","1f75c3e559b7213887762d5229550c2b","175.176.9.30","Mozilla/5.0 (Windows NT 10.0; Win64; x64) AppleWebKit/537.36 (KHTML, like Gecko) Chrome/138.0.0.0 Safari/537.36","WebKit","Chrome","138.0.0.0","Windows","10.0","https://app.prolific.com/","en-US,en;q=0.9","65f0831414fd6e9e51e08708","6877631c9844ddd5501205fc","688afd92311d94410195f69f","3","1","65f0831414fd6e9e51e08708","3","1","2025-07-31T05:32:06.428Z","","","","","","","","","","","","","","win-only","1","g1:NE,g2:SW","0.6","5","0","359230.3","1248.9","6260.1","32950.8","1","4","8","6","1","1","1","2","1","0.015151515151515152","1455.2","3000","390","[""up"",""right""]","{""num_key_presses"":8,""num_perfect"":6,""num_errors"":0,""num_randdir"":2,""num_randdir_good_moves"":0,""num_whilered"":0,""num_whileblue"":0,""num_blue"":1,""num_good_moves"":6}","[293.22232142857143,292.12857142857143,0.2,293.22232142857143,292.12857142857143,100.9,293.22232142857143,292.12857142857143,208.7,293.22232142857143,292.12857142857143,309.9,293.22232142857143,292.12857142857143,423.8,293.22232142857143,292.12857142857143,525.3,293.22232142857143,292.12857142857143,629.1,383.22232142857143,219.12857142857143,736.4,554.2223214285714,100.12857142857143,841.1,593.2223214285714,58.128571428571426,941.7,593.2223214285714,44.128571428571426,1042.7,553.2223214285714,38.128571428571426,1149.5,551.2223214285714,39.128571428571426,1250,551.2223214285714,40.128571428571426,1353.2,551.2223214285714,40.128571428571426,1460.5,551.2223214285714,40.128571428571426,1562.7,551.2223214285714,40.128571428571426,1663.8,551.2223214285714,40.128571428571426,1768.8,551.2223214285714,40.128571428571426,1875.4,551.2223214285714,40.128571428571426,1975.9,551.2223214285714,40.128571428571426,2080,551.2223214285714,40.128571428571426,2186.2,551.2223214285714,40.128571428571426,2289.6,551.2223214285714,40.128571428571426,2394.3,551.2223214285714,40.128571428571426,2504.3,551.2223214285714,40.128571428571426,2610.2,551.2223214285714,40.128571428571426,2713.2,551.2223214285714,40.128571428571426,2821.6,551.2223214285714,40.128571428571426,2926.4,551.2223214285714,40.128571428571426,3030.8,551.2223214285714,40.128571428571426,3134,551.2223214285714,40.128571428571426,3243.6,551.2223214285714,40.128571428571426,3349.4,551.2223214285714,40.128571428571426,3454.6,551.2223214285714,40.128571428571426,3555.3,551.2223214285714,40.128571428571426,3660.4,551.2223214285714,40.128571428571426,3761.9,551.2223214285714,40.128571428571426,3863.4,551.2223214285714,40.128571428571426,3964,551.2223214285714,40.128571428571426,4070.9,551.2223214285714,40.128571428571426,4176.4,551.2223214285714,40.128571428571426,4277.3,551.2223214285714,40.128571428571426,4385.8,551.2223214285714,40.128571428571426,4488.6,551.2223214285714,40.128571428571426,4589.2,551.2223214285714,40.128571428571426,4689.5,551.2223214285714,40.128571428571426,4803.3,551.2223214285714,40.128571428571426,4910]","[5170.2,5170.2,2548.1,2007.9,614.2,""smooth"",""up"",""up"",""good_move"",8754.7,3583.1,3002.8,5171.6,580.3,""smooth"",""right"",""right"",""good_move"",11364.3,2608.4,2053.6,8755.9,554.8,""oops"",""up"",""left"",""bad_move"",14840,3475.1,2803,11364.9,672.1,""oops"",""right"",""left"",""bad_move"",17640,2799.3,2330.3,14840.7,469,""smooth"",""up"",""up"",""good_move"",20927.8,3287.2,2783.1,17640.7,504,""smooth"",""right"",""right"",""good_move"",23464.2,2535.7,2052.9,20928.6,482.8,""smooth"",""right"",""right"",""good_move"",26546.3,3081.8,2641.5,23464.5,440.3,""smooth"",""right"",""right"",""good_move""]","",""
"2572","","<div style=""width:500px;"">
  <p>What determined the result of this run?</p>
  </div>","86","html-slider-response","30","391558","0.0-5.0-1.4","302","1","2025-07-31 05:25:32","1f75c3e559b7213887762d5229550c2b","175.176.9.30","Mozilla/5.0 (Windows NT 10.0; Win64; x64) AppleWebKit/537.36 (KHTML, like Gecko) Chrome/138.0.0.0 Safari/537.36","WebKit","Chrome","138.0.0.0","Windows","10.0","https://app.prolific.com/","en-US,en;q=0.9","65f0831414fd6e9e51e08708","6877631c9844ddd5501205fc","688afd92311d94410195f69f","3","1","65f0831414fd6e9e51e08708","3","1","2025-07-31T05:32:09.003Z","","","","","","","","","","","AttribQ","","50","","","","","","","","","","","","","","","","","","","","","","","","","","","","",""
"7142","","<div style=""width:500px;"">
  <p>How much control did you have over the ball?</p>
  </div>","25","html-slider-response","31","398702","0.0-5.0-2.4","302","1","2025-07-31 05:25:32","1f75c3e559b7213887762d5229550c2b","175.176.9.30","Mozilla/5.0 (Windows NT 10.0; Win64; x64) AppleWebKit/537.36 (KHTML, like Gecko) Chrome/138.0.0.0 Safari/537.36","WebKit","Chrome","138.0.0.0","Windows","10.0","https://app.prolific.com/","en-US,en;q=0.9","65f0831414fd6e9e51e08708","6877631c9844ddd5501205fc","688afd92311d94410195f69f","3","1","65f0831414fd6e9e51e08708","3","1","2025-07-31T05:32:16.146Z","","","","","","","","","","","ControlQ","","50","","","","","","","","","","","","","","","","","","","","","","","","","","","","",""
"5575","","<div style=""width:500px;"">
  <p>How would you describe your current emotional state?</p>
  </div>","19","html-slider-response","32","404279","0.0-5.0-3.4","302","1","2025-07-31 05:25:32","1f75c3e559b7213887762d5229550c2b","175.176.9.30","Mozilla/5.0 (Windows NT 10.0; Win64; x64) AppleWebKit/537.36 (KHTML, like Gecko) Chrome/138.0.0.0 Safari/537.36","WebKit","Chrome","138.0.0.0","Windows","10.0","https://app.prolific.com/","en-US,en;q=0.9","65f0831414fd6e9e51e08708","6877631c9844ddd5501205fc","688afd92311d94410195f69f","3","1","65f0831414fd6e9e51e08708","3","1","2025-07-31T05:32:21.723Z","","","","","","","","","","","StressQ","","50","","","","","","","","","","","","","","","","","","","","","","","","","","","","",""
"4777","","<div style=""width:500px;"">
  <p>What best describes how you currently feel?</p>
  </div>","88","html-slider-response","33","409060","0.0-5.0-4.4","302","1","2025-07-31 05:25:32","1f75c3e559b7213887762d5229550c2b","175.176.9.30","Mozilla/5.0 (Windows NT 10.0; Win64; x64) AppleWebKit/537.36 (KHTML, like Gecko) Chrome/138.0.0.0 Safari/537.36","WebKit","Chrome","138.0.0.0","Windows","10.0","https://app.prolific.com/","en-US,en;q=0.9","65f0831414fd6e9e51e08708","6877631c9844ddd5501205fc","688afd92311d94410195f69f","3","1","65f0831414fd6e9e51e08708","3","1","2025-07-31T05:32:26.504Z","","","","","","","","","","","MotivationQ","","50","","","","","","","","","","","","","","","","","","","","","","","","","","","","",""
"","","","","ctl-task-cpt","34","429762","0.0-5.0-0.5","302","1","2025-07-31 05:25:32","1f75c3e559b7213887762d5229550c2b","175.176.9.30","Mozilla/5.0 (Windows NT 10.0; Win64; x64) AppleWebKit/537.36 (KHTML, like Gecko) Chrome/138.0.0.0 Safari/537.36","WebKit","Chrome","138.0.0.0","Windows","10.0","https://app.prolific.com/","en-US,en;q=0.9","65f0831414fd6e9e51e08708","6877631c9844ddd5501205fc","688afd92311d94410195f69f","3","1","65f0831414fd6e9e51e08708","3","1","2025-07-31T05:32:47.206Z","","","","","","","","","","","","","","win-only","1","g1:NE,g2:SW","0.5","6","0","415286.3","1298.9","6305.8","17691.2","1","4","4","6","1","1","1","3","2","0.022727272727272728","1509.5","3000","1765","[""up"",""right""]","{""num_key_presses"":4,""num_perfect"":3,""num_errors"":0,""num_randdir"":1,""num_randdir_good_moves"":1,""num_whilered"":0,""num_whileblue"":0,""num_blue"":0,""num_good_moves"":4}","[301.22232142857143,290.12857142857143,0.8,301.22232142857143,290.12857142857143,104.8,301.22232142857143,290.12857142857143,206.1,301.22232142857143,290.12857142857143,308.7,301.22232142857143,290.12857142857143,421.9,301.22232142857143,290.12857142857143,523,301.22232142857143,290.12857142857143,633.9,353.22232142857143,232.12857142857143,740.8,595.2223214285714,-10.871428571428574,852.4,606.2223214285714,-27.871428571428574,957.5,601.2223214285714,-23.871428571428574,1069,579.2223214285714,9.128571428571426,1172.9,559.2223214285714,34.128571428571426,1274.3,556.2223214285714,38.128571428571426,1375.1,556.2223214285714,38.128571428571426,1479.4,556.2223214285714,38.128571428571426,1593.3,556.2223214285714,38.128571428571426,1699,556.2223214285714,38.128571428571426,1820,556.2223214285714,38.128571428571426,1935.5,556.2223214285714,38.128571428571426,2059.7,556.2223214285714,38.128571428571426,2163.2,556.2223214285714,38.128571428571426,2269.5,556.2223214285714,38.128571428571426,2386.5,556.2223214285714,38.128571428571426,2493,556.2223214285714,38.128571428571426,2596.3,556.2223214285714,38.128571428571426,2702,556.2223214285714,38.128571428571426,2814.6,556.2223214285714,38.128571428571426,2914.6,556.2223214285714,38.128571428571426,3022.6,556.2223214285714,38.128571428571426,3129.9,556.2223214285714,38.128571428571426,3230.3,556.2223214285714,38.128571428571426,3332.7,556.2223214285714,38.128571428571426,3437.3,556.2223214285714,38.128571428571426,3539.5,556.2223214285714,38.128571428571426,3649.1,556.2223214285714,38.128571428571426,3754.9,556.2223214285714,38.128571428571426,3855.4,556.2223214285714,38.128571428571426,3955.7,556.2223214285714,38.128571428571426,4065.1,556.2223214285714,38.128571428571426,4187.2,556.2223214285714,38.128571428571426,4289.8,556.2223214285714,38.128571428571426,4389.8,556.2223214285714,38.128571428571426,4498.9,556.2223214285714,38.128571428571426,4607.4,556.2223214285714,38.128571428571426,4710.9,556.2223214285714,38.128571428571426,4822.7,556.2223214285714,38.128571428571426,4922.9]","[1491.1,1491.1,1000,0,491.1,""smooth"",""up"",""up"",""good_move"",5011.5,3519.3,2897.5,1492.2,621.8,""smooth"",""right"",""right"",""good_move"",8107.7,3093.8,2573.7,5013.9,520.1,""smooth"",""up"",""up"",""good_move"",11228.3,3119.9,2571.9,8108.4,548,""oops"",""right"",""right"",""good_move""]","",""
"5566","","<div style=""width:500px;"">
  <p>What determined the result of this run?</p>
  </div>","82","html-slider-response","35","435330","0.0-5.0-1.5","302","1","2025-07-31 05:25:32","1f75c3e559b7213887762d5229550c2b","175.176.9.30","Mozilla/5.0 (Windows NT 10.0; Win64; x64) AppleWebKit/537.36 (KHTML, like Gecko) Chrome/138.0.0.0 Safari/537.36","WebKit","Chrome","138.0.0.0","Windows","10.0","https://app.prolific.com/","en-US,en;q=0.9","65f0831414fd6e9e51e08708","6877631c9844ddd5501205fc","688afd92311d94410195f69f","3","1","65f0831414fd6e9e51e08708","3","1","2025-07-31T05:32:52.775Z","","","","","","","","","","","AttribQ","","50","","","","","","","","","","","","","","","","","","","","","","","","","","","","",""
"3711","","<div style=""width:500px;"">
  <p>How much control did you have over the ball?</p>
  </div>","84","html-slider-response","36","439044","0.0-5.0-2.5","302","1","2025-07-31 05:25:32","1f75c3e559b7213887762d5229550c2b","175.176.9.30","Mozilla/5.0 (Windows NT 10.0; Win64; x64) AppleWebKit/537.36 (KHTML, like Gecko) Chrome/138.0.0.0 Safari/537.36","WebKit","Chrome","138.0.0.0","Windows","10.0","https://app.prolific.com/","en-US,en;q=0.9","65f0831414fd6e9e51e08708","6877631c9844ddd5501205fc","688afd92311d94410195f69f","3","1","65f0831414fd6e9e51e08708","3","1","2025-07-31T05:32:56.488Z","","","","","","","","","","","ControlQ","","50","","","","","","","","","","","","","","","","","","","","","","","","","","","","",""
"2947","","<div style=""width:500px;"">
  <p>How would you describe your current emotional state?</p>
  </div>","7","html-slider-response","37","441994","0.0-5.0-3.5","302","1","2025-07-31 05:25:32","1f75c3e559b7213887762d5229550c2b","175.176.9.30","Mozilla/5.0 (Windows NT 10.0; Win64; x64) AppleWebKit/537.36 (KHTML, like Gecko) Chrome/138.0.0.0 Safari/537.36","WebKit","Chrome","138.0.0.0","Windows","10.0","https://app.prolific.com/","en-US,en;q=0.9","65f0831414fd6e9e51e08708","6877631c9844ddd5501205fc","688afd92311d94410195f69f","3","1","65f0831414fd6e9e51e08708","3","1","2025-07-31T05:32:59.438Z","","","","","","","","","","","StressQ","","50","","","","","","","","","","","","","","","","","","","","","","","","","","","","",""
"3718","","<div style=""width:500px;"">
  <p>What best describes how you currently feel?</p>
  </div>","92","html-slider-response","38","445715","0.0-5.0-4.5","302","1","2025-07-31 05:25:32","1f75c3e559b7213887762d5229550c2b","175.176.9.30","Mozilla/5.0 (Windows NT 10.0; Win64; x64) AppleWebKit/537.36 (KHTML, like Gecko) Chrome/138.0.0.0 Safari/537.36","WebKit","Chrome","138.0.0.0","Windows","10.0","https://app.prolific.com/","en-US,en;q=0.9","65f0831414fd6e9e51e08708","6877631c9844ddd5501205fc","688afd92311d94410195f69f","3","1","65f0831414fd6e9e51e08708","3","1","2025-07-31T05:33:03.159Z","","","","","","","","","","","MotivationQ","","50","","","","","","","","","","","","","","","","","","","","","","","","","","","","",""
"","","","","ctl-task-cpt","39","506497","0.0-5.0-0.6","302","1","2025-07-31 05:25:32","1f75c3e559b7213887762d5229550c2b","175.176.9.30","Mozilla/5.0 (Windows NT 10.0; Win64; x64) AppleWebKit/537.36 (KHTML, like Gecko) Chrome/138.0.0.0 Safari/537.36","WebKit","Chrome","138.0.0.0","Windows","10.0","https://app.prolific.com/","en-US,en;q=0.9","65f0831414fd6e9e51e08708","6877631c9844ddd5501205fc","688afd92311d94410195f69f","3","1","65f0831414fd6e9e51e08708","3","1","2025-07-31T05:34:03.941Z","","","","","","","","","","","","","","win-only","0","g1:NW,g2:SE","0.4","7","0","451941","1354","6360","57764.7","1","4","8","6","1","-1","-2","1","3","0.007575757575757576","1221.9","3000","-1680","[""left"",""up""]","{""num_key_presses"":13,""num_perfect"":4,""num_errors"":1,""num_randdir"":8,""num_randdir_good_moves"":2,""num_whilered"":0,""num_whileblue"":0,""num_blue"":3,""num_good_moves"":6}","[290.22232142857143,296.12857142857143,1,290.22232142857143,296.12857142857143,104.3,290.22232142857143,296.12857142857143,206.5,290.22232142857143,296.12857142857143,313.3,290.22232142857143,296.12857142857143,421.4,290.22232142857143,296.12857142857143,525.9,290.22232142857143,296.12857142857143,629.3,98.22232142857143,114.12857142857143,748.7,54.222321428571426,60.128571428571426,851.4,54.222321428571426,59.128571428571426,959.4,54.222321428571426,57.128571428571426,1065.1,54.222321428571426,57.128571428571426,1179,54.222321428571426,57.128571428571426,1288.8,54.222321428571426,57.128571428571426,1398.8,54.222321428571426,57.128571428571426,1498.9,54.222321428571426,57.128571428571426,1601.9,54.222321428571426,57.128571428571426,1707.4,54.222321428571426,57.128571428571426,1810,54.222321428571426,57.128571428571426,1913.7,54.222321428571426,57.128571428571426,2019.3,54.222321428571426,57.128571428571426,2126,54.222321428571426,57.128571428571426,2232.7,54.222321428571426,57.128571428571426,2339.6,54.222321428571426,57.128571428571426,2442.9,54.222321428571426,57.128571428571426,2543.1,54.222321428571426,57.128571428571426,2643.4,54.222321428571426,57.128571428571426,2747.2,54.222321428571426,57.128571428571426,2849.4,54.222321428571426,57.128571428571426,2959.6,54.222321428571426,57.128571428571426,3065.4,54.222321428571426,57.128571428571426,3170.1,54.222321428571426,57.128571428571426,3277.1,54.222321428571426,57.128571428571426,3382.8,54.222321428571426,57.128571428571426,3482.8,54.222321428571426,57.128571428571426,3585.8,54.222321428571426,57.128571428571426,3689.7,54.222321428571426,57.128571428571426,3793.6,54.222321428571426,57.128571428571426,3897.4,54.222321428571426,57.128571428571426,4001.8,54.222321428571426,57.128571428571426,4106.2,54.222321428571426,57.128571428571426,4212,54.222321428571426,57.128571428571426,4318.1,54.222321428571426,57.128571428571426,4422.4,54.222321428571426,57.128571428571426,4526.4,54.222321428571426,57.128571428571426,4632.4,54.222321428571426,57.128571428571426,4737.8,54.222321428571426,57.128571428571426,4843.6,54.222321428571426,57.128571428571426,4951.4]","[4157.8,4157.8,1608.9,2007,541.9,""smooth"",""up"",""up"",""good_move"",6907.4,2748.5,2255.2,4158.9,493.3,""oops"",""left"",""up"",""good_move"",10034.6,3126.7,2666.3,6907.9,460.4,""oops"",""left"",""right"",""bad_move"",16966.5,6930.5,2968,13539.3,459.2,""oops"",""left"",""down"",""bad_move"",19921.3,2954.2,2429.6,16967.1,524.6,""smooth"",""left"",""left"",""good_move"",22841.3,2919.2,2471.2,19922.1,448,""smooth"",""left"",""left"",""good_move"",26076.5,3234.4,2772.2,22842.1,462.2,""oops"",""left"",""right"",""bad_move"",34130.2,8052.4,3027.5,30645,457.7,""oops"",""left"",""right"",""bad_move"",37197.1,3066.6,2626.5,34130.5,440.1,""smooth"",""up"",""up"",""good_move"",40151.1,2952.8,2581.3,37198.4,371.5,""oops"",""left"",""left"",""good_move"",42482.6,2330.3,1887,40152.3,443.3,""oops"",""left"",""right"",""bad_move"",45336.7,2852.3,2468.4,42484.4,383.9,""oops"",""left"",""down"",""bad_move"",47966.9,2628.3,3202.5,45338.6,-574.2,""error"",""-"",""-"",""no_move""]","",""
"7499","","<div style=""width:500px;"">
  <p>What determined the result of this run?</p>
  </div>","3","html-slider-response","40","513998","0.0-5.0-1.6","302","1","2025-07-31 05:25:32","1f75c3e559b7213887762d5229550c2b","175.176.9.30","Mozilla/5.0 (Windows NT 10.0; Win64; x64) AppleWebKit/537.36 (KHTML, like Gecko) Chrome/138.0.0.0 Safari/537.36","WebKit","Chrome","138.0.0.0","Windows","10.0","https://app.prolific.com/","en-US,en;q=0.9","65f0831414fd6e9e51e08708","6877631c9844ddd5501205fc","688afd92311d94410195f69f","3","1","65f0831414fd6e9e51e08708","3","1","2025-07-31T05:34:11.442Z","","","","","","","","","","","AttribQ","","50","","","","","","","","","","","","","","","","","","","","","","","","","","","","",""
"3538","","<div style=""width:500px;"">
  <p>How much control did you have over the ball?</p>
  </div>","1","html-slider-response","41","517539","0.0-5.0-2.6","302","1","2025-07-31 05:25:32","1f75c3e559b7213887762d5229550c2b","175.176.9.30","Mozilla/5.0 (Windows NT 10.0; Win64; x64) AppleWebKit/537.36 (KHTML, like Gecko) Chrome/138.0.0.0 Safari/537.36","WebKit","Chrome","138.0.0.0","Windows","10.0","https://app.prolific.com/","en-US,en;q=0.9","65f0831414fd6e9e51e08708","6877631c9844ddd5501205fc","688afd92311d94410195f69f","3","1","65f0831414fd6e9e51e08708","3","1","2025-07-31T05:34:14.984Z","","","","","","","","","","","ControlQ","","50","","","","","","","","","","","","","","","","","","","","","","","","","","","","",""
"3628","","<div style=""width:500px;"">
  <p>How would you describe your current emotional state?</p>
  </div>","60","html-slider-response","42","521171","0.0-5.0-3.6","302","1","2025-07-31 05:25:32","1f75c3e559b7213887762d5229550c2b","175.176.9.30","Mozilla/5.0 (Windows NT 10.0; Win64; x64) AppleWebKit/537.36 (KHTML, like Gecko) Chrome/138.0.0.0 Safari/537.36","WebKit","Chrome","138.0.0.0","Windows","10.0","https://app.prolific.com/","en-US,en;q=0.9","65f0831414fd6e9e51e08708","6877631c9844ddd5501205fc","688afd92311d94410195f69f","3","1","65f0831414fd6e9e51e08708","3","1","2025-07-31T05:34:18.615Z","","","","","","","","","","","StressQ","","50","","","","","","","","","","","","","","","","","","","","","","","","","","","","",""
"4657","","<div style=""width:500px;"">
  <p>What best describes how you currently feel?</p>
  </div>","86","html-slider-response","43","525832","0.0-5.0-4.6","302","1","2025-07-31 05:25:32","1f75c3e559b7213887762d5229550c2b","175.176.9.30","Mozilla/5.0 (Windows NT 10.0; Win64; x64) AppleWebKit/537.36 (KHTML, like Gecko) Chrome/138.0.0.0 Safari/537.36","WebKit","Chrome","138.0.0.0","Windows","10.0","https://app.prolific.com/","en-US,en;q=0.9","65f0831414fd6e9e51e08708","6877631c9844ddd5501205fc","688afd92311d94410195f69f","3","1","65f0831414fd6e9e51e08708","3","1","2025-07-31T05:34:23.276Z","","","","","","","","","","","MotivationQ","","50","","","","","","","","","","","","","","","","","","","","","","","","","","","","",""
"","","","","ctl-task-cpt","44","573320","0.0-5.0-0.7","302","1","2025-07-31 05:25:32","1f75c3e559b7213887762d5229550c2b","175.176.9.30","Mozilla/5.0 (Windows NT 10.0; Win64; x64) AppleWebKit/537.36 (KHTML, like Gecko) Chrome/138.0.0.0 Safari/537.36","WebKit","Chrome","138.0.0.0","Windows","10.0","https://app.prolific.com/","en-US,en;q=0.9","65f0831414fd6e9e51e08708","6877631c9844ddd5501205fc","688afd92311d94410195f69f","3","1","65f0831414fd6e9e51e08708","3","1","2025-07-31T05:35:10.764Z","","","","","","","","","","","","","","win-only","3","g1:SW,g2:NE","0.3","8","0","532059.3","2335.9","7342.8","44463.3","1","4","4","6","1","-1","-1","0","1","0","1789","3000","-1775","[""down"",""left""]","{""num_key_presses"":8,""num_perfect"":3,""num_errors"":0,""num_randdir"":5,""num_randdir_good_moves"":1,""num_whilered"":0,""num_whileblue"":0,""num_blue"":3,""num_good_moves"":4}","[296.22232142857143,291.12857142857143,0.5,296.22232142857143,291.12857142857143,107.3,296.22232142857143,291.12857142857143,226.8,296.22232142857143,291.12857142857143,345.3,296.22232142857143,291.12857142857143,455.9,296.22232142857143,291.12857142857143,556.3,296.22232142857143,291.12857142857143,660.3,296.22232142857143,291.12857142857143,774.1,296.22232142857143,291.12857142857143,894.2,296.22232142857143,291.12857142857143,997,221.22232142857143,375.12857142857143,1139.9,128.22232142857143,512.1285714285714,1255.7,97.22232142857143,544.1285714285714,1356.2,68.22232142857143,557.1285714285714,1456.9,60.222321428571426,561.1285714285714,1561.3,60.222321428571426,562.1285714285714,1661.9,60.222321428571426,562.1285714285714,1761.9,60.222321428571426,562.1285714285714,1865.7,60.222321428571426,562.1285714285714,1966.8,60.222321428571426,562.1285714285714,2071.5,60.222321428571426,562.1285714285714,2176.8,60.222321428571426,562.1285714285714,2281,60.222321428571426,562.1285714285714,2382.1,60.222321428571426,562.1285714285714,2490.9,60.222321428571426,562.1285714285714,2594.8,60.222321428571426,562.1285714285714,2713.3,60.222321428571426,562.1285714285714,2827,60.222321428571426,562.1285714285714,2950.3,60.222321428571426,562.1285714285714,3053,60.222321428571426,562.1285714285714,3153.5,60.222321428571426,562.1285714285714,3256,60.222321428571426,562.1285714285714,3356.5,60.222321428571426,562.1285714285714,3460.7,60.222321428571426,562.1285714285714,3561.6,60.222321428571426,562.1285714285714,3665.6,60.222321428571426,562.1285714285714,3767.8,60.222321428571426,562.1285714285714,3873.1,60.222321428571426,562.1285714285714,3990.4,60.222321428571426,562.1285714285714,4095.1,60.222321428571426,562.1285714285714,4198.5,60.222321428571426,562.1285714285714,4300.2,60.222321428571426,562.1285714285714,4414.4,60.222321428571426,562.1285714285714,4516.4,60.222321428571426,562.1285714285714,4621.4,60.222321428571426,562.1285714285714,4728.3,60.222321428571426,562.1285714285714,4835.3,60.222321428571426,562.1285714285714,4948.2]","[1536.9,1537,1000,0,537,""smooth"",""down"",""down"",""good_move"",4946.1,3407.7,2649.9,1538.4,757.8,""smooth"",""down"",""down"",""good_move"",7270.1,2323.3,1639.7,4946.8,683.6,""oops"",""left"",""right"",""bad_move"",10086.5,2815.6,2318.1,7271.1,497.4,""smooth"",""left"",""left"",""good_move"",23894.3,13806.6,2405.8,20569.2,919.3,""oops"",""left"",""left"",""good_move"",27671.9,3776.8,2742,23895.1,1034.8,""oops"",""left"",""right"",""bad_move"",30953.9,3281.4,2735.2,27672.5,546.2,""oops"",""left"",""up"",""bad_move"",33891.7,2936.5,2412.2,30955.2,524.3,""oops"",""left"",""right"",""bad_move""]","",""
"3768","","<div style=""width:500px;"">
  <p>What determined the result of this run?</p>
  </div>","9","html-slider-response","45","577090","0.0-5.0-1.7","302","1","2025-07-31 05:25:32","1f75c3e559b7213887762d5229550c2b","175.176.9.30","Mozilla/5.0 (Windows NT 10.0; Win64; x64) AppleWebKit/537.36 (KHTML, like Gecko) Chrome/138.0.0.0 Safari/537.36","WebKit","Chrome","138.0.0.0","Windows","10.0","https://app.prolific.com/","en-US,en;q=0.9","65f0831414fd6e9e51e08708","6877631c9844ddd5501205fc","688afd92311d94410195f69f","3","1","65f0831414fd6e9e51e08708","3","1","2025-07-31T05:35:14.535Z","","","","","","","","","","","AttribQ","","50","","","","","","","","","","","","","","","","","","","","","","","","","","","","",""
"4095","","<div style=""width:500px;"">
  <p>How much control did you have over the ball?</p>
  </div>","0","html-slider-response","46","581187","0.0-5.0-2.7","302","1","2025-07-31 05:25:32","1f75c3e559b7213887762d5229550c2b","175.176.9.30","Mozilla/5.0 (Windows NT 10.0; Win64; x64) AppleWebKit/537.36 (KHTML, like Gecko) Chrome/138.0.0.0 Safari/537.36","WebKit","Chrome","138.0.0.0","Windows","10.0","https://app.prolific.com/","en-US,en;q=0.9","65f0831414fd6e9e51e08708","6877631c9844ddd5501205fc","688afd92311d94410195f69f","3","1","65f0831414fd6e9e51e08708","3","1","2025-07-31T05:35:18.632Z","","","","","","","","","","","ControlQ","","50","","","","","","","","","","","","","","","","","","","","","","","","","","","","",""
"2858","","<div style=""width:500px;"">
  <p>How would you describe your current emotional state?</p>
  </div>","59","html-slider-response","47","584048","0.0-5.0-3.7","302","1","2025-07-31 05:25:32","1f75c3e559b7213887762d5229550c2b","175.176.9.30","Mozilla/5.0 (Windows NT 10.0; Win64; x64) AppleWebKit/537.36 (KHTML, like Gecko) Chrome/138.0.0.0 Safari/537.36","WebKit","Chrome","138.0.0.0","Windows","10.0","https://app.prolific.com/","en-US,en;q=0.9","65f0831414fd6e9e51e08708","6877631c9844ddd5501205fc","688afd92311d94410195f69f","3","1","65f0831414fd6e9e51e08708","3","1","2025-07-31T05:35:21.493Z","","","","","","","","","","","StressQ","","50","","","","","","","","","","","","","","","","","","","","","","","","","","","","",""
"3106","","<div style=""width:500px;"">
  <p>What best describes how you currently feel?</p>
  </div>","82","html-slider-response","48","587158","0.0-5.0-4.7","302","1","2025-07-31 05:25:32","1f75c3e559b7213887762d5229550c2b","175.176.9.30","Mozilla/5.0 (Windows NT 10.0; Win64; x64) AppleWebKit/537.36 (KHTML, like Gecko) Chrome/138.0.0.0 Safari/537.36","WebKit","Chrome","138.0.0.0","Windows","10.0","https://app.prolific.com/","en-US,en;q=0.9","65f0831414fd6e9e51e08708","6877631c9844ddd5501205fc","688afd92311d94410195f69f","3","1","65f0831414fd6e9e51e08708","3","1","2025-07-31T05:35:24.602Z","","","","","","","","","","","MotivationQ","","50","","","","","","","","","","","","","","","","","","","","","","","","","","","","",""
"","","","","ctl-task-cpt","49","640224","0.0-5.0-0.8","302","1","2025-07-31 05:25:32","1f75c3e559b7213887762d5229550c2b","175.176.9.30","Mozilla/5.0 (Windows NT 10.0; Win64; x64) AppleWebKit/537.36 (KHTML, like Gecko) Chrome/138.0.0.0 Safari/537.36","WebKit","Chrome","138.0.0.0","Windows","10.0","https://app.prolific.com/","en-US,en;q=0.9","65f0831414fd6e9e51e08708","6877631c9844ddd5501205fc","688afd92311d94410195f69f","3","1","65f0831414fd6e9e51e08708","3","1","2025-07-31T05:36:17.668Z","","","","","","","","","","","","","","win-only","3","g1:SW,g2:NE","0.2","9","0","593384.6","3454.5","8478.6","50048.6","1","4","4","6","1","-1","-1","0","0","0","2324.1","3000","-1430","[""down"",""left""]","{""num_key_presses"":11,""num_perfect"":3,""num_errors"":0,""num_randdir"":8,""num_randdir_good_moves"":1,""num_whilered"":0,""num_whileblue"":0,""num_blue"":2,""num_good_moves"":4}","[293.22232142857143,298.12857142857143,1.4,293.22232142857143,298.12857142857143,105.4,293.22232142857143,298.12857142857143,209.5,293.22232142857143,298.12857142857143,314.1,293.22232142857143,298.12857142857143,418,293.22232142857143,298.12857142857143,519.8,293.22232142857143,298.12857142857143,621.8,265.22232142857143,323.12857142857143,725.5,212.22232142857143,402.12857142857143,826.4,150.22232142857143,467.12857142857143,936,92.22232142857143,524.1285714285714,1036.1,69.22232142857143,541.1285714285714,1174,67.22232142857143,542.1285714285714,1303.8,67.22232142857143,541.1285714285714,1423.9,67.22232142857143,541.1285714285714,1526.3,67.22232142857143,541.1285714285714,1629.4,67.22232142857143,541.1285714285714,1736.7,67.22232142857143,541.1285714285714,1848,67.22232142857143,541.1285714285714,1962.6,67.22232142857143,541.1285714285714,2064.6,67.22232142857143,541.1285714285714,2164.8,67.22232142857143,541.1285714285714,2276.8,67.22232142857143,541.1285714285714,2394.5,67.22232142857143,541.1285714285714,2498.4,67.22232142857143,541.1285714285714,2607.7,67.22232142857143,541.1285714285714,2713.8,67.22232142857143,541.1285714285714,2819.9,67.22232142857143,541.1285714285714,2940.8,67.22232142857143,541.1285714285714,3045.9,67.22232142857143,541.1285714285714,3159.5,67.22232142857143,541.1285714285714,3270.3,67.22232142857143,541.1285714285714,3385.1,67.22232142857143,541.1285714285714,3493.1,67.22232142857143,541.1285714285714,3604.7,67.22232142857143,541.1285714285714,3707,67.22232142857143,541.1285714285714,3825.8,67.22232142857143,541.1285714285714,3933.1,67.22232142857143,541.1285714285714,4040.8,67.22232142857143,541.1285714285714,4143,67.22232142857143,541.1285714285714,4246.9,67.22232142857143,541.1285714285714,4347.3,67.22232142857143,541.1285714285714,4460,67.22232142857143,541.1285714285714,4570.9,67.22232142857143,541.1285714285714,4677.1,67.22232142857143,541.1285714285714,4788.6,67.22232142857143,541.1285714285714,4891.2]","[1634,1634,1000,0,634,""smooth"",""down"",""down"",""good_move"",8393.3,6758,2924.3,4876.6,592.4,""smooth"",""down"",""down"",""good_move"",11420.4,3026.5,2392,8393.9,634.5,""oops"",""left"",""right"",""bad_move"",17946.7,6524.7,2300.1,14938.6,708,""oops"",""left"",""up"",""bad_move"",21181.1,3231.5,2619.5,17949.7,611.9,""oops"",""left"",""up"",""bad_move"",24464.1,3282.2,1954.8,21181.9,1327.4,""oops"",""left"",""left"",""good_move"",26990.8,2525.5,1809.7,24465.3,715.8,""oops"",""down"",""up"",""bad_move"",30340.4,3349.2,2833.2,26991.3,516,""oops"",""left"",""right"",""bad_move"",32759.1,2417,1891,30342.1,526,""oops"",""down"",""right"",""bad_move"",35151.4,2391.4,1885.4,32760.1,505.9,""oops"",""left"",""up"",""bad_move"",38508.8,3356.5,2877.7,35152.3,478.8,""smooth"",""down"",""down"",""good_move""]","",""
"3535","","<div style=""width:500px;"">
  <p>What determined the result of this run?</p>
  </div>","21","html-slider-response","50","643762","0.0-5.0-1.8","302","1","2025-07-31 05:25:32","1f75c3e559b7213887762d5229550c2b","175.176.9.30","Mozilla/5.0 (Windows NT 10.0; Win64; x64) AppleWebKit/537.36 (KHTML, like Gecko) Chrome/138.0.0.0 Safari/537.36","WebKit","Chrome","138.0.0.0","Windows","10.0","https://app.prolific.com/","en-US,en;q=0.9","65f0831414fd6e9e51e08708","6877631c9844ddd5501205fc","688afd92311d94410195f69f","3","1","65f0831414fd6e9e51e08708","3","1","2025-07-31T05:36:21.206Z","","","","","","","","","","","AttribQ","","50","","","","","","","","","","","","","","","","","","","","","","","","","","","","",""
"4142","","<div style=""width:500px;"">
  <p>How much control did you have over the ball?</p>
  </div>","10","html-slider-response","51","647906","0.0-5.0-2.8","302","1","2025-07-31 05:25:32","1f75c3e559b7213887762d5229550c2b","175.176.9.30","Mozilla/5.0 (Windows NT 10.0; Win64; x64) AppleWebKit/537.36 (KHTML, like Gecko) Chrome/138.0.0.0 Safari/537.36","WebKit","Chrome","138.0.0.0","Windows","10.0","https://app.prolific.com/","en-US,en;q=0.9","65f0831414fd6e9e51e08708","6877631c9844ddd5501205fc","688afd92311d94410195f69f","3","1","65f0831414fd6e9e51e08708","3","1","2025-07-31T05:36:25.351Z","","","","","","","","","","","ControlQ","","50","","","","","","","","","","","","","","","","","","","","","","","","","","","","",""
"3475","","<div style=""width:500px;"">
  <p>How would you describe your current emotional state?</p>
  </div>","76","html-slider-response","52","651384","0.0-5.0-3.8","302","1","2025-07-31 05:25:32","1f75c3e559b7213887762d5229550c2b","175.176.9.30","Mozilla/5.0 (Windows NT 10.0; Win64; x64) AppleWebKit/537.36 (KHTML, like Gecko) Chrome/138.0.0.0 Safari/537.36","WebKit","Chrome","138.0.0.0","Windows","10.0","https://app.prolific.com/","en-US,en;q=0.9","65f0831414fd6e9e51e08708","6877631c9844ddd5501205fc","688afd92311d94410195f69f","3","1","65f0831414fd6e9e51e08708","3","1","2025-07-31T05:36:28.829Z","","","","","","","","","","","StressQ","","50","","","","","","","","","","","","","","","","","","","","","","","","","","","","",""
"2777","","<div style=""width:500px;"">
  <p>What best describes how you currently feel?</p>
  </div>","81","html-slider-response","53","654165","0.0-5.0-4.8","302","1","2025-07-31 05:25:32","1f75c3e559b7213887762d5229550c2b","175.176.9.30","Mozilla/5.0 (Windows NT 10.0; Win64; x64) AppleWebKit/537.36 (KHTML, like Gecko) Chrome/138.0.0.0 Safari/537.36","WebKit","Chrome","138.0.0.0","Windows","10.0","https://app.prolific.com/","en-US,en;q=0.9","65f0831414fd6e9e51e08708","6877631c9844ddd5501205fc","688afd92311d94410195f69f","3","1","65f0831414fd6e9e51e08708","3","1","2025-07-31T05:36:31.609Z","","","","","","","","","","","MotivationQ","","50","","","","","","","","","","","","","","","","","","","","","","","","","","","","",""
"","","","","ctl-task-cpt","54","715707","0.0-5.0-0.9","302","1","2025-07-31 05:25:32","1f75c3e559b7213887762d5229550c2b","175.176.9.30","Mozilla/5.0 (Windows NT 10.0; Win64; x64) AppleWebKit/537.36 (KHTML, like Gecko) Chrome/138.0.0.0 Safari/537.36","WebKit","Chrome","138.0.0.0","Windows","10.0","https://app.prolific.com/","en-US,en;q=0.9","65f0831414fd6e9e51e08708","6877631c9844ddd5501205fc","688afd92311d94410195f69f","3","1","65f0831414fd6e9e51e08708","3","1","2025-07-31T05:37:33.151Z","","","","","","","","","","","","","","win-only","0","g1:NW,g2:SE","0.4","10","0","660394.7","1916.7","6943.4","58487.4","1","4","8","6","1","-1","-1","0","0","0","2349","3000","-1135","[""left"",""up""]","{""num_key_presses"":14,""num_perfect"":6,""num_errors"":0,""num_randdir"":8,""num_randdir_good_moves"":1,""num_whilered"":0,""num_whileblue"":0,""num_blue"":2,""num_good_moves"":7}","[295.22232142857143,300.12857142857143,0.5,295.22232142857143,300.12857142857143,104,295.22232142857143,300.12857142857143,219.4,295.22232142857143,300.12857142857143,333.7,295.22232142857143,300.12857142857143,452.4,295.22232142857143,300.12857142857143,557.4,295.22232142857143,300.12857142857143,661.7,295.22232142857143,300.12857142857143,771.3,197.22232142857143,218.12857142857143,903.2,96.22232142857143,133.12857142857143,1007,87.22232142857143,128.12857142857143,1116.4,82.22232142857143,114.12857142857143,1222.8,82.22232142857143,114.12857142857143,1330.5,82.22232142857143,114.12857142857143,1461.4,68.22232142857143,91.12857142857143,1565,60.222321428571426,73.12857142857143,1686.3,60.222321428571426,76.12857142857143,1828.9,60.222321428571426,76.12857142857143,1930.9,60.222321428571426,76.12857142857143,2038.3,60.222321428571426,76.12857142857143,2161.9,60.222321428571426,76.12857142857143,2294,60.222321428571426,76.12857142857143,2400.8,60.222321428571426,76.12857142857143,2516.8,60.222321428571426,76.12857142857143,2621.8,60.222321428571426,76.12857142857143,2728.2,60.222321428571426,76.12857142857143,2835.7,60.222321428571426,76.12857142857143,2961.6,60.222321428571426,76.12857142857143,3067.5,60.222321428571426,76.12857142857143,3177.5,60.222321428571426,76.12857142857143,3277.8,60.222321428571426,76.12857142857143,3382.2,60.222321428571426,76.12857142857143,3485.9,60.222321428571426,76.12857142857143,3587.2,60.222321428571426,76.12857142857143,3691.4,60.222321428571426,76.12857142857143,3797.7,60.222321428571426,76.12857142857143,3898.9,60.222321428571426,76.12857142857143,4016.1,60.222321428571426,76.12857142857143,4119.2,60.222321428571426,76.12857142857143,4222.1,60.222321428571426,76.12857142857143,4325.9,60.222321428571426,76.12857142857143,4427,60.222321428571426,76.12857142857143,4551,60.222321428571426,76.12857142857143,4656.3,60.222321428571426,76.12857142857143,4790.9,60.222321428571426,76.12857142857143,4924.4]","[1529.4,1529.4,1000,0,529.4,""oops"",""up"",""down"",""bad_move"",3989.6,2459.1,1895.9,1530.5,563.2,""oops"",""left"",""down"",""bad_move"",6627.8,2637.5,2077,3990.3,560.5,""oops"",""up"",""left"",""good_move"",14163.5,7533,3197.2,10467.4,499,""oops"",""up"",""down"",""bad_move"",17449.3,3285.2,2671.3,14164.1,613.9,""oops"",""left"",""right"",""bad_move"",20412.7,2961.1,2379.9,17451.6,581.2,""oops"",""up"",""right"",""bad_move"",23285.7,2870.8,2458.2,20414.9,412.6,""smooth"",""up"",""up"",""good_move"",26474.9,3188.3,2765.5,23286.7,422.8,""smooth"",""up"",""up"",""good_move"",29246.5,2770.9,2256.4,26475.7,514.5,""smooth"",""up"",""up"",""good_move"",32120.3,2871.9,2189,29248.4,682.9,""smooth"",""left"",""left"",""good_move"",35115.7,2994.3,2230.7,32121.4,763.6,""smooth"",""left"",""left"",""good_move"",38774.7,3657.1,3072.8,35117.6,584.3,""oops"",""up"",""down"",""bad_move"",45116.9,6340.6,2433.2,42189.1,494.6,""smooth"",""left"",""left"",""good_move"",48071.2,2952.9,2473.1,45118.3,479.8,""oops"",""up"",""down"",""bad_move""]","",""
"5941","","<div style=""width:500px;"">
  <p>What determined the result of this run?</p>
  </div>","35","html-slider-response","55","721650","0.0-5.0-1.9","302","1","2025-07-31 05:25:32","1f75c3e559b7213887762d5229550c2b","175.176.9.30","Mozilla/5.0 (Windows NT 10.0; Win64; x64) AppleWebKit/537.36 (KHTML, like Gecko) Chrome/138.0.0.0 Safari/537.36","WebKit","Chrome","138.0.0.0","Windows","10.0","https://app.prolific.com/","en-US,en;q=0.9","65f0831414fd6e9e51e08708","6877631c9844ddd5501205fc","688afd92311d94410195f69f","3","1","65f0831414fd6e9e51e08708","3","1","2025-07-31T05:37:39.094Z","","","","","","","","","","","AttribQ","","50","","","","","","","","","","","","","","","","","","","","","","","","","","","","",""
"4127","","<div style=""width:500px;"">
  <p>How much control did you have over the ball?</p>
  </div>","1","html-slider-response","56","725780","0.0-5.0-2.9","302","1","2025-07-31 05:25:32","1f75c3e559b7213887762d5229550c2b","175.176.9.30","Mozilla/5.0 (Windows NT 10.0; Win64; x64) AppleWebKit/537.36 (KHTML, like Gecko) Chrome/138.0.0.0 Safari/537.36","WebKit","Chrome","138.0.0.0","Windows","10.0","https://app.prolific.com/","en-US,en;q=0.9","65f0831414fd6e9e51e08708","6877631c9844ddd5501205fc","688afd92311d94410195f69f","3","1","65f0831414fd6e9e51e08708","3","1","2025-07-31T05:37:43.224Z","","","","","","","","","","","ControlQ","","50","","","","","","","","","","","","","","","","","","","","","","","","","","","","",""
"2849","","<div style=""width:500px;"">
  <p>How would you describe your current emotional state?</p>
  </div>","68","html-slider-response","57","728631","0.0-5.0-3.9","302","1","2025-07-31 05:25:32","1f75c3e559b7213887762d5229550c2b","175.176.9.30","Mozilla/5.0 (Windows NT 10.0; Win64; x64) AppleWebKit/537.36 (KHTML, like Gecko) Chrome/138.0.0.0 Safari/537.36","WebKit","Chrome","138.0.0.0","Windows","10.0","https://app.prolific.com/","en-US,en;q=0.9","65f0831414fd6e9e51e08708","6877631c9844ddd5501205fc","688afd92311d94410195f69f","3","1","65f0831414fd6e9e51e08708","3","1","2025-07-31T05:37:46.075Z","","","","","","","","","","","StressQ","","50","","","","","","","","","","","","","","","","","","","","","","","","","","","","",""
"3077","","<div style=""width:500px;"">
  <p>What best describes how you currently feel?</p>
  </div>","61","html-slider-response","58","731714","0.0-5.0-4.9","302","1","2025-07-31 05:25:32","1f75c3e559b7213887762d5229550c2b","175.176.9.30","Mozilla/5.0 (Windows NT 10.0; Win64; x64) AppleWebKit/537.36 (KHTML, like Gecko) Chrome/138.0.0.0 Safari/537.36","WebKit","Chrome","138.0.0.0","Windows","10.0","https://app.prolific.com/","en-US,en;q=0.9","65f0831414fd6e9e51e08708","6877631c9844ddd5501205fc","688afd92311d94410195f69f","3","1","65f0831414fd6e9e51e08708","3","1","2025-07-31T05:37:49.159Z","","","","","","","","","","","MotivationQ","","50","","","","","","","","","","","","","","","","","","","","","","","","","","","","",""
"","","","","ctl-task-cpt","59","764999","0.0-5.0-0.10","302","1","2025-07-31 05:25:32","1f75c3e559b7213887762d5229550c2b","175.176.9.30","Mozilla/5.0 (Windows NT 10.0; Win64; x64) AppleWebKit/537.36 (KHTML, like Gecko) Chrome/138.0.0.0 Safari/537.36","WebKit","Chrome","138.0.0.0","Windows","10.0","https://app.prolific.com/","en-US,en;q=0.9","65f0831414fd6e9e51e08708","6877631c9844ddd5501205fc","688afd92311d94410195f69f","3","1","65f0831414fd6e9e51e08708","3","1","2025-07-31T05:38:22.444Z","","","","","","","","","","","","","","win-only","1","g1:NE,g2:SW","0.5","11","0","737945","4349.7","9363.9","30256.1","1","4","4","6","1","1","1","1","0","0.007575757575757576","1722.9","3000","2135","[""up"",""right""]","{""num_key_presses"":4,""num_perfect"":4,""num_errors"":0,""num_randdir"":0,""num_randdir_good_moves"":0,""num_whilered"":0,""num_whileblue"":0,""num_blue"":2,""num_good_moves"":4}","[297.22232142857143,291.12857142857143,1.1,297.22232142857143,291.12857142857143,107.9,297.22232142857143,291.12857142857143,223.4,297.22232142857143,291.12857142857143,335.1,297.22232142857143,291.12857142857143,450.2,297.22232142857143,291.12857142857143,569.7,297.22232142857143,291.12857142857143,681,516.2223214285714,111.12857142857143,793.5,681.2223214285714,-70.87142857142857,897.4,681.2223214285714,-70.87142857142857,1018.9,638.2223214285714,-48.871428571428574,1138.8,584.2223214285714,1.1285714285714263,1251.2,581.2223214285714,8.128571428571426,1371.5,558.2223214285714,62.128571428571426,1498.1,558.2223214285714,62.128571428571426,1625,558.2223214285714,62.128571428571426,1760.5,558.2223214285714,62.128571428571426,1880.2,558.2223214285714,62.128571428571426,1997.3,558.2223214285714,62.128571428571426,2116.1,558.2223214285714,62.128571428571426,2231.8,558.2223214285714,62.128571428571426,2346.7,558.2223214285714,62.128571428571426,2466.2,558.2223214285714,62.128571428571426,2575.6,558.2223214285714,62.128571428571426,2680.7,558.2223214285714,62.128571428571426,2792.6,558.2223214285714,62.128571428571426,2910.6,558.2223214285714,62.128571428571426,3025.1,558.2223214285714,62.128571428571426,3146.8,558.2223214285714,62.128571428571426,3264.8,558.2223214285714,62.128571428571426,3385.9,558.2223214285714,62.128571428571426,3501.2,558.2223214285714,62.128571428571426,3620.3,558.2223214285714,62.128571428571426,3742.6,558.2223214285714,62.128571428571426,3861.4,558.2223214285714,62.128571428571426,3974.4,558.2223214285714,62.128571428571426,4078.4,558.2223214285714,62.128571428571426,4178.6,558.2223214285714,62.128571428571426,4291.4,558.2223214285714,62.128571428571426,4407.8,558.2223214285714,62.128571428571426,4534.1,558.2223214285714,62.128571428571426,4634.7,558.2223214285714,62.128571428571426,4745.7,558.2223214285714,62.128571428571426,4857.1,558.2223214285714,62.128571428571426,4969.3]","[5591.7,5591.6,2932.9,2027.9,630.9,""smooth"",""up"",""up"",""good_move"",9762.3,4169.1,1881.5,5593.2,2287.6,""smooth"",""up"",""up"",""good_move"",16748.2,6985,2859.6,13065.6,823,""smooth"",""right"",""right"",""good_move"",20608.8,3859.7,3149.8,16749.1,709.9,""smooth"",""right"",""right"",""good_move""]","",""
"3264","","<div style=""width:500px;"">
  <p>What determined the result of this run?</p>
  </div>","73","html-slider-response","60","768268","0.0-5.0-1.10","302","1","2025-07-31 05:25:32","1f75c3e559b7213887762d5229550c2b","175.176.9.30","Mozilla/5.0 (Windows NT 10.0; Win64; x64) AppleWebKit/537.36 (KHTML, like Gecko) Chrome/138.0.0.0 Safari/537.36","WebKit","Chrome","138.0.0.0","Windows","10.0","https://app.prolific.com/","en-US,en;q=0.9","65f0831414fd6e9e51e08708","6877631c9844ddd5501205fc","688afd92311d94410195f69f","3","1","65f0831414fd6e9e51e08708","3","1","2025-07-31T05:38:25.712Z","","","","","","","","","","","AttribQ","","50","","","","","","","","","","","","","","","","","","","","","","","","","","","","",""
"3136","","<div style=""width:500px;"">
  <p>How much control did you have over the ball?</p>
  </div>","96","html-slider-response","61","771407","0.0-5.0-2.10","302","1","2025-07-31 05:25:32","1f75c3e559b7213887762d5229550c2b","175.176.9.30","Mozilla/5.0 (Windows NT 10.0; Win64; x64) AppleWebKit/537.36 (KHTML, like Gecko) Chrome/138.0.0.0 Safari/537.36","WebKit","Chrome","138.0.0.0","Windows","10.0","https://app.prolific.com/","en-US,en;q=0.9","65f0831414fd6e9e51e08708","6877631c9844ddd5501205fc","688afd92311d94410195f69f","3","1","65f0831414fd6e9e51e08708","3","1","2025-07-31T05:38:28.851Z","","","","","","","","","","","ControlQ","","50","","","","","","","","","","","","","","","","","","","","","","","","","","","","",""
"2538","","<div style=""width:500px;"">
  <p>How would you describe your current emotional state?</p>
  </div>","11","html-slider-response","62","773948","0.0-5.0-3.10","302","1","2025-07-31 05:25:32","1f75c3e559b7213887762d5229550c2b","175.176.9.30","Mozilla/5.0 (Windows NT 10.0; Win64; x64) AppleWebKit/537.36 (KHTML, like Gecko) Chrome/138.0.0.0 Safari/537.36","WebKit","Chrome","138.0.0.0","Windows","10.0","https://app.prolific.com/","en-US,en;q=0.9","65f0831414fd6e9e51e08708","6877631c9844ddd5501205fc","688afd92311d94410195f69f","3","1","65f0831414fd6e9e51e08708","3","1","2025-07-31T05:38:31.392Z","","","","","","","","","","","StressQ","","50","","","","","","","","","","","","","","","","","","","","","","","","","","","","",""
"3675","","<div style=""width:500px;"">
  <p>What best describes how you currently feel?</p>
  </div>","87","html-slider-response","63","777626","0.0-5.0-4.10","302","1","2025-07-31 05:25:32","1f75c3e559b7213887762d5229550c2b","175.176.9.30","Mozilla/5.0 (Windows NT 10.0; Win64; x64) AppleWebKit/537.36 (KHTML, like Gecko) Chrome/138.0.0.0 Safari/537.36","WebKit","Chrome","138.0.0.0","Windows","10.0","https://app.prolific.com/","en-US,en;q=0.9","65f0831414fd6e9e51e08708","6877631c9844ddd5501205fc","688afd92311d94410195f69f","3","1","65f0831414fd6e9e51e08708","3","1","2025-07-31T05:38:35.071Z","","","","","","","","","","","MotivationQ","","50","","","","","","","","","","","","","","","","","","","","","","","","","","","","",""
"","","","","ctl-task-cpt","64","834245","0.0-5.0-0.11","302","1","2025-07-31 05:25:32","1f75c3e559b7213887762d5229550c2b","175.176.9.30","Mozilla/5.0 (Windows NT 10.0; Win64; x64) AppleWebKit/537.36 (KHTML, like Gecko) Chrome/138.0.0.0 Safari/537.36","WebKit","Chrome","138.0.0.0","Windows","10.0","https://app.prolific.com/","en-US,en;q=0.9","65f0831414fd6e9e51e08708","6877631c9844ddd5501205fc","688afd92311d94410195f69f","3","1","65f0831414fd6e9e51e08708","3","1","2025-07-31T05:39:31.689Z","","","","","","","","","","","","","","win-only","0","g1:NW,g2:SE","0.6","12","0","783855.3","1203.2","6222.3","53586.4","1","4","8","6","1","1","1","2","1","0.015151515151515152","1846.3","3000","320","[""left"",""up""]","{""num_key_presses"":14,""num_perfect"":10,""num_errors"":0,""num_randdir"":4,""num_randdir_good_moves"":0,""num_whilered"":0,""num_whileblue"":0,""num_blue"":1,""num_good_moves"":9}","[294.22232142857143,304.12857142857143,0.2,294.22232142857143,304.12857142857143,106.8,294.22232142857143,304.12857142857143,227.1,294.22232142857143,304.12857142857143,348.9,294.22232142857143,304.12857142857143,463,294.22232142857143,304.12857142857143,567,294.22232142857143,304.12857142857143,680.6,153.22232142857143,206.12857142857143,783.6,93.22232142857143,159.12857142857143,884.4,89.22232142857143,134.12857142857143,984.4,81.22232142857143,120.12857142857143,1091.6,55.222321428571426,89.12857142857143,1194.3,49.222321428571426,78.12857142857143,1317,41.222321428571426,67.12857142857143,1432.2,32.222321428571426,57.128571428571426,1542.7,32.222321428571426,56.128571428571426,1651.1,32.222321428571426,56.128571428571426,1755.2,32.222321428571426,56.128571428571426,1858.3,32.222321428571426,56.128571428571426,1977,32.222321428571426,56.128571428571426,2088.9,32.222321428571426,56.128571428571426,2209.6,32.222321428571426,56.128571428571426,2319.2,32.222321428571426,56.128571428571426,2438.6,32.222321428571426,56.128571428571426,2543.8,32.222321428571426,56.128571428571426,2654.4,32.222321428571426,56.128571428571426,2780,32.222321428571426,56.128571428571426,2891.6,32.222321428571426,56.128571428571426,3008.4,32.222321428571426,56.128571428571426,3113.3,32.222321428571426,56.128571428571426,3231.5,32.222321428571426,56.128571428571426,3349.5,32.222321428571426,56.128571428571426,3471.7,32.222321428571426,56.128571428571426,3593.7,32.222321428571426,56.128571428571426,3713.5,32.222321428571426,56.128571428571426,3833.8,32.222321428571426,56.128571428571426,3952.1,32.222321428571426,56.128571428571426,4075.8,32.222321428571426,56.128571428571426,4189.5,32.222321428571426,56.128571428571426,4311.4,32.222321428571426,56.128571428571426,4430,32.222321428571426,56.128571428571426,4544.5,32.222321428571426,56.128571428571426,4666.5,32.222321428571426,56.128571428571426,4771.8,32.222321428571426,56.128571428571426,4889.6]","[1528.9,1528.9,1000,0,528.9,""smooth"",""left"",""left"",""good_move"",4508.1,2978,2337.1,1530.1,640.9,""smooth"",""left"",""left"",""good_move"",7310.9,2802.1,1863.6,4508.8,938.5,""oops"",""up"",""down"",""bad_move"",10066.3,2753.9,2015.5,7312.4,738.4,""oops"",""up"",""down"",""bad_move"",13026.9,2959.4,2299.8,10067.5,659.6,""smooth"",""right"",""right"",""bad_move"",18466.4,5438.4,1936.2,15970.1,560.1,""oops"",""up"",""down"",""bad_move"",22173.2,3705.9,2805.8,18467.3,900.1,""smooth"",""left"",""left"",""good_move"",25786.4,3612.6,3022.6,22173.9,590.1,""smooth"",""up"",""up"",""good_move"",29051.5,3263.3,2637.2,25788.3,626,""oops"",""right"",""down"",""bad_move"",32120.1,3067.8,2594.9,29052.3,472.9,""smooth"",""up"",""up"",""good_move"",35139.2,3018.4,2449.7,32120.8,568.7,""smooth"",""up"",""up"",""good_move"",38622.9,3482.1,2813.9,35140.8,668.2,""smooth"",""up"",""up"",""good_move"",42437.9,3814.3,3166.7,38623.6,647.6,""smooth"",""up"",""up"",""good_move"",46934.9,4496.3,1349.4,42438.6,3146.9,""smooth"",""up"",""up"",""good_move""]","",""
"2586","","<div style=""width:500px;"">
  <p>What determined the result of this run?</p>
  </div>","77","html-slider-response","65","836834","0.0-5.0-1.11","302","1","2025-07-31 05:25:32","1f75c3e559b7213887762d5229550c2b","175.176.9.30","Mozilla/5.0 (Windows NT 10.0; Win64; x64) AppleWebKit/537.36 (KHTML, like Gecko) Chrome/138.0.0.0 Safari/537.36","WebKit","Chrome","138.0.0.0","Windows","10.0","https://app.prolific.com/","en-US,en;q=0.9","65f0831414fd6e9e51e08708","6877631c9844ddd5501205fc","688afd92311d94410195f69f","3","1","65f0831414fd6e9e51e08708","3","1","2025-07-31T05:39:34.278Z","","","","","","","","","","","AttribQ","","50","","","","","","","","","","","","","","","","","","","","","","","","","","","","",""
"4209","","<div style=""width:500px;"">
  <p>How much control did you have over the ball?</p>
  </div>","32","html-slider-response","66","841048","0.0-5.0-2.11","302","1","2025-07-31 05:25:32","1f75c3e559b7213887762d5229550c2b","175.176.9.30","Mozilla/5.0 (Windows NT 10.0; Win64; x64) AppleWebKit/537.36 (KHTML, like Gecko) Chrome/138.0.0.0 Safari/537.36","WebKit","Chrome","138.0.0.0","Windows","10.0","https://app.prolific.com/","en-US,en;q=0.9","65f0831414fd6e9e51e08708","6877631c9844ddd5501205fc","688afd92311d94410195f69f","3","1","65f0831414fd6e9e51e08708","3","1","2025-07-31T05:39:38.492Z","","","","","","","","","","","ControlQ","","50","","","","","","","","","","","","","","","","","","","","","","","","","","","","",""
"3523","","<div style=""width:500px;"">
  <p>How would you describe your current emotional state?</p>
  </div>","45","html-slider-response","67","844574","0.0-5.0-3.11","302","1","2025-07-31 05:25:32","1f75c3e559b7213887762d5229550c2b","175.176.9.30","Mozilla/5.0 (Windows NT 10.0; Win64; x64) AppleWebKit/537.36 (KHTML, like Gecko) Chrome/138.0.0.0 Safari/537.36","WebKit","Chrome","138.0.0.0","Windows","10.0","https://app.prolific.com/","en-US,en;q=0.9","65f0831414fd6e9e51e08708","6877631c9844ddd5501205fc","688afd92311d94410195f69f","3","1","65f0831414fd6e9e51e08708","3","1","2025-07-31T05:39:42.018Z","","","","","","","","","","","StressQ","","50","","","","","","","","","","","","","","","","","","","","","","","","","","","","",""
"3404","","<div style=""width:500px;"">
  <p>What best describes how you currently feel?</p>
  </div>","67","html-slider-response","68","847983","0.0-5.0-4.11","302","1","2025-07-31 05:25:32","1f75c3e559b7213887762d5229550c2b","175.176.9.30","Mozilla/5.0 (Windows NT 10.0; Win64; x64) AppleWebKit/537.36 (KHTML, like Gecko) Chrome/138.0.0.0 Safari/537.36","WebKit","Chrome","138.0.0.0","Windows","10.0","https://app.prolific.com/","en-US,en;q=0.9","65f0831414fd6e9e51e08708","6877631c9844ddd5501205fc","688afd92311d94410195f69f","3","1","65f0831414fd6e9e51e08708","3","1","2025-07-31T05:39:45.427Z","","","","","","","","","","","MotivationQ","","50","","","","","","","","","","","","","","","","","","","","","","","","","","","","",""
"","","","","ctl-task-cpt","69","895401","0.0-5.0-0.12","302","1","2025-07-31 05:25:32","1f75c3e559b7213887762d5229550c2b","175.176.9.30","Mozilla/5.0 (Windows NT 10.0; Win64; x64) AppleWebKit/537.36 (KHTML, like Gecko) Chrome/138.0.0.0 Safari/537.36","WebKit","Chrome","138.0.0.0","Windows","10.0","https://app.prolific.com/","en-US,en;q=0.9","65f0831414fd6e9e51e08708","6877631c9844ddd5501205fc","688afd92311d94410195f69f","3","1","65f0831414fd6e9e51e08708","3","1","2025-07-31T05:40:32.845Z","","","","","","","","","","","","","","win-only","2","g1:SE,g2:NW","0.7","13","0","854210.1","1657.4","6661.8","44383.6","1","4","4","6","1","1","1","3","2","0.022727272727272728","1835.9","3000","1385","[""down"",""right""]","{""num_key_presses"":8,""num_perfect"":5,""num_errors"":0,""num_randdir"":3,""num_randdir_good_moves"":1,""num_whilered"":0,""num_whileblue"":0,""num_blue"":4,""num_good_moves"":6}","[291.22232142857143,292.12857142857143,1,291.22232142857143,292.12857142857143,110.2,291.22232142857143,292.12857142857143,219.6,291.22232142857143,292.12857142857143,333.9,291.22232142857143,292.12857142857143,440.1,291.22232142857143,292.12857142857143,553.8,291.22232142857143,292.12857142857143,662.4,291.22232142857143,292.12857142857143,769.3,291.22232142857143,292.12857142857143,875,291.22232142857143,292.12857142857143,987.1,454.22232142857143,342.12857142857143,1091.8,485.22232142857143,459.12857142857143,1193.5,494.22232142857143,520.1285714285714,1306.1,495.22232142857143,521.1285714285714,1413.9,509.22232142857143,536.1285714285714,1519.8,509.22232142857143,537.1285714285714,1623.7,509.22232142857143,537.1285714285714,1755.8,509.22232142857143,537.1285714285714,1857.8,509.22232142857143,537.1285714285714,1976,509.22232142857143,537.1285714285714,2089.6,509.22232142857143,537.1285714285714,2193.3,509.22232142857143,537.1285714285714,2294.3,509.22232142857143,537.1285714285714,2402.4,509.22232142857143,537.1285714285714,2504.3,509.22232142857143,537.1285714285714,2619,509.22232142857143,537.1285714285714,2728.1,509.22232142857143,537.1285714285714,2835.9,509.22232142857143,537.1285714285714,2938.7,509.22232142857143,537.1285714285714,3042.3,509.22232142857143,537.1285714285714,3152.5,509.22232142857143,537.1285714285714,3259.5,509.22232142857143,537.1285714285714,3368.4,509.22232142857143,537.1285714285714,3468.5,509.22232142857143,537.1285714285714,3575.9,509.22232142857143,537.1285714285714,3676.9,509.22232142857143,537.1285714285714,3783.7,509.22232142857143,537.1285714285714,3890.8,509.22232142857143,537.1285714285714,3991.6,509.22232142857143,537.1285714285714,4102.2,509.22232142857143,537.1285714285714,4206.6,509.22232142857143,537.1285714285714,4319.8,509.22232142857143,537.1285714285714,4423.5,509.22232142857143,537.1285714285714,4542.4,509.22232142857143,537.1285714285714,4645.1,509.22232142857143,537.1285714285714,4746.1,509.22232142857143,537.1285714285714,4848,509.22232142857143,537.1285714285714,4948.6]","[1514.6,1514.5,1000,0.1,514.5,""oops"",""down"",""left"",""bad_move"",12188.1,10672.1,2462.7,9210.6,515,""smooth"",""right"",""right"",""good_move"",15472.4,3281.9,2743.4,12190.6,538.4,""oops"",""right"",""up"",""bad_move"",19071.9,3598,2376.6,15473.9,1221.4,""smooth"",""right"",""right"",""good_move"",21497.9,2425.3,1729.4,19072.6,695.9,""oops"",""right"",""right"",""good_move"",24799,3300.2,2740.3,21498.8,559.9,""smooth"",""down"",""down"",""good_move"",31652.9,6852.5,2898.7,28044.7,709.5,""smooth"",""down"",""down"",""good_move"",37526.5,5873.3,2133.4,34663.9,729.2,""smooth"",""down"",""down"",""good_move""]","",""
"2708","","<div style=""width:500px;"">
  <p>What determined the result of this run?</p>
  </div>","76","html-slider-response","70","898112","0.0-5.0-1.12","302","1","2025-07-31 05:25:32","1f75c3e559b7213887762d5229550c2b","175.176.9.30","Mozilla/5.0 (Windows NT 10.0; Win64; x64) AppleWebKit/537.36 (KHTML, like Gecko) Chrome/138.0.0.0 Safari/537.36","WebKit","Chrome","138.0.0.0","Windows","10.0","https://app.prolific.com/","en-US,en;q=0.9","65f0831414fd6e9e51e08708","6877631c9844ddd5501205fc","688afd92311d94410195f69f","3","1","65f0831414fd6e9e51e08708","3","1","2025-07-31T05:40:35.556Z","","","","","","","","","","","AttribQ","","50","","","","","","","","","","","","","","","","","","","","","","","","","","","","",""
"2921","","<div style=""width:500px;"">
  <p>How much control did you have over the ball?</p>
  </div>","82","html-slider-response","71","901036","0.0-5.0-2.12","302","1","2025-07-31 05:25:32","1f75c3e559b7213887762d5229550c2b","175.176.9.30","Mozilla/5.0 (Windows NT 10.0; Win64; x64) AppleWebKit/537.36 (KHTML, like Gecko) Chrome/138.0.0.0 Safari/537.36","WebKit","Chrome","138.0.0.0","Windows","10.0","https://app.prolific.com/","en-US,en;q=0.9","65f0831414fd6e9e51e08708","6877631c9844ddd5501205fc","688afd92311d94410195f69f","3","1","65f0831414fd6e9e51e08708","3","1","2025-07-31T05:40:38.481Z","","","","","","","","","","","ControlQ","","50","","","","","","","","","","","","","","","","","","","","","","","","","","","","",""
"2448","","<div style=""width:500px;"">
  <p>How would you describe your current emotional state?</p>
  </div>","34","html-slider-response","72","903487","0.0-5.0-3.12","302","1","2025-07-31 05:25:32","1f75c3e559b7213887762d5229550c2b","175.176.9.30","Mozilla/5.0 (Windows NT 10.0; Win64; x64) AppleWebKit/537.36 (KHTML, like Gecko) Chrome/138.0.0.0 Safari/537.36","WebKit","Chrome","138.0.0.0","Windows","10.0","https://app.prolific.com/","en-US,en;q=0.9","65f0831414fd6e9e51e08708","6877631c9844ddd5501205fc","688afd92311d94410195f69f","3","1","65f0831414fd6e9e51e08708","3","1","2025-07-31T05:40:40.931Z","","","","","","","","","","","StressQ","","50","","","","","","","","","","","","","","","","","","","","","","","","","","","","",""
"3595","","<div style=""width:500px;"">
  <p>What best describes how you currently feel?</p>
  </div>","74","html-slider-response","73","907085","0.0-5.0-4.12","302","1","2025-07-31 05:25:32","1f75c3e559b7213887762d5229550c2b","175.176.9.30","Mozilla/5.0 (Windows NT 10.0; Win64; x64) AppleWebKit/537.36 (KHTML, like Gecko) Chrome/138.0.0.0 Safari/537.36","WebKit","Chrome","138.0.0.0","Windows","10.0","https://app.prolific.com/","en-US,en;q=0.9","65f0831414fd6e9e51e08708","6877631c9844ddd5501205fc","688afd92311d94410195f69f","3","1","65f0831414fd6e9e51e08708","3","1","2025-07-31T05:40:44.529Z","","","","","","","","","","","MotivationQ","","50","","","","","","","","","","","","","","","","","","","","","","","","","","","","",""
"","","","","ctl-task-cpt","74","943454","0.0-5.0-0.13","302","1","2025-07-31 05:25:32","1f75c3e559b7213887762d5229550c2b","175.176.9.30","Mozilla/5.0 (Windows NT 10.0; Win64; x64) AppleWebKit/537.36 (KHTML, like Gecko) Chrome/138.0.0.0 Safari/537.36","WebKit","Chrome","138.0.0.0","Windows","10.0","https://app.prolific.com/","en-US,en;q=0.9","65f0831414fd6e9e51e08708","6877631c9844ddd5501205fc","688afd92311d94410195f69f","3","1","65f0831414fd6e9e51e08708","3","1","2025-07-31T05:41:20.898Z","","","","","","","","","","","","","","win-only","2","g1:SE,g2:NW","0.8","14","0","913313.7","2766.6","7800.9","33333.5","1","4","8","6","1","1","1","4","3","0.030303030303030304","1466.6","3000","2140","[""down"",""right""]","{""num_key_presses"":4,""num_perfect"":4,""num_errors"":0,""num_randdir"":0,""num_randdir_good_moves"":0,""num_whilered"":0,""num_whileblue"":0,""num_blue"":4,""num_good_moves"":4}","[292.22232142857143,290.12857142857143,0.5,292.22232142857143,290.12857142857143,109.5,292.22232142857143,290.12857142857143,228.1,292.22232142857143,290.12857142857143,338.1,292.22232142857143,290.12857142857143,438.4,292.22232142857143,290.12857142857143,557.6,292.22232142857143,290.12857142857143,678.5,418.22232142857143,344.12857142857143,785.5,479.22232142857143,463.12857142857143,895.9,501.22232142857143,506.12857142857143,1001.8,518.2223214285714,521.1285714285714,1112.1,522.2223214285714,522.1285714285714,1225.2,522.2223214285714,522.1285714285714,1328.7,522.2223214285714,522.1285714285714,1472.5,522.2223214285714,522.1285714285714,1574.1,522.2223214285714,522.1285714285714,1680.7,522.2223214285714,522.1285714285714,1798.9,522.2223214285714,522.1285714285714,1940.2,522.2223214285714,522.1285714285714,2044.5,522.2223214285714,522.1285714285714,2157,522.2223214285714,522.1285714285714,2266.1,522.2223214285714,522.1285714285714,2367.9,522.2223214285714,522.1285714285714,2488.2,522.2223214285714,522.1285714285714,2593.1,522.2223214285714,522.1285714285714,2698.9,522.2223214285714,522.1285714285714,2824.9,522.2223214285714,522.1285714285714,2951.7,522.2223214285714,522.1285714285714,3062.3,522.2223214285714,522.1285714285714,3183.7,522.2223214285714,522.1285714285714,3306,522.2223214285714,522.1285714285714,3414.9,522.2223214285714,522.1285714285714,3518.8,522.2223214285714,522.1285714285714,3620.9,522.2223214285714,522.1285714285714,3725.6,522.2223214285714,522.1285714285714,3827.7,522.2223214285714,522.1285714285714,3929.3,522.2223214285714,522.1285714285714,4040.2,522.2223214285714,522.1285714285714,4150.4,522.2223214285714,522.1285714285714,4300.4,522.2223214285714,522.1285714285714,4439.6,522.2223214285714,522.1285714285714,4552,522.2223214285714,522.1285714285714,4654.5,522.2223214285714,522.1285714285714,4758.9,522.2223214285714,522.1285714285714,4861.1,522.2223214285714,522.1285714285714,4972.8]","[5146.5,5146.5,2467.8,2021,657.7,""smooth"",""down"",""down"",""good_move"",18261.1,13113.9,2458.6,15083,719.5,""smooth"",""down"",""down"",""good_move"",21747.1,3485.1,2516.9,18262,968.2,""smooth"",""right"",""right"",""good_move"",25334.3,3586.5,2837.7,21747.8,748.8,""smooth"",""right"",""right"",""good_move""]","",""
"3687","","<div style=""width:500px;"">
  <p>What determined the result of this run?</p>
  </div>","74","html-slider-response","75","947145","0.0-5.0-1.13","302","1","2025-07-31 05:25:32","1f75c3e559b7213887762d5229550c2b","175.176.9.30","Mozilla/5.0 (Windows NT 10.0; Win64; x64) AppleWebKit/537.36 (KHTML, like Gecko) Chrome/138.0.0.0 Safari/537.36","WebKit","Chrome","138.0.0.0","Windows","10.0","https://app.prolific.com/","en-US,en;q=0.9","65f0831414fd6e9e51e08708","6877631c9844ddd5501205fc","688afd92311d94410195f69f","3","1","65f0831414fd6e9e51e08708","3","1","2025-07-31T05:41:24.589Z","","","","","","","","","","","AttribQ","","50","","","","","","","","","","","","","","","","","","","","","","","","","","","","",""
"3845","","<div style=""width:500px;"">
  <p>How much control did you have over the ball?</p>
  </div>","82","html-slider-response","76","950993","0.0-5.0-2.13","302","1","2025-07-31 05:25:32","1f75c3e559b7213887762d5229550c2b","175.176.9.30","Mozilla/5.0 (Windows NT 10.0; Win64; x64) AppleWebKit/537.36 (KHTML, like Gecko) Chrome/138.0.0.0 Safari/537.36","WebKit","Chrome","138.0.0.0","Windows","10.0","https://app.prolific.com/","en-US,en;q=0.9","65f0831414fd6e9e51e08708","6877631c9844ddd5501205fc","688afd92311d94410195f69f","3","1","65f0831414fd6e9e51e08708","3","1","2025-07-31T05:41:28.437Z","","","","","","","","","","","ControlQ","","50","","","","","","","","","","","","","","","","","","","","","","","","","","","","",""
"2947","","<div style=""width:500px;"">
  <p>How would you describe your current emotional state?</p>
  </div>","56","html-slider-response","77","953943","0.0-5.0-3.13","302","1","2025-07-31 05:25:32","1f75c3e559b7213887762d5229550c2b","175.176.9.30","Mozilla/5.0 (Windows NT 10.0; Win64; x64) AppleWebKit/537.36 (KHTML, like Gecko) Chrome/138.0.0.0 Safari/537.36","WebKit","Chrome","138.0.0.0","Windows","10.0","https://app.prolific.com/","en-US,en;q=0.9","65f0831414fd6e9e51e08708","6877631c9844ddd5501205fc","688afd92311d94410195f69f","3","1","65f0831414fd6e9e51e08708","3","1","2025-07-31T05:41:31.387Z","","","","","","","","","","","StressQ","","50","","","","","","","","","","","","","","","","","","","","","","","","","","","","",""
