"rt","response_timestamp","stimulus","response","trial_type","trial_index","time_elapsed","internal_node_id","run_id","condition","recorded_at","source_code_version","ip","user_agent","device","browser","browser_version","platform","platform_version","referer","accept_language","PROLIFIC_PID","STUDY_ID","SESSION_ID","WEEK","BATCH","prolific_id","week","batch","realtime","success","responses","item_order","radio_event_ids","radio_event_times","key_event_times","mouse_event_times","straightlining","zigzagging","honeypot","eventType","view_history","slider_start","which_type","canvas_config","goals_layout","control_level","trial_number","tutorial_trial_number","trial_start_time","phase1_start_time","phase2_start_time","phase3_start_time","goal_1_value","goal_1_distance","goal_2_value","goal_2_distance","goal_selected","outcome","outcome_total","participant_final_score","participant_initial_score","participant_final_score_prop","goal_choice_rt","allocated_time","allocated_time_remaining","goal_direction","counts","mouse_movements","key_presses","question_order","question_id"
"3177","1752656343684","<p style='font-size:40px;line-height:1.25'><strong>Welcome to the experiment!</strong></p><p style='font-size:1.1em;line-height:1.25'>Thank you for participanting in our experiment again! You will be asked to play the Dysfunctional Ball Game again. We will briefly recap the rules before we start.</p><p style='font-size:1.1em;line-height:1.25'>Press <strong>Next</strong> to continue.</p>","0","custom-html-button-response","0","3182","0.0-0.0","85","1","2025-07-16 08:58:54","1f75c3e559b7213887762d5229550c2b","102.208.179.160","Mozilla/5.0 (Windows NT 10.0; Win64; x64) AppleWebKit/537.36 (KHTML, like Gecko) Chrome/138.0.0.0 Safari/537.36","WebKit","Chrome","138.0.0.0","Windows","10.0","https://app.prolific.com/","en-US,en;q=0.9,zh-CN;q=0.8,zh;q=0.7","669149873799bbea50733fe0","686e379bc37a29ffa5cdc956","687769abd536acf40cd9e603","1","1","669149873799bbea50733fe0","1","1","2025-07-16T08:59:03.686Z","","","","","","","","","","","","","","","","","","","","","","","","","","","","","","","","","","","","","","","","","",""
"1677","","","","fullscreen","1","5864","0.0-1.0","85","1","2025-07-16 08:58:54","1f75c3e559b7213887762d5229550c2b","102.208.179.160","Mozilla/5.0 (Windows NT 10.0; Win64; x64) AppleWebKit/537.36 (KHTML, like Gecko) Chrome/138.0.0.0 Safari/537.36","WebKit","Chrome","138.0.0.0","Windows","10.0","https://app.prolific.com/","en-US,en;q=0.9,zh-CN;q=0.8,zh;q=0.7","669149873799bbea50733fe0","686e379bc37a29ffa5cdc956","687769abd536acf40cd9e603","1","1","669149873799bbea50733fe0","1","1","","true","","","","","","","","","","","","","","","","","","","","","","","","","","","","","","","","","","","","","","","","",""
"1892","1752656348261","<p style='font-size:1.1em;line-height:1.25'>In the following, we will ask you a few questions relating to your feelings in the last 24 hours.<br></p><p style='font-size:1.1em;line-height:1.25'>Press the <strong>Next</strong> button to continue.</p>","0","custom-html-button-response","2","7758","0.0-2.0-0.0","85","1","2025-07-16 08:58:54","1f75c3e559b7213887762d5229550c2b","102.208.179.160","Mozilla/5.0 (Windows NT 10.0; Win64; x64) AppleWebKit/537.36 (KHTML, like Gecko) Chrome/138.0.0.0 Safari/537.36","WebKit","Chrome","138.0.0.0","Windows","10.0","https://app.prolific.com/","en-US,en;q=0.9,zh-CN;q=0.8,zh;q=0.7","669149873799bbea50733fe0","686e379bc37a29ffa5cdc956","687769abd536acf40cd9e603","1","1","669149873799bbea50733fe0","1","1","2025-07-16T08:59:08.262Z","","","","","","","","","","","","","","","","","","","","","","","","","","","","","","","","","","","","","","","","","",""
"80496.5","","","","survey-template","3","88267","0.0-2.0-1.0","85","1","2025-07-16 08:58:54","1f75c3e559b7213887762d5229550c2b","102.208.179.160","Mozilla/5.0 (Windows NT 10.0; Win64; x64) AppleWebKit/537.36 (KHTML, like Gecko) Chrome/138.0.0.0 Safari/537.36","WebKit","Chrome","138.0.0.0","Windows","10.0","https://app.prolific.com/","en-US,en;q=0.9,zh-CN;q=0.8,zh;q=0.7","669149873799bbea50733fe0","686e379bc37a29ffa5cdc956","687769abd536acf40cd9e603","1","1","669149873799bbea50733fe0","1","1","2025-07-16T09:00:28.771Z","","{""Q01"":""3"",""Q02"":""2"",""Q03"":""1"",""Q04"":""1"",""Q05"":""1"",""Q06"":""1"",""Q07"":""1"",""Q08"":""0"",""Q09"":""1"",""Q10"":""0"",""Q11"":""1"",""Q12"":""1"",""Q13"":""5"",""Q14"":""4"",""Q15"":""2"",""Q16"":""1"",""Q17"":""1"",""Q18"":""1"",""Q19"":""1"",""Q20"":""0"",""Q21"":""1"",""Q22"":""1""}","[0,1,2,3,4,5,6,7,8,9,10,11,12,13,14,15,16,17,18,19,20,21]","[""Q01"",""Q02"",""Q03"",""Q04"",""Q05"",""Q06"",""Q05"",""Q07"",""Q08"",""Q09"",""Q10"",""Q11"",""Q12"",""Q13"",""Q14"",""Q14"",""Q15"",""Q16"",""Q17"",""Q18"",""Q19"",""Q20"",""Q21"",""Q22""]","[3446.7999999821186,6495,11044.09999999404,15968.199999988079,17500.19999998808,19114,20596.69999998808,22363.29999998212,25161.29999998212,27108.79999998212,33418.79999998212,35211.29999998212,36734,41828.59999999404,44470.09999999404,47271.09999999404,53951.29999998212,59245.5,61326.29999998212,66100.19999998808,72598.19999998808,74946.79999998212,76476.69999998808,78858.5]","[]","[0.5999999940395355,3446.7999999821186,6495,8907,10020.799999982119,11044.09999999404,15968.199999988079,17500.19999998808,19114,20596.69999998808,22363.29999998212,25161.29999998212,27108.79999998212,33418.79999998212,35211.29999998212,36734,40065.19999998808,40641.59999999404,41828.59999999404,44470.09999999404,47271.09999999404,53951.29999998212,59245.5,61326.29999998212,62689.5,63758.19999998808,66100.19999998808,72598.19999998808,74946.79999998212,76476.69999998808,78858.5,80476.19999998808]","0.6363636363636364","0.47619047619047616","0","drsp","","","","","","","","","","","","","","","","","","","","","","","","","","","","","","",""
"12489.199999988079","","","","survey-template","4","100764","0.0-2.0-2.0","85","1","2025-07-16 08:58:54","1f75c3e559b7213887762d5229550c2b","102.208.179.160","Mozilla/5.0 (Windows NT 10.0; Win64; x64) AppleWebKit/537.36 (KHTML, like Gecko) Chrome/138.0.0.0 Safari/537.36","WebKit","Chrome","138.0.0.0","Windows","10.0","https://app.prolific.com/","en-US,en;q=0.9,zh-CN;q=0.8,zh;q=0.7","669149873799bbea50733fe0","686e379bc37a29ffa5cdc956","687769abd536acf40cd9e603","1","1","669149873799bbea50733fe0","1","1","2025-07-16T09:00:41.269Z","","{""Q01"":""1"",""Q02"":""3"",""Q03"":""1""}","[0,1,2]","[""Q01"",""Q02"",""Q02"",""Q03""]","[4477.0999999940395,7690.699999988079,9888.59999999404,11124.5]","[]","[4477.0999999940395,7690.699999988079,9888.59999999404,11124.5,12484]","0.6666666666666666","1","0","stress","","","","","","","","","","","","","","","","","","","","","","","","","","","","","","",""
"8301","","","","instructions","5","109070","0.0-3.0-0.0","85","1","2025-07-16 08:58:54","1f75c3e559b7213887762d5229550c2b","102.208.179.160","Mozilla/5.0 (Windows NT 10.0; Win64; x64) AppleWebKit/537.36 (KHTML, like Gecko) Chrome/138.0.0.0 Safari/537.36","WebKit","Chrome","138.0.0.0","Windows","10.0","https://app.prolific.com/","en-US,en;q=0.9,zh-CN;q=0.8,zh;q=0.7","669149873799bbea50733fe0","686e379bc37a29ffa5cdc956","687769abd536acf40cd9e603","1","1","669149873799bbea50733fe0","1","1","","","","","","","","","","","","","[{""page_index"":0,""viewing_time"":8298}]","","","","","","","","","","","","","","","","","","","","","","","","","","","","","",""
"4601","","<p>Before you start with this game please answer the following three questions yourself. </p>
  <p>Through this game, we measure several aspects of your cognitive performance, such as reaction times, multi-tasking capabilities </p>
  <p>and the ability to assess the situation you are in.</p>
  <p></p>
  <p><b>How good do you usually are in such tasks?</b></p>","50","html-slider-response","6","113683","0.0-4.0-0.0","85","1","2025-07-16 08:58:54","1f75c3e559b7213887762d5229550c2b","102.208.179.160","Mozilla/5.0 (Windows NT 10.0; Win64; x64) AppleWebKit/537.36 (KHTML, like Gecko) Chrome/138.0.0.0 Safari/537.36","WebKit","Chrome","138.0.0.0","Windows","10.0","https://app.prolific.com/","en-US,en;q=0.9,zh-CN;q=0.8,zh;q=0.7","669149873799bbea50733fe0","686e379bc37a29ffa5cdc956","687769abd536acf40cd9e603","1","1","669149873799bbea50733fe0","1","1","2025-07-16T09:00:54.187Z","","","","","","","","","","","PreSkillQ","","50","","","","","","","","","","","","","","","","","","","","","","","","","","","","",""
"10650","","<div style=""width:500px;"">
  <p>How well do you think you will perform in this task compared to other participants?</p>
  </div>","57","html-slider-response","7","124338","0.0-4.0-1.0","85","1","2025-07-16 08:58:54","1f75c3e559b7213887762d5229550c2b","102.208.179.160","Mozilla/5.0 (Windows NT 10.0; Win64; x64) AppleWebKit/537.36 (KHTML, like Gecko) Chrome/138.0.0.0 Safari/537.36","WebKit","Chrome","138.0.0.0","Windows","10.0","https://app.prolific.com/","en-US,en;q=0.9,zh-CN;q=0.8,zh;q=0.7","669149873799bbea50733fe0","686e379bc37a29ffa5cdc956","687769abd536acf40cd9e603","1","1","669149873799bbea50733fe0","1","1","2025-07-16T09:01:04.842Z","","","","","","","","","","","PrePerfQ","","50","","","","","","","","","","","","","","","","","","","","","","","","","","","","",""
"4987","","<div style=""width:500px;"">
  <p>What best describes how you currently feel?</p>
  </div>","62","html-slider-response","8","129330","0.0-4.0-2.0","85","1","2025-07-16 08:58:54","1f75c3e559b7213887762d5229550c2b","102.208.179.160","Mozilla/5.0 (Windows NT 10.0; Win64; x64) AppleWebKit/537.36 (KHTML, like Gecko) Chrome/138.0.0.0 Safari/537.36","WebKit","Chrome","138.0.0.0","Windows","10.0","https://app.prolific.com/","en-US,en;q=0.9,zh-CN;q=0.8,zh;q=0.7","669149873799bbea50733fe0","686e379bc37a29ffa5cdc956","687769abd536acf40cd9e603","1","1","669149873799bbea50733fe0","1","1","2025-07-16T09:01:09.834Z","","","","","","","","","","","PreMotivationQ","","50","","","","","","","","","","","","","","","","","","","","","","","","","","","","",""
"","","","","ctl-task-cpt","9","159647","0.0-5.0-0.0","85","1","2025-07-16 08:58:54","1f75c3e559b7213887762d5229550c2b","102.208.179.160","Mozilla/5.0 (Windows NT 10.0; Win64; x64) AppleWebKit/537.36 (KHTML, like Gecko) Chrome/138.0.0.0 Safari/537.36","WebKit","Chrome","138.0.0.0","Windows","10.0","https://app.prolific.com/","en-US,en;q=0.9,zh-CN;q=0.8,zh;q=0.7","669149873799bbea50733fe0","686e379bc37a29ffa5cdc956","687769abd536acf40cd9e603","1","1","669149873799bbea50733fe0","1","1","2025-07-16T09:01:40.151Z","","","","","","","","","","","","","","win-only","1","g1:NE,g2:SW","1","1","0","137938.9","4098.5","9102.3","27301.8","1","4","4","6","1","1","1","1","0","0.007575757575757576","4494.2","3000","1530","[""up"",""right""]","{""num_key_presses"":4,""num_perfect"":4,""num_errors"":0,""num_randdir"":0,""num_randdir_good_moves"":0,""num_whilered"":0,""num_whileblue"":0,""num_blue"":2,""num_good_moves"":4}","[420.3214133126395,416.57142761775424,2.7,420.3214133126395,416.57142761775424,103,420.3214133126395,416.57142761775424,207.5,420.3214133126395,416.57142761775424,307.9,420.3214133126395,416.57142761775424,412.7,420.3214133126395,416.57142761775424,518.4,410.3214133126395,444.07142761775424,623.7,422.8214133126395,472.82142761775424,728.2,446.5714133126395,481.57142761775424,829.3,482.8214133126395,456.57142761775424,931.4,487.8214133126395,391.57142761775424,1033.7,474.0714133126395,364.07142761775424,1138.2,471.5714133126395,361.57142761775424,1242.7,471.5714133126395,361.57142761775424,1343.3,471.5714133126395,361.57142761775424,1448.9,471.5714133126395,362.82142761775424,1553.2,471.5714133126395,364.07142761775424,1653.8,471.5714133126395,364.07142761775424,1758.9,471.5714133126395,364.07142761775424,1862.7,471.5714133126395,365.32142761775424,1965.5,472.8214133126395,366.57142761775424,2068.6,472.8214133126395,369.07142761775424,2172.6,472.8214133126395,369.07142761775424,2277.9,474.0714133126395,366.57142761775424,2380,476.5714133126395,365.32142761775424,2483.1,477.8214133126395,364.07142761775424,2583.1,204.0714133126395,670.3214276177542,2683.7,6.571413312639507,919.0714276177542,2789,2.821413312639507,921.5714276177542,2893.6,2.821413312639507,916.5714276177542,2995.5,26.571413312639507,849.0714276177542,3098,52.82141331263951,786.5714276177542,3198.3,52.82141331263951,787.8214276177542,3298.8,52.82141331263951,791.5714276177542,3403.6,420.3214133126395,524.0714276177542,3509.7,762.8214133126395,216.57142761775424,3613.1,750.3214133126395,196.57142761775424,3714.5,722.8214133126395,152.82142761775424,3818.1,712.8214133126395,110.32142761775425,3924.2,786.5714133126395,94.07142761775425,4032.1,790.3214133126395,94.07142761775425,4134.6,790.3214133126395,94.07142761775425,4238,790.3214133126395,94.07142761775425,4347.3,790.3214133126395,94.07142761775425,4447.3,790.3214133126395,94.07142761775425,4552.2,790.3214133126395,94.07142761775425,4652.4,790.3214133126395,94.07142761775425,4763.2,790.3214133126395,94.07142761775425,4868.3,790.3214133126395,94.07142761775425,4969.2]","[4947.7,4947.7,2525.4,2008.5,413.8,""smooth"",""up"",""up"",""good_move"",11331.7,6383,2244.6,8574.1,513.1,""smooth"",""right"",""right"",""good_move"",14428.8,3096.3,2526.4,11332.6,569.8,""smooth"",""right"",""right"",""good_move"",18073,3643.3,3276.3,14429.8,366.9,""smooth"",""up"",""up"",""good_move""]","",""
"170953","","<div style=""width:500px;"">
  <p>What determined the result of this run?</p>
  </div>","53","html-slider-response","10","330602","0.0-5.0-1.0","85","1","2025-07-16 08:58:54","1f75c3e559b7213887762d5229550c2b","102.208.179.160","Mozilla/5.0 (Windows NT 10.0; Win64; x64) AppleWebKit/537.36 (KHTML, like Gecko) Chrome/138.0.0.0 Safari/537.36","WebKit","Chrome","138.0.0.0","Windows","10.0","https://app.prolific.com/","en-US,en;q=0.9,zh-CN;q=0.8,zh;q=0.7","669149873799bbea50733fe0","686e379bc37a29ffa5cdc956","687769abd536acf40cd9e603","1","1","669149873799bbea50733fe0","1","1","2025-07-16T09:04:31.106Z","","","","","","","","","","","AttribQ","","50","","","","","","","","","","","","","","","","","","","","","","","","","","","","",""
"3808","","<div style=""width:500px;"">
  <p>How much control did you have over the ball?</p>
  </div>","55","html-slider-response","11","334413","0.0-5.0-2.0","85","1","2025-07-16 08:58:54","1f75c3e559b7213887762d5229550c2b","102.208.179.160","Mozilla/5.0 (Windows NT 10.0; Win64; x64) AppleWebKit/537.36 (KHTML, like Gecko) Chrome/138.0.0.0 Safari/537.36","WebKit","Chrome","138.0.0.0","Windows","10.0","https://app.prolific.com/","en-US,en;q=0.9,zh-CN;q=0.8,zh;q=0.7","669149873799bbea50733fe0","686e379bc37a29ffa5cdc956","687769abd536acf40cd9e603","1","1","669149873799bbea50733fe0","1","1","2025-07-16T09:04:34.917Z","","","","","","","","","","","ControlQ","","50","","","","","","","","","","","","","","","","","","","","","","","","","","","","",""
"3249","","<div style=""width:500px;"">
  <p>How would you describe your current emotional state?</p>
  </div>","43","html-slider-response","12","337664","0.0-5.0-3.0","85","1","2025-07-16 08:58:54","1f75c3e559b7213887762d5229550c2b","102.208.179.160","Mozilla/5.0 (Windows NT 10.0; Win64; x64) AppleWebKit/537.36 (KHTML, like Gecko) Chrome/138.0.0.0 Safari/537.36","WebKit","Chrome","138.0.0.0","Windows","10.0","https://app.prolific.com/","en-US,en;q=0.9,zh-CN;q=0.8,zh;q=0.7","669149873799bbea50733fe0","686e379bc37a29ffa5cdc956","687769abd536acf40cd9e603","1","1","669149873799bbea50733fe0","1","1","2025-07-16T09:04:38.168Z","","","","","","","","","","","StressQ","","50","","","","","","","","","","","","","","","","","","","","","","","","","","","","",""
"3061","","<div style=""width:500px;"">
  <p>What best describes how you currently feel?</p>
  </div>","58","html-slider-response","13","340727","0.0-5.0-4.0","85","1","2025-07-16 08:58:54","1f75c3e559b7213887762d5229550c2b","102.208.179.160","Mozilla/5.0 (Windows NT 10.0; Win64; x64) AppleWebKit/537.36 (KHTML, like Gecko) Chrome/138.0.0.0 Safari/537.36","WebKit","Chrome","138.0.0.0","Windows","10.0","https://app.prolific.com/","en-US,en;q=0.9,zh-CN;q=0.8,zh;q=0.7","669149873799bbea50733fe0","686e379bc37a29ffa5cdc956","687769abd536acf40cd9e603","1","1","669149873799bbea50733fe0","1","1","2025-07-16T09:04:41.231Z","","","","","","","","","","","MotivationQ","","50","","","","","","","","","","","","","","","","","","","","","","","","","","","","",""
"","","","","ctl-task-cpt","14","359348","0.0-5.0-0.1","85","1","2025-07-16 08:58:54","1f75c3e559b7213887762d5229550c2b","102.208.179.160","Mozilla/5.0 (Windows NT 10.0; Win64; x64) AppleWebKit/537.36 (KHTML, like Gecko) Chrome/138.0.0.0 Safari/537.36","WebKit","Chrome","138.0.0.0","Windows","10.0","https://app.prolific.com/","en-US,en;q=0.9,zh-CN;q=0.8,zh;q=0.7","669149873799bbea50733fe0","686e379bc37a29ffa5cdc956","687769abd536acf40cd9e603","1","1","669149873799bbea50733fe0","1","1","2025-07-16T09:04:59.852Z","","","","","","","","","","","","","","win-only","1","g1:NE,g2:SW","0.9","2","0","349331.1","1863.4","6865.9","15601.5","1","4","8","6","1","1","1","2","1","0.015151515151515152","1712.2","3000","1950","[""up"",""right""]","{""num_key_presses"":4,""num_perfect"":3,""num_errors"":0,""num_randdir"":1,""num_randdir_good_moves"":1,""num_whilered"":0,""num_whileblue"":0,""num_blue"":0,""num_good_moves"":4}","[412.8214133126395,415.32142761775424,0.7,412.8214133126395,415.32142761775424,101.1,412.8214133126395,415.32142761775424,202.6,412.8214133126395,415.32142761775424,303,412.8214133126395,415.32142761775424,407.4,412.8214133126395,415.32142761775424,508,412.8214133126395,415.32142761775424,609.4,412.8214133126395,415.32142761775424,713.1,434.0714133126395,414.07142761775424,817.8,522.8214133126395,335.32142761775424,919.1,741.5714133126395,155.32142761775424,1034.5,741.5714133126395,155.32142761775424,1136.9,741.5714133126395,155.32142761775424,1237.2,726.5714133126395,137.82142761775424,1338,727.8214133126395,71.57142761775425,1442.9,730.3214133126395,65.32142761775425,1543.6,730.3214133126395,65.32142761775425,1648.2,730.3214133126395,65.32142761775425,1751.4,730.3214133126395,65.32142761775425,1852.2,730.3214133126395,65.32142761775425,1952.4,730.3214133126395,65.32142761775425,2052.9,730.3214133126395,65.32142761775425,2167.9,730.3214133126395,65.32142761775425,2272.5,730.3214133126395,65.32142761775425,2372.9,705.3214133126395,105.32142761775425,2474.7,661.5714133126395,190.32142761775424,2577.3,624.0714133126395,246.57142761775424,2679,571.5714133126395,296.57142761775424,2783.4,571.5714133126395,296.57142761775424,2898.8,571.5714133126395,296.57142761775424,2998.9,571.5714133126395,296.57142761775424,3102.5,571.5714133126395,296.57142761775424,3202.5,571.5714133126395,296.57142761775424,3302.5,571.5714133126395,296.57142761775424,3408.2,571.5714133126395,296.57142761775424,3508.6,571.5714133126395,296.57142761775424,3612.4,571.5714133126395,296.57142761775424,3712.4,571.5714133126395,296.57142761775424,3817.1,571.5714133126395,296.57142761775424,3917.9,571.5714133126395,296.57142761775424,4019.4,571.5714133126395,296.57142761775424,4131.5,571.5714133126395,296.57142761775424,4233,571.5714133126395,296.57142761775424,4337.7,571.5714133126395,296.57142761775424,4438.5,571.5714133126395,296.57142761775424,4543.2,571.5714133126395,296.57142761775424,4647.1,571.5714133126395,296.57142761775424,4748.2,571.5714133126395,296.57142761775424,4848.2,571.5714133126395,296.57142761775424,4965]","[1410.2,1410.1,1000,0.1,410.1,""smooth"",""up"",""up"",""good_move"",3512.9,2101.8,1648.8,1411.2,452.9,""smooth"",""up"",""up"",""good_move"",6120.5,2606.7,2252.1,3513.8,354.6,""oops"",""right"",""right"",""good_move"",8619.6,2498,2162.5,6121.6,335.5,""smooth"",""right"",""right"",""good_move""]","",""
"3176","","<div style=""width:500px;"">
  <p>What determined the result of this run?</p>
  </div>","50","html-slider-response","15","362526","0.0-5.0-1.1","85","1","2025-07-16 08:58:54","1f75c3e559b7213887762d5229550c2b","102.208.179.160","Mozilla/5.0 (Windows NT 10.0; Win64; x64) AppleWebKit/537.36 (KHTML, like Gecko) Chrome/138.0.0.0 Safari/537.36","WebKit","Chrome","138.0.0.0","Windows","10.0","https://app.prolific.com/","en-US,en;q=0.9,zh-CN;q=0.8,zh;q=0.7","669149873799bbea50733fe0","686e379bc37a29ffa5cdc956","687769abd536acf40cd9e603","1","1","669149873799bbea50733fe0","1","1","2025-07-16T09:05:03.030Z","","","","","","","","","","","AttribQ","","50","","","","","","","","","","","","","","","","","","","","","","","","","","","","",""
"3641","","<div style=""width:500px;"">
  <p>How much control did you have over the ball?</p>
  </div>","54","html-slider-response","16","366171","0.0-5.0-2.1","85","1","2025-07-16 08:58:54","1f75c3e559b7213887762d5229550c2b","102.208.179.160","Mozilla/5.0 (Windows NT 10.0; Win64; x64) AppleWebKit/537.36 (KHTML, like Gecko) Chrome/138.0.0.0 Safari/537.36","WebKit","Chrome","138.0.0.0","Windows","10.0","https://app.prolific.com/","en-US,en;q=0.9,zh-CN;q=0.8,zh;q=0.7","669149873799bbea50733fe0","686e379bc37a29ffa5cdc956","687769abd536acf40cd9e603","1","1","669149873799bbea50733fe0","1","1","2025-07-16T09:05:06.675Z","","","","","","","","","","","ControlQ","","50","","","","","","","","","","","","","","","","","","","","","","","","","","","","",""
"5456","","<div style=""width:500px;"">
  <p>How would you describe your current emotional state?</p>
  </div>","55","html-slider-response","17","371630","0.0-5.0-3.1","85","1","2025-07-16 08:58:54","1f75c3e559b7213887762d5229550c2b","102.208.179.160","Mozilla/5.0 (Windows NT 10.0; Win64; x64) AppleWebKit/537.36 (KHTML, like Gecko) Chrome/138.0.0.0 Safari/537.36","WebKit","Chrome","138.0.0.0","Windows","10.0","https://app.prolific.com/","en-US,en;q=0.9,zh-CN;q=0.8,zh;q=0.7","669149873799bbea50733fe0","686e379bc37a29ffa5cdc956","687769abd536acf40cd9e603","1","1","669149873799bbea50733fe0","1","1","2025-07-16T09:05:12.134Z","","","","","","","","","","","StressQ","","50","","","","","","","","","","","","","","","","","","","","","","","","","","","","",""
"3862","","<div style=""width:500px;"">
  <p>What best describes how you currently feel?</p>
  </div>","54","html-slider-response","18","375494","0.0-5.0-4.1","85","1","2025-07-16 08:58:54","1f75c3e559b7213887762d5229550c2b","102.208.179.160","Mozilla/5.0 (Windows NT 10.0; Win64; x64) AppleWebKit/537.36 (KHTML, like Gecko) Chrome/138.0.0.0 Safari/537.36","WebKit","Chrome","138.0.0.0","Windows","10.0","https://app.prolific.com/","en-US,en;q=0.9,zh-CN;q=0.8,zh;q=0.7","669149873799bbea50733fe0","686e379bc37a29ffa5cdc956","687769abd536acf40cd9e603","1","1","669149873799bbea50733fe0","1","1","2025-07-16T09:05:15.998Z","","","","","","","","","","","MotivationQ","","50","","","","","","","","","","","","","","","","","","","","","","","","","","","","",""
"","","","","ctl-task-cpt","19","395836","0.0-5.0-0.2","85","1","2025-07-16 08:58:54","1f75c3e559b7213887762d5229550c2b","102.208.179.160","Mozilla/5.0 (Windows NT 10.0; Win64; x64) AppleWebKit/537.36 (KHTML, like Gecko) Chrome/138.0.0.0 Safari/537.36","WebKit","Chrome","138.0.0.0","Windows","10.0","https://app.prolific.com/","en-US,en;q=0.9,zh-CN;q=0.8,zh;q=0.7","669149873799bbea50733fe0","686e379bc37a29ffa5cdc956","687769abd536acf40cd9e603","1","1","669149873799bbea50733fe0","1","1","2025-07-16T09:05:36.340Z","","","","","","","","","","","","","","win-only","0","g1:NW,g2:SE","0.8","3","0","384097.9","2283.7","7299.2","17326.6","1","4","8","6","1","1","1","3","2","0.022727272727272728","1593.7","3000","2090","[""left"",""up""]","{""num_key_presses"":4,""num_perfect"":4,""num_errors"":0,""num_randdir"":0,""num_randdir_good_moves"":0,""num_whilered"":0,""num_whileblue"":0,""num_blue"":0,""num_good_moves"":4}","[416.5714133126395,410.32142761775424,0.8,416.5714133126395,410.32142761775424,101.2,416.5714133126395,410.32142761775424,211.2,416.5714133126395,410.32142761775424,316.5,416.5714133126395,410.32142761775424,416.5,416.5714133126395,410.32142761775424,522.6,416.5714133126395,410.32142761775424,637.7,449.0714133126395,426.57142761775424,742.4,351.5714133126395,401.57142761775424,842.5,177.8214133126395,286.57142761775424,953.4,142.8214133126395,172.82142761775424,1057.8,140.3214133126395,150.32142761775424,1166.8,136.5714133126395,130.32142761775424,1269,100.3214133126395,100.32142761775425,1372.1,100.3214133126395,100.32142761775425,1478.9,100.3214133126395,100.32142761775425,1596.9,100.3214133126395,100.32142761775425,1698.9,100.3214133126395,100.32142761775425,1821.7,100.3214133126395,100.32142761775425,1933.8,100.3214133126395,100.32142761775425,2049.5,100.3214133126395,100.32142761775425,2150.1,100.3214133126395,100.32142761775425,2252.6,100.3214133126395,100.32142761775425,2352.8,97.8214133126395,104.07142761775425,2452.9,96.5714133126395,126.57142761775425,2553.6,96.5714133126395,179.07142761775424,2655.4,97.8214133126395,221.57142761775424,2767.5,97.8214133126395,221.57142761775424,2872.2,97.8214133126395,221.57142761775424,2977.9,97.8214133126395,221.57142761775424,3080.1,97.8214133126395,221.57142761775424,3197.5,97.8214133126395,221.57142761775424,3297.9,97.8214133126395,221.57142761775424,3400.7,97.8214133126395,221.57142761775424,3504.1,97.8214133126395,221.57142761775424,3605,97.8214133126395,221.57142761775424,3715.6,97.8214133126395,221.57142761775424,3817.3,97.8214133126395,221.57142761775424,3917.9,97.8214133126395,221.57142761775424,4022.2,97.8214133126395,221.57142761775424,4123.4,97.8214133126395,221.57142761775424,4227.5,97.8214133126395,221.57142761775424,4327.5,97.8214133126395,221.57142761775424,4446.5,97.8214133126395,221.57142761775424,4550,97.8214133126395,221.57142761775424,4652.8,97.8214133126395,221.57142761775424,4753,97.8214133126395,221.57142761775424,4858.2,97.8214133126395,221.57142761775424,4964.3]","[1379.4,1379.4,1000,0.1,379.3,""smooth"",""up"",""up"",""good_move"",3908.9,2526.8,2160,1382.1,366.8,""smooth"",""up"",""up"",""good_move"",7243.9,3334.3,3004.9,3909.7,329.3,""smooth"",""left"",""left"",""good_move"",9874.5,2629.3,2281.9,7245.2,347.4,""smooth"",""left"",""left"",""good_move""]","",""
"3655","","<div style=""width:500px;"">
  <p>What determined the result of this run?</p>
  </div>","50","html-slider-response","20","399493","0.0-5.0-1.2","85","1","2025-07-16 08:58:54","1f75c3e559b7213887762d5229550c2b","102.208.179.160","Mozilla/5.0 (Windows NT 10.0; Win64; x64) AppleWebKit/537.36 (KHTML, like Gecko) Chrome/138.0.0.0 Safari/537.36","WebKit","Chrome","138.0.0.0","Windows","10.0","https://app.prolific.com/","en-US,en;q=0.9,zh-CN;q=0.8,zh;q=0.7","669149873799bbea50733fe0","686e379bc37a29ffa5cdc956","687769abd536acf40cd9e603","1","1","669149873799bbea50733fe0","1","1","2025-07-16T09:05:39.997Z","","","","","","","","","","","AttribQ","","50","","","","","","","","","","","","","","","","","","","","","","","","","","","","",""
"3903","","<div style=""width:500px;"">
  <p>How much control did you have over the ball?</p>
  </div>","63","html-slider-response","21","403398","0.0-5.0-2.2","85","1","2025-07-16 08:58:54","1f75c3e559b7213887762d5229550c2b","102.208.179.160","Mozilla/5.0 (Windows NT 10.0; Win64; x64) AppleWebKit/537.36 (KHTML, like Gecko) Chrome/138.0.0.0 Safari/537.36","WebKit","Chrome","138.0.0.0","Windows","10.0","https://app.prolific.com/","en-US,en;q=0.9,zh-CN;q=0.8,zh;q=0.7","669149873799bbea50733fe0","686e379bc37a29ffa5cdc956","687769abd536acf40cd9e603","1","1","669149873799bbea50733fe0","1","1","2025-07-16T09:05:43.903Z","","","","","","","","","","","ControlQ","","50","","","","","","","","","","","","","","","","","","","","","","","","","","","","",""
"4418","","<div style=""width:500px;"">
  <p>How would you describe your current emotional state?</p>
  </div>","29","html-slider-response","22","407818","0.0-5.0-3.2","85","1","2025-07-16 08:58:54","1f75c3e559b7213887762d5229550c2b","102.208.179.160","Mozilla/5.0 (Windows NT 10.0; Win64; x64) AppleWebKit/537.36 (KHTML, like Gecko) Chrome/138.0.0.0 Safari/537.36","WebKit","Chrome","138.0.0.0","Windows","10.0","https://app.prolific.com/","en-US,en;q=0.9,zh-CN;q=0.8,zh;q=0.7","669149873799bbea50733fe0","686e379bc37a29ffa5cdc956","687769abd536acf40cd9e603","1","1","669149873799bbea50733fe0","1","1","2025-07-16T09:05:48.323Z","","","","","","","","","","","StressQ","","50","","","","","","","","","","","","","","","","","","","","","","","","","","","","",""
"4219","","<div style=""width:500px;"">
  <p>What best describes how you currently feel?</p>
  </div>","42","html-slider-response","23","412040","0.0-5.0-4.2","85","1","2025-07-16 08:58:54","1f75c3e559b7213887762d5229550c2b","102.208.179.160","Mozilla/5.0 (Windows NT 10.0; Win64; x64) AppleWebKit/537.36 (KHTML, like Gecko) Chrome/138.0.0.0 Safari/537.36","WebKit","Chrome","138.0.0.0","Windows","10.0","https://app.prolific.com/","en-US,en;q=0.9,zh-CN;q=0.8,zh;q=0.7","669149873799bbea50733fe0","686e379bc37a29ffa5cdc956","687769abd536acf40cd9e603","1","1","669149873799bbea50733fe0","1","1","2025-07-16T09:05:52.544Z","","","","","","","","","","","MotivationQ","","50","","","","","","","","","","","","","","","","","","","","","","","","","","","","",""
"","","","","ctl-task-cpt","24","432354","0.0-5.0-0.3","85","1","2025-07-16 08:58:54","1f75c3e559b7213887762d5229550c2b","102.208.179.160","Mozilla/5.0 (Windows NT 10.0; Win64; x64) AppleWebKit/537.36 (KHTML, like Gecko) Chrome/138.0.0.0 Safari/537.36","WebKit","Chrome","138.0.0.0","Windows","10.0","https://app.prolific.com/","en-US,en;q=0.9,zh-CN;q=0.8,zh;q=0.7","669149873799bbea50733fe0","686e379bc37a29ffa5cdc956","687769abd536acf40cd9e603","1","1","669149873799bbea50733fe0","1","1","2025-07-16T09:06:12.858Z","","","","","","","","","","","","","","win-only","2","g1:SE,g2:NW","0.7","4","0","420644","1558.8","6576.3","17286.3","1","4","4","6","1","1","1","4","3","0.030303030303030304","1803.5","3000","2200","[""down"",""right""]","{""num_key_presses"":4,""num_perfect"":4,""num_errors"":0,""num_randdir"":0,""num_randdir_good_moves"":0,""num_whilered"":0,""num_whileblue"":0,""num_blue"":0,""num_good_moves"":4}","[410.3214133126395,425.32142761775424,0.6,410.3214133126395,425.32142761775424,107.3,410.3214133126395,425.32142761775424,218.7,410.3214133126395,425.32142761775424,336.9,410.3214133126395,425.32142761775424,438.6,410.3214133126395,425.32142761775424,539.6,410.3214133126395,425.32142761775424,642.1,410.3214133126395,425.32142761775424,753.4,465.3214133126395,490.32142761775424,866,465.3214133126395,490.32142761775424,968.3,465.3214133126395,490.32142761775424,1070.8,465.3214133126395,490.32142761775424,1173.7,740.3214133126395,680.3214276177542,1279.5,749.0714133126395,737.8214276177542,1388.8,736.5714133126395,751.5714276177542,1491.3,740.3214133126395,760.3214276177542,1601.3,740.3214133126395,760.3214276177542,1703.5,740.3214133126395,760.3214276177542,1808.6,740.3214133126395,760.3214276177542,1912.4,740.3214133126395,760.3214276177542,2024.4,740.3214133126395,760.3214276177542,2125.6,740.3214133126395,760.3214276177542,2225.6,740.3214133126395,760.3214276177542,2327.7,740.3214133126395,760.3214276177542,2428.7,732.8214133126395,755.3214276177542,2532.6,564.0714133126395,599.0714276177542,2636.4,542.8214133126395,560.3214276177542,2738.3,536.5714133126395,545.3214276177542,2844.1,516.5714133126395,506.57142761775424,2971.8,516.5714133126395,506.57142761775424,3081.2,516.5714133126395,506.57142761775424,3182.4,516.5714133126395,506.57142761775424,3301,516.5714133126395,506.57142761775424,3422.4,516.5714133126395,506.57142761775424,3543.4,516.5714133126395,506.57142761775424,3651.3,516.5714133126395,506.57142761775424,3754.3,516.5714133126395,506.57142761775424,3881.8,516.5714133126395,506.57142761775424,3984.4,516.5714133126395,506.57142761775424,4098.2,516.5714133126395,506.57142761775424,4204.5,516.5714133126395,506.57142761775424,4307.6,516.5714133126395,506.57142761775424,4408.1,516.5714133126395,506.57142761775424,4531.1,516.5714133126395,506.57142761775424,4632.4,516.5714133126395,506.57142761775424,4749.2,516.5714133126395,506.57142761775424,4853.9,516.5714133126395,506.57142761775424,4957.9]","[1356.8,1356.9,1000,0,356.9,""smooth"",""right"",""right"",""good_move"",4098,2738.7,2392.4,1359.3,346.3,""smooth"",""right"",""right"",""good_move"",7403.1,3303.9,2913.5,4099.3,390.4,""smooth"",""down"",""down"",""good_move"",10544.5,3140,2701.3,7404.5,438.7,""smooth"",""down"",""down"",""good_move""]","",""
"7991","","<div style=""width:500px;"">
  <p>What determined the result of this run?</p>
  </div>","34","html-slider-response","25","440347","0.0-5.0-1.3","85","1","2025-07-16 08:58:54","1f75c3e559b7213887762d5229550c2b","102.208.179.160","Mozilla/5.0 (Windows NT 10.0; Win64; x64) AppleWebKit/537.36 (KHTML, like Gecko) Chrome/138.0.0.0 Safari/537.36","WebKit","Chrome","138.0.0.0","Windows","10.0","https://app.prolific.com/","en-US,en;q=0.9,zh-CN;q=0.8,zh;q=0.7","669149873799bbea50733fe0","686e379bc37a29ffa5cdc956","687769abd536acf40cd9e603","1","1","669149873799bbea50733fe0","1","1","2025-07-16T09:06:20.851Z","","","","","","","","","","","AttribQ","","50","","","","","","","","","","","","","","","","","","","","","","","","","","","","",""
"9617","","<div style=""width:500px;"">
  <p>How much control did you have over the ball?</p>
  </div>","68","html-slider-response","26","449967","0.0-5.0-2.3","85","1","2025-07-16 08:58:54","1f75c3e559b7213887762d5229550c2b","102.208.179.160","Mozilla/5.0 (Windows NT 10.0; Win64; x64) AppleWebKit/537.36 (KHTML, like Gecko) Chrome/138.0.0.0 Safari/537.36","WebKit","Chrome","138.0.0.0","Windows","10.0","https://app.prolific.com/","en-US,en;q=0.9,zh-CN;q=0.8,zh;q=0.7","669149873799bbea50733fe0","686e379bc37a29ffa5cdc956","687769abd536acf40cd9e603","1","1","669149873799bbea50733fe0","1","1","2025-07-16T09:06:30.472Z","","","","","","","","","","","ControlQ","","50","","","","","","","","","","","","","","","","","","","","","","","","","","","","",""
"8742","","<div style=""width:500px;"">
  <p>How would you describe your current emotional state?</p>
  </div>","42","html-slider-response","27","458712","0.0-5.0-3.3","85","1","2025-07-16 08:58:54","1f75c3e559b7213887762d5229550c2b","102.208.179.160","Mozilla/5.0 (Windows NT 10.0; Win64; x64) AppleWebKit/537.36 (KHTML, like Gecko) Chrome/138.0.0.0 Safari/537.36","WebKit","Chrome","138.0.0.0","Windows","10.0","https://app.prolific.com/","en-US,en;q=0.9,zh-CN;q=0.8,zh;q=0.7","669149873799bbea50733fe0","686e379bc37a29ffa5cdc956","687769abd536acf40cd9e603","1","1","669149873799bbea50733fe0","1","1","2025-07-16T09:06:39.216Z","","","","","","","","","","","StressQ","","50","","","","","","","","","","","","","","","","","","","","","","","","","","","","",""
"16494","","<div style=""width:500px;"">
  <p>What best describes how you currently feel?</p>
  </div>","37","html-slider-response","28","475211","0.0-5.0-4.3","85","1","2025-07-16 08:58:54","1f75c3e559b7213887762d5229550c2b","102.208.179.160","Mozilla/5.0 (Windows NT 10.0; Win64; x64) AppleWebKit/537.36 (KHTML, like Gecko) Chrome/138.0.0.0 Safari/537.36","WebKit","Chrome","138.0.0.0","Windows","10.0","https://app.prolific.com/","en-US,en;q=0.9,zh-CN;q=0.8,zh;q=0.7","669149873799bbea50733fe0","686e379bc37a29ffa5cdc956","687769abd536acf40cd9e603","1","1","669149873799bbea50733fe0","1","1","2025-07-16T09:06:55.716Z","","","","","","","","","","","MotivationQ","","50","","","","","","","","","","","","","","","","","","","","","","","","","","","","",""
"","","","","ctl-task-cpt","29","517412","0.0-5.0-0.4","85","1","2025-07-16 08:58:54","1f75c3e559b7213887762d5229550c2b","102.208.179.160","Mozilla/5.0 (Windows NT 10.0; Win64; x64) AppleWebKit/537.36 (KHTML, like Gecko) Chrome/138.0.0.0 Safari/537.36","WebKit","Chrome","138.0.0.0","Windows","10.0","https://app.prolific.com/","en-US,en;q=0.9,zh-CN;q=0.8,zh;q=0.7","669149873799bbea50733fe0","686e379bc37a29ffa5cdc956","687769abd536acf40cd9e603","1","1","669149873799bbea50733fe0","1","1","2025-07-16T09:07:37.916Z","","","","","","","","","","","","","","win-only","1","g1:NE,g2:SW","0.6","5","0","483820.2","17512.2","22528.6","39181.3","1","4","8","6","1","1","0","4","4","0.030303030303030304","1383.5","3000","1955","[""up"",""right""]","{""num_key_presses"":5,""num_perfect"":3,""num_errors"":1,""num_randdir"":1,""num_randdir_good_moves"":1,""num_whilered"":0,""num_whileblue"":0,""num_blue"":1,""num_good_moves"":4}","[419.0714133126395,422.82142761775424,0.8,419.0714133126395,422.82142761775424,103.6,419.0714133126395,422.82142761775424,215.3,419.0714133126395,422.82142761775424,336.7,419.0714133126395,422.82142761775424,439.9,419.0714133126395,422.82142761775424,543.6,605.3214133126395,321.57142761775424,653.7,702.8214133126395,291.57142761775424,755.3,754.0714133126395,249.07142761775424,859.1,822.8214133126395,94.07142761775425,988.2,824.0714133126395,60.32142761775425,1094.4,821.5714133126395,57.82142761775425,1195.6,821.5714133126395,57.82142761775425,1314.7,821.5714133126395,57.82142761775425,1438.5,821.5714133126395,57.82142761775425,1539.5,821.5714133126395,57.82142761775425,1640.2,821.5714133126395,57.82142761775425,1761.5,821.5714133126395,57.82142761775425,1864.4,821.5714133126395,57.82142761775425,1968.8,821.5714133126395,57.82142761775425,2070.3,821.5714133126395,57.82142761775425,2173.4,821.5714133126395,57.82142761775425,2274.1,821.5714133126395,57.82142761775425,2379.1,821.5714133126395,57.82142761775425,2482.3,821.5714133126395,57.82142761775425,2584.1,821.5714133126395,57.82142761775425,2700.7,821.5714133126395,57.82142761775425,2818.8,821.5714133126395,57.82142761775425,2924.2,821.5714133126395,57.82142761775425,3029.4,821.5714133126395,57.82142761775425,3135.6,821.5714133126395,57.82142761775425,3238.6,821.5714133126395,57.82142761775425,3351.1,821.5714133126395,57.82142761775425,3454,821.5714133126395,57.82142761775425,3571.3,821.5714133126395,57.82142761775425,3679,821.5714133126395,57.82142761775425,3803.1,821.5714133126395,57.82142761775425,3912.8,821.5714133126395,57.82142761775425,4013.4,821.5714133126395,57.82142761775425,4113.5,821.5714133126395,57.82142761775425,4214.9,821.5714133126395,57.82142761775425,4321.4,821.5714133126395,57.82142761775425,4430.6,821.5714133126395,57.82142761775425,4531.9,821.5714133126395,57.82142761775425,4644.9,821.5714133126395,57.82142761775425,4747.6,821.5714133126395,57.82142761775425,4876.7,821.5714133126395,57.82142761775425,4980.1]","[439.5,439.5,1000,0,-560.5,""error"",""-"",""-"",""no_move"",4489.2,4048.7,2472.9,1443.3,573,""smooth"",""right"",""right"",""good_move"",10217.1,5726.7,2153.1,7560.6,503.4,""oops"",""right"",""right"",""good_move"",13421,3203.3,2513.6,10217.7,689.7,""smooth"",""up"",""up"",""good_move"",16480.3,3058.1,2555.4,13422.2,502.7,""smooth"",""up"",""up"",""good_move""]","",""
"742750","","<div style=""width:500px;"">
  <p>What determined the result of this run?</p>
  </div>","21","html-slider-response","30","1260161","0.0-5.0-1.4","85","1","2025-07-16 08:58:54","1f75c3e559b7213887762d5229550c2b","102.208.179.160","Mozilla/5.0 (Windows NT 10.0; Win64; x64) AppleWebKit/537.36 (KHTML, like Gecko) Chrome/138.0.0.0 Safari/537.36","WebKit","Chrome","138.0.0.0","Windows","10.0","https://app.prolific.com/","en-US,en;q=0.9,zh-CN;q=0.8,zh;q=0.7","669149873799bbea50733fe0","686e379bc37a29ffa5cdc956","687769abd536acf40cd9e603","1","1","669149873799bbea50733fe0","1","1","2025-07-16T09:20:00.666Z","","","","","","","","","","","AttribQ","","50","","","","","","","","","","","","","","","","","","","","","","","","","","","","",""
"14862","","<div style=""width:500px;"">
  <p>How much control did you have over the ball?</p>
  </div>","63","html-slider-response","31","1275028","0.0-5.0-2.4","85","1","2025-07-16 08:58:54","1f75c3e559b7213887762d5229550c2b","102.208.179.160","Mozilla/5.0 (Windows NT 10.0; Win64; x64) AppleWebKit/537.36 (KHTML, like Gecko) Chrome/138.0.0.0 Safari/537.36","WebKit","Chrome","138.0.0.0","Windows","10.0","https://app.prolific.com/","en-US,en;q=0.9,zh-CN;q=0.8,zh;q=0.7","669149873799bbea50733fe0","686e379bc37a29ffa5cdc956","687769abd536acf40cd9e603","1","1","669149873799bbea50733fe0","1","1","2025-07-16T09:20:15.532Z","","","","","","","","","","","ControlQ","","50","","","","","","","","","","","","","","","","","","","","","","","","","","","","",""
"20718","","<div style=""width:500px;"">
  <p>How would you describe your current emotional state?</p>
  </div>","24","html-slider-response","32","1295748","0.0-5.0-3.4","85","1","2025-07-16 08:58:54","1f75c3e559b7213887762d5229550c2b","102.208.179.160","Mozilla/5.0 (Windows NT 10.0; Win64; x64) AppleWebKit/537.36 (KHTML, like Gecko) Chrome/138.0.0.0 Safari/537.36","WebKit","Chrome","138.0.0.0","Windows","10.0","https://app.prolific.com/","en-US,en;q=0.9,zh-CN;q=0.8,zh;q=0.7","669149873799bbea50733fe0","686e379bc37a29ffa5cdc956","687769abd536acf40cd9e603","1","1","669149873799bbea50733fe0","1","1","2025-07-16T09:20:36.253Z","","","","","","","","","","","StressQ","","50","","","","","","","","","","","","","","","","","","","","","","","","","","","","",""
"16771","","<div style=""width:500px;"">
  <p>What best describes how you currently feel?</p>
  </div>","33","html-slider-response","33","1312522","0.0-5.0-4.4","85","1","2025-07-16 08:58:54","1f75c3e559b7213887762d5229550c2b","102.208.179.160","Mozilla/5.0 (Windows NT 10.0; Win64; x64) AppleWebKit/537.36 (KHTML, like Gecko) Chrome/138.0.0.0 Safari/537.36","WebKit","Chrome","138.0.0.0","Windows","10.0","https://app.prolific.com/","en-US,en;q=0.9,zh-CN;q=0.8,zh;q=0.7","669149873799bbea50733fe0","686e379bc37a29ffa5cdc956","687769abd536acf40cd9e603","1","1","669149873799bbea50733fe0","1","1","2025-07-16T09:20:53.026Z","","","","","","","","","","","MotivationQ","","50","","","","","","","","","","","","","","","","","","","","","","","","","","","","",""
"","","","","ctl-task-cpt","34","1379835","0.0-5.0-0.5","85","1","2025-07-16 08:58:54","1f75c3e559b7213887762d5229550c2b","102.208.179.160","Mozilla/5.0 (Windows NT 10.0; Win64; x64) AppleWebKit/537.36 (KHTML, like Gecko) Chrome/138.0.0.0 Safari/537.36","WebKit","Chrome","138.0.0.0","Windows","10.0","https://app.prolific.com/","en-US,en;q=0.9,zh-CN;q=0.8,zh;q=0.7","669149873799bbea50733fe0","686e379bc37a29ffa5cdc956","687769abd536acf40cd9e603","1","1","669149873799bbea50733fe0","1","1","2025-07-16T09:22:00.339Z","","","","","","","","","","","","","","win-only","1","g1:NE,g2:SW","0.5","6","0","1321132.1","24534.6","29548.9","64281.2","1","4","4","6","1","-1","-1","3","4","0.022727272727272728","1494.1","3000","-1265","[""up"",""right""]","{""num_key_presses"":9,""num_perfect"":4,""num_errors"":0,""num_randdir"":5,""num_randdir_good_moves"":1,""num_whilered"":0,""num_whileblue"":0,""num_blue"":2,""num_good_moves"":5}","[417.8214133126395,414.07142761775424,0.9,417.8214133126395,414.07142761775424,103.2,417.8214133126395,414.07142761775424,217.6,417.8214133126395,414.07142761775424,320.9,417.8214133126395,414.07142761775424,422.2,417.8214133126395,414.07142761775424,522.8,417.8214133126395,414.07142761775424,623.9,417.8214133126395,414.07142761775424,727,816.5714133126395,121.57142761775425,880.8,836.5714133126395,92.82142761775425,1006.1,777.8214133126395,85.32142761775425,1142.1,766.5714133126395,82.82142761775425,1269.9,766.5714133126395,82.82142761775425,1394.7,766.5714133126395,82.82142761775425,1498.5,766.5714133126395,82.82142761775425,1617.6,766.5714133126395,82.82142761775425,1724.4,766.5714133126395,82.82142761775425,1826.6,766.5714133126395,82.82142761775425,1949.1,766.5714133126395,82.82142761775425,2053.9,766.5714133126395,82.82142761775425,2174.9,766.5714133126395,82.82142761775425,2283.1,766.5714133126395,82.82142761775425,2406.6,766.5714133126395,82.82142761775425,2507.7,766.5714133126395,82.82142761775425,2622.6,766.5714133126395,82.82142761775425,2751.9,721.5714133126395,155.32142761775424,2879.1,662.8214133126395,291.57142761775424,2980.5,605.3214133126395,335.32142761775424,3124.1,555.3214133126395,334.07142761775424,3225.6,506.5714133126395,370.32142761775424,3344.9,486.5714133126395,387.82142761775424,3446.2,486.5714133126395,387.82142761775424,3565.4,486.5714133126395,387.82142761775424,3693.2,486.5714133126395,387.82142761775424,3803,486.5714133126395,387.82142761775424,3905.1,486.5714133126395,387.82142761775424,4029.2,486.5714133126395,387.82142761775424,4142.4,486.5714133126395,387.82142761775424,4242.9,486.5714133126395,387.82142761775424,4368.4,486.5714133126395,387.82142761775424,4471.2,486.5714133126395,387.82142761775424,4572.6,486.5714133126395,387.82142761775424,4679.8,486.5714133126395,387.82142761775424,4781.5,486.5714133126395,387.82142761775424,4881.5]","[1539.3,1539.3,1000,0,539.3,""oops"",""right"",""left"",""bad_move"",4477.2,2927.6,2022.7,1549.7,904.8,""oops"",""up"",""up"",""good_move"",7910.3,3431.9,2916.5,4478.4,515.4,""oops"",""up"",""down"",""bad_move"",15246.2,7334.6,2770.2,10929.5,1546.5,""oops"",""up"",""down"",""bad_move"",21916.6,6669.8,2952.9,18325.6,638.1,""smooth"",""right"",""right"",""good_move"",24784.2,2864.7,2109,21919.6,755.6,""smooth"",""right"",""right"",""good_move"",27194,2407.5,1971.3,24786.5,436.2,""oops"",""right"",""down"",""bad_move"",29800,2604.5,1819.7,27195.5,784.8,""smooth"",""right"",""right"",""good_move"",32282.7,2482,1996.2,29800.7,485.8,""smooth"",""up"",""up"",""good_move""]","",""
"5978","","<div style=""width:500px;"">
  <p>What determined the result of this run?</p>
  </div>","27","html-slider-response","35","1385816","0.0-5.0-1.5","85","1","2025-07-16 08:58:54","1f75c3e559b7213887762d5229550c2b","102.208.179.160","Mozilla/5.0 (Windows NT 10.0; Win64; x64) AppleWebKit/537.36 (KHTML, like Gecko) Chrome/138.0.0.0 Safari/537.36","WebKit","Chrome","138.0.0.0","Windows","10.0","https://app.prolific.com/","en-US,en;q=0.9,zh-CN;q=0.8,zh;q=0.7","669149873799bbea50733fe0","686e379bc37a29ffa5cdc956","687769abd536acf40cd9e603","1","1","669149873799bbea50733fe0","1","1","2025-07-16T09:22:06.321Z","","","","","","","","","","","AttribQ","","50","","","","","","","","","","","","","","","","","","","","","","","","","","","","",""
"8560","","<div style=""width:500px;"">
  <p>How much control did you have over the ball?</p>
  </div>","71","html-slider-response","36","1394380","0.0-5.0-2.5","85","1","2025-07-16 08:58:54","1f75c3e559b7213887762d5229550c2b","102.208.179.160","Mozilla/5.0 (Windows NT 10.0; Win64; x64) AppleWebKit/537.36 (KHTML, like Gecko) Chrome/138.0.0.0 Safari/537.36","WebKit","Chrome","138.0.0.0","Windows","10.0","https://app.prolific.com/","en-US,en;q=0.9,zh-CN;q=0.8,zh;q=0.7","669149873799bbea50733fe0","686e379bc37a29ffa5cdc956","687769abd536acf40cd9e603","1","1","669149873799bbea50733fe0","1","1","2025-07-16T09:22:14.884Z","","","","","","","","","","","ControlQ","","50","","","","","","","","","","","","","","","","","","","","","","","","","","","","",""
"19666","","<div style=""width:500px;"">
  <p>How would you describe your current emotional state?</p>
  </div>","67","html-slider-response","37","1414049","0.0-5.0-3.5","85","1","2025-07-16 08:58:54","1f75c3e559b7213887762d5229550c2b","102.208.179.160","Mozilla/5.0 (Windows NT 10.0; Win64; x64) AppleWebKit/537.36 (KHTML, like Gecko) Chrome/138.0.0.0 Safari/537.36","WebKit","Chrome","138.0.0.0","Windows","10.0","https://app.prolific.com/","en-US,en;q=0.9,zh-CN;q=0.8,zh;q=0.7","669149873799bbea50733fe0","686e379bc37a29ffa5cdc956","687769abd536acf40cd9e603","1","1","669149873799bbea50733fe0","1","1","2025-07-16T09:22:34.554Z","","","","","","","","","","","StressQ","","50","","","","","","","","","","","","","","","","","","","","","","","","","","","","",""
"6095","","<div style=""width:500px;"">
  <p>What best describes how you currently feel?</p>
  </div>","62","html-slider-response","38","1420148","0.0-5.0-4.5","85","1","2025-07-16 08:58:54","1f75c3e559b7213887762d5229550c2b","102.208.179.160","Mozilla/5.0 (Windows NT 10.0; Win64; x64) AppleWebKit/537.36 (KHTML, like Gecko) Chrome/138.0.0.0 Safari/537.36","WebKit","Chrome","138.0.0.0","Windows","10.0","https://app.prolific.com/","en-US,en;q=0.9,zh-CN;q=0.8,zh;q=0.7","669149873799bbea50733fe0","686e379bc37a29ffa5cdc956","687769abd536acf40cd9e603","1","1","669149873799bbea50733fe0","1","1","2025-07-16T09:22:40.652Z","","","","","","","","","","","MotivationQ","","50","","","","","","","","","","","","","","","","","","","","","","","","","","","","",""
"","","","","ctl-task-cpt","39","1465811","0.0-5.0-0.6","85","1","2025-07-16 08:58:54","1f75c3e559b7213887762d5229550c2b","102.208.179.160","Mozilla/5.0 (Windows NT 10.0; Win64; x64) AppleWebKit/537.36 (KHTML, like Gecko) Chrome/138.0.0.0 Safari/537.36","WebKit","Chrome","138.0.0.0","Windows","10.0","https://app.prolific.com/","en-US,en;q=0.9,zh-CN;q=0.8,zh;q=0.7","669149873799bbea50733fe0","686e379bc37a29ffa5cdc956","687769abd536acf40cd9e603","1","1","669149873799bbea50733fe0","1","1","2025-07-16T09:23:26.315Z","","","","","","","","","","","","","","win-only","0","g1:NW,g2:SE","0.4","7","0","1428758.6","20112.8","25160","42624.7","1","4","4","6","1","1","1","4","3","0.030303030303030304","1829.2","3000","1505","[""left"",""up""]","{""num_key_presses"":4,""num_perfect"":1,""num_errors"":0,""num_randdir"":3,""num_randdir_good_moves"":3,""num_whilered"":0,""num_whileblue"":0,""num_blue"":1,""num_good_moves"":4}","[416.5714133126395,407.82142761775424,2.9,416.5714133126395,407.82142761775424,100.1,416.5714133126395,407.82142761775424,203.7,416.5714133126395,407.82142761775424,346.9,416.5714133126395,407.82142761775424,498.7,416.5714133126395,407.82142761775424,602.8,416.5714133126395,407.82142761775424,706.1,752.8214133126395,677.8214276177542,829.3,804.0714133126395,845.3214276177542,966.8,327.8214133126395,434.07142761775424,1090.4,150.3214133126395,114.07142761775425,1210.4,144.0714133126395,97.82142761775425,1333.9,82.8214133126395,101.57142761775425,1486.8,41.57141331263951,101.57142761775425,1610.6,41.57141331263951,101.57142761775425,1712.4,41.57141331263951,101.57142761775425,1812.8,41.57141331263951,101.57142761775425,1929.6,41.57141331263951,101.57142761775425,2031.6,41.57141331263951,101.57142761775425,2151.9,41.57141331263951,101.57142761775425,2276.3,41.57141331263951,101.57142761775425,2379.2,41.57141331263951,101.57142761775425,2496,41.57141331263951,101.57142761775425,2605.1,41.57141331263951,101.57142761775425,2708.6,41.57141331263951,101.57142761775425,2812.6,41.57141331263951,101.57142761775425,2917.6,41.57141331263951,101.57142761775425,3046,41.57141331263951,101.57142761775425,3146.4,71.5714133126395,95.32142761775425,3258.6,326.5714133126395,121.57142761775425,3370.8,286.5714133126395,329.07142761775424,3476.8,306.5714133126395,376.57142761775424,3606.6,370.3214133126395,326.57142761775424,3708.6,357.8214133126395,331.57142761775424,3937.4,357.8214133126395,331.57142761775424,4039.4,357.8214133126395,331.57142761775424,4221,357.8214133126395,331.57142761775424,4380.9,357.8214133126395,331.57142761775424,4507.1,357.8214133126395,331.57142761775424,4608.6,357.8214133126395,331.57142761775424,4744.4,357.8214133126395,331.57142761775424,4874.5,357.8214133126395,331.57142761775424,4978.7]","[5509.4,5509.4,2862.6,2061.6,585.2,""oops"",""up"",""left"",""good_move"",10253.9,4743.1,2168.9,5510.8,2574.2,""oops"",""up"",""left"",""good_move"",14108.2,3853.4,2394.9,10254.8,1458.5,""smooth"",""up"",""up"",""good_move"",17189.2,3079.6,2298.9,14109.6,780.7,""oops"",""up"",""up"",""good_move""]","",""
"5888","","<div style=""width:500px;"">
  <p>What determined the result of this run?</p>
  </div>","25","html-slider-response","40","1471704","0.0-5.0-1.6","85","1","2025-07-16 08:58:54","1f75c3e559b7213887762d5229550c2b","102.208.179.160","Mozilla/5.0 (Windows NT 10.0; Win64; x64) AppleWebKit/537.36 (KHTML, like Gecko) Chrome/138.0.0.0 Safari/537.36","WebKit","Chrome","138.0.0.0","Windows","10.0","https://app.prolific.com/","en-US,en;q=0.9,zh-CN;q=0.8,zh;q=0.7","669149873799bbea50733fe0","686e379bc37a29ffa5cdc956","687769abd536acf40cd9e603","1","1","669149873799bbea50733fe0","1","1","2025-07-16T09:23:32.208Z","","","","","","","","","","","AttribQ","","50","","","","","","","","","","","","","","","","","","","","","","","","","","","","",""
"11568","","<div style=""width:500px;"">
  <p>How much control did you have over the ball?</p>
  </div>","63","html-slider-response","41","1483276","0.0-5.0-2.6","85","1","2025-07-16 08:58:54","1f75c3e559b7213887762d5229550c2b","102.208.179.160","Mozilla/5.0 (Windows NT 10.0; Win64; x64) AppleWebKit/537.36 (KHTML, like Gecko) Chrome/138.0.0.0 Safari/537.36","WebKit","Chrome","138.0.0.0","Windows","10.0","https://app.prolific.com/","en-US,en;q=0.9,zh-CN;q=0.8,zh;q=0.7","669149873799bbea50733fe0","686e379bc37a29ffa5cdc956","687769abd536acf40cd9e603","1","1","669149873799bbea50733fe0","1","1","2025-07-16T09:23:43.780Z","","","","","","","","","","","ControlQ","","50","","","","","","","","","","","","","","","","","","","","","","","","","","","","",""
"5294","","<div style=""width:500px;"">
  <p>How would you describe your current emotional state?</p>
  </div>","20","html-slider-response","42","1488574","0.0-5.0-3.6","85","1","2025-07-16 08:58:54","1f75c3e559b7213887762d5229550c2b","102.208.179.160","Mozilla/5.0 (Windows NT 10.0; Win64; x64) AppleWebKit/537.36 (KHTML, like Gecko) Chrome/138.0.0.0 Safari/537.36","WebKit","Chrome","138.0.0.0","Windows","10.0","https://app.prolific.com/","en-US,en;q=0.9,zh-CN;q=0.8,zh;q=0.7","669149873799bbea50733fe0","686e379bc37a29ffa5cdc956","687769abd536acf40cd9e603","1","1","669149873799bbea50733fe0","1","1","2025-07-16T09:23:49.078Z","","","","","","","","","","","StressQ","","50","","","","","","","","","","","","","","","","","","","","","","","","","","","","",""
"5837","","<div style=""width:500px;"">
  <p>What best describes how you currently feel?</p>
  </div>","74","html-slider-response","43","1494417","0.0-5.0-4.6","85","1","2025-07-16 08:58:54","1f75c3e559b7213887762d5229550c2b","102.208.179.160","Mozilla/5.0 (Windows NT 10.0; Win64; x64) AppleWebKit/537.36 (KHTML, like Gecko) Chrome/138.0.0.0 Safari/537.36","WebKit","Chrome","138.0.0.0","Windows","10.0","https://app.prolific.com/","en-US,en;q=0.9,zh-CN;q=0.8,zh;q=0.7","669149873799bbea50733fe0","686e379bc37a29ffa5cdc956","687769abd536acf40cd9e603","1","1","669149873799bbea50733fe0","1","1","2025-07-16T09:23:54.921Z","","","","","","","","","","","MotivationQ","","50","","","","","","","","","","","","","","","","","","","","","","","","","","","","",""
"","","","","ctl-task-cpt","44","1608752","0.0-5.0-0.7","85","1","2025-07-16 08:58:54","1f75c3e559b7213887762d5229550c2b","102.208.179.160","Mozilla/5.0 (Windows NT 10.0; Win64; x64) AppleWebKit/537.36 (KHTML, like Gecko) Chrome/138.0.0.0 Safari/537.36","WebKit","Chrome","138.0.0.0","Windows","10.0","https://app.prolific.com/","en-US,en;q=0.9,zh-CN;q=0.8,zh;q=0.7","669149873799bbea50733fe0","686e379bc37a29ffa5cdc956","687769abd536acf40cd9e603","1","1","669149873799bbea50733fe0","1","1","2025-07-16T09:25:49.256Z","","","","","","","","","","","","","","win-only","3","g1:SW,g2:NE","0.3","8","0","1503031.4","2596.5","7696.8","111289.1","1","4","8","6","1","-1","-1","3","4","0.022727272727272728","1717","3000","-500","[""down"",""left""]","{""num_key_presses"":23,""num_perfect"":6,""num_errors"":0,""num_randdir"":17,""num_randdir_good_moves"":6,""num_whilered"":0,""num_whileblue"":0,""num_blue"":3,""num_good_moves"":12}","[416.5714133126395,419.07142761775424,1.1,416.5714133126395,419.07142761775424,158,416.5714133126395,419.07142761775424,294.5,416.5714133126395,419.07142761775424,398.7,416.5714133126395,419.07142761775424,501.1,416.5714133126395,419.07142761775424,646.2,416.5714133126395,419.07142761775424,799,416.5714133126395,419.07142761775424,899.4,339.0714133126395,426.57142761775424,1008,106.5714133126395,755.3214276177542,1151.5,99.0714133126395,822.8214276177542,1292.4,90.3214133126395,814.0714276177542,1399.9,91.5714133126395,770.3214276177542,1516.4,91.5714133126395,770.3214276177542,1616.6,91.5714133126395,770.3214276177542,1727.8,91.5714133126395,770.3214276177542,1879.1,91.5714133126395,770.3214276177542,1987.1,91.5714133126395,770.3214276177542,2150.1,91.5714133126395,770.3214276177542,2253.6,91.5714133126395,770.3214276177542,2411.2,91.5714133126395,770.3214276177542,2517.3,155.3214133126395,652.8214276177542,2756,181.5714133126395,600.3214276177542,2865.9,181.5714133126395,595.3214276177542,2973.7,185.3214133126395,574.0714276177542,3085.5,215.3214133126395,509.07142761775424,3207.4,215.3214133126395,509.07142761775424,3311.5,215.3214133126395,509.07142761775424,3471.8,215.3214133126395,509.07142761775424,3572.9,215.3214133126395,509.07142761775424,3685.3,215.3214133126395,509.07142761775424,3787.9,215.3214133126395,509.07142761775424,4011.8,215.3214133126395,509.07142761775424,4119.9,215.3214133126395,509.07142761775424,4230.1,215.3214133126395,509.07142761775424,4335.4,215.3214133126395,509.07142761775424,4480.4,215.3214133126395,509.07142761775424,4588.6,215.3214133126395,509.07142761775424,4693.8,215.3214133126395,509.07142761775424,4803,215.3214133126395,509.07142761775424,4906]","[1501.5,1501.5,1000,0,501.5,""smooth"",""left"",""left"",""good_move"",4856.7,3352.4,2251.6,1504.3,1100.8,""oops"",""left"",""left"",""good_move"",8591.1,3733.1,2361.2,4858.1,1371.8,""smooth"",""down"",""down"",""good_move"",14704.2,6111.1,2403.1,11767.9,533.2,""oops"",""down"",""up"",""bad_move"",19350.3,4645.1,2748.7,14705.2,1896.4,""oops"",""down"",""down"",""good_move"",22562.3,3210.9,2678.2,19351.5,532.6,""oops"",""down"",""right"",""bad_move"",25528.3,2964.3,2445.7,22564,518.6,""smooth"",""down"",""down"",""good_move"",32267.8,6738.5,2739.8,29018.2,509.8,""oops"",""left"",""up"",""bad_move"",37840.2,5571.8,2226.1,32268.4,3345.7,""oops"",""left"",""up"",""bad_move"",43453.4,5612.5,2453.9,37840.9,3158.6,""oops"",""left"",""up"",""bad_move"",50564.5,7110.6,1573,43454,5537.6,""oops"",""left"",""down"",""good_move"",54065.8,3500.7,2919,50565.2,581.6,""smooth"",""left"",""left"",""good_move"",61800.6,7733.7,2660.5,54067,5073.1,""oops"",""down"",""up"",""bad_move"",66585.2,4783.5,2428.2,61801.7,2355.4,""oops"",""down"",""down"",""good_move"",69021.7,2434.6,1794.9,66587.1,639.7,""oops"",""down"",""right"",""bad_move"",72222.7,3199.5,2573.7,69023.2,625.8,""oops"",""down"",""right"",""bad_move"",74810.8,2586.7,1705.9,72224.1,880.8,""smooth"",""down"",""down"",""good_move"",81963.8,7150.9,2646.8,78739.2,577.8,""smooth"",""down"",""down"",""good_move"",84895.3,2930.9,2189.1,81964.4,741.8,""oops"",""left"",""right"",""bad_move"",88097.2,3200.4,2651.8,84896.9,548.5,""oops"",""left"",""left"",""good_move"",92174.3,4075.6,1936.7,88098.7,2138.9,""oops"",""left"",""right"",""bad_move"",95895.4,3720,2925.8,92175.4,794.2,""oops"",""left"",""left"",""good_move"",100983.3,5086.7,2580.7,95896.6,2506,""oops"",""left"",""right"",""bad_move""]","",""
"7762","","<div style=""width:500px;"">
  <p>What determined the result of this run?</p>
  </div>","20","html-slider-response","45","1616520","0.0-5.0-1.7","85","1","2025-07-16 08:58:54","1f75c3e559b7213887762d5229550c2b","102.208.179.160","Mozilla/5.0 (Windows NT 10.0; Win64; x64) AppleWebKit/537.36 (KHTML, like Gecko) Chrome/138.0.0.0 Safari/537.36","WebKit","Chrome","138.0.0.0","Windows","10.0","https://app.prolific.com/","en-US,en;q=0.9,zh-CN;q=0.8,zh;q=0.7","669149873799bbea50733fe0","686e379bc37a29ffa5cdc956","687769abd536acf40cd9e603","1","1","669149873799bbea50733fe0","1","1","2025-07-16T09:25:57.024Z","","","","","","","","","","","AttribQ","","50","","","","","","","","","","","","","","","","","","","","","","","","","","","","",""
"5679","","<div style=""width:500px;"">
  <p>How much control did you have over the ball?</p>
  </div>","37","html-slider-response","46","1622205","0.0-5.0-2.7","85","1","2025-07-16 08:58:54","1f75c3e559b7213887762d5229550c2b","102.208.179.160","Mozilla/5.0 (Windows NT 10.0; Win64; x64) AppleWebKit/537.36 (KHTML, like Gecko) Chrome/138.0.0.0 Safari/537.36","WebKit","Chrome","138.0.0.0","Windows","10.0","https://app.prolific.com/","en-US,en;q=0.9,zh-CN;q=0.8,zh;q=0.7","669149873799bbea50733fe0","686e379bc37a29ffa5cdc956","687769abd536acf40cd9e603","1","1","669149873799bbea50733fe0","1","1","2025-07-16T09:26:02.710Z","","","","","","","","","","","ControlQ","","50","","","","","","","","","","","","","","","","","","","","","","","","","","","","",""
"6189","","<div style=""width:500px;"">
  <p>How would you describe your current emotional state?</p>
  </div>","35","html-slider-response","47","1628397","0.0-5.0-3.7","85","1","2025-07-16 08:58:54","1f75c3e559b7213887762d5229550c2b","102.208.179.160","Mozilla/5.0 (Windows NT 10.0; Win64; x64) AppleWebKit/537.36 (KHTML, like Gecko) Chrome/138.0.0.0 Safari/537.36","WebKit","Chrome","138.0.0.0","Windows","10.0","https://app.prolific.com/","en-US,en;q=0.9,zh-CN;q=0.8,zh;q=0.7","669149873799bbea50733fe0","686e379bc37a29ffa5cdc956","687769abd536acf40cd9e603","1","1","669149873799bbea50733fe0","1","1","2025-07-16T09:26:08.901Z","","","","","","","","","","","StressQ","","50","","","","","","","","","","","","","","","","","","","","","","","","","","","","",""
"7799","","<div style=""width:500px;"">
  <p>What best describes how you currently feel?</p>
  </div>","41","html-slider-response","48","1636199","0.0-5.0-4.7","85","1","2025-07-16 08:58:54","1f75c3e559b7213887762d5229550c2b","102.208.179.160","Mozilla/5.0 (Windows NT 10.0; Win64; x64) AppleWebKit/537.36 (KHTML, like Gecko) Chrome/138.0.0.0 Safari/537.36","WebKit","Chrome","138.0.0.0","Windows","10.0","https://app.prolific.com/","en-US,en;q=0.9,zh-CN;q=0.8,zh;q=0.7","669149873799bbea50733fe0","686e379bc37a29ffa5cdc956","687769abd536acf40cd9e603","1","1","669149873799bbea50733fe0","1","1","2025-07-16T09:26:16.703Z","","","","","","","","","","","MotivationQ","","50","","","","","","","","","","","","","","","","","","","","","","","","","","","","",""
"","","","","ctl-task-cpt","49","1781933","0.0-5.0-0.8","85","1","2025-07-16 08:58:54","1f75c3e559b7213887762d5229550c2b","102.208.179.160","Mozilla/5.0 (Windows NT 10.0; Win64; x64) AppleWebKit/537.36 (KHTML, like Gecko) Chrome/138.0.0.0 Safari/537.36","WebKit","Chrome","138.0.0.0","Windows","10.0","https://app.prolific.com/","en-US,en;q=0.9,zh-CN;q=0.8,zh;q=0.7","669149873799bbea50733fe0","686e379bc37a29ffa5cdc956","687769abd536acf40cd9e603","1","1","669149873799bbea50733fe0","1","1","2025-07-16T09:28:42.437Z","","","","","","","","","","","","","","win-only","3","g1:SW,g2:NE","0.2","9","0","1644812.2","22845.6","27852.3","142682.8","1","4","4","6","1","-1","-1","2","3","0.015151515151515152","1816","3000","-495","[""down"",""left""]","{""num_key_presses"":17,""num_perfect"":3,""num_errors"":0,""num_randdir"":14,""num_randdir_good_moves"":5,""num_whilered"":0,""num_whileblue"":0,""num_blue"":8,""num_good_moves"":8}","[411.071420942034,411.82142857142856,0.9,411.071420942034,411.82142857142856,108.6,411.071420942034,411.82142857142856,363.8,411.071420942034,411.82142857142856,468.6,372.321420942034,321.82142857142856,675.7,289.821420942034,420.57142857142856,783.1,143.57142094203402,680.5714285714286,981.1,146.07142094203402,686.8214285714286,1091.7,141.07142094203402,700.5714285714286,1201.8,71.07142094203404,753.0714285714286,1357.9,71.07142094203404,753.0714285714286,1460.7,71.07142094203404,753.0714285714286,1719.9,71.07142094203404,753.0714285714286,1830.4,71.07142094203404,753.0714285714286,2040.3,71.07142094203404,753.0714285714286,2150.7,71.07142094203404,753.0714285714286,2251.1,71.07142094203404,753.0714285714286,2418.2,71.07142094203404,753.0714285714286,2520.1,71.07142094203404,753.0714285714286,2771.4,71.07142094203404,753.0714285714286,2879.8,71.07142094203404,753.0714285714286,3084.2,71.07142094203404,753.0714285714286,3193.1,71.07142094203404,753.0714285714286,3305.5,71.07142094203404,753.0714285714286,3502.1,71.07142094203404,753.0714285714286,3620.6,71.07142094203404,753.0714285714286,3867.6,71.07142094203404,753.0714285714286,3978.4,71.07142094203404,753.0714285714286,4091.6,71.07142094203404,753.0714285714286,4252.3,71.07142094203404,753.0714285714286,4356.8,71.07142094203404,753.0714285714286,4612.8,71.07142094203404,753.0714285714286,4718.8,71.07142094203404,753.0714285714286,4863,71.07142094203404,753.0714285714286,4972.9]","[15941,15941,3142.8,12288.6,509.6,""oops"",""left"",""up"",""bad_move"",21557.6,5613.9,2774.5,15943.7,2839.4,""oops"",""down"",""right"",""bad_move"",24737.9,3178.9,2427.1,21559,751.8,""smooth"",""down"",""down"",""good_move"",27887.6,3148.1,1778.3,24739.5,1369.8,""oops"",""down"",""right"",""bad_move"",31291.5,3402.9,2742.2,27888.6,660.7,""oops"",""down"",""down"",""good_move"",34911.8,3619.3,3069.4,31292.5,549.9,""oops"",""down"",""left"",""good_move"",41950.3,7037.2,2515.1,34913.2,4522.1,""smooth"",""down"",""down"",""good_move"",45004.6,3053.6,1607.2,41951,1446.4,""oops"",""left"",""right"",""bad_move"",55520.5,10495.4,2358.3,45025.2,8137,""oops"",""left"",""right"",""bad_move"",58675.9,3154.8,2317.6,55521.2,837.2,""oops"",""left"",""up"",""bad_move"",67092.6,8415.5,1605.2,58677.2,6810.2,""smooth"",""left"",""left"",""good_move"",75354.7,8261.5,2160.1,67093.2,6101.4,""oops"",""left"",""down"",""good_move"",82079.2,6723.8,2152.6,79294.8,631.8,""oops"",""left"",""up"",""bad_move"",94573.5,12493.5,2898.2,90970.8,704.5,""oops"",""left"",""right"",""bad_move"",101495.8,6921.6,2537.6,97998.9,959.3,""oops"",""left"",""down"",""good_move"",103841,2344.6,1366.7,101496.4,977.9,""oops"",""left"",""left"",""good_move"",111737.5,7894.6,2762,108125,850.5,""oops"",""left"",""right"",""bad_move""]","",""
"3423","","<div style=""width:500px;"">
  <p>What determined the result of this run?</p>
  </div>","15","html-slider-response","50","1785361","0.0-5.0-1.8","85","1","2025-07-16 08:58:54","1f75c3e559b7213887762d5229550c2b","102.208.179.160","Mozilla/5.0 (Windows NT 10.0; Win64; x64) AppleWebKit/537.36 (KHTML, like Gecko) Chrome/138.0.0.0 Safari/537.36","WebKit","Chrome","138.0.0.0","Windows","10.0","https://app.prolific.com/","en-US,en;q=0.9,zh-CN;q=0.8,zh;q=0.7","669149873799bbea50733fe0","686e379bc37a29ffa5cdc956","687769abd536acf40cd9e603","1","1","669149873799bbea50733fe0","1","1","2025-07-16T09:28:45.865Z","","","","","","","","","","","AttribQ","","50","","","","","","","","","","","","","","","","","","","","","","","","","","","","",""
"4638","","<div style=""width:500px;"">
  <p>How much control did you have over the ball?</p>
  </div>","35","html-slider-response","51","1790005","0.0-5.0-2.8","85","1","2025-07-16 08:58:54","1f75c3e559b7213887762d5229550c2b","102.208.179.160","Mozilla/5.0 (Windows NT 10.0; Win64; x64) AppleWebKit/537.36 (KHTML, like Gecko) Chrome/138.0.0.0 Safari/537.36","WebKit","Chrome","138.0.0.0","Windows","10.0","https://app.prolific.com/","en-US,en;q=0.9,zh-CN;q=0.8,zh;q=0.7","669149873799bbea50733fe0","686e379bc37a29ffa5cdc956","687769abd536acf40cd9e603","1","1","669149873799bbea50733fe0","1","1","2025-07-16T09:28:50.509Z","","","","","","","","","","","ControlQ","","50","","","","","","","","","","","","","","","","","","","","","","","","","","","","",""
"3594","","<div style=""width:500px;"">
  <p>How would you describe your current emotional state?</p>
  </div>","43","html-slider-response","52","1793603","0.0-5.0-3.8","85","1","2025-07-16 08:58:54","1f75c3e559b7213887762d5229550c2b","102.208.179.160","Mozilla/5.0 (Windows NT 10.0; Win64; x64) AppleWebKit/537.36 (KHTML, like Gecko) Chrome/138.0.0.0 Safari/537.36","WebKit","Chrome","138.0.0.0","Windows","10.0","https://app.prolific.com/","en-US,en;q=0.9,zh-CN;q=0.8,zh;q=0.7","669149873799bbea50733fe0","686e379bc37a29ffa5cdc956","687769abd536acf40cd9e603","1","1","669149873799bbea50733fe0","1","1","2025-07-16T09:28:54.107Z","","","","","","","","","","","StressQ","","50","","","","","","","","","","","","","","","","","","","","","","","","","","","","",""
"4941","","<div style=""width:500px;"">
  <p>What best describes how you currently feel?</p>
  </div>","58","html-slider-response","53","1798548","0.0-5.0-4.8","85","1","2025-07-16 08:58:54","1f75c3e559b7213887762d5229550c2b","102.208.179.160","Mozilla/5.0 (Windows NT 10.0; Win64; x64) AppleWebKit/537.36 (KHTML, like Gecko) Chrome/138.0.0.0 Safari/537.36","WebKit","Chrome","138.0.0.0","Windows","10.0","https://app.prolific.com/","en-US,en;q=0.9,zh-CN;q=0.8,zh;q=0.7","669149873799bbea50733fe0","686e379bc37a29ffa5cdc956","687769abd536acf40cd9e603","1","1","669149873799bbea50733fe0","1","1","2025-07-16T09:28:59.052Z","","","","","","","","","","","MotivationQ","","50","","","","","","","","","","","","","","","","","","","","","","","","","","","","",""
"","","","","ctl-task-cpt","54","1890232","0.0-5.0-0.9","85","1","2025-07-16 08:58:54","1f75c3e559b7213887762d5229550c2b","102.208.179.160","Mozilla/5.0 (Windows NT 10.0; Win64; x64) AppleWebKit/537.36 (KHTML, like Gecko) Chrome/138.0.0.0 Safari/537.36","WebKit","Chrome","138.0.0.0","Windows","10.0","https://app.prolific.com/","en-US,en;q=0.9,zh-CN;q=0.8,zh;q=0.7","669149873799bbea50733fe0","686e379bc37a29ffa5cdc956","687769abd536acf40cd9e603","1","1","669149873799bbea50733fe0","1","1","2025-07-16T09:30:30.737Z","","","","","","","","","","","","","","win-only","3","g1:SW,g2:NE","0.4","10","0","1807158.8","1983.4","7017.5","88660","1","4","8","6","1","1","1","3","2","0.022727272727272728","1393.4","3000","590","[""down"",""left""]","{""num_key_presses"":14,""num_perfect"":5,""num_errors"":0,""num_randdir"":9,""num_randdir_good_moves"":4,""num_whilered"":0,""num_whileblue"":0,""num_blue"":5,""num_good_moves"":9}","[353.2142857142857,345.96428666796004,1.1,353.2142857142857,345.96428666796004,110.6,353.2142857142857,345.96428666796004,211.8,353.2142857142857,345.96428666796004,316.7,353.2142857142857,345.96428666796004,436.1,353.2142857142857,345.96428666796004,553.3,311.9642857142857,409.71428666796004,669.6,130.71428571428572,649.71428666796,784.7,91.96428571428572,680.96428666796,902.2,80.71428571428572,655.96428666796,1022.2,79.46428571428572,617.21428666796,1139.4,80.71428571428572,612.21428666796,1251.6,80.71428571428572,612.21428666796,1355.5,80.71428571428572,612.21428666796,1470.5,80.71428571428572,612.21428666796,1575.8,80.71428571428572,612.21428666796,1681.3,80.71428571428572,612.21428666796,1787.1,80.71428571428572,612.21428666796,1892,80.71428571428572,612.21428666796,1995,80.71428571428572,612.21428666796,2101.7,80.71428571428572,612.21428666796,2206.2,80.71428571428572,612.21428666796,2307.4,80.71428571428572,612.21428666796,2415.8,80.71428571428572,612.21428666796,2518.3,80.71428571428572,612.21428666796,2620.6,80.71428571428572,612.21428666796,2724.8,80.71428571428572,612.21428666796,2830.1,80.71428571428572,612.21428666796,2936.3,80.71428571428572,612.21428666796,3038.5,80.71428571428572,612.21428666796,3146.4,80.71428571428572,612.21428666796,3248.3,80.71428571428572,612.21428666796,3348.7,80.71428571428572,612.21428666796,3483,80.71428571428572,612.21428666796,3615.6,80.71428571428572,612.21428666796,3717.5,80.71428571428572,612.21428666796,3819.9,80.71428571428572,612.21428666796,3930.2,80.71428571428572,612.21428666796,4035.7,80.71428571428572,612.21428666796,4146.6,80.71428571428572,612.21428666796,4254.8,80.71428571428572,612.21428666796,4368.5,80.71428571428572,612.21428666796,4477.1,80.71428571428572,612.21428666796,4584.7,80.71428571428572,612.21428666796,4695.2,80.71428571428572,612.21428666796,4809.4,80.71428571428572,612.21428666796,4917.6]","[1571.6,1571.6,1000,0,571.6,""smooth"",""left"",""left"",""good_move"",10444.6,8871.5,2470.2,1573.1,6401.3,""smooth"",""left"",""left"",""good_move"",19581.5,9136.2,2117.2,10445.3,7019,""oops"",""down"",""up"",""bad_move"",25586.6,6004.1,2537.8,19582.5,3466.3,""oops"",""down"",""down"",""good_move"",28967.4,3379.7,2154.9,25587.7,1224.8,""oops"",""down"",""right"",""bad_move"",35440.2,6471.2,2547.6,32409.1,483.5,""smooth"",""down"",""down"",""good_move"",38611.7,3170.5,2457.2,35441.2,713.3,""oops"",""down"",""right"",""bad_move"",46575.8,7963,2417.4,43280,878.4,""smooth"",""down"",""down"",""good_move"",49934.5,3358.2,2648.6,46576.4,709.6,""oops"",""left"",""left"",""good_move"",53727.5,3791.6,2091.4,49935.9,1700.2,""oops"",""left"",""right"",""bad_move"",57581.6,3853.1,2711.9,53728.5,1141.2,""oops"",""left"",""left"",""good_move"",65750.4,8166.7,3299.5,61718,732.9,""oops"",""left"",""right"",""bad_move"",73908.7,8157.7,2972.8,70213.5,722.4,""oops"",""left"",""left"",""good_move"",81301.3,7392,2678.9,77979.3,643.1,""smooth"",""left"",""left"",""good_move""]","",""
"11849","","<div style=""width:500px;"">
  <p>What determined the result of this run?</p>
  </div>","63","html-slider-response","55","1902084","0.0-5.0-1.9","85","1","2025-07-16 08:58:54","1f75c3e559b7213887762d5229550c2b","102.208.179.160","Mozilla/5.0 (Windows NT 10.0; Win64; x64) AppleWebKit/537.36 (KHTML, like Gecko) Chrome/138.0.0.0 Safari/537.36","WebKit","Chrome","138.0.0.0","Windows","10.0","https://app.prolific.com/","en-US,en;q=0.9,zh-CN;q=0.8,zh;q=0.7","669149873799bbea50733fe0","686e379bc37a29ffa5cdc956","687769abd536acf40cd9e603","1","1","669149873799bbea50733fe0","1","1","2025-07-16T09:30:42.588Z","","","","","","","","","","","AttribQ","","50","","","","","","","","","","","","","","","","","","","","","","","","","","","","",""
"5224","","<div style=""width:500px;"">
  <p>How much control did you have over the ball?</p>
  </div>","66","html-slider-response","56","1907311","0.0-5.0-2.9","85","1","2025-07-16 08:58:54","1f75c3e559b7213887762d5229550c2b","102.208.179.160","Mozilla/5.0 (Windows NT 10.0; Win64; x64) AppleWebKit/537.36 (KHTML, like Gecko) Chrome/138.0.0.0 Safari/537.36","WebKit","Chrome","138.0.0.0","Windows","10.0","https://app.prolific.com/","en-US,en;q=0.9,zh-CN;q=0.8,zh;q=0.7","669149873799bbea50733fe0","686e379bc37a29ffa5cdc956","687769abd536acf40cd9e603","1","1","669149873799bbea50733fe0","1","1","2025-07-16T09:30:47.815Z","","","","","","","","","","","ControlQ","","50","","","","","","","","","","","","","","","","","","","","","","","","","","","","",""
"6111","","<div style=""width:500px;"">
  <p>How would you describe your current emotional state?</p>
  </div>","29","html-slider-response","57","1913426","0.0-5.0-3.9","85","1","2025-07-16 08:58:54","1f75c3e559b7213887762d5229550c2b","102.208.179.160","Mozilla/5.0 (Windows NT 10.0; Win64; x64) AppleWebKit/537.36 (KHTML, like Gecko) Chrome/138.0.0.0 Safari/537.36","WebKit","Chrome","138.0.0.0","Windows","10.0","https://app.prolific.com/","en-US,en;q=0.9,zh-CN;q=0.8,zh;q=0.7","669149873799bbea50733fe0","686e379bc37a29ffa5cdc956","687769abd536acf40cd9e603","1","1","669149873799bbea50733fe0","1","1","2025-07-16T09:30:53.930Z","","","","","","","","","","","StressQ","","50","","","","","","","","","","","","","","","","","","","","","","","","","","","","",""
"8652","","<div style=""width:500px;"">
  <p>What best describes how you currently feel?</p>
  </div>","78","html-slider-response","58","1922083","0.0-5.0-4.9","85","1","2025-07-16 08:58:54","1f75c3e559b7213887762d5229550c2b","102.208.179.160","Mozilla/5.0 (Windows NT 10.0; Win64; x64) AppleWebKit/537.36 (KHTML, like Gecko) Chrome/138.0.0.0 Safari/537.36","WebKit","Chrome","138.0.0.0","Windows","10.0","https://app.prolific.com/","en-US,en;q=0.9,zh-CN;q=0.8,zh;q=0.7","669149873799bbea50733fe0","686e379bc37a29ffa5cdc956","687769abd536acf40cd9e603","1","1","669149873799bbea50733fe0","1","1","2025-07-16T09:31:02.587Z","","","","","","","","","","","MotivationQ","","50","","","","","","","","","","","","","","","","","","","","","","","","","","","","",""
"","","","","ctl-task-cpt","59","1950328","0.0-5.0-0.10","85","1","2025-07-16 08:58:54","1f75c3e559b7213887762d5229550c2b","102.208.179.160","Mozilla/5.0 (Windows NT 10.0; Win64; x64) AppleWebKit/537.36 (KHTML, like Gecko) Chrome/138.0.0.0 Safari/537.36","WebKit","Chrome","138.0.0.0","Windows","10.0","https://app.prolific.com/","en-US,en;q=0.9,zh-CN;q=0.8,zh;q=0.7","669149873799bbea50733fe0","686e379bc37a29ffa5cdc956","687769abd536acf40cd9e603","1","1","669149873799bbea50733fe0","1","1","2025-07-16T09:31:30.833Z","","","","","","","","","","","","","","win-only","1","g1:NE,g2:SW","0.5","11","0","1930695","5139.8","10146.6","25194.6","1","4","8","6","1","1","1","4","3","0.030303030303030304","2760.7","3000","2440","[""up"",""right""]","{""num_key_presses"":4,""num_perfect"":3,""num_errors"":0,""num_randdir"":1,""num_randdir_good_moves"":1,""num_whilered"":0,""num_whileblue"":0,""num_blue"":0,""num_good_moves"":4}","[351.9642857142857,350.96428666796004,0.9,351.9642857142857,350.96428666796004,101.4,351.9642857142857,350.96428666796004,362,351.9642857142857,350.96428666796004,464.8,351.9642857142857,350.96428666796004,655.8,351.9642857142857,350.96428666796004,759,351.9642857142857,350.96428666796004,942.2,351.9642857142857,350.96428666796004,1043.9,351.9642857142857,350.96428666796004,1147,351.9642857142857,350.96428666796004,1319.5,351.9642857142857,350.96428666796004,1428.4,351.9642857142857,350.96428666796004,1693.1,308.2142857142857,328.46428666796004,1794.8,251.96428571428572,405.96428666796004,1900.6,646.9642857142857,197.21428666796004,2074.9,616.9642857142857,108.46428666796004,2189.5,598.2142857142857,88.46428666796004,2379.8,663.2142857142857,47.21428666796003,2492.2,663.2142857142857,47.21428666796003,2637.5,663.2142857142857,47.21428666796003,2756.1,663.2142857142857,47.21428666796003,2872.6,663.2142857142857,47.21428666796003,3042.3,663.2142857142857,47.21428666796003,3145.8,663.2142857142857,47.21428666796003,3364.4,663.2142857142857,47.21428666796003,3474.8,519.4642857142857,142.21428666796004,3695,434.4642857142857,262.21428666796004,3797,403.2142857142857,263.46428666796004,3913.5,426.9642857142857,202.21428666796004,4106.1,426.9642857142857,202.21428666796004,4211,426.9642857142857,202.21428666796004,4313.3,426.9642857142857,202.21428666796004,4455.1,426.9642857142857,202.21428666796004,4567.5,426.9642857142857,202.21428666796004,4672,426.9642857142857,202.21428666796004,4823.1,426.9642857142857,202.21428666796004,4933.7]","[1666.5,1666.5,1000,0,666.5,""smooth"",""up"",""up"",""good_move"",6287.5,4619.9,2580.6,1667.6,2039.3,""smooth"",""up"",""up"",""good_move"",11029.2,4740.5,1853,6288.7,2887.5,""smooth"",""right"",""right"",""good_move"",14315.4,3284.4,2413.6,11031.1,870.7,""oops"",""right"",""right"",""good_move""]","",""
"6320","","<div style=""width:500px;"">
  <p>What determined the result of this run?</p>
  </div>","72","html-slider-response","60","1956653","0.0-5.0-1.10","85","1","2025-07-16 08:58:54","1f75c3e559b7213887762d5229550c2b","102.208.179.160","Mozilla/5.0 (Windows NT 10.0; Win64; x64) AppleWebKit/537.36 (KHTML, like Gecko) Chrome/138.0.0.0 Safari/537.36","WebKit","Chrome","138.0.0.0","Windows","10.0","https://app.prolific.com/","en-US,en;q=0.9,zh-CN;q=0.8,zh;q=0.7","669149873799bbea50733fe0","686e379bc37a29ffa5cdc956","687769abd536acf40cd9e603","1","1","669149873799bbea50733fe0","1","1","2025-07-16T09:31:37.157Z","","","","","","","","","","","AttribQ","","50","","","","","","","","","","","","","","","","","","","","","","","","","","","","",""
"8634","","<div style=""width:500px;"">
  <p>How much control did you have over the ball?</p>
  </div>","59","html-slider-response","61","1965291","0.0-5.0-2.10","85","1","2025-07-16 08:58:54","1f75c3e559b7213887762d5229550c2b","102.208.179.160","Mozilla/5.0 (Windows NT 10.0; Win64; x64) AppleWebKit/537.36 (KHTML, like Gecko) Chrome/138.0.0.0 Safari/537.36","WebKit","Chrome","138.0.0.0","Windows","10.0","https://app.prolific.com/","en-US,en;q=0.9,zh-CN;q=0.8,zh;q=0.7","669149873799bbea50733fe0","686e379bc37a29ffa5cdc956","687769abd536acf40cd9e603","1","1","669149873799bbea50733fe0","1","1","2025-07-16T09:31:45.795Z","","","","","","","","","","","ControlQ","","50","","","","","","","","","","","","","","","","","","","","","","","","","","","","",""
"9290","","<div style=""width:500px;"">
  <p>How would you describe your current emotional state?</p>
  </div>","29","html-slider-response","62","1974585","0.0-5.0-3.10","85","1","2025-07-16 08:58:54","1f75c3e559b7213887762d5229550c2b","102.208.179.160","Mozilla/5.0 (Windows NT 10.0; Win64; x64) AppleWebKit/537.36 (KHTML, like Gecko) Chrome/138.0.0.0 Safari/537.36","WebKit","Chrome","138.0.0.0","Windows","10.0","https://app.prolific.com/","en-US,en;q=0.9,zh-CN;q=0.8,zh;q=0.7","669149873799bbea50733fe0","686e379bc37a29ffa5cdc956","687769abd536acf40cd9e603","1","1","669149873799bbea50733fe0","1","1","2025-07-16T09:31:55.089Z","","","","","","","","","","","StressQ","","50","","","","","","","","","","","","","","","","","","","","","","","","","","","","",""
"7090","","<div style=""width:500px;"">
  <p>What best describes how you currently feel?</p>
  </div>","65","html-slider-response","63","1981682","0.0-5.0-4.10","85","1","2025-07-16 08:58:54","1f75c3e559b7213887762d5229550c2b","102.208.179.160","Mozilla/5.0 (Windows NT 10.0; Win64; x64) AppleWebKit/537.36 (KHTML, like Gecko) Chrome/138.0.0.0 Safari/537.36","WebKit","Chrome","138.0.0.0","Windows","10.0","https://app.prolific.com/","en-US,en;q=0.9,zh-CN;q=0.8,zh;q=0.7","669149873799bbea50733fe0","686e379bc37a29ffa5cdc956","687769abd536acf40cd9e603","1","1","669149873799bbea50733fe0","1","1","2025-07-16T09:32:02.186Z","","","","","","","","","","","MotivationQ","","50","","","","","","","","","","","","","","","","","","","","","","","","","","","","",""
"","","","","ctl-task-cpt","64","2030242","0.0-5.0-0.11","85","1","2025-07-16 08:58:54","1f75c3e559b7213887762d5229550c2b","102.208.179.160","Mozilla/5.0 (Windows NT 10.0; Win64; x64) AppleWebKit/537.36 (KHTML, like Gecko) Chrome/138.0.0.0 Safari/537.36","WebKit","Chrome","138.0.0.0","Windows","10.0","https://app.prolific.com/","en-US,en;q=0.9,zh-CN;q=0.8,zh;q=0.7","669149873799bbea50733fe0","686e379bc37a29ffa5cdc956","687769abd536acf40cd9e603","1","1","669149873799bbea50733fe0","1","1","2025-07-16T09:32:50.746Z","","","","","","","","","","","","","","win-only","3","g1:SW,g2:NE","0.6","12","0","1990293.6","2084.1","7112.1","45528.5","1","4","4","6","1","1","1","5","4","0.03787878787878788","1694.8","3000","1920","[""down"",""left""]","{""num_key_presses"":8,""num_perfect"":5,""num_errors"":0,""num_randdir"":3,""num_randdir_good_moves"":1,""num_whilered"":0,""num_whileblue"":0,""num_blue"":2,""num_good_moves"":6}","[351.9642857142857,357.21428666796004,0.7,351.9642857142857,357.21428666796004,123.6,351.9642857142857,357.21428666796004,258.7,351.9642857142857,357.21428666796004,358.9,351.9642857142857,357.21428666796004,500.2,351.9642857142857,357.21428666796004,640.5,351.9642857142857,357.21428666796004,775.8,286.9642857142857,412.21428666796004,881.6,174.46428571428572,519.71428666796,1030.7,81.96428571428572,587.21428666796,1135.7,66.96428571428572,597.21428666796,1238,65.71428571428572,612.21428666796,1397.4,65.71428571428572,625.96428666796,1501.1,65.71428571428572,625.96428666796,1637,65.71428571428572,625.96428666796,1740.8,65.71428571428572,625.96428666796,1882.7,65.71428571428572,625.96428666796,2024.3,65.71428571428572,625.96428666796,2124.8,201.96428571428572,495.96428666796004,2235.9,384.4642857142857,324.71428666796004,2350,376.9642857142857,325.96428666796004,2504.8,330.7142857142857,358.46428666796004,2610.4,301.9642857142857,377.21428666796004,2719.4,291.9642857142857,397.21428666796004,2831.9,286.9642857142857,403.46428666796004,2932.8,286.9642857142857,403.46428666796004,3076.4,286.9642857142857,403.46428666796004,3224.9,286.9642857142857,403.46428666796004,3360.7,286.9642857142857,403.46428666796004,3494.9,286.9642857142857,403.46428666796004,3628.9,286.9642857142857,403.46428666796004,3760,286.9642857142857,403.46428666796004,3887.9,286.9642857142857,403.46428666796004,4018.3,286.9642857142857,403.46428666796004,4150.2,286.9642857142857,403.46428666796004,4288.4,286.9642857142857,403.46428666796004,4418.2,286.9642857142857,403.46428666796004,4548.5,286.9642857142857,403.46428666796004,4677.2,286.9642857142857,403.46428666796004,4807.1,286.9642857142857,403.46428666796004,4938.4]","[1725,1725.1,1000,0,725.1,""smooth"",""left"",""left"",""good_move"",6448,4720.8,2457.8,1727.2,2263,""smooth"",""down"",""down"",""good_move"",12449.1,5999.8,2082.6,9616.7,749.8,""oops"",""down"",""right"",""bad_move"",19776.3,7323.4,2419.8,16362.5,994,""oops"",""down"",""right"",""bad_move"",23478.2,3701.1,2755.3,19777.1,945.8,""smooth"",""down"",""down"",""good_move"",27253.3,3773.9,2814.7,23479.5,959.1,""smooth"",""left"",""left"",""good_move"",33012.2,5757.8,2947.9,27254.5,2809.9,""oops"",""left"",""left"",""good_move"",37940.1,4927.2,2345,33013,2582.2,""smooth"",""left"",""left"",""good_move""]","",""
"13324","","<div style=""width:500px;"">
  <p>What determined the result of this run?</p>
  </div>","39","html-slider-response","65","2043568","0.0-5.0-1.11","85","1","2025-07-16 08:58:54","1f75c3e559b7213887762d5229550c2b","102.208.179.160","Mozilla/5.0 (Windows NT 10.0; Win64; x64) AppleWebKit/537.36 (KHTML, like Gecko) Chrome/138.0.0.0 Safari/537.36","WebKit","Chrome","138.0.0.0","Windows","10.0","https://app.prolific.com/","en-US,en;q=0.9,zh-CN;q=0.8,zh;q=0.7","669149873799bbea50733fe0","686e379bc37a29ffa5cdc956","687769abd536acf40cd9e603","1","1","669149873799bbea50733fe0","1","1","2025-07-16T09:33:04.072Z","","","","","","","","","","","AttribQ","","50","","","","","","","","","","","","","","","","","","","","","","","","","","","","",""
"5933","","<div style=""width:500px;"">
  <p>How much control did you have over the ball?</p>
  </div>","40","html-slider-response","66","2049504","0.0-5.0-2.11","85","1","2025-07-16 08:58:54","1f75c3e559b7213887762d5229550c2b","102.208.179.160","Mozilla/5.0 (Windows NT 10.0; Win64; x64) AppleWebKit/537.36 (KHTML, like Gecko) Chrome/138.0.0.0 Safari/537.36","WebKit","Chrome","138.0.0.0","Windows","10.0","https://app.prolific.com/","en-US,en;q=0.9,zh-CN;q=0.8,zh;q=0.7","669149873799bbea50733fe0","686e379bc37a29ffa5cdc956","687769abd536acf40cd9e603","1","1","669149873799bbea50733fe0","1","1","2025-07-16T09:33:10.008Z","","","","","","","","","","","ControlQ","","50","","","","","","","","","","","","","","","","","","","","","","","","","","","","",""
"8104","","<div style=""width:500px;"">
  <p>How would you describe your current emotional state?</p>
  </div>","36","html-slider-response","67","2057612","0.0-5.0-3.11","85","1","2025-07-16 08:58:54","1f75c3e559b7213887762d5229550c2b","102.208.179.160","Mozilla/5.0 (Windows NT 10.0; Win64; x64) AppleWebKit/537.36 (KHTML, like Gecko) Chrome/138.0.0.0 Safari/537.36","WebKit","Chrome","138.0.0.0","Windows","10.0","https://app.prolific.com/","en-US,en;q=0.9,zh-CN;q=0.8,zh;q=0.7","669149873799bbea50733fe0","686e379bc37a29ffa5cdc956","687769abd536acf40cd9e603","1","1","669149873799bbea50733fe0","1","1","2025-07-16T09:33:18.116Z","","","","","","","","","","","StressQ","","50","","","","","","","","","","","","","","","","","","","","","","","","","","","","",""
"7237","","<div style=""width:500px;"">
  <p>What best describes how you currently feel?</p>
  </div>","60","html-slider-response","68","2064857","0.0-5.0-4.11","85","1","2025-07-16 08:58:54","1f75c3e559b7213887762d5229550c2b","102.208.179.160","Mozilla/5.0 (Windows NT 10.0; Win64; x64) AppleWebKit/537.36 (KHTML, like Gecko) Chrome/138.0.0.0 Safari/537.36","WebKit","Chrome","138.0.0.0","Windows","10.0","https://app.prolific.com/","en-US,en;q=0.9,zh-CN;q=0.8,zh;q=0.7","669149873799bbea50733fe0","686e379bc37a29ffa5cdc956","687769abd536acf40cd9e603","1","1","669149873799bbea50733fe0","1","1","2025-07-16T09:33:25.361Z","","","","","","","","","","","MotivationQ","","50","","","","","","","","","","","","","","","","","","","","","","","","","","","","",""
"","","","","ctl-task-cpt","69","2119666","0.0-5.0-0.12","85","1","2025-07-16 08:58:54","1f75c3e559b7213887762d5229550c2b","102.208.179.160","Mozilla/5.0 (Windows NT 10.0; Win64; x64) AppleWebKit/537.36 (KHTML, like Gecko) Chrome/138.0.0.0 Safari/537.36","WebKit","Chrome","138.0.0.0","Windows","10.0","https://app.prolific.com/","en-US,en;q=0.9,zh-CN;q=0.8,zh;q=0.7","669149873799bbea50733fe0","686e379bc37a29ffa5cdc956","687769abd536acf40cd9e603","1","1","669149873799bbea50733fe0","1","1","2025-07-16T09:34:20.170Z","","","","","","","","","","","","","","win-only","0","g1:NW,g2:SE","0.7","13","0","2073469.7","5026.2","10036.2","51739.2","1","4","4","6","1","1","1","6","5","0.045454545454545456","1403.1","3000","1940","[""left"",""up""]","{""num_key_presses"":8,""num_perfect"":5,""num_errors"":0,""num_randdir"":3,""num_randdir_good_moves"":1,""num_whilered"":0,""num_whileblue"":0,""num_blue"":2,""num_good_moves"":6}","[356.9642857142857,355.96428666796004,1,356.9642857142857,355.96428666796004,103.9,356.9642857142857,355.96428666796004,367.9,356.9642857142857,355.96428666796004,475.9,356.9642857142857,355.96428666796004,650.8,291.9642857142857,459.71428666796004,762.4,105.71428571428572,263.46428666796004,871.4,56.964285714285715,67.21428666796004,978.8,46.964285714285715,32.21428666796003,1088.5,50.714285714285715,27.21428666796003,1382.7,50.714285714285715,27.21428666796003,1483.5,50.714285714285715,27.21428666796003,1585,50.714285714285715,27.21428666796003,1783.4,50.714285714285715,27.21428666796003,1883.8,50.714285714285715,27.21428666796003,1984.6,171.96428571428572,99.71428666796004,2143.4,276.9642857142857,283.46428666796004,2251.3,383.2142857142857,353.46428666796004,2354.2,374.4642857142857,342.21428666796004,2468,258.2142857142857,284.71428666796004,2636.7,223.21428571428572,297.21428666796004,2739.7,208.21428571428572,303.46428666796004,2846.1,208.21428571428572,303.46428666796004,2992.2,208.21428571428572,303.46428666796004,3107.6,208.21428571428572,303.46428666796004,3216.8,208.21428571428572,303.46428666796004,3318.1,208.21428571428572,303.46428666796004,3529.1,208.21428571428572,303.46428666796004,3642.4,208.21428571428572,303.46428666796004,3748.5,208.21428571428572,303.46428666796004,3869.3,208.21428571428572,303.46428666796004,4068.9,208.21428571428572,303.46428666796004,4186.1,208.21428571428572,303.46428666796004,4293,208.21428571428572,303.46428666796004,4431,208.21428571428572,303.46428666796004,4534.7,208.21428571428572,303.46428666796004,4641.9,208.21428571428572,303.46428666796004,4761.6,208.21428571428572,303.46428666796004,4863.1,208.21428571428572,303.46428666796004,4964.1]","[1509.8,1509.9,1000,0,509.9,""oops"",""left"",""up"",""good_move"",6698.3,5187.5,2791.6,1510.8,2395.9,""smooth"",""left"",""left"",""good_move"",16174.7,9474.9,2511.8,13192.3,470.6,""smooth"",""left"",""left"",""good_move"",21135,4959.6,1770.6,16175.6,3188.8,""oops"",""up"",""right"",""bad_move"",24034.4,2896.1,1799.9,21138.3,1096.2,""smooth"",""up"",""up"",""good_move"",29140.7,5103,1490.7,24037.7,3612.3,""oops"",""left"",""right"",""bad_move"",32117.8,2975,1887,29142.8,1088,""smooth"",""left"",""left"",""good_move"",41290,9168.7,2522.1,37900.4,867.5,""smooth"",""left"",""left"",""good_move""]","",""
"5207","","<div style=""width:500px;"">
  <p>What determined the result of this run?</p>
  </div>","33","html-slider-response","70","2124875","0.0-5.0-1.12","85","1","2025-07-16 08:58:54","1f75c3e559b7213887762d5229550c2b","102.208.179.160","Mozilla/5.0 (Windows NT 10.0; Win64; x64) AppleWebKit/537.36 (KHTML, like Gecko) Chrome/138.0.0.0 Safari/537.36","WebKit","Chrome","138.0.0.0","Windows","10.0","https://app.prolific.com/","en-US,en;q=0.9,zh-CN;q=0.8,zh;q=0.7","669149873799bbea50733fe0","686e379bc37a29ffa5cdc956","687769abd536acf40cd9e603","1","1","669149873799bbea50733fe0","1","1","2025-07-16T09:34:25.379Z","","","","","","","","","","","AttribQ","","50","","","","","","","","","","","","","","","","","","","","","","","","","","","","",""
"7664","","<div style=""width:500px;"">
  <p>How much control did you have over the ball?</p>
  </div>","50","html-slider-response","71","2132542","0.0-5.0-2.12","85","1","2025-07-16 08:58:54","1f75c3e559b7213887762d5229550c2b","102.208.179.160","Mozilla/5.0 (Windows NT 10.0; Win64; x64) AppleWebKit/537.36 (KHTML, like Gecko) Chrome/138.0.0.0 Safari/537.36","WebKit","Chrome","138.0.0.0","Windows","10.0","https://app.prolific.com/","en-US,en;q=0.9,zh-CN;q=0.8,zh;q=0.7","669149873799bbea50733fe0","686e379bc37a29ffa5cdc956","687769abd536acf40cd9e603","1","1","669149873799bbea50733fe0","1","1","2025-07-16T09:34:33.047Z","","","","","","","","","","","ControlQ","","50","","","","","","","","","","","","","","","","","","","","","","","","","","","","",""
"10328","","<div style=""width:500px;"">
  <p>How would you describe your current emotional state?</p>
  </div>","36","html-slider-response","72","2142874","0.0-5.0-3.12","85","1","2025-07-16 08:58:54","1f75c3e559b7213887762d5229550c2b","102.208.179.160","Mozilla/5.0 (Windows NT 10.0; Win64; x64) AppleWebKit/537.36 (KHTML, like Gecko) Chrome/138.0.0.0 Safari/537.36","WebKit","Chrome","138.0.0.0","Windows","10.0","https://app.prolific.com/","en-US,en;q=0.9,zh-CN;q=0.8,zh;q=0.7","669149873799bbea50733fe0","686e379bc37a29ffa5cdc956","687769abd536acf40cd9e603","1","1","669149873799bbea50733fe0","1","1","2025-07-16T09:34:43.379Z","","","","","","","","","","","StressQ","","50","","","","","","","","","","","","","","","","","","","","","","","","","","","","",""
"8371","","<div style=""width:500px;"">
  <p>What best describes how you currently feel?</p>
  </div>","34","html-slider-response","73","2151249","0.0-5.0-4.12","85","1","2025-07-16 08:58:54","1f75c3e559b7213887762d5229550c2b","102.208.179.160","Mozilla/5.0 (Windows NT 10.0; Win64; x64) AppleWebKit/537.36 (KHTML, like Gecko) Chrome/138.0.0.0 Safari/537.36","WebKit","Chrome","138.0.0.0","Windows","10.0","https://app.prolific.com/","en-US,en;q=0.9,zh-CN;q=0.8,zh;q=0.7","669149873799bbea50733fe0","686e379bc37a29ffa5cdc956","687769abd536acf40cd9e603","1","1","669149873799bbea50733fe0","1","1","2025-07-16T09:34:51.754Z","","","","","","","","","","","MotivationQ","","50","","","","","","","","","","","","","","","","","","","","","","","","","","","","",""
"","","","","ctl-task-cpt","74","2186040","0.0-5.0-0.13","85","1","2025-07-16 08:58:54","1f75c3e559b7213887762d5229550c2b","102.208.179.160","Mozilla/5.0 (Windows NT 10.0; Win64; x64) AppleWebKit/537.36 (KHTML, like Gecko) Chrome/138.0.0.0 Safari/537.36","WebKit","Chrome","138.0.0.0","Windows","10.0","https://app.prolific.com/","en-US,en;q=0.9,zh-CN;q=0.8,zh;q=0.7","669149873799bbea50733fe0","686e379bc37a29ffa5cdc956","687769abd536acf40cd9e603","1","1","669149873799bbea50733fe0","1","1","2025-07-16T09:35:26.544Z","","","","","","","","","","","","","","win-only","3","g1:SW,g2:NE","0.8","14","0","2159858.4","10678.9","15680.6","31678.1","1","4","8","6","1","1","1","7","6","0.05303030303030303","2016.7","3000","2545","[""down"",""left""]","{""num_key_presses"":4,""num_perfect"":4,""num_errors"":0,""num_randdir"":0,""num_randdir_good_moves"":0,""num_whilered"":0,""num_whileblue"":0,""num_blue"":0,""num_good_moves"":4}","[345.7142857142857,352.21428666796004,1,345.7142857142857,352.21428666796004,260.2,345.7142857142857,352.21428666796004,361.1,345.7142857142857,352.21428666796004,635.1,345.7142857142857,352.21428666796004,737.7,345.7142857142857,352.21428666796004,973.3,369.4642857142857,340.96428666796004,1083.2,341.9642857142857,372.21428666796004,1184.6,193.21428571428572,567.21428666796,1422.5,73.21428571428572,692.21428666796,1523.9,61.964285714285715,650.96428666796,1730.3,61.964285714285715,647.21428666796,1835.9,61.964285714285715,647.21428666796,2035.2,61.964285714285715,647.21428666796,2141.7,61.964285714285715,647.21428666796,2370.7,61.964285714285715,647.21428666796,2474.4,61.964285714285715,647.21428666796,2690.1,61.964285714285715,647.21428666796,2791.7,61.964285714285715,647.21428666796,3031.9,61.964285714285715,647.21428666796,3135.8,61.964285714285715,647.21428666796,3385.8,61.964285714285715,647.21428666796,3629.4,61.964285714285715,647.21428666796,3731.4,61.964285714285715,647.21428666796,3917,61.964285714285715,647.21428666796,4021.8,61.964285714285715,647.21428666796,4336.8,61.964285714285715,647.21428666796,4440.6,61.964285714285715,647.21428666796,4686.2,61.964285714285715,647.21428666796,4787.8]","[1495.3,1495.3,1000,0,495.3,""smooth"",""left"",""left"",""good_move"",7422.1,5925.6,2595.8,1496.5,3329.8,""smooth"",""left"",""left"",""good_move"",13079.2,5656.3,2229.6,7423,3426.6,""smooth"",""down"",""down"",""good_move"",15537.5,2457.3,1692.4,13080.2,764.9,""smooth"",""down"",""down"",""good_move""]","",""
"6689","","<div style=""width:500px;"">
  <p>What determined the result of this run?</p>
  </div>","27","html-slider-response","75","2192731","0.0-5.0-1.13","85","1","2025-07-16 08:58:54","1f75c3e559b7213887762d5229550c2b","102.208.179.160","Mozilla/5.0 (Windows NT 10.0; Win64; x64) AppleWebKit/537.36 (KHTML, like Gecko) Chrome/138.0.0.0 Safari/537.36","WebKit","Chrome","138.0.0.0","Windows","10.0","https://app.prolific.com/","en-US,en;q=0.9,zh-CN;q=0.8,zh;q=0.7","669149873799bbea50733fe0","686e379bc37a29ffa5cdc956","687769abd536acf40cd9e603","1","1","669149873799bbea50733fe0","1","1","2025-07-16T09:35:33.235Z","","","","","","","","","","","AttribQ","","50","","","","","","","","","","","","","","","","","","","","","","","","","","","","",""
"8687","","<div style=""width:500px;"">
  <p>How much control did you have over the ball?</p>
  </div>","53","html-slider-response","76","2201423","0.0-5.0-2.13","85","1","2025-07-16 08:58:54","1f75c3e559b7213887762d5229550c2b","102.208.179.160","Mozilla/5.0 (Windows NT 10.0; Win64; x64) AppleWebKit/537.36 (KHTML, like Gecko) Chrome/138.0.0.0 Safari/537.36","WebKit","Chrome","138.0.0.0","Windows","10.0","https://app.prolific.com/","en-US,en;q=0.9,zh-CN;q=0.8,zh;q=0.7","669149873799bbea50733fe0","686e379bc37a29ffa5cdc956","687769abd536acf40cd9e603","1","1","669149873799bbea50733fe0","1","1","2025-07-16T09:35:41.928Z","","","","","","","","","","","ControlQ","","50","","","","","","","","","","","","","","","","","","","","","","","","","","","","",""
"14877","","<div style=""width:500px;"">
  <p>How would you describe your current emotional state?</p>
  </div>","52","html-slider-response","77","2216306","0.0-5.0-3.13","85","1","2025-07-16 08:58:54","1f75c3e559b7213887762d5229550c2b","102.208.179.160","Mozilla/5.0 (Windows NT 10.0; Win64; x64) AppleWebKit/537.36 (KHTML, like Gecko) Chrome/138.0.0.0 Safari/537.36","WebKit","Chrome","138.0.0.0","Windows","10.0","https://app.prolific.com/","en-US,en;q=0.9,zh-CN;q=0.8,zh;q=0.7","669149873799bbea50733fe0","686e379bc37a29ffa5cdc956","687769abd536acf40cd9e603","1","1","669149873799bbea50733fe0","1","1","2025-07-16T09:35:56.810Z","","","","","","","","","","","StressQ","","50","","","","","","","","","","","","","","","","","","","","","","","","","","","","",""
"6939","","<div style=""width:500px;"">
  <p>What best describes how you currently feel?</p>
  </div>","56","html-slider-response","78","2223249","0.0-5.0-4.13","85","1","2025-07-16 08:58:54","1f75c3e559b7213887762d5229550c2b","102.208.179.160","Mozilla/5.0 (Windows NT 10.0; Win64; x64) AppleWebKit/537.36 (KHTML, like Gecko) Chrome/138.0.0.0 Safari/537.36","WebKit","Chrome","138.0.0.0","Windows","10.0","https://app.prolific.com/","en-US,en;q=0.9,zh-CN;q=0.8,zh;q=0.7","669149873799bbea50733fe0","686e379bc37a29ffa5cdc956","687769abd536acf40cd9e603","1","1","669149873799bbea50733fe0","1","1","2025-07-16T09:36:03.753Z","","","","","","","","","","","MotivationQ","","50","","","","","","","","","","","","","","","","","","","","","","","","","","","","",""
