"rt","response_timestamp","stimulus","response","trial_type","trial_index","time_elapsed","internal_node_id","run_id","condition","recorded_at","source_code_version","ip","user_agent","device","browser","browser_version","platform","platform_version","referer","accept_language","PROLIFIC_PID","STUDY_ID","SESSION_ID","WEEK","BATCH","prolific_id","week","batch","realtime","success","responses","item_order","radio_event_ids","radio_event_times","key_event_times","mouse_event_times","straightlining","zigzagging","honeypot","eventType","view_history","slider_start","which_type","canvas_config","goals_layout","control_level","trial_number","tutorial_trial_number","trial_start_time","phase1_start_time","phase2_start_time","phase3_start_time","goal_1_value","goal_1_distance","goal_2_value","goal_2_distance","goal_selected","outcome","outcome_total","participant_final_score","participant_initial_score","participant_final_score_prop","goal_choice_rt","allocated_time","allocated_time_remaining","goal_direction","counts","mouse_movements","key_presses","question_order","question_id"
"1888","1753272988830","<p style='font-size:40px;line-height:1.25'><strong>Welcome to the experiment!</strong></p><p style='font-size:1.1em;line-height:1.25'>Thank you for participanting in our experiment again! You will be asked to play the Dysfunctional Ball Game again. We will briefly recap the rules before we start.</p><p style='font-size:1.1em;line-height:1.25'>Press <strong>Next</strong> to continue.</p>","0","custom-html-button-response","0","1890","0.0-0.0","216","1","2025-07-23 12:16:26","1f75c3e559b7213887762d5229550c2b","178.43.44.15","Mozilla/5.0 (Windows NT 10.0; Win64; x64) AppleWebKit/537.36 (KHTML, like Gecko) Chrome/138.0.0.0 Safari/537.36","WebKit","Chrome","138.0.0.0","Windows","10.0","https://app.prolific.com/","pl-PL,pl;q=0.9,en-US;q=0.8,en;q=0.7","5dd25456cc192027096069bb","683db9eb0562dbf637994deb","6880d28d326b240bd2b0a99b","2","1","5dd25456cc192027096069bb","2","1","2025-07-23T12:16:28.831Z","","","","","","","","","","","","","","","","","","","","","","","","","","","","","","","","","","","","","","","","","",""
"1726","","","","fullscreen","1","4627","0.0-1.0","216","1","2025-07-23 12:16:26","1f75c3e559b7213887762d5229550c2b","178.43.44.15","Mozilla/5.0 (Windows NT 10.0; Win64; x64) AppleWebKit/537.36 (KHTML, like Gecko) Chrome/138.0.0.0 Safari/537.36","WebKit","Chrome","138.0.0.0","Windows","10.0","https://app.prolific.com/","pl-PL,pl;q=0.9,en-US;q=0.8,en;q=0.7","5dd25456cc192027096069bb","683db9eb0562dbf637994deb","6880d28d326b240bd2b0a99b","2","1","5dd25456cc192027096069bb","2","1","","true","","","","","","","","","","","","","","","","","","","","","","","","","","","","","","","","","","","","","","","","",""
"1541","1753272993110","<p style='font-size:1.1em;line-height:1.25'>In the following, we will ask you a few questions relating to your feelings in the last 24 hours.<br></p><p style='font-size:1.1em;line-height:1.25'>Press the <strong>Next</strong> button to continue.</p>","0","custom-html-button-response","2","6169","0.0-2.0-0.0","216","1","2025-07-23 12:16:26","1f75c3e559b7213887762d5229550c2b","178.43.44.15","Mozilla/5.0 (Windows NT 10.0; Win64; x64) AppleWebKit/537.36 (KHTML, like Gecko) Chrome/138.0.0.0 Safari/537.36","WebKit","Chrome","138.0.0.0","Windows","10.0","https://app.prolific.com/","pl-PL,pl;q=0.9,en-US;q=0.8,en;q=0.7","5dd25456cc192027096069bb","683db9eb0562dbf637994deb","6880d28d326b240bd2b0a99b","2","1","5dd25456cc192027096069bb","2","1","2025-07-23T12:16:33.110Z","","","","","","","","","","","","","","","","","","","","","","","","","","","","","","","","","","","","","","","","","",""
"72641.90000009537","","","","survey-template","3","78815","0.0-2.0-1.0","216","1","2025-07-23 12:16:26","1f75c3e559b7213887762d5229550c2b","178.43.44.15","Mozilla/5.0 (Windows NT 10.0; Win64; x64) AppleWebKit/537.36 (KHTML, like Gecko) Chrome/138.0.0.0 Safari/537.36","WebKit","Chrome","138.0.0.0","Windows","10.0","https://app.prolific.com/","pl-PL,pl;q=0.9,en-US;q=0.8,en;q=0.7","5dd25456cc192027096069bb","683db9eb0562dbf637994deb","6880d28d326b240bd2b0a99b","2","1","5dd25456cc192027096069bb","2","1","2025-07-23T12:17:45.756Z","","{""Q01"":""0"",""Q02"":""0"",""Q03"":""0"",""Q04"":""1"",""Q05"":""1"",""Q06"":""1"",""Q07"":""1"",""Q08"":""0"",""Q09"":""0"",""Q10"":""0"",""Q11"":""0"",""Q12"":""1"",""Q13"":""5"",""Q14"":""0"",""Q15"":""0"",""Q16"":""0"",""Q17"":""0"",""Q18"":""0"",""Q19"":""0"",""Q20"":""0"",""Q21"":""0"",""Q22"":""0""}","[0,1,2,3,4,5,6,7,8,9,10,11,12,13,14,15,16,17,18,19,20,21]","[""Q01"",""Q02"",""Q03"",""Q04"",""Q05"",""Q06"",""Q07"",""Q08"",""Q09"",""Q10"",""Q11"",""Q12"",""Q13"",""Q14"",""Q15"",""Q16"",""Q17"",""Q18"",""Q19"",""Q20"",""Q21"",""Q22""]","[12404.900000095367,15517.200000047684,16277.200000047684,18813.400000095367,20597,23717,25845,27613,28845,30669.10000014305,33060.799999952316,36789,41317,46204.90000009537,48269.10000014305,49605,52837.200000047684,53661.200000047684,54973.10000014305,56269,57085,58765.10000014305]","[]","[0,12404.900000095367,13821.200000047684,15517.200000047684,16277.200000047684,18813.400000095367,20597,23717,25845,27613,28845,30669.10000014305,33060.799999952316,36789,40637.299999952316,41317,46204.90000009537,48269.10000014305,49605,52093.200000047684,52837.200000047684,53661.200000047684,54973.10000014305,56269,57085,57725.299999952316,58765.10000014305,72173,72637.10000014305]","0.7272727272727273","0.19047619047619047","0","drsp","","","","","","","","","","","","","","","","","","","","","","","","","","","","","","",""
"11753.099999904633","","","","survey-template","4","90570","0.0-2.0-2.0","216","1","2025-07-23 12:16:26","1f75c3e559b7213887762d5229550c2b","178.43.44.15","Mozilla/5.0 (Windows NT 10.0; Win64; x64) AppleWebKit/537.36 (KHTML, like Gecko) Chrome/138.0.0.0 Safari/537.36","WebKit","Chrome","138.0.0.0","Windows","10.0","https://app.prolific.com/","pl-PL,pl;q=0.9,en-US;q=0.8,en;q=0.7","5dd25456cc192027096069bb","683db9eb0562dbf637994deb","6880d28d326b240bd2b0a99b","2","1","5dd25456cc192027096069bb","2","1","2025-07-23T12:17:57.511Z","","{""Q01"":""0"",""Q02"":""5"",""Q03"":""0""}","[0,1,2]","[""Q01"",""Q03"",""Q02""]","[5856.5,9520.199999809265,10808.599999904633]","[]","[4008.2999999523163,5856.5,7104.199999809265,9520.199999809265,10184.299999952316,10808.599999904633,11752.5]","1","0","0","stress","","","","","","","","","","","","","","","","","","","","","","","","","","","","","","",""
"64047","","","","instructions","5","154617","0.0-3.0-0.0","216","1","2025-07-23 12:16:26","1f75c3e559b7213887762d5229550c2b","178.43.44.15","Mozilla/5.0 (Windows NT 10.0; Win64; x64) AppleWebKit/537.36 (KHTML, like Gecko) Chrome/138.0.0.0 Safari/537.36","WebKit","Chrome","138.0.0.0","Windows","10.0","https://app.prolific.com/","pl-PL,pl;q=0.9,en-US;q=0.8,en;q=0.7","5dd25456cc192027096069bb","683db9eb0562dbf637994deb","6880d28d326b240bd2b0a99b","2","1","5dd25456cc192027096069bb","2","1","","","","","","","","","","","","","[{""page_index"":0,""viewing_time"":64046}]","","","","","","","","","","","","","","","","","","","","","","","","","","","","","",""
"14846","","<p>Before you start with this game please answer the following three questions yourself. </p>
  <p>Through this game, we measure several aspects of your cognitive performance, such as reaction times, multi-tasking capabilities </p>
  <p>and the ability to assess the situation you are in.</p>
  <p></p>
  <p><b>How good do you usually are in such tasks?</b></p>","27","html-slider-response","6","169465","0.0-4.0-0.0","216","1","2025-07-23 12:16:26","1f75c3e559b7213887762d5229550c2b","178.43.44.15","Mozilla/5.0 (Windows NT 10.0; Win64; x64) AppleWebKit/537.36 (KHTML, like Gecko) Chrome/138.0.0.0 Safari/537.36","WebKit","Chrome","138.0.0.0","Windows","10.0","https://app.prolific.com/","pl-PL,pl;q=0.9,en-US;q=0.8,en;q=0.7","5dd25456cc192027096069bb","683db9eb0562dbf637994deb","6880d28d326b240bd2b0a99b","2","1","5dd25456cc192027096069bb","2","1","2025-07-23T12:19:16.406Z","","","","","","","","","","","PreSkillQ","","50","","","","","","","","","","","","","","","","","","","","","","","","","","","","",""
"5951","","<div style=""width:500px;"">
  <p>How well do you think you will perform in this task compared to other participants?</p>
  </div>","50","html-slider-response","7","175417","0.0-4.0-1.0","216","1","2025-07-23 12:16:26","1f75c3e559b7213887762d5229550c2b","178.43.44.15","Mozilla/5.0 (Windows NT 10.0; Win64; x64) AppleWebKit/537.36 (KHTML, like Gecko) Chrome/138.0.0.0 Safari/537.36","WebKit","Chrome","138.0.0.0","Windows","10.0","https://app.prolific.com/","pl-PL,pl;q=0.9,en-US;q=0.8,en;q=0.7","5dd25456cc192027096069bb","683db9eb0562dbf637994deb","6880d28d326b240bd2b0a99b","2","1","5dd25456cc192027096069bb","2","1","2025-07-23T12:19:22.358Z","","","","","","","","","","","PrePerfQ","","50","","","","","","","","","","","","","","","","","","","","","","","","","","","","",""
"6023","","<div style=""width:500px;"">
  <p>What best describes how you currently feel?</p>
  </div>","46","html-slider-response","8","181441","0.0-4.0-2.0","216","1","2025-07-23 12:16:26","1f75c3e559b7213887762d5229550c2b","178.43.44.15","Mozilla/5.0 (Windows NT 10.0; Win64; x64) AppleWebKit/537.36 (KHTML, like Gecko) Chrome/138.0.0.0 Safari/537.36","WebKit","Chrome","138.0.0.0","Windows","10.0","https://app.prolific.com/","pl-PL,pl;q=0.9,en-US;q=0.8,en;q=0.7","5dd25456cc192027096069bb","683db9eb0562dbf637994deb","6880d28d326b240bd2b0a99b","2","1","5dd25456cc192027096069bb","2","1","2025-07-23T12:19:28.382Z","","","","","","","","","","","PreMotivationQ","","50","","","","","","","","","","","","","","","","","","","","","","","","","","","","",""
"","","","","ctl-task-cpt","9","200866","0.0-5.0-0.0","216","1","2025-07-23 12:16:26","1f75c3e559b7213887762d5229550c2b","178.43.44.15","Mozilla/5.0 (Windows NT 10.0; Win64; x64) AppleWebKit/537.36 (KHTML, like Gecko) Chrome/138.0.0.0 Safari/537.36","WebKit","Chrome","138.0.0.0","Windows","10.0","https://app.prolific.com/","pl-PL,pl;q=0.9,en-US;q=0.8,en;q=0.7","5dd25456cc192027096069bb","683db9eb0562dbf637994deb","6880d28d326b240bd2b0a99b","2","1","5dd25456cc192027096069bb","2","1","2025-07-23T12:19:47.808Z","","","","","","","","","","","","","","win-only","1","g1:NE,g2:SW","1","1","0","182493.8","6838","11838.5","16417.5","1","4","8","6","2","-8","-8","0","0","0","5000.5","3000","-2900","[""down"",""left""]","{""num_key_presses"":0,""num_perfect"":0,""num_errors"":0,""num_randdir"":0,""num_randdir_good_moves"":0,""num_whilered"":0,""num_whileblue"":0,""num_blue"":0,""num_good_moves"":0}","[414.57142857142856,417.47767857142856,0.2,414.57142857142856,417.47767857142856,103.5,414.57142857142856,417.47767857142856,203.6,414.57142857142856,417.47767857142856,306.2,414.57142857142856,417.47767857142856,407.8,414.57142857142856,417.47767857142856,507.8,414.57142857142856,417.47767857142856,608.2,414.57142857142856,417.47767857142856,729,414.57142857142856,417.47767857142856,833.6,414.57142857142856,417.47767857142856,938,439.57142857142856,388.47767857142856,1042.3,468.57142857142856,365.47767857142856,1142.7,477.57142857142856,353.47767857142856,1242.8,477.57142857142856,353.47767857142856,1343.4,477.57142857142856,353.47767857142856,1443.4,477.57142857142856,353.47767857142856,1550.2,477.57142857142856,353.47767857142856,1652.7,477.57142857142856,353.47767857142856,1759,477.57142857142856,353.47767857142856,1859.1,477.57142857142856,353.47767857142856,1966.2,471.57142857142856,365.47767857142856,2067.7,239.57142857142856,669.4776785714286,2172.9,173.57142857142856,778.4776785714286,2273.6,137.57142857142856,796.4776785714286,2373.9,135.57142857142856,796.4776785714286,2483.1,135.57142857142856,795.4776785714286,2584.3,135.57142857142856,794.4776785714286,2688.5,135.57142857142856,794.4776785714286,2793.3,135.57142857142856,794.4776785714286,2899.9,135.57142857142856,794.4776785714286,3003.4,135.57142857142856,794.4776785714286,3107.5,147.57142857142856,785.4776785714286,3208.3,218.57142857142856,754.4776785714286,3308.9,266.57142857142856,719.4776785714286,3412.7,316.57142857142856,667.4776785714286,3516.5,341.57142857142856,625.4776785714286,3618.9,367.57142857142856,567.4776785714286,3723.2,409.57142857142856,478.47767857142856,3823.2,450.57142857142856,405.47767857142856,3923.3,474.57142857142856,372.47767857142856,4028.2,474.57142857142856,371.47767857142856,4133.5,474.57142857142856,371.47767857142856,4235.3,453.57142857142856,388.47767857142856,4338.1,421.57142857142856,410.47767857142856,4442.6,403.57142857142856,423.47767857142856,4543.5,398.57142857142856,432.47767857142856,4661.3,387.57142857142856,460.47767857142856,4766.6,373.57142857142856,502.47767857142856,4869.2,342.57142857142856,567.4776785714286,4972.8]","[]","",""
"5341","","<div style=""width:500px;"">
  <p>What determined the result of this run?</p>
  </div>","39","html-slider-response","10","206209","0.0-5.0-1.0","216","1","2025-07-23 12:16:26","1f75c3e559b7213887762d5229550c2b","178.43.44.15","Mozilla/5.0 (Windows NT 10.0; Win64; x64) AppleWebKit/537.36 (KHTML, like Gecko) Chrome/138.0.0.0 Safari/537.36","WebKit","Chrome","138.0.0.0","Windows","10.0","https://app.prolific.com/","pl-PL,pl;q=0.9,en-US;q=0.8,en;q=0.7","5dd25456cc192027096069bb","683db9eb0562dbf637994deb","6880d28d326b240bd2b0a99b","2","1","5dd25456cc192027096069bb","2","1","2025-07-23T12:19:53.150Z","","","","","","","","","","","AttribQ","","50","","","","","","","","","","","","","","","","","","","","","","","","","","","","",""
"2360","","<div style=""width:500px;"">
  <p>How much control did you have over the ball?</p>
  </div>","50","html-slider-response","11","208569","0.0-5.0-2.0","216","1","2025-07-23 12:16:26","1f75c3e559b7213887762d5229550c2b","178.43.44.15","Mozilla/5.0 (Windows NT 10.0; Win64; x64) AppleWebKit/537.36 (KHTML, like Gecko) Chrome/138.0.0.0 Safari/537.36","WebKit","Chrome","138.0.0.0","Windows","10.0","https://app.prolific.com/","pl-PL,pl;q=0.9,en-US;q=0.8,en;q=0.7","5dd25456cc192027096069bb","683db9eb0562dbf637994deb","6880d28d326b240bd2b0a99b","2","1","5dd25456cc192027096069bb","2","1","2025-07-23T12:19:55.510Z","","","","","","","","","","","ControlQ","","50","","","","","","","","","","","","","","","","","","","","","","","","","","","","",""
"4399","","<div style=""width:500px;"">
  <p>How would you describe your current emotional state?</p>
  </div>","60","html-slider-response","12","212969","0.0-5.0-3.0","216","1","2025-07-23 12:16:26","1f75c3e559b7213887762d5229550c2b","178.43.44.15","Mozilla/5.0 (Windows NT 10.0; Win64; x64) AppleWebKit/537.36 (KHTML, like Gecko) Chrome/138.0.0.0 Safari/537.36","WebKit","Chrome","138.0.0.0","Windows","10.0","https://app.prolific.com/","pl-PL,pl;q=0.9,en-US;q=0.8,en;q=0.7","5dd25456cc192027096069bb","683db9eb0562dbf637994deb","6880d28d326b240bd2b0a99b","2","1","5dd25456cc192027096069bb","2","1","2025-07-23T12:19:59.910Z","","","","","","","","","","","StressQ","","50","","","","","","","","","","","","","","","","","","","","","","","","","","","","",""
"4375","","<div style=""width:500px;"">
  <p>What best describes how you currently feel?</p>
  </div>","50","html-slider-response","13","217345","0.0-5.0-4.0","216","1","2025-07-23 12:16:26","1f75c3e559b7213887762d5229550c2b","178.43.44.15","Mozilla/5.0 (Windows NT 10.0; Win64; x64) AppleWebKit/537.36 (KHTML, like Gecko) Chrome/138.0.0.0 Safari/537.36","WebKit","Chrome","138.0.0.0","Windows","10.0","https://app.prolific.com/","pl-PL,pl;q=0.9,en-US;q=0.8,en;q=0.7","5dd25456cc192027096069bb","683db9eb0562dbf637994deb","6880d28d326b240bd2b0a99b","2","1","5dd25456cc192027096069bb","2","1","2025-07-23T12:20:04.286Z","","","","","","","","","","","MotivationQ","","50","","","","","","","","","","","","","","","","","","","","","","","","","","","","",""
"","","","","ctl-task-cpt","14","246518","0.0-5.0-0.1","216","1","2025-07-23 12:16:26","1f75c3e559b7213887762d5229550c2b","178.43.44.15","Mozilla/5.0 (Windows NT 10.0; Win64; x64) AppleWebKit/537.36 (KHTML, like Gecko) Chrome/138.0.0.0 Safari/537.36","WebKit","Chrome","138.0.0.0","Windows","10.0","https://app.prolific.com/","pl-PL,pl;q=0.9,en-US;q=0.8,en;q=0.7","5dd25456cc192027096069bb","683db9eb0562dbf637994deb","6880d28d326b240bd2b0a99b","2","1","5dd25456cc192027096069bb","2","1","2025-07-23T12:20:33.459Z","","","","","","","","","","","","","","win-only","3","g1:SW,g2:NE","0.9","2","0","218395.5","13105.6","18105.9","26156.1","1","4","4","6","1","-1","-1","0","0","0","2367.2","3000","-3015","[""down"",""left""]","{""num_key_presses"":0,""num_perfect"":0,""num_errors"":0,""num_randdir"":0,""num_randdir_good_moves"":0,""num_whilered"":0,""num_whileblue"":0,""num_blue"":1,""num_good_moves"":0}","[416.57142857142856,420.47767857142856,0.7,416.57142857142856,420.47767857142856,105.8,416.57142857142856,420.47767857142856,205.8,416.57142857142856,420.47767857142856,309.9,416.57142857142856,420.47767857142856,411.2,416.57142857142856,420.47767857142856,516.4,416.57142857142856,420.47767857142856,620.2,407.57142857142856,393.47767857142856,720.6,400.57142857142856,375.47767857142856,825.6,369.57142857142856,419.47767857142856,931.4,369.57142857142856,419.47767857142856,1034.6,369.57142857142856,419.47767857142856,1141.2,369.57142857142856,419.47767857142856,1245,369.57142857142856,419.47767857142856,1344.9,369.57142857142856,419.47767857142856,1445.2,376.57142857142856,402.47767857142856,1545.3,389.57142857142856,391.47767857142856,1645.6,439.57142857142856,364.47767857142856,1749.7,332.57142857142856,446.47767857142856,1851.1,147.57142857142856,602.4776785714286,1954.6,130.57142857142856,616.4776785714286,2055.2,97.57142857142857,676.4776785714286,2160.4,75.57142857142857,743.4776785714286,2266.4,71.57142857142857,750.4776785714286,2366.5,131.57142857142856,713.4776785714286,2479,414.57142857142856,390.47767857142856,2581.5,545.5714285714286,239.47767857142856,2685.8,608.5714285714286,200.47767857142856,2790.8,651.5714285714286,159.47767857142856,2894.7,711.5714285714286,115.47767857142857,2996,722.5714285714286,103.47767857142857,3100.2,722.5714285714286,101.47767857142857,3200.2,723.5714285714286,100.47767857142857,3301.6,723.5714285714286,100.47767857142857,3405.1,651.5714285714286,193.47767857142856,3506.1,337.57142857142856,446.47767857142856,3610.1,251.57142857142856,544.4776785714286,3710.4,182.57142857142856,641.4776785714286,3815.6,117.57142857142857,711.4776785714286,3919.7,81.57142857142857,749.4776785714286,4019.7,86.57142857142857,749.4776785714286,4120.6,96.57142857142857,746.4776785714286,4221.6,100.57142857142857,745.4776785714286,4326.2,100.57142857142857,745.4776785714286,4429.7,100.57142857142857,745.4776785714286,4530.7,118.57142857142857,725.4776785714286,4634.9,186.57142857142856,648.4776785714286,4735.9,263.57142857142856,585.4776785714286,4840.4,369.57142857142856,519.4776785714286,4941.1]","[]","",""
"9643","","<div style=""width:500px;"">
  <p>What determined the result of this run?</p>
  </div>","41","html-slider-response","15","256161","0.0-5.0-1.1","216","1","2025-07-23 12:16:26","1f75c3e559b7213887762d5229550c2b","178.43.44.15","Mozilla/5.0 (Windows NT 10.0; Win64; x64) AppleWebKit/537.36 (KHTML, like Gecko) Chrome/138.0.0.0 Safari/537.36","WebKit","Chrome","138.0.0.0","Windows","10.0","https://app.prolific.com/","pl-PL,pl;q=0.9,en-US;q=0.8,en;q=0.7","5dd25456cc192027096069bb","683db9eb0562dbf637994deb","6880d28d326b240bd2b0a99b","2","1","5dd25456cc192027096069bb","2","1","2025-07-23T12:20:43.102Z","","","","","","","","","","","AttribQ","","50","","","","","","","","","","","","","","","","","","","","","","","","","","","","",""
"3335","","<div style=""width:500px;"">
  <p>How much control did you have over the ball?</p>
  </div>","45","html-slider-response","16","259497","0.0-5.0-2.1","216","1","2025-07-23 12:16:26","1f75c3e559b7213887762d5229550c2b","178.43.44.15","Mozilla/5.0 (Windows NT 10.0; Win64; x64) AppleWebKit/537.36 (KHTML, like Gecko) Chrome/138.0.0.0 Safari/537.36","WebKit","Chrome","138.0.0.0","Windows","10.0","https://app.prolific.com/","pl-PL,pl;q=0.9,en-US;q=0.8,en;q=0.7","5dd25456cc192027096069bb","683db9eb0562dbf637994deb","6880d28d326b240bd2b0a99b","2","1","5dd25456cc192027096069bb","2","1","2025-07-23T12:20:46.438Z","","","","","","","","","","","ControlQ","","50","","","","","","","","","","","","","","","","","","","","","","","","","","","","",""
"3159","","<div style=""width:500px;"">
  <p>How would you describe your current emotional state?</p>
  </div>","57","html-slider-response","17","262657","0.0-5.0-3.1","216","1","2025-07-23 12:16:26","1f75c3e559b7213887762d5229550c2b","178.43.44.15","Mozilla/5.0 (Windows NT 10.0; Win64; x64) AppleWebKit/537.36 (KHTML, like Gecko) Chrome/138.0.0.0 Safari/537.36","WebKit","Chrome","138.0.0.0","Windows","10.0","https://app.prolific.com/","pl-PL,pl;q=0.9,en-US;q=0.8,en;q=0.7","5dd25456cc192027096069bb","683db9eb0562dbf637994deb","6880d28d326b240bd2b0a99b","2","1","5dd25456cc192027096069bb","2","1","2025-07-23T12:20:49.598Z","","","","","","","","","","","StressQ","","50","","","","","","","","","","","","","","","","","","","","","","","","","","","","",""
"2151","","<div style=""width:500px;"">
  <p>What best describes how you currently feel?</p>
  </div>","61","html-slider-response","18","264809","0.0-5.0-4.1","216","1","2025-07-23 12:16:26","1f75c3e559b7213887762d5229550c2b","178.43.44.15","Mozilla/5.0 (Windows NT 10.0; Win64; x64) AppleWebKit/537.36 (KHTML, like Gecko) Chrome/138.0.0.0 Safari/537.36","WebKit","Chrome","138.0.0.0","Windows","10.0","https://app.prolific.com/","pl-PL,pl;q=0.9,en-US;q=0.8,en;q=0.7","5dd25456cc192027096069bb","683db9eb0562dbf637994deb","6880d28d326b240bd2b0a99b","2","1","5dd25456cc192027096069bb","2","1","2025-07-23T12:20:51.750Z","","","","","","","","","","","MotivationQ","","50","","","","","","","","","","","","","","","","","","","","","","","","","","","","",""
"","","","","ctl-task-cpt","19","282794","0.0-5.0-0.2","216","1","2025-07-23 12:16:26","1f75c3e559b7213887762d5229550c2b","178.43.44.15","Mozilla/5.0 (Windows NT 10.0; Win64; x64) AppleWebKit/537.36 (KHTML, like Gecko) Chrome/138.0.0.0 Safari/537.36","WebKit","Chrome","138.0.0.0","Windows","10.0","https://app.prolific.com/","pl-PL,pl;q=0.9,en-US;q=0.8,en;q=0.7","5dd25456cc192027096069bb","683db9eb0562dbf637994deb","6880d28d326b240bd2b0a99b","2","1","5dd25456cc192027096069bb","2","1","2025-07-23T12:21:09.736Z","","","","","","","","","","","","","","win-only","3","g1:SW,g2:NE","0.8","3","0","265860.3","5928.3","10930.5","14965.6","1","4","8","6","2","-8","-8","0","0","0","935.8","3000","-3015","[""up"",""right""]","{""num_key_presses"":0,""num_perfect"":0,""num_errors"":0,""num_randdir"":0,""num_randdir_good_moves"":0,""num_whilered"":0,""num_whileblue"":0,""num_blue"":0,""num_good_moves"":0}","[415.57142857142856,413.47767857142856,0.2,415.57142857142856,413.47767857142856,102.5,415.57142857142856,413.47767857142856,207.6,415.57142857142856,413.47767857142856,313.2,422.57142857142856,397.47767857142856,418.3,550.5714285714286,221.47767857142856,523.7,643.5714285714286,121.47767857142857,627.1,648.5714285714286,120.47767857142857,728.7,732.5714285714286,91.47767857142857,832.3,733.5714285714286,90.47767857142857,932.3,733.5714285714286,90.47767857142857,1033.1,494.57142857142856,350.47767857142856,1137.4,200.57142857142856,694.4776785714286,1238.7,160.57142857142856,718.4776785714286,1342.1,149.57142857142856,733.4776785714286,1442.2,119.57142857142857,737.4776785714286,1542.4,114.57142857142857,738.4776785714286,1642.8,114.57142857142857,738.4776785714286,1748.8,114.57142857142857,738.4776785714286,1848.9,114.57142857142857,738.4776785714286,1952,114.57142857142857,738.4776785714286,2052.5,109.57142857142857,739.4776785714286,2153.3,85.57142857142857,739.4776785714286,2257.7,85.57142857142857,739.4776785714286,2357.8,201.57142857142856,646.4776785714286,2462,336.57142857142856,491.47767857142856,2563.5,657.5714285714286,154.47767857142856,2668,695.5714285714286,101.47767857142857,2772.9,701.5714285714286,90.47767857142857,2877.1,759.5714285714286,65.47767857142857,2980.1,759.5714285714286,65.47767857142857,3083.9,759.5714285714286,65.47767857142857,3187.8,759.5714285714286,65.47767857142857,3292.2,715.5714285714286,122.47767857142857,3398.3,446.57142857142856,470.47767857142856,3502.9,396.57142857142856,550.4776785714286,3607.7,368.57142857142856,569.4776785714286,3712,362.57142857142856,535.4776785714286,3812.4,359.57142857142856,489.47767857142856,3913,359.57142857142856,486.47767857142856,4018.2,359.57142857142856,486.47767857142856,4122.7,359.57142857142856,486.47767857142856,4227.4,359.57142857142856,486.47767857142856,4333.2,359.57142857142856,486.47767857142856,4438.3,359.57142857142856,486.47767857142856,4538.4,359.57142857142856,486.47767857142856,4642,359.57142857142856,486.47767857142856,4742.3,359.57142857142856,486.47767857142856,4847.5,359.57142857142856,486.47767857142856,4948.3]","[]","",""
"2622","","<div style=""width:500px;"">
  <p>What determined the result of this run?</p>
  </div>","59","html-slider-response","20","285417","0.0-5.0-1.2","216","1","2025-07-23 12:16:26","1f75c3e559b7213887762d5229550c2b","178.43.44.15","Mozilla/5.0 (Windows NT 10.0; Win64; x64) AppleWebKit/537.36 (KHTML, like Gecko) Chrome/138.0.0.0 Safari/537.36","WebKit","Chrome","138.0.0.0","Windows","10.0","https://app.prolific.com/","pl-PL,pl;q=0.9,en-US;q=0.8,en;q=0.7","5dd25456cc192027096069bb","683db9eb0562dbf637994deb","6880d28d326b240bd2b0a99b","2","1","5dd25456cc192027096069bb","2","1","2025-07-23T12:21:12.358Z","","","","","","","","","","","AttribQ","","50","","","","","","","","","","","","","","","","","","","","","","","","","","","","",""
"1879","","<div style=""width:500px;"">
  <p>How much control did you have over the ball?</p>
  </div>","50","html-slider-response","21","287297","0.0-5.0-2.2","216","1","2025-07-23 12:16:26","1f75c3e559b7213887762d5229550c2b","178.43.44.15","Mozilla/5.0 (Windows NT 10.0; Win64; x64) AppleWebKit/537.36 (KHTML, like Gecko) Chrome/138.0.0.0 Safari/537.36","WebKit","Chrome","138.0.0.0","Windows","10.0","https://app.prolific.com/","pl-PL,pl;q=0.9,en-US;q=0.8,en;q=0.7","5dd25456cc192027096069bb","683db9eb0562dbf637994deb","6880d28d326b240bd2b0a99b","2","1","5dd25456cc192027096069bb","2","1","2025-07-23T12:21:14.238Z","","","","","","","","","","","ControlQ","","50","","","","","","","","","","","","","","","","","","","","","","","","","","","","",""
"1807","","<div style=""width:500px;"">
  <p>How would you describe your current emotional state?</p>
  </div>","60","html-slider-response","22","289105","0.0-5.0-3.2","216","1","2025-07-23 12:16:26","1f75c3e559b7213887762d5229550c2b","178.43.44.15","Mozilla/5.0 (Windows NT 10.0; Win64; x64) AppleWebKit/537.36 (KHTML, like Gecko) Chrome/138.0.0.0 Safari/537.36","WebKit","Chrome","138.0.0.0","Windows","10.0","https://app.prolific.com/","pl-PL,pl;q=0.9,en-US;q=0.8,en;q=0.7","5dd25456cc192027096069bb","683db9eb0562dbf637994deb","6880d28d326b240bd2b0a99b","2","1","5dd25456cc192027096069bb","2","1","2025-07-23T12:21:16.046Z","","","","","","","","","","","StressQ","","50","","","","","","","","","","","","","","","","","","","","","","","","","","","","",""
"1439","","<div style=""width:500px;"">
  <p>What best describes how you currently feel?</p>
  </div>","65","html-slider-response","23","290545","0.0-5.0-4.2","216","1","2025-07-23 12:16:26","1f75c3e559b7213887762d5229550c2b","178.43.44.15","Mozilla/5.0 (Windows NT 10.0; Win64; x64) AppleWebKit/537.36 (KHTML, like Gecko) Chrome/138.0.0.0 Safari/537.36","WebKit","Chrome","138.0.0.0","Windows","10.0","https://app.prolific.com/","pl-PL,pl;q=0.9,en-US;q=0.8,en;q=0.7","5dd25456cc192027096069bb","683db9eb0562dbf637994deb","6880d28d326b240bd2b0a99b","2","1","5dd25456cc192027096069bb","2","1","2025-07-23T12:21:17.486Z","","","","","","","","","","","MotivationQ","","50","","","","","","","","","","","","","","","","","","","","","","","","","","","","",""
"","","","","ctl-task-cpt","24","317921","0.0-5.0-0.3","216","1","2025-07-23 12:16:26","1f75c3e559b7213887762d5229550c2b","178.43.44.15","Mozilla/5.0 (Windows NT 10.0; Win64; x64) AppleWebKit/537.36 (KHTML, like Gecko) Chrome/138.0.0.0 Safari/537.36","WebKit","Chrome","138.0.0.0","Windows","10.0","https://app.prolific.com/","pl-PL,pl;q=0.9,en-US;q=0.8,en;q=0.7","5dd25456cc192027096069bb","683db9eb0562dbf637994deb","6880d28d326b240bd2b0a99b","2","1","5dd25456cc192027096069bb","2","1","2025-07-23T12:21:44.862Z","","","","","","","","","","","","","","win-only","0","g1:NW,g2:SE","0.7","4","0","291596.7","7134.7","12137.3","24356.5","1","4","4","6","2","-4","-6","0","0","0","1121","3000","-3000","[""down"",""right""]","{""num_key_presses"":6,""num_perfect"":2,""num_errors"":2,""num_randdir"":0,""num_randdir_good_moves"":0,""num_whilered"":2,""num_whileblue"":0,""num_blue"":0,""num_good_moves"":1}","[413.57142857142856,415.47767857142856,0.3,413.57142857142856,415.47767857142856,102,413.57142857142856,415.47767857142856,205.6,413.57142857142856,415.47767857142856,306,413.57142857142856,415.47767857142856,406,413.57142857142856,415.47767857142856,506.4,412.57142857142856,414.47767857142856,606.4,284.57142857142856,329.47767857142856,707.3,660.5714285714286,638.4776785714286,812.2,733.5714285714286,761.4776785714286,916.4,750.5714285714286,766.4776785714286,1021.5,750.5714285714286,766.4776785714286,1132.7,750.5714285714286,766.4776785714286,1233.2,750.5714285714286,766.4776785714286,1336,750.5714285714286,766.4776785714286,1436.2,750.5714285714286,766.4776785714286,1536.4,750.5714285714286,766.4776785714286,1636.5,443.57142857142856,525.4776785714286,1741.5,125.57142857142857,235.47767857142856,1846,121.57142857142857,226.47767857142856,1946.1,186.57142857142856,290.47767857142856,2046.3,250.57142857142856,339.47767857142856,2151.8,250.57142857142856,339.47767857142856,2255.6,250.57142857142856,339.47767857142856,2356.1,264.57142857142856,359.47767857142856,2462,319.57142857142856,403.47767857142856,2565.6,360.57142857142856,451.47767857142856,2665.8,321.57142857142856,385.47767857142856,2771.7,297.57142857142856,312.47767857142856,2875.8,668.5714285714286,817.4776785714286,2976.2,734.5714285714286,916.4776785714286,3081.1,727.5714285714286,868.4776785714286,3181.6,721.5714285714286,816.4776785714286,3286.4,734.5714285714286,765.4776785714286,3390.6,735.5714285714286,761.4776785714286,3490.6,735.5714285714286,761.4776785714286,3590.9,735.5714285714286,760.4776785714286,3692.3,512.5714285714286,580.4776785714286,3796.2,384.57142857142856,454.47767857142856,3901,356.57142857142856,426.47767857142856,4001.9,350.57142857142856,422.47767857142856,4105.9,350.57142857142856,422.47767857142856,4206.9,344.57142857142856,375.47767857142856,4312,347.57142857142856,371.47767857142856,4412,347.57142857142856,371.47767857142856,4512,347.57142857142856,371.47767857142856,4615.8,347.57142857142856,371.47767857142856,4715.8,347.57142857142856,371.47767857142856,4816.4,347.57142857142856,371.47767857142856,4920.8]","[2764.7,2764.7,1000,0,1764.7,""smooth"",""up"",""up"",""bad_move"",3556.4,791.2,3260.4,2765.2,-2469.1,""error"",""-"",""-"",""no_move"",8492.4,4936,2809.7,4558.6,1124.3,""smooth"",""down"",""down"",""good_move"",9164.5,671.8,2524,8492.7,-1852.2,""error"",""-"",""-"",""no_move"",9332.3,167.5,2524,8492.7,-1684.4,""while_red"",""-"",""-"",""no_move"",9476.9,312.1,2524,8492.7,-1539.8,""while_red"",""-"",""-"",""no_move""]","",""
"4264","","<div style=""width:500px;"">
  <p>What determined the result of this run?</p>
  </div>","56","html-slider-response","25","322185","0.0-5.0-1.3","216","1","2025-07-23 12:16:26","1f75c3e559b7213887762d5229550c2b","178.43.44.15","Mozilla/5.0 (Windows NT 10.0; Win64; x64) AppleWebKit/537.36 (KHTML, like Gecko) Chrome/138.0.0.0 Safari/537.36","WebKit","Chrome","138.0.0.0","Windows","10.0","https://app.prolific.com/","pl-PL,pl;q=0.9,en-US;q=0.8,en;q=0.7","5dd25456cc192027096069bb","683db9eb0562dbf637994deb","6880d28d326b240bd2b0a99b","2","1","5dd25456cc192027096069bb","2","1","2025-07-23T12:21:49.126Z","","","","","","","","","","","AttribQ","","50","","","","","","","","","","","","","","","","","","","","","","","","","","","","",""
"2223","","<div style=""width:500px;"">
  <p>How much control did you have over the ball?</p>
  </div>","61","html-slider-response","26","324409","0.0-5.0-2.3","216","1","2025-07-23 12:16:26","1f75c3e559b7213887762d5229550c2b","178.43.44.15","Mozilla/5.0 (Windows NT 10.0; Win64; x64) AppleWebKit/537.36 (KHTML, like Gecko) Chrome/138.0.0.0 Safari/537.36","WebKit","Chrome","138.0.0.0","Windows","10.0","https://app.prolific.com/","pl-PL,pl;q=0.9,en-US;q=0.8,en;q=0.7","5dd25456cc192027096069bb","683db9eb0562dbf637994deb","6880d28d326b240bd2b0a99b","2","1","5dd25456cc192027096069bb","2","1","2025-07-23T12:21:51.350Z","","","","","","","","","","","ControlQ","","50","","","","","","","","","","","","","","","","","","","","","","","","","","","","",""
"1767","","<div style=""width:500px;"">
  <p>How would you describe your current emotional state?</p>
  </div>","43","html-slider-response","27","326177","0.0-5.0-3.3","216","1","2025-07-23 12:16:26","1f75c3e559b7213887762d5229550c2b","178.43.44.15","Mozilla/5.0 (Windows NT 10.0; Win64; x64) AppleWebKit/537.36 (KHTML, like Gecko) Chrome/138.0.0.0 Safari/537.36","WebKit","Chrome","138.0.0.0","Windows","10.0","https://app.prolific.com/","pl-PL,pl;q=0.9,en-US;q=0.8,en;q=0.7","5dd25456cc192027096069bb","683db9eb0562dbf637994deb","6880d28d326b240bd2b0a99b","2","1","5dd25456cc192027096069bb","2","1","2025-07-23T12:21:53.118Z","","","","","","","","","","","StressQ","","50","","","","","","","","","","","","","","","","","","","","","","","","","","","","",""
"2479","","<div style=""width:500px;"">
  <p>What best describes how you currently feel?</p>
  </div>","57","html-slider-response","28","328657","0.0-5.0-4.3","216","1","2025-07-23 12:16:26","1f75c3e559b7213887762d5229550c2b","178.43.44.15","Mozilla/5.0 (Windows NT 10.0; Win64; x64) AppleWebKit/537.36 (KHTML, like Gecko) Chrome/138.0.0.0 Safari/537.36","WebKit","Chrome","138.0.0.0","Windows","10.0","https://app.prolific.com/","pl-PL,pl;q=0.9,en-US;q=0.8,en;q=0.7","5dd25456cc192027096069bb","683db9eb0562dbf637994deb","6880d28d326b240bd2b0a99b","2","1","5dd25456cc192027096069bb","2","1","2025-07-23T12:21:55.598Z","","","","","","","","","","","MotivationQ","","50","","","","","","","","","","","","","","","","","","","","","","","","","","","","",""
"","","","","ctl-task-cpt","29","368181","0.0-5.0-0.4","216","1","2025-07-23 12:16:26","1f75c3e559b7213887762d5229550c2b","178.43.44.15","Mozilla/5.0 (Windows NT 10.0; Win64; x64) AppleWebKit/537.36 (KHTML, like Gecko) Chrome/138.0.0.0 Safari/537.36","WebKit","Chrome","138.0.0.0","Windows","10.0","https://app.prolific.com/","pl-PL,pl;q=0.9,en-US;q=0.8,en;q=0.7","5dd25456cc192027096069bb","683db9eb0562dbf637994deb","6880d28d326b240bd2b0a99b","2","1","5dd25456cc192027096069bb","2","1","2025-07-23T12:22:35.122Z","","","","","","","","","","","","","","win-only","3","g1:SW,g2:NE","0.6","5","0","329708.4","4399.3","9402","36505.8","1","4","8","6","1","1","-4","0","0","0","1248.6","3000","465","[""down"",""left""]","{""num_key_presses"":18,""num_perfect"":3,""num_errors"":5,""num_randdir"":3,""num_randdir_good_moves"":2,""num_whilered"":7,""num_whileblue"":0,""num_blue"":1,""num_good_moves"":5}","[416.57142857142856,413.47767857142856,0.3,416.57142857142856,413.47767857142856,101.8,416.57142857142856,413.47767857142856,202.8,416.57142857142856,413.47767857142856,306.1,417.57142857142856,410.47767857142856,406.3,480.57142857142856,346.47767857142856,511.9,441.57142857142856,423.47767857142856,612.5,334.57142857142856,598.4776785714286,717,284.57142857142856,650.4776785714286,817.1,189.57142857142856,706.4776785714286,917.2,142.57142857142856,739.4776785714286,1022.2,110.57142857142857,751.4776785714286,1126.1,98.57142857142857,754.4776785714286,1226.8,98.57142857142857,754.4776785714286,1331.1,98.57142857142857,754.4776785714286,1431.1,98.57142857142857,754.4776785714286,1532.6,98.57142857142857,754.4776785714286,1637.6,98.57142857142857,754.4776785714286,1742.8,98.57142857142857,754.4776785714286,1846.6,98.57142857142857,754.4776785714286,1947.7,98.57142857142857,754.4776785714286,2047.8,98.57142857142857,754.4776785714286,2151,98.57142857142857,754.4776785714286,2252.7,98.57142857142857,754.4776785714286,2356.2,98.57142857142857,754.4776785714286,2456.3,98.57142857142857,754.4776785714286,2556.4,98.57142857142857,754.4776785714286,2662.7,98.57142857142857,754.4776785714286,2767,98.57142857142857,754.4776785714286,2867.2,104.57142857142857,752.4776785714286,2972.3,107.57142857142857,749.4776785714286,3077.6,107.57142857142857,749.4776785714286,3181.9,107.57142857142857,749.4776785714286,3282.1,107.57142857142857,749.4776785714286,3386.1,107.57142857142857,749.4776785714286,3487.2,107.57142857142857,749.4776785714286,3591.8,107.57142857142857,749.4776785714286,3692.2,107.57142857142857,749.4776785714286,3796.1,107.57142857142857,749.4776785714286,3897.1,107.57142857142857,749.4776785714286,4001.1,107.57142857142857,749.4776785714286,4102.1,107.57142857142857,749.4776785714286,4206.2,107.57142857142857,749.4776785714286,4306.2,107.57142857142857,749.4776785714286,4411.8,107.57142857142857,749.4776785714286,4516.3,107.57142857142857,749.4776785714286,4616.4,107.57142857142857,749.4776785714286,4717.1,107.57142857142857,749.4776785714286,4821.4,107.57142857142857,749.4776785714286,4922.5]","[52.2,52.2,1000,0,-947.8,""error"",""-"",""-"",""no_move"",284,231.6,1000,0,-716,""while_red"",""-"",""-"",""no_move"",539.9,487.5,1000,0,-460.1,""while_red"",""-"",""-"",""no_move"",1476.3,1423.9,1651.4,1054.2,-1229.3,""error"",""-"",""-"",""no_move"",1828.1,351.8,1651.4,1054.2,-877.5,""while_red"",""-"",""-"",""no_move"",2448,971.8,1651.4,1054.2,-257.5,""while_red"",""-"",""-"",""no_move"",3251.9,1775.6,2723.6,2478.9,-1950.6,""error"",""-"",""-"",""no_move"",3460,208,2723.6,2478.9,-1742.5,""while_red"",""-"",""-"",""no_move"",3724,472,2723.6,2478.9,-1478.5,""while_red"",""-"",""-"",""no_move"",7036.4,3784.4,2449.1,4253.5,333.8,""smooth"",""down"",""down"",""good_move"",7468,431.2,2772.7,7036.8,-2341.5,""error"",""-"",""-"",""no_move"",8388.7,920.6,2772.7,7036.8,-1420.8,""while_red"",""-"",""-"",""no_move"",11612,4143.9,2771.3,8469.2,371.5,""smooth"",""left"",""left"",""good_move"",17380.1,5767.9,2185.5,14809.5,385.1,""smooth"",""down"",""down"",""good_move"",19516,2135.8,1553,17380.3,582.7,""oops"",""left"",""right"",""bad_move"",20572,1055.7,2273.5,19516.3,-1217.8,""error"",""-"",""-"",""no_move"",24103.4,3531.3,2116.8,21574.6,412,""oops"",""left"",""left"",""good_move"",27003.9,2900.1,2422.3,24103.8,477.9,""oops"",""left"",""left"",""good_move""]","",""
"3340","","<div style=""width:500px;"">
  <p>What determined the result of this run?</p>
  </div>","57","html-slider-response","30","371521","0.0-5.0-1.4","216","1","2025-07-23 12:16:26","1f75c3e559b7213887762d5229550c2b","178.43.44.15","Mozilla/5.0 (Windows NT 10.0; Win64; x64) AppleWebKit/537.36 (KHTML, like Gecko) Chrome/138.0.0.0 Safari/537.36","WebKit","Chrome","138.0.0.0","Windows","10.0","https://app.prolific.com/","pl-PL,pl;q=0.9,en-US;q=0.8,en;q=0.7","5dd25456cc192027096069bb","683db9eb0562dbf637994deb","6880d28d326b240bd2b0a99b","2","1","5dd25456cc192027096069bb","2","1","2025-07-23T12:22:38.462Z","","","","","","","","","","","AttribQ","","50","","","","","","","","","","","","","","","","","","","","","","","","","","","","",""
"1791","","<div style=""width:500px;"">
  <p>How much control did you have over the ball?</p>
  </div>","50","html-slider-response","31","373313","0.0-5.0-2.4","216","1","2025-07-23 12:16:26","1f75c3e559b7213887762d5229550c2b","178.43.44.15","Mozilla/5.0 (Windows NT 10.0; Win64; x64) AppleWebKit/537.36 (KHTML, like Gecko) Chrome/138.0.0.0 Safari/537.36","WebKit","Chrome","138.0.0.0","Windows","10.0","https://app.prolific.com/","pl-PL,pl;q=0.9,en-US;q=0.8,en;q=0.7","5dd25456cc192027096069bb","683db9eb0562dbf637994deb","6880d28d326b240bd2b0a99b","2","1","5dd25456cc192027096069bb","2","1","2025-07-23T12:22:40.254Z","","","","","","","","","","","ControlQ","","50","","","","","","","","","","","","","","","","","","","","","","","","","","","","",""
"1447","","<div style=""width:500px;"">
  <p>How would you describe your current emotional state?</p>
  </div>","58","html-slider-response","32","374761","0.0-5.0-3.4","216","1","2025-07-23 12:16:26","1f75c3e559b7213887762d5229550c2b","178.43.44.15","Mozilla/5.0 (Windows NT 10.0; Win64; x64) AppleWebKit/537.36 (KHTML, like Gecko) Chrome/138.0.0.0 Safari/537.36","WebKit","Chrome","138.0.0.0","Windows","10.0","https://app.prolific.com/","pl-PL,pl;q=0.9,en-US;q=0.8,en;q=0.7","5dd25456cc192027096069bb","683db9eb0562dbf637994deb","6880d28d326b240bd2b0a99b","2","1","5dd25456cc192027096069bb","2","1","2025-07-23T12:22:41.702Z","","","","","","","","","","","StressQ","","50","","","","","","","","","","","","","","","","","","","","","","","","","","","","",""
"1383","","<div style=""width:500px;"">
  <p>What best describes how you currently feel?</p>
  </div>","50","html-slider-response","33","376145","0.0-5.0-4.4","216","1","2025-07-23 12:16:26","1f75c3e559b7213887762d5229550c2b","178.43.44.15","Mozilla/5.0 (Windows NT 10.0; Win64; x64) AppleWebKit/537.36 (KHTML, like Gecko) Chrome/138.0.0.0 Safari/537.36","WebKit","Chrome","138.0.0.0","Windows","10.0","https://app.prolific.com/","pl-PL,pl;q=0.9,en-US;q=0.8,en;q=0.7","5dd25456cc192027096069bb","683db9eb0562dbf637994deb","6880d28d326b240bd2b0a99b","2","1","5dd25456cc192027096069bb","2","1","2025-07-23T12:22:43.086Z","","","","","","","","","","","MotivationQ","","50","","","","","","","","","","","","","","","","","","","","","","","","","","","","",""
"","","","","ctl-task-cpt","34","414267","0.0-5.0-0.5","216","1","2025-07-23 12:16:26","1f75c3e559b7213887762d5229550c2b","178.43.44.15","Mozilla/5.0 (Windows NT 10.0; Win64; x64) AppleWebKit/537.36 (KHTML, like Gecko) Chrome/138.0.0.0 Safari/537.36","WebKit","Chrome","138.0.0.0","Windows","10.0","https://app.prolific.com/","pl-PL,pl;q=0.9,en-US;q=0.8,en;q=0.7","5dd25456cc192027096069bb","683db9eb0562dbf637994deb","6880d28d326b240bd2b0a99b","2","1","5dd25456cc192027096069bb","2","1","2025-07-23T12:23:21.208Z","","","","","","","","","","","","","","win-only","2","g1:SE,g2:NW","0.5","6","0","377196.4","4408.4","9411","35101.1","1","4","4","6","1","1","0","0","0","0","1103.2","3000","590","[""down"",""right""]","{""num_key_presses"":7,""num_perfect"":4,""num_errors"":1,""num_randdir"":2,""num_randdir_good_moves"":1,""num_whilered"":0,""num_whileblue"":0,""num_blue"":2,""num_good_moves"":5}","[417.57142857142856,418.47767857142856,0.3,417.57142857142856,418.47767857142856,101.9,417.57142857142856,418.47767857142856,202.3,417.57142857142856,418.47767857142856,302.6,417.57142857142856,418.47767857142856,403,417.57142857142856,418.47767857142856,507.3,541.5714285714286,599.4776785714286,607.7,651.5714285714286,686.4776785714286,707.7,672.5714285714286,720.4776785714286,812.9,686.5714285714286,728.4776785714286,913,741.5714285714286,747.4776785714286,1013.1,741.5714285714286,747.4776785714286,1118.1,741.5714285714286,747.4776785714286,1222.6,741.5714285714286,747.4776785714286,1327.3,741.5714285714286,747.4776785714286,1428.9,741.5714285714286,747.4776785714286,1532.3,741.5714285714286,747.4776785714286,1632.9,741.5714285714286,747.4776785714286,1733.8,741.5714285714286,747.4776785714286,1838.1,741.5714285714286,747.4776785714286,1942,741.5714285714286,747.4776785714286,2042.4,741.5714285714286,747.4776785714286,2142.4,741.5714285714286,747.4776785714286,2247.2,741.5714285714286,747.4776785714286,2349.2,741.5714285714286,747.4776785714286,2452.5,741.5714285714286,747.4776785714286,2557,741.5714285714286,747.4776785714286,2657.6,741.5714285714286,747.4776785714286,2758.2,741.5714285714286,747.4776785714286,2863.1,741.5714285714286,747.4776785714286,2966.8,741.5714285714286,747.4776785714286,3067.8,741.5714285714286,747.4776785714286,3171.9,741.5714285714286,747.4776785714286,3272.2,741.5714285714286,747.4776785714286,3373.3,741.5714285714286,747.4776785714286,3477.5,741.5714285714286,747.4776785714286,3578.5,741.5714285714286,747.4776785714286,3678.5,741.5714285714286,747.4776785714286,3778.5,741.5714285714286,747.4776785714286,3883.3,741.5714285714286,747.4776785714286,3984.2,741.5714285714286,747.4776785714286,4087.4,741.5714285714286,747.4776785714286,4192.4,741.5714285714286,747.4776785714286,4297.7,741.5714285714286,747.4776785714286,4402.6,741.5714285714286,747.4776785714286,4507.2,741.5714285714286,747.4776785714286,4612.2,741.5714285714286,747.4776785714286,4712.7,741.5714285714286,747.4776785714286,4812.9,741.5714285714286,747.4776785714286,4913.2]","[1379,1379,1000,0,379,""smooth"",""right"",""right"",""good_move"",1931.2,551.8,3188,1379.4,-2636.2,""error"",""-"",""-"",""no_move"",13667.1,11735.6,2876.6,10435.2,355.3,""oops"",""down"",""up"",""bad_move"",17043.1,3375.8,2811.4,13667.3,564.4,""smooth"",""down"",""down"",""good_move"",19811,2767.2,2303,17043.8,464.2,""smooth"",""down"",""down"",""good_move"",22698.9,2887.7,2556.5,19811.2,331.2,""smooth"",""down"",""down"",""good_move"",25603.3,2904.3,2553.8,22699,350.5,""oops"",""right"",""right"",""good_move""]","",""
"3597","","<div style=""width:500px;"">
  <p>What determined the result of this run?</p>
  </div>","58","html-slider-response","35","417865","0.0-5.0-1.5","216","1","2025-07-23 12:16:26","1f75c3e559b7213887762d5229550c2b","178.43.44.15","Mozilla/5.0 (Windows NT 10.0; Win64; x64) AppleWebKit/537.36 (KHTML, like Gecko) Chrome/138.0.0.0 Safari/537.36","WebKit","Chrome","138.0.0.0","Windows","10.0","https://app.prolific.com/","pl-PL,pl;q=0.9,en-US;q=0.8,en;q=0.7","5dd25456cc192027096069bb","683db9eb0562dbf637994deb","6880d28d326b240bd2b0a99b","2","1","5dd25456cc192027096069bb","2","1","2025-07-23T12:23:24.806Z","","","","","","","","","","","AttribQ","","50","","","","","","","","","","","","","","","","","","","","","","","","","","","","",""
"2751","","<div style=""width:500px;"">
  <p>How much control did you have over the ball?</p>
  </div>","54","html-slider-response","36","420617","0.0-5.0-2.5","216","1","2025-07-23 12:16:26","1f75c3e559b7213887762d5229550c2b","178.43.44.15","Mozilla/5.0 (Windows NT 10.0; Win64; x64) AppleWebKit/537.36 (KHTML, like Gecko) Chrome/138.0.0.0 Safari/537.36","WebKit","Chrome","138.0.0.0","Windows","10.0","https://app.prolific.com/","pl-PL,pl;q=0.9,en-US;q=0.8,en;q=0.7","5dd25456cc192027096069bb","683db9eb0562dbf637994deb","6880d28d326b240bd2b0a99b","2","1","5dd25456cc192027096069bb","2","1","2025-07-23T12:23:27.558Z","","","","","","","","","","","ControlQ","","50","","","","","","","","","","","","","","","","","","","","","","","","","","","","",""
"2455","","<div style=""width:500px;"">
  <p>How would you describe your current emotional state?</p>
  </div>","57","html-slider-response","37","423073","0.0-5.0-3.5","216","1","2025-07-23 12:16:26","1f75c3e559b7213887762d5229550c2b","178.43.44.15","Mozilla/5.0 (Windows NT 10.0; Win64; x64) AppleWebKit/537.36 (KHTML, like Gecko) Chrome/138.0.0.0 Safari/537.36","WebKit","Chrome","138.0.0.0","Windows","10.0","https://app.prolific.com/","pl-PL,pl;q=0.9,en-US;q=0.8,en;q=0.7","5dd25456cc192027096069bb","683db9eb0562dbf637994deb","6880d28d326b240bd2b0a99b","2","1","5dd25456cc192027096069bb","2","1","2025-07-23T12:23:30.014Z","","","","","","","","","","","StressQ","","50","","","","","","","","","","","","","","","","","","","","","","","","","","","","",""
"2615","","<div style=""width:500px;"">
  <p>What best describes how you currently feel?</p>
  </div>","45","html-slider-response","38","425689","0.0-5.0-4.5","216","1","2025-07-23 12:16:26","1f75c3e559b7213887762d5229550c2b","178.43.44.15","Mozilla/5.0 (Windows NT 10.0; Win64; x64) AppleWebKit/537.36 (KHTML, like Gecko) Chrome/138.0.0.0 Safari/537.36","WebKit","Chrome","138.0.0.0","Windows","10.0","https://app.prolific.com/","pl-PL,pl;q=0.9,en-US;q=0.8,en;q=0.7","5dd25456cc192027096069bb","683db9eb0562dbf637994deb","6880d28d326b240bd2b0a99b","2","1","5dd25456cc192027096069bb","2","1","2025-07-23T12:23:32.630Z","","","","","","","","","","","MotivationQ","","50","","","","","","","","","","","","","","","","","","","","","","","","","","","","",""
"","","","","ctl-task-cpt","39","455251","0.0-5.0-0.6","216","1","2025-07-23 12:16:26","1f75c3e559b7213887762d5229550c2b","178.43.44.15","Mozilla/5.0 (Windows NT 10.0; Win64; x64) AppleWebKit/537.36 (KHTML, like Gecko) Chrome/138.0.0.0 Safari/537.36","WebKit","Chrome","138.0.0.0","Windows","10.0","https://app.prolific.com/","pl-PL,pl;q=0.9,en-US;q=0.8,en;q=0.7","5dd25456cc192027096069bb","683db9eb0562dbf637994deb","6880d28d326b240bd2b0a99b","2","1","5dd25456cc192027096069bb","2","1","2025-07-23T12:24:02.192Z","","","","","","","","","","","","","","win-only","0","g1:NW,g2:SE","0.4","7","0","426740.3","2175.7","7179.2","26540.7","1","4","4","6","1","-1","-2","0","0","0","1136.3","3000","-2990","[""left"",""up""]","{""num_key_presses"":6,""num_perfect"":3,""num_errors"":1,""num_randdir"":2,""num_randdir_good_moves"":1,""num_whilered"":0,""num_whileblue"":1,""num_blue"":1,""num_good_moves"":3}","[413.57142857142856,410.47767857142856,0.2,413.57142857142856,410.47767857142856,101.2,413.57142857142856,410.47767857142856,204.9,413.57142857142856,410.47767857142856,305.1,599.5714285714286,671.4776785714286,405.5,631.5714285714286,699.4776785714286,505.5,288.57142857142856,452.47767857142856,609.4,205.57142857142856,339.47767857142856,709.9,133.57142857142856,268.47767857142856,810.8,100.57142857142857,182.47767857142856,921.2,79.57142857142857,112.47767857142857,1025,69.57142857142857,80.47767857142857,1129.8,69.57142857142857,80.47767857142857,1231.2,69.57142857142857,80.47767857142857,1331.2,69.57142857142857,80.47767857142857,1436.7,69.57142857142857,80.47767857142857,1539.9,69.57142857142857,80.47767857142857,1640.8,69.57142857142857,80.47767857142857,1744.6,69.57142857142857,80.47767857142857,1844.8,69.57142857142857,80.47767857142857,1953.6,69.57142857142857,80.47767857142857,2054.8,69.57142857142857,80.47767857142857,2160.2,69.57142857142857,80.47767857142857,2264.7,69.57142857142857,80.47767857142857,2367.9,69.57142857142857,80.47767857142857,2469.1,69.57142857142857,80.47767857142857,2569.8,69.57142857142857,80.47767857142857,2669.8,69.57142857142857,80.47767857142857,2775.8,69.57142857142857,80.47767857142857,2895.8,69.57142857142857,80.47767857142857,3004.5,69.57142857142857,80.47767857142857,3105.2,69.57142857142857,80.47767857142857,3206.4,69.57142857142857,80.47767857142857,3310.4,69.57142857142857,80.47767857142857,3410.5,69.57142857142857,80.47767857142857,3519.7,69.57142857142857,80.47767857142857,3621.3,69.57142857142857,80.47767857142857,3724.8,69.57142857142857,80.47767857142857,3825.1,69.57142857142857,80.47767857142857,3925.8,69.57142857142857,80.47767857142857,4035.6,69.57142857142857,80.47767857142857,4136.9,69.57142857142857,80.47767857142857,4240.4,69.57142857142857,80.47767857142857,4344.9,69.57142857142857,80.47767857142857,4445,69.57142857142857,80.47767857142857,4545.2,69.57142857142857,80.47767857142857,4650.2,69.57142857142857,80.47767857142857,4754.1,69.57142857142857,80.47767857142857,4855,69.57142857142857,80.47767857142857,4956.4]","[1435.4,1435.4,1000,0,435.4,""oops"",""up"",""left"",""good_move"",4283.1,2847.3,2511.1,1435.8,336.2,""oops"",""up"",""right"",""bad_move"",6786.9,2503.6,1718.5,4283.3,785.1,""smooth"",""left"",""left"",""good_move"",10860.3,4073.3,3746.7,6787,326.6,""smooth"",""left"",""left"",""good_move"",13347.3,2486.9,2180.6,10860.4,306.3,""while_blue"",""up"",""down"",""bad_move"",16298.9,2951.2,2129.8,13347.7,821.4,""smooth"",""right"",""right"",""bad_move""]","",""
"4597","","<div style=""width:500px;"">
  <p>What determined the result of this run?</p>
  </div>","59","html-slider-response","40","459849","0.0-5.0-1.6","216","1","2025-07-23 12:16:26","1f75c3e559b7213887762d5229550c2b","178.43.44.15","Mozilla/5.0 (Windows NT 10.0; Win64; x64) AppleWebKit/537.36 (KHTML, like Gecko) Chrome/138.0.0.0 Safari/537.36","WebKit","Chrome","138.0.0.0","Windows","10.0","https://app.prolific.com/","pl-PL,pl;q=0.9,en-US;q=0.8,en;q=0.7","5dd25456cc192027096069bb","683db9eb0562dbf637994deb","6880d28d326b240bd2b0a99b","2","1","5dd25456cc192027096069bb","2","1","2025-07-23T12:24:06.790Z","","","","","","","","","","","AttribQ","","50","","","","","","","","","","","","","","","","","","","","","","","","","","","","",""
"1447","","<div style=""width:500px;"">
  <p>How much control did you have over the ball?</p>
  </div>","55","html-slider-response","41","461297","0.0-5.0-2.6","216","1","2025-07-23 12:16:26","1f75c3e559b7213887762d5229550c2b","178.43.44.15","Mozilla/5.0 (Windows NT 10.0; Win64; x64) AppleWebKit/537.36 (KHTML, like Gecko) Chrome/138.0.0.0 Safari/537.36","WebKit","Chrome","138.0.0.0","Windows","10.0","https://app.prolific.com/","pl-PL,pl;q=0.9,en-US;q=0.8,en;q=0.7","5dd25456cc192027096069bb","683db9eb0562dbf637994deb","6880d28d326b240bd2b0a99b","2","1","5dd25456cc192027096069bb","2","1","2025-07-23T12:24:08.238Z","","","","","","","","","","","ControlQ","","50","","","","","","","","","","","","","","","","","","","","","","","","","","","","",""
"3135","","<div style=""width:500px;"">
  <p>How would you describe your current emotional state?</p>
  </div>","59","html-slider-response","42","464433","0.0-5.0-3.6","216","1","2025-07-23 12:16:26","1f75c3e559b7213887762d5229550c2b","178.43.44.15","Mozilla/5.0 (Windows NT 10.0; Win64; x64) AppleWebKit/537.36 (KHTML, like Gecko) Chrome/138.0.0.0 Safari/537.36","WebKit","Chrome","138.0.0.0","Windows","10.0","https://app.prolific.com/","pl-PL,pl;q=0.9,en-US;q=0.8,en;q=0.7","5dd25456cc192027096069bb","683db9eb0562dbf637994deb","6880d28d326b240bd2b0a99b","2","1","5dd25456cc192027096069bb","2","1","2025-07-23T12:24:11.374Z","","","","","","","","","","","StressQ","","50","","","","","","","","","","","","","","","","","","","","","","","","","","","","",""
"1679","","<div style=""width:500px;"">
  <p>What best describes how you currently feel?</p>
  </div>","50","html-slider-response","43","466113","0.0-5.0-4.6","216","1","2025-07-23 12:16:26","1f75c3e559b7213887762d5229550c2b","178.43.44.15","Mozilla/5.0 (Windows NT 10.0; Win64; x64) AppleWebKit/537.36 (KHTML, like Gecko) Chrome/138.0.0.0 Safari/537.36","WebKit","Chrome","138.0.0.0","Windows","10.0","https://app.prolific.com/","pl-PL,pl;q=0.9,en-US;q=0.8,en;q=0.7","5dd25456cc192027096069bb","683db9eb0562dbf637994deb","6880d28d326b240bd2b0a99b","2","1","5dd25456cc192027096069bb","2","1","2025-07-23T12:24:13.054Z","","","","","","","","","","","MotivationQ","","50","","","","","","","","","","","","","","","","","","","","","","","","","","","","",""
"","","","","ctl-task-cpt","44","509333","0.0-5.0-0.7","216","1","2025-07-23 12:16:26","1f75c3e559b7213887762d5229550c2b","178.43.44.15","Mozilla/5.0 (Windows NT 10.0; Win64; x64) AppleWebKit/537.36 (KHTML, like Gecko) Chrome/138.0.0.0 Safari/537.36","WebKit","Chrome","138.0.0.0","Windows","10.0","https://app.prolific.com/","pl-PL,pl;q=0.9,en-US;q=0.8,en;q=0.7","5dd25456cc192027096069bb","683db9eb0562dbf637994deb","6880d28d326b240bd2b0a99b","2","1","5dd25456cc192027096069bb","2","1","2025-07-23T12:24:56.274Z","","","","","","","","","","","","","","win-only","2","g1:SE,g2:NW","0.3","8","0","467164.9","2160.1","7161.4","40201.7","1","4","8","6","1","-1","-2","0","0","0","906","3000","-3000","[""down"",""right""]","{""num_key_presses"":9,""num_perfect"":1,""num_errors"":1,""num_randdir"":7,""num_randdir_good_moves"":4,""num_whilered"":0,""num_whileblue"":0,""num_blue"":1,""num_good_moves"":5}","[416.57142857142856,411.47767857142856,0.5,416.57142857142856,411.47767857142856,101,416.57142857142856,411.47767857142856,201.4,416.57142857142856,411.47767857142856,305.9,431.57142857142856,443.47767857142856,406,644.5714285714286,677.4776785714286,506.9,678.5714285714286,710.4776785714286,611.4,706.5714285714286,728.4776785714286,715.4,740.5714285714286,747.4776785714286,816.5,740.5714285714286,747.4776785714286,921.8,740.5714285714286,747.4776785714286,1027.9,740.5714285714286,747.4776785714286,1130.5,740.5714285714286,747.4776785714286,1231.5,740.5714285714286,747.4776785714286,1336.4,740.5714285714286,747.4776785714286,1440.5,740.5714285714286,747.4776785714286,1541.6,740.5714285714286,747.4776785714286,1645.4,740.5714285714286,747.4776785714286,1751,740.5714285714286,747.4776785714286,1859.4,740.5714285714286,747.4776785714286,1961.3,740.5714285714286,747.4776785714286,2066,740.5714285714286,747.4776785714286,2167,740.5714285714286,747.4776785714286,2270.3,740.5714285714286,747.4776785714286,2371.2,740.5714285714286,747.4776785714286,2475.9,740.5714285714286,747.4776785714286,2581.1,740.5714285714286,747.4776785714286,2685.4,740.5714285714286,747.4776785714286,2785.6,740.5714285714286,747.4776785714286,2891.2,740.5714285714286,747.4776785714286,2991.3,740.5714285714286,747.4776785714286,3095.3,740.5714285714286,747.4776785714286,3196.3,740.5714285714286,747.4776785714286,3300.8,740.5714285714286,747.4776785714286,3405.4,740.5714285714286,747.4776785714286,3505.8,740.5714285714286,747.4776785714286,3605.8,740.5714285714286,747.4776785714286,3711,740.5714285714286,747.4776785714286,3811.2,740.5714285714286,747.4776785714286,3911.3,740.5714285714286,747.4776785714286,4015.6,740.5714285714286,747.4776785714286,4120.6,740.5714285714286,747.4776785714286,4221.2,740.5714285714286,747.4776785714286,4325.8,740.5714285714286,747.4776785714286,4430.2,740.5714285714286,747.4776785714286,4530.6,740.5714285714286,747.4776785714286,4636.3,740.5714285714286,747.4776785714286,4736.6,740.5714285714286,747.4776785714286,4840.6,740.5714285714286,747.4776785714286,4940.6]","[1396.5,1396.5,1000,0,396.5,""oops"",""right"",""right"",""good_move"",4580.2,3183.4,2723.5,1396.8,459.9,""oops"",""down"",""right"",""good_move"",10500.3,5919.8,1940.5,8184.1,375.7,""oops"",""up"",""down"",""good_move"",14356.2,3855.7,3506.2,10500.5,349.5,""oops"",""up"",""left"",""bad_move"",17508.5,3151.8,2828,14356.7,323.8,""oops"",""down"",""left"",""bad_move"",20748,3239.3,2964,17508.7,275.3,""oops"",""right"",""down"",""good_move"",23748.1,2999.8,3231.1,20748.3,-231.3,""error"",""-"",""-"",""no_move"",27373.7,3624.8,2338,24750.5,285.2,""smooth"",""right"",""right"",""good_move"",30532.2,3158.3,2804.1,27373.9,354.2,""oops"",""right"",""up"",""bad_move""]","",""
"4723","","<div style=""width:500px;"">
  <p>What determined the result of this run?</p>
  </div>","50","html-slider-response","45","514057","0.0-5.0-1.7","216","1","2025-07-23 12:16:26","1f75c3e559b7213887762d5229550c2b","178.43.44.15","Mozilla/5.0 (Windows NT 10.0; Win64; x64) AppleWebKit/537.36 (KHTML, like Gecko) Chrome/138.0.0.0 Safari/537.36","WebKit","Chrome","138.0.0.0","Windows","10.0","https://app.prolific.com/","pl-PL,pl;q=0.9,en-US;q=0.8,en;q=0.7","5dd25456cc192027096069bb","683db9eb0562dbf637994deb","6880d28d326b240bd2b0a99b","2","1","5dd25456cc192027096069bb","2","1","2025-07-23T12:25:00.998Z","","","","","","","","","","","AttribQ","","50","","","","","","","","","","","","","","","","","","","","","","","","","","","","",""
"1503","","<div style=""width:500px;"">
  <p>How much control did you have over the ball?</p>
  </div>","50","html-slider-response","46","515561","0.0-5.0-2.7","216","1","2025-07-23 12:16:26","1f75c3e559b7213887762d5229550c2b","178.43.44.15","Mozilla/5.0 (Windows NT 10.0; Win64; x64) AppleWebKit/537.36 (KHTML, like Gecko) Chrome/138.0.0.0 Safari/537.36","WebKit","Chrome","138.0.0.0","Windows","10.0","https://app.prolific.com/","pl-PL,pl;q=0.9,en-US;q=0.8,en;q=0.7","5dd25456cc192027096069bb","683db9eb0562dbf637994deb","6880d28d326b240bd2b0a99b","2","1","5dd25456cc192027096069bb","2","1","2025-07-23T12:25:02.502Z","","","","","","","","","","","ControlQ","","50","","","","","","","","","","","","","","","","","","","","","","","","","","","","",""
"2087","","<div style=""width:500px;"">
  <p>How would you describe your current emotional state?</p>
  </div>","56","html-slider-response","47","517649","0.0-5.0-3.7","216","1","2025-07-23 12:16:26","1f75c3e559b7213887762d5229550c2b","178.43.44.15","Mozilla/5.0 (Windows NT 10.0; Win64; x64) AppleWebKit/537.36 (KHTML, like Gecko) Chrome/138.0.0.0 Safari/537.36","WebKit","Chrome","138.0.0.0","Windows","10.0","https://app.prolific.com/","pl-PL,pl;q=0.9,en-US;q=0.8,en;q=0.7","5dd25456cc192027096069bb","683db9eb0562dbf637994deb","6880d28d326b240bd2b0a99b","2","1","5dd25456cc192027096069bb","2","1","2025-07-23T12:25:04.590Z","","","","","","","","","","","StressQ","","50","","","","","","","","","","","","","","","","","","","","","","","","","","","","",""
"2087","","<div style=""width:500px;"">
  <p>What best describes how you currently feel?</p>
  </div>","50","html-slider-response","48","519737","0.0-5.0-4.7","216","1","2025-07-23 12:16:26","1f75c3e559b7213887762d5229550c2b","178.43.44.15","Mozilla/5.0 (Windows NT 10.0; Win64; x64) AppleWebKit/537.36 (KHTML, like Gecko) Chrome/138.0.0.0 Safari/537.36","WebKit","Chrome","138.0.0.0","Windows","10.0","https://app.prolific.com/","pl-PL,pl;q=0.9,en-US;q=0.8,en;q=0.7","5dd25456cc192027096069bb","683db9eb0562dbf637994deb","6880d28d326b240bd2b0a99b","2","1","5dd25456cc192027096069bb","2","1","2025-07-23T12:25:06.678Z","","","","","","","","","","","MotivationQ","","50","","","","","","","","","","","","","","","","","","","","","","","","","","","","",""
"","","","","ctl-task-cpt","49","554277","0.0-5.0-0.8","216","1","2025-07-23 12:16:26","1f75c3e559b7213887762d5229550c2b","178.43.44.15","Mozilla/5.0 (Windows NT 10.0; Win64; x64) AppleWebKit/537.36 (KHTML, like Gecko) Chrome/138.0.0.0 Safari/537.36","WebKit","Chrome","138.0.0.0","Windows","10.0","https://app.prolific.com/","pl-PL,pl;q=0.9,en-US;q=0.8,en;q=0.7","5dd25456cc192027096069bb","683db9eb0562dbf637994deb","6880d28d326b240bd2b0a99b","2","1","5dd25456cc192027096069bb","2","1","2025-07-23T12:25:41.218Z","","","","","","","","","","","","","","win-only","1","g1:NE,g2:SW","0.2","9","0","520788.3","2367.5","7371.8","31521","1","4","8","6","1","-1","-2","0","0","0","1296.4","3000","-3005","[""up"",""right""]","{""num_key_presses"":7,""num_perfect"":2,""num_errors"":1,""num_randdir"":4,""num_randdir_good_moves"":2,""num_whilered"":0,""num_whileblue"":0,""num_blue"":1,""num_good_moves"":4}","[415.57142857142856,414.47767857142856,0.1,415.57142857142856,414.47767857142856,104.3,415.57142857142856,414.47767857142856,204.4,415.57142857142856,414.47767857142856,310.4,415.57142857142856,414.47767857142856,413.5,415.57142857142856,414.47767857142856,519.6,415.57142857142856,414.47767857142856,623.6,448.57142857142856,394.47767857142856,728.4,566.5714285714286,295.47767857142856,829.2,608.5714285714286,218.47767857142856,930.9,665.5714285714286,133.47767857142856,1033.4,709.5714285714286,73.47767857142857,1134.6,721.5714285714286,50.47767857142857,1237.9,722.5714285714286,50.47767857142857,1343,722.5714285714286,50.47767857142857,1444.6,725.5714285714286,61.47767857142857,1548.5,739.5714285714286,121.47767857142857,1648.5,741.5714285714286,165.47767857142856,1748.6,741.5714285714286,174.47767857142856,1852.8,740.5714285714286,182.47767857142856,1953.6,739.5714285714286,185.47767857142856,2054.5,738.5714285714286,188.47767857142856,2158.8,738.5714285714286,200.47767857142856,2258.9,738.5714285714286,207.47767857142856,2364.5,738.5714285714286,208.47767857142856,2469.5,738.5714285714286,208.47767857142856,2569.6,738.5714285714286,208.47767857142856,2674.5,738.5714285714286,208.47767857142856,2774.6,738.5714285714286,208.47767857142856,2874.7,738.5714285714286,208.47767857142856,2978.5,738.5714285714286,208.47767857142856,3078.6,738.5714285714286,208.47767857142856,3178.8,738.5714285714286,208.47767857142856,3278.8,738.5714285714286,208.47767857142856,3382.9,738.5714285714286,208.47767857142856,3482.9,738.5714285714286,208.47767857142856,3583.3,738.5714285714286,208.47767857142856,3688.8,738.5714285714286,208.47767857142856,3788.8,738.5714285714286,208.47767857142856,3893.2,738.5714285714286,208.47767857142856,3998.7,738.5714285714286,208.47767857142856,4104.2,738.5714285714286,208.47767857142856,4208.5,738.5714285714286,208.47767857142856,4308.5,738.5714285714286,208.47767857142856,4408.7,738.5714285714286,208.47767857142856,4508.7,738.5714285714286,208.47767857142856,4613.1,738.5714285714286,208.47767857142856,4713.2,738.5714285714286,208.47767857142856,4814.2,738.5714285714286,208.47767857142856,4918.2]","[530.4,530.4,1000,0,-469.6,""error"",""-"",""-"",""no_move"",3690.3,3159.7,1735.8,1533.6,420.9,""smooth"",""up"",""up"",""good_move"",9914.5,6223.9,2679.5,6879.7,355.4,""smooth"",""right"",""right"",""good_move"",12938.4,3023.5,2426.4,9914.9,597.1,""oops"",""up"",""down"",""bad_move"",16026.4,3087.7,2501.3,12938.7,586.4,""oops"",""right"",""up"",""good_move"",19226.5,3199.9,2860.3,16026.6,339.6,""oops"",""left"",""right"",""good_move"",21730.7,2503.8,2119.2,19226.9,384.6,""oops"",""down"",""down"",""bad_move""]","",""
"4347","","<div style=""width:500px;"">
  <p>What determined the result of this run?</p>
  </div>","61","html-slider-response","50","558625","0.0-5.0-1.8","216","1","2025-07-23 12:16:26","1f75c3e559b7213887762d5229550c2b","178.43.44.15","Mozilla/5.0 (Windows NT 10.0; Win64; x64) AppleWebKit/537.36 (KHTML, like Gecko) Chrome/138.0.0.0 Safari/537.36","WebKit","Chrome","138.0.0.0","Windows","10.0","https://app.prolific.com/","pl-PL,pl;q=0.9,en-US;q=0.8,en;q=0.7","5dd25456cc192027096069bb","683db9eb0562dbf637994deb","6880d28d326b240bd2b0a99b","2","1","5dd25456cc192027096069bb","2","1","2025-07-23T12:25:45.566Z","","","","","","","","","","","AttribQ","","50","","","","","","","","","","","","","","","","","","","","","","","","","","","","",""
"2855","","<div style=""width:500px;"">
  <p>How much control did you have over the ball?</p>
  </div>","50","html-slider-response","51","561481","0.0-5.0-2.8","216","1","2025-07-23 12:16:26","1f75c3e559b7213887762d5229550c2b","178.43.44.15","Mozilla/5.0 (Windows NT 10.0; Win64; x64) AppleWebKit/537.36 (KHTML, like Gecko) Chrome/138.0.0.0 Safari/537.36","WebKit","Chrome","138.0.0.0","Windows","10.0","https://app.prolific.com/","pl-PL,pl;q=0.9,en-US;q=0.8,en;q=0.7","5dd25456cc192027096069bb","683db9eb0562dbf637994deb","6880d28d326b240bd2b0a99b","2","1","5dd25456cc192027096069bb","2","1","2025-07-23T12:25:48.423Z","","","","","","","","","","","ControlQ","","50","","","","","","","","","","","","","","","","","","","","","","","","","","","","",""
"2927","","<div style=""width:500px;"">
  <p>How would you describe your current emotional state?</p>
  </div>","56","html-slider-response","52","564410","0.0-5.0-3.8","216","1","2025-07-23 12:16:26","1f75c3e559b7213887762d5229550c2b","178.43.44.15","Mozilla/5.0 (Windows NT 10.0; Win64; x64) AppleWebKit/537.36 (KHTML, like Gecko) Chrome/138.0.0.0 Safari/537.36","WebKit","Chrome","138.0.0.0","Windows","10.0","https://app.prolific.com/","pl-PL,pl;q=0.9,en-US;q=0.8,en;q=0.7","5dd25456cc192027096069bb","683db9eb0562dbf637994deb","6880d28d326b240bd2b0a99b","2","1","5dd25456cc192027096069bb","2","1","2025-07-23T12:25:51.351Z","","","","","","","","","","","StressQ","","50","","","","","","","","","","","","","","","","","","","","","","","","","","","","",""
"3375","","<div style=""width:500px;"">
  <p>What best describes how you currently feel?</p>
  </div>","59","html-slider-response","53","567785","0.0-5.0-4.8","216","1","2025-07-23 12:16:26","1f75c3e559b7213887762d5229550c2b","178.43.44.15","Mozilla/5.0 (Windows NT 10.0; Win64; x64) AppleWebKit/537.36 (KHTML, like Gecko) Chrome/138.0.0.0 Safari/537.36","WebKit","Chrome","138.0.0.0","Windows","10.0","https://app.prolific.com/","pl-PL,pl;q=0.9,en-US;q=0.8,en;q=0.7","5dd25456cc192027096069bb","683db9eb0562dbf637994deb","6880d28d326b240bd2b0a99b","2","1","5dd25456cc192027096069bb","2","1","2025-07-23T12:25:54.726Z","","","","","","","","","","","MotivationQ","","50","","","","","","","","","","","","","","","","","","","","","","","","","","","","",""
"","","","","ctl-task-cpt","54","610206","0.0-5.0-0.9","216","1","2025-07-23 12:16:26","1f75c3e559b7213887762d5229550c2b","178.43.44.15","Mozilla/5.0 (Windows NT 10.0; Win64; x64) AppleWebKit/537.36 (KHTML, like Gecko) Chrome/138.0.0.0 Safari/537.36","WebKit","Chrome","138.0.0.0","Windows","10.0","https://app.prolific.com/","pl-PL,pl;q=0.9,en-US;q=0.8,en;q=0.7","5dd25456cc192027096069bb","683db9eb0562dbf637994deb","6880d28d326b240bd2b0a99b","2","1","5dd25456cc192027096069bb","2","1","2025-07-23T12:26:37.147Z","","","","","","","","","","","","","","win-only","3","g1:SW,g2:NE","0.4","10","0","568836.5","4166.8","9167.4","39401.3","1","4","4","6","1","-1","-1","0","0","0","999.9","3000","-3015","[""down"",""left""]","{""num_key_presses"":6,""num_perfect"":4,""num_errors"":0,""num_randdir"":2,""num_randdir_good_moves"":0,""num_whilered"":0,""num_whileblue"":0,""num_blue"":3,""num_good_moves"":3}","[413.57142857142856,419.47767857142856,0.2,413.57142857142856,419.47767857142856,103.9,413.57142857142856,419.47767857142856,204.7,413.57142857142856,419.47767857142856,309.8,413.57142857142856,419.47767857142856,415,385.57142857142856,461.47767857142856,519.9,200.57142857142856,628.4776785714286,623.8,135.57142857142856,696.4776785714286,724.9,85.57142857142857,751.4776785714286,829.1,73.57142857142857,768.4776785714286,934.9,73.57142857142857,769.4776785714286,1038.5,73.57142857142857,769.4776785714286,1139.4,73.57142857142857,769.4776785714286,1239.6,73.57142857142857,769.4776785714286,1339.9,73.57142857142857,769.4776785714286,1443.9,73.57142857142857,769.4776785714286,1543.9,73.57142857142857,769.4776785714286,1644.8,73.57142857142857,769.4776785714286,1746.2,73.57142857142857,769.4776785714286,1849.8,73.57142857142857,769.4776785714286,1954.9,73.57142857142857,769.4776785714286,2058.8,73.57142857142857,769.4776785714286,2158.8,73.57142857142857,769.4776785714286,2263.7,73.57142857142857,769.4776785714286,2368.6,73.57142857142857,769.4776785714286,2469.9,73.57142857142857,769.4776785714286,2574.3,73.57142857142857,769.4776785714286,2680.5,73.57142857142857,769.4776785714286,2783.5,73.57142857142857,769.4776785714286,2883.6,73.57142857142857,769.4776785714286,2984,73.57142857142857,769.4776785714286,3084,73.57142857142857,769.4776785714286,3188.5,73.57142857142857,769.4776785714286,3289.7,73.57142857142857,769.4776785714286,3394.8,73.57142857142857,769.4776785714286,3495.4,73.57142857142857,769.4776785714286,3598.9,73.57142857142857,769.4776785714286,3699.6,73.57142857142857,769.4776785714286,3805,73.57142857142857,769.4776785714286,3908.6,73.57142857142857,769.4776785714286,4009.8,73.57142857142857,769.4776785714286,4109.8,73.57142857142857,769.4776785714286,4209.9,73.57142857142857,769.4776785714286,4314.9,73.57142857142857,769.4776785714286,4418.7,73.57142857142857,769.4776785714286,4518.8,73.57142857142857,769.4776785714286,4624.6,73.57142857142857,769.4776785714286,4724.8,73.57142857142857,769.4776785714286,4828.6,73.57142857142857,769.4776785714286,4929.5]","[1454.6,1454.6,1000,0,454.6,""smooth"",""down"",""down"",""good_move"",11447,9992.1,2590.7,8451.8,404.5,""oops"",""left"",""right"",""bad_move"",14495.1,3047.8,2548.5,11447.3,499.3,""smooth"",""right"",""right"",""bad_move"",21134.6,6639.3,2935.3,17768.2,431.1,""oops"",""right"",""right"",""bad_move"",24870.8,3735.9,3236,21134.9,499.9,""smooth"",""down"",""down"",""good_move"",28270.5,3399.4,2823.1,24871.1,576.3,""smooth"",""left"",""left"",""good_move""]","",""
"3418","","<div style=""width:500px;"">
  <p>What determined the result of this run?</p>
  </div>","50","html-slider-response","55","613625","0.0-5.0-1.9","216","1","2025-07-23 12:16:26","1f75c3e559b7213887762d5229550c2b","178.43.44.15","Mozilla/5.0 (Windows NT 10.0; Win64; x64) AppleWebKit/537.36 (KHTML, like Gecko) Chrome/138.0.0.0 Safari/537.36","WebKit","Chrome","138.0.0.0","Windows","10.0","https://app.prolific.com/","pl-PL,pl;q=0.9,en-US;q=0.8,en;q=0.7","5dd25456cc192027096069bb","683db9eb0562dbf637994deb","6880d28d326b240bd2b0a99b","2","1","5dd25456cc192027096069bb","2","1","2025-07-23T12:26:40.566Z","","","","","","","","","","","AttribQ","","50","","","","","","","","","","","","","","","","","","","","","","","","","","","","",""
"3183","","<div style=""width:500px;"">
  <p>How much control did you have over the ball?</p>
  </div>","50","html-slider-response","56","616809","0.0-5.0-2.9","216","1","2025-07-23 12:16:26","1f75c3e559b7213887762d5229550c2b","178.43.44.15","Mozilla/5.0 (Windows NT 10.0; Win64; x64) AppleWebKit/537.36 (KHTML, like Gecko) Chrome/138.0.0.0 Safari/537.36","WebKit","Chrome","138.0.0.0","Windows","10.0","https://app.prolific.com/","pl-PL,pl;q=0.9,en-US;q=0.8,en;q=0.7","5dd25456cc192027096069bb","683db9eb0562dbf637994deb","6880d28d326b240bd2b0a99b","2","1","5dd25456cc192027096069bb","2","1","2025-07-23T12:26:43.750Z","","","","","","","","","","","ControlQ","","50","","","","","","","","","","","","","","","","","","","","","","","","","","","","",""
"2622","","<div style=""width:500px;"">
  <p>How would you describe your current emotional state?</p>
  </div>","55","html-slider-response","57","619433","0.0-5.0-3.9","216","1","2025-07-23 12:16:26","1f75c3e559b7213887762d5229550c2b","178.43.44.15","Mozilla/5.0 (Windows NT 10.0; Win64; x64) AppleWebKit/537.36 (KHTML, like Gecko) Chrome/138.0.0.0 Safari/537.36","WebKit","Chrome","138.0.0.0","Windows","10.0","https://app.prolific.com/","pl-PL,pl;q=0.9,en-US;q=0.8,en;q=0.7","5dd25456cc192027096069bb","683db9eb0562dbf637994deb","6880d28d326b240bd2b0a99b","2","1","5dd25456cc192027096069bb","2","1","2025-07-23T12:26:46.374Z","","","","","","","","","","","StressQ","","50","","","","","","","","","","","","","","","","","","","","","","","","","","","","",""
"2895","","<div style=""width:500px;"">
  <p>What best describes how you currently feel?</p>
  </div>","79","html-slider-response","58","622329","0.0-5.0-4.9","216","1","2025-07-23 12:16:26","1f75c3e559b7213887762d5229550c2b","178.43.44.15","Mozilla/5.0 (Windows NT 10.0; Win64; x64) AppleWebKit/537.36 (KHTML, like Gecko) Chrome/138.0.0.0 Safari/537.36","WebKit","Chrome","138.0.0.0","Windows","10.0","https://app.prolific.com/","pl-PL,pl;q=0.9,en-US;q=0.8,en;q=0.7","5dd25456cc192027096069bb","683db9eb0562dbf637994deb","6880d28d326b240bd2b0a99b","2","1","5dd25456cc192027096069bb","2","1","2025-07-23T12:26:49.270Z","","","","","","","","","","","MotivationQ","","50","","","","","","","","","","","","","","","","","","","","","","","","","","","","",""
"","","","","ctl-task-cpt","59","661767","0.0-5.0-0.10","216","1","2025-07-23 12:16:26","1f75c3e559b7213887762d5229550c2b","178.43.44.15","Mozilla/5.0 (Windows NT 10.0; Win64; x64) AppleWebKit/537.36 (KHTML, like Gecko) Chrome/138.0.0.0 Safari/537.36","WebKit","Chrome","138.0.0.0","Windows","10.0","https://app.prolific.com/","pl-PL,pl;q=0.9,en-US;q=0.8,en;q=0.7","5dd25456cc192027096069bb","683db9eb0562dbf637994deb","6880d28d326b240bd2b0a99b","2","1","5dd25456cc192027096069bb","2","1","2025-07-23T12:27:28.708Z","","","","","","","","","","","","","","win-only","3","g1:SW,g2:NE","0.5","11","0","623380.4","2104.1","7106.3","36415.9","1","4","4","6","2","-4","-5","0","0","0","991.8","3000","-3015","[""up"",""right""]","{""num_key_presses"":7,""num_perfect"":3,""num_errors"":1,""num_randdir"":3,""num_randdir_good_moves"":2,""num_whilered"":0,""num_whileblue"":1,""num_blue"":3,""num_good_moves"":6}","[418.57142857142856,410.47767857142856,0.3,418.57142857142856,410.47767857142856,102.2,418.57142857142856,410.47767857142856,203.1,418.57142857142856,410.47767857142856,308.2,418.57142857142856,410.47767857142856,408.3,418.57142857142856,409.47767857142856,512.3,621.5714285714286,181.47767857142856,616.3,671.5714285714286,120.47767857142857,716.5,719.5714285714286,84.47767857142857,820.5,758.5714285714286,56.47767857142857,923,758.5714285714286,56.47767857142857,1027,758.5714285714286,56.47767857142857,1135.1,758.5714285714286,56.47767857142857,1237.1,758.5714285714286,56.47767857142857,1337.3,758.5714285714286,56.47767857142857,1437.7,758.5714285714286,56.47767857142857,1542.1,758.5714285714286,56.47767857142857,1647.4,758.5714285714286,56.47767857142857,1752.3,758.5714285714286,56.47767857142857,1856.5,758.5714285714286,56.47767857142857,1956.6,758.5714285714286,56.47767857142857,2056.8,758.5714285714286,56.47767857142857,2156.8,758.5714285714286,56.47767857142857,2261.5,758.5714285714286,56.47767857142857,2362,758.5714285714286,56.47767857142857,2466.9,758.5714285714286,56.47767857142857,2571.4,758.5714285714286,56.47767857142857,2671.4,758.5714285714286,56.47767857142857,2771.6,758.5714285714286,56.47767857142857,2876.9,758.5714285714286,56.47767857142857,2982.7,758.5714285714286,56.47767857142857,3087.7,758.5714285714286,56.47767857142857,3187.8,758.5714285714286,56.47767857142857,3291.5,758.5714285714286,56.47767857142857,3398.4,758.5714285714286,56.47767857142857,3503.5,758.5714285714286,56.47767857142857,3606.5,758.5714285714286,56.47767857142857,3706.7,758.5714285714286,56.47767857142857,3807.2,758.5714285714286,56.47767857142857,3908.4,758.5714285714286,56.47767857142857,4014.3,758.5714285714286,56.47767857142857,4117,758.5714285714286,56.47767857142857,4218.3,758.5714285714286,56.47767857142857,4321.4,758.5714285714286,56.47767857142857,4427.4,758.5714285714286,56.47767857142857,4532.8,758.5714285714286,56.47767857142857,4638.2,758.5714285714286,56.47767857142857,4741.4,758.5714285714286,56.47767857142857,4842.5,758.5714285714286,56.47767857142857,4942.5]","[1515.9,1515.9,1000,0,515.9,""smooth"",""up"",""up"",""good_move"",5043.8,3527.5,2997.7,1516.3,529.8,""smooth"",""up"",""up"",""good_move"",7531.5,2487.6,1895.4,5044,592.2,""smooth"",""up"",""up"",""good_move"",10555.8,3024,2659.2,7531.8,364.8,""oops"",""right"",""right"",""good_move"",13324,2767.8,2414.3,10556.2,353.5,""oops"",""right"",""down"",""bad_move"",16235.8,2911.5,2556,13324.3,355.5,""while_blue"",""right"",""up"",""good_move"",22964.1,6727.9,2671.3,19915.8,377,""oops"",""right"",""right"",""good_move""]","",""
"2737","","<div style=""width:500px;"">
  <p>What determined the result of this run?</p>
  </div>","50","html-slider-response","60","664505","0.0-5.0-1.10","216","1","2025-07-23 12:16:26","1f75c3e559b7213887762d5229550c2b","178.43.44.15","Mozilla/5.0 (Windows NT 10.0; Win64; x64) AppleWebKit/537.36 (KHTML, like Gecko) Chrome/138.0.0.0 Safari/537.36","WebKit","Chrome","138.0.0.0","Windows","10.0","https://app.prolific.com/","pl-PL,pl;q=0.9,en-US;q=0.8,en;q=0.7","5dd25456cc192027096069bb","683db9eb0562dbf637994deb","6880d28d326b240bd2b0a99b","2","1","5dd25456cc192027096069bb","2","1","2025-07-23T12:27:31.446Z","","","","","","","","","","","AttribQ","","50","","","","","","","","","","","","","","","","","","","","","","","","","","","","",""
"1792","","<div style=""width:500px;"">
  <p>How much control did you have over the ball?</p>
  </div>","57","html-slider-response","61","666297","0.0-5.0-2.10","216","1","2025-07-23 12:16:26","1f75c3e559b7213887762d5229550c2b","178.43.44.15","Mozilla/5.0 (Windows NT 10.0; Win64; x64) AppleWebKit/537.36 (KHTML, like Gecko) Chrome/138.0.0.0 Safari/537.36","WebKit","Chrome","138.0.0.0","Windows","10.0","https://app.prolific.com/","pl-PL,pl;q=0.9,en-US;q=0.8,en;q=0.7","5dd25456cc192027096069bb","683db9eb0562dbf637994deb","6880d28d326b240bd2b0a99b","2","1","5dd25456cc192027096069bb","2","1","2025-07-23T12:27:33.238Z","","","","","","","","","","","ControlQ","","50","","","","","","","","","","","","","","","","","","","","","","","","","","","","",""
"2287","","<div style=""width:500px;"">
  <p>How would you describe your current emotional state?</p>
  </div>","67","html-slider-response","62","668585","0.0-5.0-3.10","216","1","2025-07-23 12:16:26","1f75c3e559b7213887762d5229550c2b","178.43.44.15","Mozilla/5.0 (Windows NT 10.0; Win64; x64) AppleWebKit/537.36 (KHTML, like Gecko) Chrome/138.0.0.0 Safari/537.36","WebKit","Chrome","138.0.0.0","Windows","10.0","https://app.prolific.com/","pl-PL,pl;q=0.9,en-US;q=0.8,en;q=0.7","5dd25456cc192027096069bb","683db9eb0562dbf637994deb","6880d28d326b240bd2b0a99b","2","1","5dd25456cc192027096069bb","2","1","2025-07-23T12:27:35.526Z","","","","","","","","","","","StressQ","","50","","","","","","","","","","","","","","","","","","","","","","","","","","","","",""
"1543","","<div style=""width:500px;"">
  <p>What best describes how you currently feel?</p>
  </div>","60","html-slider-response","63","670129","0.0-5.0-4.10","216","1","2025-07-23 12:16:26","1f75c3e559b7213887762d5229550c2b","178.43.44.15","Mozilla/5.0 (Windows NT 10.0; Win64; x64) AppleWebKit/537.36 (KHTML, like Gecko) Chrome/138.0.0.0 Safari/537.36","WebKit","Chrome","138.0.0.0","Windows","10.0","https://app.prolific.com/","pl-PL,pl;q=0.9,en-US;q=0.8,en;q=0.7","5dd25456cc192027096069bb","683db9eb0562dbf637994deb","6880d28d326b240bd2b0a99b","2","1","5dd25456cc192027096069bb","2","1","2025-07-23T12:27:37.070Z","","","","","","","","","","","MotivationQ","","50","","","","","","","","","","","","","","","","","","","","","","","","","","","","",""
"","","","","ctl-task-cpt","64","700672","0.0-5.0-0.11","216","1","2025-07-23 12:16:26","1f75c3e559b7213887762d5229550c2b","178.43.44.15","Mozilla/5.0 (Windows NT 10.0; Win64; x64) AppleWebKit/537.36 (KHTML, like Gecko) Chrome/138.0.0.0 Safari/537.36","WebKit","Chrome","138.0.0.0","Windows","10.0","https://app.prolific.com/","pl-PL,pl;q=0.9,en-US;q=0.8,en;q=0.7","5dd25456cc192027096069bb","683db9eb0562dbf637994deb","6880d28d326b240bd2b0a99b","2","1","5dd25456cc192027096069bb","2","1","2025-07-23T12:28:07.613Z","","","","","","","","","","","","","","win-only","1","g1:NE,g2:SW","0.6","12","0","671180.3","2751.6","7756.3","27525.4","1","4","8","6","2","-8","-8","0","0","0","1183.5","3000","-3015","[""down"",""left""]","{""num_key_presses"":5,""num_perfect"":2,""num_errors"":0,""num_randdir"":3,""num_randdir_good_moves"":2,""num_whilered"":0,""num_whileblue"":0,""num_blue"":1,""num_good_moves"":3}","[415.57142857142856,415.47767857142856,0.3,415.57142857142856,415.47767857142856,108.9,415.57142857142856,415.47767857142856,214.7,415.57142857142856,415.47767857142856,320.5,415.57142857142856,415.47767857142856,423.5,415.57142857142856,415.47767857142856,524.4,364.57142857142856,449.47767857142856,629.7,112.57142857142857,600.4776785714286,734.4,54.57142857142857,667.4776785714286,834.4,43.57142857142857,715.4776785714286,935.4,49.57142857142857,733.4776785714286,1039.2,51.57142857142857,734.4776785714286,1139.5,51.57142857142857,734.4776785714286,1243.6,51.57142857142857,734.4776785714286,1344.5,51.57142857142857,734.4776785714286,1449.7,51.57142857142857,734.4776785714286,1553.6,51.57142857142857,734.4776785714286,1654.3,51.57142857142857,734.4776785714286,1754.7,51.57142857142857,734.4776785714286,1858.6,51.57142857142857,734.4776785714286,1959.3,51.57142857142857,734.4776785714286,2060,51.57142857142857,734.4776785714286,2165,51.57142857142857,734.4776785714286,2268.9,51.57142857142857,734.4776785714286,2369,51.57142857142857,734.4776785714286,2469.7,51.57142857142857,734.4776785714286,2569.7,51.57142857142857,734.4776785714286,2673.5,51.57142857142857,734.4776785714286,2773.6,51.57142857142857,734.4776785714286,2874.5,51.57142857142857,734.4776785714286,2974.6,51.57142857142857,734.4776785714286,3079.6,51.57142857142857,734.4776785714286,3184.7,51.57142857142857,734.4776785714286,3289.5,51.57142857142857,734.4776785714286,3393.6,51.57142857142857,734.4776785714286,3499.9,51.57142857142857,734.4776785714286,3599.9,51.57142857142857,734.4776785714286,3703.8,51.57142857142857,734.4776785714286,3809.5,51.57142857142857,734.4776785714286,3916.4,51.57142857142857,734.4776785714286,4019.9,51.57142857142857,734.4776785714286,4120,51.57142857142857,734.4776785714286,4224.9,51.57142857142857,734.4776785714286,4328.6,51.57142857142857,734.4776785714286,4429.3,51.57142857142857,734.4776785714286,4534.1,51.57142857142857,734.4776785714286,4638.6,51.57142857142857,734.4776785714286,4743.9,51.57142857142857,734.4776785714286,4849.1,51.57142857142857,734.4776785714286,4949.2]","[1417.8,1417.8,1000,0,417.8,""oops"",""left"",""left"",""good_move"",7673.9,6255.7,1954.1,5290.5,429.3,""oops"",""down"",""left"",""good_move"",11226,3551.9,2993.5,7674.2,558.4,""oops"",""down"",""up"",""bad_move"",14026.1,2799.7,1585.1,11226.4,1214.6,""smooth"",""left"",""left"",""good_move"",16929.7,2903.1,2520.8,14026.6,382.3,""smooth"",""up"",""up"",""bad_move""]","",""
"2936","","<div style=""width:500px;"">
  <p>What determined the result of this run?</p>
  </div>","48","html-slider-response","65","703609","0.0-5.0-1.11","216","1","2025-07-23 12:16:26","1f75c3e559b7213887762d5229550c2b","178.43.44.15","Mozilla/5.0 (Windows NT 10.0; Win64; x64) AppleWebKit/537.36 (KHTML, like Gecko) Chrome/138.0.0.0 Safari/537.36","WebKit","Chrome","138.0.0.0","Windows","10.0","https://app.prolific.com/","pl-PL,pl;q=0.9,en-US;q=0.8,en;q=0.7","5dd25456cc192027096069bb","683db9eb0562dbf637994deb","6880d28d326b240bd2b0a99b","2","1","5dd25456cc192027096069bb","2","1","2025-07-23T12:28:10.550Z","","","","","","","","","","","AttribQ","","50","","","","","","","","","","","","","","","","","","","","","","","","","","","","",""
"2055","","<div style=""width:500px;"">
  <p>How much control did you have over the ball?</p>
  </div>","50","html-slider-response","66","705665","0.0-5.0-2.11","216","1","2025-07-23 12:16:26","1f75c3e559b7213887762d5229550c2b","178.43.44.15","Mozilla/5.0 (Windows NT 10.0; Win64; x64) AppleWebKit/537.36 (KHTML, like Gecko) Chrome/138.0.0.0 Safari/537.36","WebKit","Chrome","138.0.0.0","Windows","10.0","https://app.prolific.com/","pl-PL,pl;q=0.9,en-US;q=0.8,en;q=0.7","5dd25456cc192027096069bb","683db9eb0562dbf637994deb","6880d28d326b240bd2b0a99b","2","1","5dd25456cc192027096069bb","2","1","2025-07-23T12:28:12.606Z","","","","","","","","","","","ControlQ","","50","","","","","","","","","","","","","","","","","","","","","","","","","","","","",""
"1479","","<div style=""width:500px;"">
  <p>How would you describe your current emotional state?</p>
  </div>","61","html-slider-response","67","707145","0.0-5.0-3.11","216","1","2025-07-23 12:16:26","1f75c3e559b7213887762d5229550c2b","178.43.44.15","Mozilla/5.0 (Windows NT 10.0; Win64; x64) AppleWebKit/537.36 (KHTML, like Gecko) Chrome/138.0.0.0 Safari/537.36","WebKit","Chrome","138.0.0.0","Windows","10.0","https://app.prolific.com/","pl-PL,pl;q=0.9,en-US;q=0.8,en;q=0.7","5dd25456cc192027096069bb","683db9eb0562dbf637994deb","6880d28d326b240bd2b0a99b","2","1","5dd25456cc192027096069bb","2","1","2025-07-23T12:28:14.086Z","","","","","","","","","","","StressQ","","50","","","","","","","","","","","","","","","","","","","","","","","","","","","","",""
"2607","","<div style=""width:500px;"">
  <p>What best describes how you currently feel?</p>
  </div>","69","html-slider-response","68","709753","0.0-5.0-4.11","216","1","2025-07-23 12:16:26","1f75c3e559b7213887762d5229550c2b","178.43.44.15","Mozilla/5.0 (Windows NT 10.0; Win64; x64) AppleWebKit/537.36 (KHTML, like Gecko) Chrome/138.0.0.0 Safari/537.36","WebKit","Chrome","138.0.0.0","Windows","10.0","https://app.prolific.com/","pl-PL,pl;q=0.9,en-US;q=0.8,en;q=0.7","5dd25456cc192027096069bb","683db9eb0562dbf637994deb","6880d28d326b240bd2b0a99b","2","1","5dd25456cc192027096069bb","2","1","2025-07-23T12:28:16.694Z","","","","","","","","","","","MotivationQ","","50","","","","","","","","","","","","","","","","","","","","","","","","","","","","",""
"","","","","ctl-task-cpt","69","744604","0.0-5.0-0.12","216","1","2025-07-23 12:16:26","1f75c3e559b7213887762d5229550c2b","178.43.44.15","Mozilla/5.0 (Windows NT 10.0; Win64; x64) AppleWebKit/537.36 (KHTML, like Gecko) Chrome/138.0.0.0 Safari/537.36","WebKit","Chrome","138.0.0.0","Windows","10.0","https://app.prolific.com/","pl-PL,pl;q=0.9,en-US;q=0.8,en;q=0.7","5dd25456cc192027096069bb","683db9eb0562dbf637994deb","6880d28d326b240bd2b0a99b","2","1","5dd25456cc192027096069bb","2","1","2025-07-23T12:28:51.545Z","","","","","","","","","","","","","","win-only","2","g1:SE,g2:NW","0.7","13","0","710804.5","1831.2","6836.6","31831.2","1","4","4","6","1","-1","-1","0","0","0","1479.9","3000","-3005","[""down"",""right""]","{""num_key_presses"":6,""num_perfect"":4,""num_errors"":0,""num_randdir"":2,""num_randdir_good_moves"":1,""num_whilered"":0,""num_whileblue"":0,""num_blue"":2,""num_good_moves"":4}","[416.57142857142856,418.47767857142856,0.3,416.57142857142856,418.47767857142856,100.2,416.57142857142856,418.47767857142856,204.4,416.57142857142856,418.47767857142856,304.8,416.57142857142856,418.47767857142856,404.8,416.57142857142856,418.47767857142856,509.4,416.57142857142856,418.47767857142856,609.9,416.57142857142856,418.47767857142856,710.1,416.57142857142856,418.47767857142856,810.1,560.5714285714286,556.4776785714286,914.4,631.5714285714286,623.4776785714286,1015.5,724.5714285714286,671.4776785714286,1119.7,736.5714285714286,695.4776785714286,1224.6,745.5714285714286,710.4776785714286,1329.1,750.5714285714286,741.4776785714286,1429.9,751.5714285714286,743.4776785714286,1531.4,751.5714285714286,743.4776785714286,1635,751.5714285714286,743.4776785714286,1735.7,751.5714285714286,743.4776785714286,1839.7,751.5714285714286,743.4776785714286,1939.7,751.5714285714286,743.4776785714286,2045.1,751.5714285714286,743.4776785714286,2149.2,751.5714285714286,743.4776785714286,2254.1,750.5714285714286,740.4776785714286,2355,678.5714285714286,615.4776785714286,2459.8,670.5714285714286,593.4776785714286,2564.2,670.5714285714286,593.4776785714286,2669.8,670.5714285714286,593.4776785714286,2774.2,670.5714285714286,593.4776785714286,2874.7,670.5714285714286,593.4776785714286,2974.9,670.5714285714286,593.4776785714286,3080.4,670.5714285714286,593.4776785714286,3185.1,670.5714285714286,593.4776785714286,3289.6,670.5714285714286,593.4776785714286,3389.6,670.5714285714286,593.4776785714286,3495.6,670.5714285714286,593.4776785714286,3602.1,670.5714285714286,593.4776785714286,3705.3,670.5714285714286,593.4776785714286,3810.3,670.5714285714286,593.4776785714286,3914.5,670.5714285714286,593.4776785714286,4019.9,670.5714285714286,593.4776785714286,4122,670.5714285714286,593.4776785714286,4224.3,670.5714285714286,593.4776785714286,4325.4,670.5714285714286,593.4776785714286,4429.6,670.5714285714286,593.4776785714286,4534.4,670.5714285714286,593.4776785714286,4635.1,670.5714285714286,593.4776785714286,4735.1,670.5714285714286,593.4776785714286,4839,670.5714285714286,593.4776785714286,4940.1]","[4689.6,4689.6,2224.3,2010.7,454.6,""oops"",""down"",""up"",""bad_move"",7297.5,2607.5,2045.8,4690,561.7,""smooth"",""up"",""up"",""bad_move"",10593.3,3295.5,2888.1,7297.8,407.4,""smooth"",""right"",""right"",""good_move"",12817.5,2223.8,1717.9,10593.7,505.9,""smooth"",""down"",""down"",""good_move"",16089.3,3271.4,2805.2,12817.9,466.2,""oops"",""down"",""right"",""good_move"",22465.6,6376,2751.6,19303.7,410.3,""smooth"",""right"",""down"",""good_move""]","",""
"3364","","<div style=""width:500px;"">
  <p>What determined the result of this run?</p>
  </div>","50","html-slider-response","70","747969","0.0-5.0-1.12","216","1","2025-07-23 12:16:26","1f75c3e559b7213887762d5229550c2b","178.43.44.15","Mozilla/5.0 (Windows NT 10.0; Win64; x64) AppleWebKit/537.36 (KHTML, like Gecko) Chrome/138.0.0.0 Safari/537.36","WebKit","Chrome","138.0.0.0","Windows","10.0","https://app.prolific.com/","pl-PL,pl;q=0.9,en-US;q=0.8,en;q=0.7","5dd25456cc192027096069bb","683db9eb0562dbf637994deb","6880d28d326b240bd2b0a99b","2","1","5dd25456cc192027096069bb","2","1","2025-07-23T12:28:54.910Z","","","","","","","","","","","AttribQ","","50","","","","","","","","","","","","","","","","","","","","","","","","","","","","",""
"1783","","<div style=""width:500px;"">
  <p>How much control did you have over the ball?</p>
  </div>","56","html-slider-response","71","749753","0.0-5.0-2.12","216","1","2025-07-23 12:16:26","1f75c3e559b7213887762d5229550c2b","178.43.44.15","Mozilla/5.0 (Windows NT 10.0; Win64; x64) AppleWebKit/537.36 (KHTML, like Gecko) Chrome/138.0.0.0 Safari/537.36","WebKit","Chrome","138.0.0.0","Windows","10.0","https://app.prolific.com/","pl-PL,pl;q=0.9,en-US;q=0.8,en;q=0.7","5dd25456cc192027096069bb","683db9eb0562dbf637994deb","6880d28d326b240bd2b0a99b","2","1","5dd25456cc192027096069bb","2","1","2025-07-23T12:28:56.694Z","","","","","","","","","","","ControlQ","","50","","","","","","","","","","","","","","","","","","","","","","","","","","","","",""
"1871","","<div style=""width:500px;"">
  <p>How would you describe your current emotional state?</p>
  </div>","75","html-slider-response","72","751625","0.0-5.0-3.12","216","1","2025-07-23 12:16:26","1f75c3e559b7213887762d5229550c2b","178.43.44.15","Mozilla/5.0 (Windows NT 10.0; Win64; x64) AppleWebKit/537.36 (KHTML, like Gecko) Chrome/138.0.0.0 Safari/537.36","WebKit","Chrome","138.0.0.0","Windows","10.0","https://app.prolific.com/","pl-PL,pl;q=0.9,en-US;q=0.8,en;q=0.7","5dd25456cc192027096069bb","683db9eb0562dbf637994deb","6880d28d326b240bd2b0a99b","2","1","5dd25456cc192027096069bb","2","1","2025-07-23T12:28:58.566Z","","","","","","","","","","","StressQ","","50","","","","","","","","","","","","","","","","","","","","","","","","","","","","",""
"1832","","<div style=""width:500px;"">
  <p>What best describes how you currently feel?</p>
  </div>","59","html-slider-response","73","753457","0.0-5.0-4.12","216","1","2025-07-23 12:16:26","1f75c3e559b7213887762d5229550c2b","178.43.44.15","Mozilla/5.0 (Windows NT 10.0; Win64; x64) AppleWebKit/537.36 (KHTML, like Gecko) Chrome/138.0.0.0 Safari/537.36","WebKit","Chrome","138.0.0.0","Windows","10.0","https://app.prolific.com/","pl-PL,pl;q=0.9,en-US;q=0.8,en;q=0.7","5dd25456cc192027096069bb","683db9eb0562dbf637994deb","6880d28d326b240bd2b0a99b","2","1","5dd25456cc192027096069bb","2","1","2025-07-23T12:29:00.398Z","","","","","","","","","","","MotivationQ","","50","","","","","","","","","","","","","","","","","","","","","","","","","","","","",""
"","","","","ctl-task-cpt","74","774353","0.0-5.0-0.13","216","1","2025-07-23 12:16:26","1f75c3e559b7213887762d5229550c2b","178.43.44.15","Mozilla/5.0 (Windows NT 10.0; Win64; x64) AppleWebKit/537.36 (KHTML, like Gecko) Chrome/138.0.0.0 Safari/537.36","WebKit","Chrome","138.0.0.0","Windows","10.0","https://app.prolific.com/","pl-PL,pl;q=0.9,en-US;q=0.8,en;q=0.7","5dd25456cc192027096069bb","683db9eb0562dbf637994deb","6880d28d326b240bd2b0a99b","2","1","5dd25456cc192027096069bb","2","1","2025-07-23T12:29:21.294Z","","","","","","","","","","","","","","win-only","1","g1:NE,g2:SW","0.8","14","0","754508.6","1422.1","6426.5","17876","1","4","8","6","1","1","1","1","0","0.007575757575757576","1608.5","3000","1110","[""up"",""right""]","{""num_key_presses"":4,""num_perfect"":4,""num_errors"":0,""num_randdir"":0,""num_randdir_good_moves"":0,""num_whilered"":0,""num_whileblue"":0,""num_blue"":0,""num_good_moves"":4}","[411.57142857142856,424.47767857142856,0.5,411.57142857142856,424.47767857142856,104.6,411.57142857142856,424.47767857142856,204.6,411.57142857142856,424.47767857142856,308.9,411.57142857142856,424.47767857142856,415.5,411.57142857142856,424.47767857142856,520.4,411.57142857142856,424.47767857142856,624.1,411.57142857142856,424.47767857142856,724.3,411.57142857142856,424.47767857142856,824.3,411.57142857142856,424.47767857142856,929.4,411.57142857142856,424.47767857142856,1029.4,468.57142857142856,297.47767857142856,1138.2,712.5714285714286,73.47767857142857,1238.8,724.5714285714286,68.47767857142857,1343.6,760.5714285714286,55.47767857142857,1448.7,760.5714285714286,55.47767857142857,1548.9,760.5714285714286,55.47767857142857,1655.4,760.5714285714286,55.47767857142857,1756.2,741.5714285714286,108.47767857142857,1859.7,704.5714285714286,186.47767857142856,1963.8,696.5714285714286,196.47767857142856,2064.5,694.5714285714286,198.47767857142856,2171,694.5714285714286,198.47767857142856,2274.5,694.5714285714286,198.47767857142856,2374.7,694.5714285714286,198.47767857142856,2479.5,694.5714285714286,198.47767857142856,2579.6,668.5714285714286,205.47767857142856,2683.2,657.5714285714286,210.47767857142856,2783.5,656.5714285714286,210.47767857142856,2884.4,656.5714285714286,210.47767857142856,2988.6,656.5714285714286,210.47767857142856,3089.3,656.5714285714286,210.47767857142856,3194.2,656.5714285714286,210.47767857142856,3298.9,656.5714285714286,210.47767857142856,3399.4,656.5714285714286,210.47767857142856,3500.2,656.5714285714286,210.47767857142856,3606.7,656.5714285714286,210.47767857142856,3709.1,656.5714285714286,210.47767857142856,3809.4,656.5714285714286,210.47767857142856,3914.4,656.5714285714286,210.47767857142856,4014.4,656.5714285714286,210.47767857142856,4119.6,656.5714285714286,210.47767857142856,4220.9,656.5714285714286,210.47767857142856,4323.5,656.5714285714286,210.47767857142856,4424.4,656.5714285714286,210.47767857142856,4528.7,656.5714285714286,210.47767857142856,4629.4,656.5714285714286,210.47767857142856,4733.2,656.5714285714286,210.47767857142856,4833.3,656.5714285714286,210.47767857142856,4933.5]","[1427.5,1427.5,1000,0,427.5,""smooth"",""up"",""up"",""good_move"",4739.5,3311.6,2692.5,1427.9,619.1,""smooth"",""up"",""up"",""good_move"",7715.7,2975.9,2524.5,4739.8,451.4,""smooth"",""right"",""right"",""good_move"",11355.4,3639.3,3219,7716.1,420.3,""smooth"",""right"",""right"",""good_move""]","",""
"6080","","<div style=""width:500px;"">
  <p>What determined the result of this run?</p>
  </div>","55","html-slider-response","75","780434","0.0-5.0-1.13","216","1","2025-07-23 12:16:26","1f75c3e559b7213887762d5229550c2b","178.43.44.15","Mozilla/5.0 (Windows NT 10.0; Win64; x64) AppleWebKit/537.36 (KHTML, like Gecko) Chrome/138.0.0.0 Safari/537.36","WebKit","Chrome","138.0.0.0","Windows","10.0","https://app.prolific.com/","pl-PL,pl;q=0.9,en-US;q=0.8,en;q=0.7","5dd25456cc192027096069bb","683db9eb0562dbf637994deb","6880d28d326b240bd2b0a99b","2","1","5dd25456cc192027096069bb","2","1","2025-07-23T12:29:27.375Z","","","","","","","","","","","AttribQ","","50","","","","","","","","","","","","","","","","","","","","","","","","","","","","",""
"2182","","<div style=""width:500px;"">
  <p>How much control did you have over the ball?</p>
  </div>","58","html-slider-response","76","782617","0.0-5.0-2.13","216","1","2025-07-23 12:16:26","1f75c3e559b7213887762d5229550c2b","178.43.44.15","Mozilla/5.0 (Windows NT 10.0; Win64; x64) AppleWebKit/537.36 (KHTML, like Gecko) Chrome/138.0.0.0 Safari/537.36","WebKit","Chrome","138.0.0.0","Windows","10.0","https://app.prolific.com/","pl-PL,pl;q=0.9,en-US;q=0.8,en;q=0.7","5dd25456cc192027096069bb","683db9eb0562dbf637994deb","6880d28d326b240bd2b0a99b","2","1","5dd25456cc192027096069bb","2","1","2025-07-23T12:29:29.558Z","","","","","","","","","","","ControlQ","","50","","","","","","","","","","","","","","","","","","","","","","","","","","","","",""
"2007","","<div style=""width:500px;"">
  <p>How would you describe your current emotional state?</p>
  </div>","30","html-slider-response","77","784625","0.0-5.0-3.13","216","1","2025-07-23 12:16:26","1f75c3e559b7213887762d5229550c2b","178.43.44.15","Mozilla/5.0 (Windows NT 10.0; Win64; x64) AppleWebKit/537.36 (KHTML, like Gecko) Chrome/138.0.0.0 Safari/537.36","WebKit","Chrome","138.0.0.0","Windows","10.0","https://app.prolific.com/","pl-PL,pl;q=0.9,en-US;q=0.8,en;q=0.7","5dd25456cc192027096069bb","683db9eb0562dbf637994deb","6880d28d326b240bd2b0a99b","2","1","5dd25456cc192027096069bb","2","1","2025-07-23T12:29:31.566Z","","","","","","","","","","","StressQ","","50","","","","","","","","","","","","","","","","","","","","","","","","","","","","",""
"2991","","<div style=""width:500px;"">
