"rt","response_timestamp","stimulus","response","trial_type","trial_index","time_elapsed","internal_node_id","run_id","condition","recorded_at","source_code_version","ip","user_agent","device","browser","browser_version","platform","platform_version","referer","accept_language","PROLIFIC_PID","STUDY_ID","SESSION_ID","WEEK","BATCH","prolific_id","week","batch","realtime","success","responses","item_order","radio_event_ids","radio_event_times","key_event_times","mouse_event_times","straightlining","zigzagging","honeypot","eventType","view_history","slider_start","which_type","canvas_config","goals_layout","control_level","trial_number","tutorial_trial_number","trial_start_time","phase1_start_time","phase2_start_time","phase3_start_time","goal_1_value","goal_1_distance","goal_2_value","goal_2_distance","goal_selected","outcome","outcome_total","participant_final_score","participant_initial_score","participant_final_score_prop","goal_choice_rt","allocated_time","allocated_time_remaining","goal_direction","counts","mouse_movements","key_presses","question_order","question_id"
"14803","1753283122793","<p style='font-size:40px;line-height:1.25'><strong>Welcome to the experiment!</strong></p><p style='font-size:1.1em;line-height:1.25'>Thank you for participanting in our experiment again! You will be asked to play the Dysfunctional Ball Game again. We will briefly recap the rules before we start.</p><p style='font-size:1.1em;line-height:1.25'>Press <strong>Next</strong> to continue.</p>","0","custom-html-button-response","0","14808","0.0-0.0","225","1","2025-07-23 15:05:04","1f75c3e559b7213887762d5229550c2b","41.114.36.76","Mozilla/5.0 (Windows NT 10.0; Win64; x64) AppleWebKit/537.36 (KHTML, like Gecko) Chrome/138.0.0.0 Safari/537.36","WebKit","Chrome","138.0.0.0","Windows","10.0","https://app.prolific.com/","en-US,en;q=0.9","6612e7f231d13a67b8e758cc","683db9eb0562dbf637994deb","6880f9e7a986a7cc66b76696","2","1","6612e7f231d13a67b8e758cc","2","1","2025-07-23T15:05:22.799Z","","","","","","","","","","","","","","","","","","","","","","","","","","","","","","","","","","","","","","","","","",""
"17997","","","","fullscreen","1","33820","0.0-1.0","225","1","2025-07-23 15:05:04","1f75c3e559b7213887762d5229550c2b","41.114.36.76","Mozilla/5.0 (Windows NT 10.0; Win64; x64) AppleWebKit/537.36 (KHTML, like Gecko) Chrome/138.0.0.0 Safari/537.36","WebKit","Chrome","138.0.0.0","Windows","10.0","https://app.prolific.com/","en-US,en;q=0.9","6612e7f231d13a67b8e758cc","683db9eb0562dbf637994deb","6880f9e7a986a7cc66b76696","2","1","6612e7f231d13a67b8e758cc","2","1","","true","","","","","","","","","","","","","","","","","","","","","","","","","","","","","","","","","","","","","","","","",""
"9031","1753283150844","<p style='font-size:1.1em;line-height:1.25'>In the following, we will ask you a few questions relating to your feelings in the last 24 hours.<br></p><p style='font-size:1.1em;line-height:1.25'>Press the <strong>Next</strong> button to continue.</p>","0","custom-html-button-response","2","42855","0.0-2.0-0.0","225","1","2025-07-23 15:05:04","1f75c3e559b7213887762d5229550c2b","41.114.36.76","Mozilla/5.0 (Windows NT 10.0; Win64; x64) AppleWebKit/537.36 (KHTML, like Gecko) Chrome/138.0.0.0 Safari/537.36","WebKit","Chrome","138.0.0.0","Windows","10.0","https://app.prolific.com/","en-US,en;q=0.9","6612e7f231d13a67b8e758cc","683db9eb0562dbf637994deb","6880f9e7a986a7cc66b76696","2","1","6612e7f231d13a67b8e758cc","2","1","2025-07-23T15:05:50.845Z","","","","","","","","","","","","","","","","","","","","","","","","","","","","","","","","","","","","","","","","","",""
"147950.70000004768","","","","survey-template","3","190813","0.0-2.0-1.0","225","1","2025-07-23 15:05:04","1f75c3e559b7213887762d5229550c2b","41.114.36.76","Mozilla/5.0 (Windows NT 10.0; Win64; x64) AppleWebKit/537.36 (KHTML, like Gecko) Chrome/138.0.0.0 Safari/537.36","WebKit","Chrome","138.0.0.0","Windows","10.0","https://app.prolific.com/","en-US,en;q=0.9","6612e7f231d13a67b8e758cc","683db9eb0562dbf637994deb","6880f9e7a986a7cc66b76696","2","1","6612e7f231d13a67b8e758cc","2","1","2025-07-23T15:08:18.802Z","","{""Q01"":""3"",""Q02"":""2"",""Q03"":""3"",""Q04"":""4"",""Q05"":""4"",""Q06"":""4"",""Q07"":""4"",""Q08"":""5"",""Q09"":""4"",""Q10"":""2"",""Q11"":""3"",""Q12"":""1"",""Q13"":""5"",""Q14"":""1"",""Q15"":""3"",""Q16"":""1"",""Q17"":""4"",""Q18"":""5"",""Q19"":""4"",""Q20"":""4"",""Q21"":""4"",""Q22"":""4""}","[0,1,2,3,4,5,6,7,8,9,10,11,12,13,14,15,16,17,18,19,20,21]","[""Q01"",""Q02"",""Q02"",""Q03"",""Q04"",""Q05"",""Q06"",""Q07"",""Q08"",""Q09"",""Q10"",""Q11"",""Q12"",""Q13"",""Q14"",""Q16"",""Q15"",""Q17"",""Q18"",""Q19"",""Q20"",""Q21"",""Q22""]","[12530.5,15948,18113.400000095367,23262.900000095367,57028.700000047684,60363.90000009537,62996,65416.90000009537,69213.90000009537,74328.5,84079.40000009537,86747,91431.10000002384,94677.5,102437.20000004768,109730.20000004768,114701.40000009537,119029,122028.80000007153,130047.10000002384,135530,141546.60000002384,146546.5]","[]","[0.10000002384185791,12530.5,15948,18113.400000095367,23262.900000095367,57028.700000047684,60363.90000009537,62996,65416.90000009537,69213.90000009537,74328.5,84079.40000009537,86747,91431.10000002384,94677.5,102437.20000004768,109730.20000004768,114701.40000009537,119029,122028.80000007153,130047.10000002384,135530,141546.60000002384,146546.5,147944.80000007153]","0.45454545454545453","0.38095238095238093","0","drsp","","","","","","","","","","","","","","","","","","","","","","","","","","","","","","",""
"14208.200000047684","","","","survey-template","4","205024","0.0-2.0-2.0","225","1","2025-07-23 15:05:04","1f75c3e559b7213887762d5229550c2b","41.114.36.76","Mozilla/5.0 (Windows NT 10.0; Win64; x64) AppleWebKit/537.36 (KHTML, like Gecko) Chrome/138.0.0.0 Safari/537.36","WebKit","Chrome","138.0.0.0","Windows","10.0","https://app.prolific.com/","en-US,en;q=0.9","6612e7f231d13a67b8e758cc","683db9eb0562dbf637994deb","6880f9e7a986a7cc66b76696","2","1","6612e7f231d13a67b8e758cc","2","1","2025-07-23T15:08:33.013Z","","{""Q01"":""4"",""Q02"":""0"",""Q03"":""5""}","[0,1,2]","[""Q01"",""Q02"",""Q03""]","[6272.5,8823.700000047684,12737.600000023842]","[]","[6272.5,8823.700000047684,12737.600000023842,14207.399999976158]","0.6666666666666666","0.5","0","stress","","","","","","","","","","","","","","","","","","","","","","","","","","","","","","",""
"20931","","","","instructions","5","225956","0.0-3.0-0.0","225","1","2025-07-23 15:05:04","1f75c3e559b7213887762d5229550c2b","41.114.36.76","Mozilla/5.0 (Windows NT 10.0; Win64; x64) AppleWebKit/537.36 (KHTML, like Gecko) Chrome/138.0.0.0 Safari/537.36","WebKit","Chrome","138.0.0.0","Windows","10.0","https://app.prolific.com/","en-US,en;q=0.9","6612e7f231d13a67b8e758cc","683db9eb0562dbf637994deb","6880f9e7a986a7cc66b76696","2","1","6612e7f231d13a67b8e758cc","2","1","","","","","","","","","","","","","[{""page_index"":0,""viewing_time"":20930}]","","","","","","","","","","","","","","","","","","","","","","","","","","","","","",""
"17899","","<p>Before you start with this game please answer the following three questions yourself. </p>
  <p>Through this game, we measure several aspects of your cognitive performance, such as reaction times, multi-tasking capabilities </p>
  <p>and the ability to assess the situation you are in.</p>
  <p></p>
  <p><b>How good do you usually are in such tasks?</b></p>","100","html-slider-response","6","243858","0.0-4.0-0.0","225","1","2025-07-23 15:05:04","1f75c3e559b7213887762d5229550c2b","41.114.36.76","Mozilla/5.0 (Windows NT 10.0; Win64; x64) AppleWebKit/537.36 (KHTML, like Gecko) Chrome/138.0.0.0 Safari/537.36","WebKit","Chrome","138.0.0.0","Windows","10.0","https://app.prolific.com/","en-US,en;q=0.9","6612e7f231d13a67b8e758cc","683db9eb0562dbf637994deb","6880f9e7a986a7cc66b76696","2","1","6612e7f231d13a67b8e758cc","2","1","2025-07-23T15:09:11.848Z","","","","","","","","","","","PreSkillQ","","50","","","","","","","","","","","","","","","","","","","","","","","","","","","","",""
"7746","","<div style=""width:500px;"">
  <p>How well do you think you will perform in this task compared to other participants?</p>
  </div>","91","html-slider-response","7","251606","0.0-4.0-1.0","225","1","2025-07-23 15:05:04","1f75c3e559b7213887762d5229550c2b","41.114.36.76","Mozilla/5.0 (Windows NT 10.0; Win64; x64) AppleWebKit/537.36 (KHTML, like Gecko) Chrome/138.0.0.0 Safari/537.36","WebKit","Chrome","138.0.0.0","Windows","10.0","https://app.prolific.com/","en-US,en;q=0.9","6612e7f231d13a67b8e758cc","683db9eb0562dbf637994deb","6880f9e7a986a7cc66b76696","2","1","6612e7f231d13a67b8e758cc","2","1","2025-07-23T15:09:19.595Z","","","","","","","","","","","PrePerfQ","","50","","","","","","","","","","","","","","","","","","","","","","","","","","","","",""
"6096","","<div style=""width:500px;"">
  <p>What best describes how you currently feel?</p>
  </div>","63","html-slider-response","8","257704","0.0-4.0-2.0","225","1","2025-07-23 15:05:04","1f75c3e559b7213887762d5229550c2b","41.114.36.76","Mozilla/5.0 (Windows NT 10.0; Win64; x64) AppleWebKit/537.36 (KHTML, like Gecko) Chrome/138.0.0.0 Safari/537.36","WebKit","Chrome","138.0.0.0","Windows","10.0","https://app.prolific.com/","en-US,en;q=0.9","6612e7f231d13a67b8e758cc","683db9eb0562dbf637994deb","6880f9e7a986a7cc66b76696","2","1","6612e7f231d13a67b8e758cc","2","1","2025-07-23T15:09:25.693Z","","","","","","","","","","","PreMotivationQ","","50","","","","","","","","","","","","","","","","","","","","","","","","","","","","",""
"","","","","ctl-task-cpt","9","292437","0.0-5.0-0.0","225","1","2025-07-23 15:05:04","1f75c3e559b7213887762d5229550c2b","41.114.36.76","Mozilla/5.0 (Windows NT 10.0; Win64; x64) AppleWebKit/537.36 (KHTML, like Gecko) Chrome/138.0.0.0 Safari/537.36","WebKit","Chrome","138.0.0.0","Windows","10.0","https://app.prolific.com/","en-US,en;q=0.9","6612e7f231d13a67b8e758cc","683db9eb0562dbf637994deb","6880f9e7a986a7cc66b76696","2","1","6612e7f231d13a67b8e758cc","2","1","2025-07-23T15:10:00.426Z","","","","","","","","","","","","","","win-only","3","g1:SW,g2:NE","1","1","0","283656","2532.6","7536.5","31722.6","1","4","4","6","2","4","4","4","0","0.030303030303030304","1584.1","3000","225","[""up"",""right""]","{""num_key_presses"":6,""num_perfect"":6,""num_errors"":0,""num_randdir"":0,""num_randdir_good_moves"":0,""num_whilered"":0,""num_whileblue"":0,""num_blue"":2,""num_good_moves"":6}","[297.22232142857143,300.12857142857143,1.5,297.22232142857143,300.12857142857143,104.8,297.22232142857143,300.12857142857143,208.3,297.22232142857143,300.12857142857143,313.6,297.22232142857143,300.12857142857143,413.6,296.22232142857143,300.12857142857143,518.7,294.22232142857143,296.12857142857143,620.7,464.22232142857143,121.12857142857143,723.5,506.22232142857143,84.12857142857143,823.5,512.2223214285714,36.128571428571426,924.7,515.2223214285714,27.128571428571426,1029.1,516.2223214285714,27.128571428571426,1135.8,518.2223214285714,28.128571428571426,1238.3,521.2223214285714,36.128571428571426,1338.7,521.2223214285714,36.128571428571426,1443.6,521.2223214285714,36.128571428571426,1550,521.2223214285714,36.128571428571426,1654.3,521.2223214285714,36.128571428571426,1758.4,521.2223214285714,36.128571428571426,1865.2,521.2223214285714,36.128571428571426,1968.6,521.2223214285714,36.128571428571426,2070.7,521.2223214285714,36.128571428571426,2173.4,521.2223214285714,36.128571428571426,2278.8,521.2223214285714,36.128571428571426,2385.3,521.2223214285714,36.128571428571426,2488.2,521.2223214285714,36.128571428571426,2594.7,521.2223214285714,36.128571428571426,2698,521.2223214285714,36.128571428571426,2799,521.2223214285714,36.128571428571426,2903.7,521.2223214285714,36.128571428571426,3003.8,521.2223214285714,36.128571428571426,3108.8,521.2223214285714,36.128571428571426,3213.2,521.2223214285714,36.128571428571426,3314.6,521.2223214285714,36.128571428571426,3414.6,521.2223214285714,36.128571428571426,3514.7,521.2223214285714,36.128571428571426,3618.3,521.2223214285714,36.128571428571426,3719.5,521.2223214285714,36.128571428571426,3823.1,521.2223214285714,36.128571428571426,3923.4,521.2223214285714,36.128571428571426,4028.6,521.2223214285714,36.128571428571426,4128.7,521.2223214285714,36.128571428571426,4228.8,521.2223214285714,36.128571428571426,4332.8,521.2223214285714,36.128571428571426,4433.8,521.2223214285714,36.128571428571426,4538.7,521.2223214285714,36.128571428571426,4638.8,521.2223214285714,36.128571428571426,4743,521.2223214285714,36.128571428571426,4843,521.2223214285714,36.128571428571426,4943.3]","[1550.1,1550.1,1000,0,550.1,""smooth"",""up"",""up"",""good_move"",3863.3,2312.8,1913.1,1550.5,399.7,""smooth"",""up"",""up"",""good_move"",6949.6,3085.4,2516.8,3864.4,568.4,""smooth"",""up"",""up"",""good_move"",13865.8,6915.6,2815.7,10560.6,489.6,""smooth"",""right"",""right"",""good_move"",16502.5,2636.1,2244.1,13866.4,392,""smooth"",""right"",""right"",""good_move"",24082.6,7579.5,3058.1,20605.7,418.8,""smooth"",""right"",""right"",""good_move""]","",""
"8959","","<div style=""width:500px;"">
  <p>What determined the result of this run?</p>
  </div>","100","html-slider-response","10","301397","0.0-5.0-1.0","225","1","2025-07-23 15:05:04","1f75c3e559b7213887762d5229550c2b","41.114.36.76","Mozilla/5.0 (Windows NT 10.0; Win64; x64) AppleWebKit/537.36 (KHTML, like Gecko) Chrome/138.0.0.0 Safari/537.36","WebKit","Chrome","138.0.0.0","Windows","10.0","https://app.prolific.com/","en-US,en;q=0.9","6612e7f231d13a67b8e758cc","683db9eb0562dbf637994deb","6880f9e7a986a7cc66b76696","2","1","6612e7f231d13a67b8e758cc","2","1","2025-07-23T15:10:09.386Z","","","","","","","","","","","AttribQ","","50","","","","","","","","","","","","","","","","","","","","","","","","","","","","",""
"5901","","<div style=""width:500px;"">
  <p>How much control did you have over the ball?</p>
  </div>","100","html-slider-response","11","307300","0.0-5.0-2.0","225","1","2025-07-23 15:05:04","1f75c3e559b7213887762d5229550c2b","41.114.36.76","Mozilla/5.0 (Windows NT 10.0; Win64; x64) AppleWebKit/537.36 (KHTML, like Gecko) Chrome/138.0.0.0 Safari/537.36","WebKit","Chrome","138.0.0.0","Windows","10.0","https://app.prolific.com/","en-US,en;q=0.9","6612e7f231d13a67b8e758cc","683db9eb0562dbf637994deb","6880f9e7a986a7cc66b76696","2","1","6612e7f231d13a67b8e758cc","2","1","2025-07-23T15:10:15.290Z","","","","","","","","","","","ControlQ","","50","","","","","","","","","","","","","","","","","","","","","","","","","","","","",""
"14048","","<div style=""width:500px;"">
  <p>How would you describe your current emotional state?</p>
  </div>","37","html-slider-response","12","321349","0.0-5.0-3.0","225","1","2025-07-23 15:05:04","1f75c3e559b7213887762d5229550c2b","41.114.36.76","Mozilla/5.0 (Windows NT 10.0; Win64; x64) AppleWebKit/537.36 (KHTML, like Gecko) Chrome/138.0.0.0 Safari/537.36","WebKit","Chrome","138.0.0.0","Windows","10.0","https://app.prolific.com/","en-US,en;q=0.9","6612e7f231d13a67b8e758cc","683db9eb0562dbf637994deb","6880f9e7a986a7cc66b76696","2","1","6612e7f231d13a67b8e758cc","2","1","2025-07-23T15:10:29.339Z","","","","","","","","","","","StressQ","","50","","","","","","","","","","","","","","","","","","","","","","","","","","","","",""
"13420","","<div style=""width:500px;"">
  <p>What best describes how you currently feel?</p>
  </div>","57","html-slider-response","13","334771","0.0-5.0-4.0","225","1","2025-07-23 15:05:04","1f75c3e559b7213887762d5229550c2b","41.114.36.76","Mozilla/5.0 (Windows NT 10.0; Win64; x64) AppleWebKit/537.36 (KHTML, like Gecko) Chrome/138.0.0.0 Safari/537.36","WebKit","Chrome","138.0.0.0","Windows","10.0","https://app.prolific.com/","en-US,en;q=0.9","6612e7f231d13a67b8e758cc","683db9eb0562dbf637994deb","6880f9e7a986a7cc66b76696","2","1","6612e7f231d13a67b8e758cc","2","1","2025-07-23T15:10:42.760Z","","","","","","","","","","","MotivationQ","","50","","","","","","","","","","","","","","","","","","","","","","","","","","","","",""
"","","","","ctl-task-cpt","14","378881","0.0-5.0-0.1","225","1","2025-07-23 15:05:04","1f75c3e559b7213887762d5229550c2b","41.114.36.76","Mozilla/5.0 (Windows NT 10.0; Win64; x64) AppleWebKit/537.36 (KHTML, like Gecko) Chrome/138.0.0.0 Safari/537.36","WebKit","Chrome","138.0.0.0","Windows","10.0","https://app.prolific.com/","en-US,en;q=0.9","6612e7f231d13a67b8e758cc","683db9eb0562dbf637994deb","6880f9e7a986a7cc66b76696","2","1","6612e7f231d13a67b8e758cc","2","1","2025-07-23T15:11:26.870Z","","","","","","","","","","","","","","win-only","1","g1:NE,g2:SW","0.9","2","0","360724","1987.8","6992.4","41091.7","1","4","8","6","2","-8","-8","0","4","0","1667.7","3000","-3000","[""down"",""left""]","{""num_key_presses"":6,""num_perfect"":5,""num_errors"":0,""num_randdir"":1,""num_randdir_good_moves"":0,""num_whilered"":0,""num_whileblue"":0,""num_blue"":4,""num_good_moves"":5}","[296.22232142857143,298.12857142857143,0.4,296.22232142857143,298.12857142857143,103.6,296.22232142857143,298.12857142857143,208.5,296.22232142857143,298.12857142857143,313.9,296.22232142857143,298.12857142857143,415.7,296.22232142857143,298.12857142857143,515.9,296.22232142857143,298.12857142857143,617.7,296.22232142857143,291.12857142857143,719.2,274.22232142857143,288.12857142857143,824,168.22232142857143,403.12857142857143,931.1,132.22232142857143,471.12857142857143,1033.7,101.22232142857143,507.12857142857143,1137.6,78.22232142857143,518.1285714285714,1238.4,62.222321428571426,523.1285714285714,1338.6,59.222321428571426,523.1285714285714,1439.5,59.222321428571426,523.1285714285714,1543.2,59.222321428571426,523.1285714285714,1644.2,59.222321428571426,523.1285714285714,1748.8,59.222321428571426,523.1285714285714,1852.8,59.222321428571426,523.1285714285714,1953.1,59.222321428571426,523.1285714285714,2057.9,59.222321428571426,523.1285714285714,2157.9,59.222321428571426,523.1285714285714,2258.4,59.222321428571426,523.1285714285714,2364.4,59.222321428571426,523.1285714285714,2467.8,59.222321428571426,523.1285714285714,2568.6,59.222321428571426,523.1285714285714,2673.4,59.222321428571426,523.1285714285714,2780.2,59.222321428571426,523.1285714285714,2880.6,59.222321428571426,523.1285714285714,2983.7,59.222321428571426,523.1285714285714,3088,59.222321428571426,523.1285714285714,3188.2,59.222321428571426,523.1285714285714,3293.5,59.222321428571426,523.1285714285714,3398.9,59.222321428571426,523.1285714285714,3499.3,59.222321428571426,523.1285714285714,3604.1,59.222321428571426,523.1285714285714,3704.2,59.222321428571426,523.1285714285714,3804.5,59.222321428571426,523.1285714285714,3908.3,59.222321428571426,523.1285714285714,4015.4,59.222321428571426,523.1285714285714,4118.2,59.222321428571426,523.1285714285714,4223.3,59.222321428571426,523.1285714285714,4330.4,59.222321428571426,523.1285714285714,4433.5,59.222321428571426,523.1285714285714,4533.8,59.222321428571426,523.1285714285714,4638.6,59.222321428571426,523.1285714285714,4744.5,59.222321428571426,523.1285714285714,4844.6,59.222321428571426,523.1285714285714,4949.1]","[1441.8,1441.9,1000,0,441.9,""smooth"",""down"",""down"",""good_move"",4541.5,3098.4,2720.1,1443.1,378.3,""smooth"",""down"",""down"",""good_move"",8432.8,3890.6,3443.7,4542.2,446.9,""smooth"",""down"",""down"",""good_move"",11669.5,3236.4,2350.3,8433.1,886.1,""oops"",""left"",""right"",""bad_move"",17269.5,5599.4,2258.7,14648.4,362.4,""smooth"",""left"",""left"",""good_move"",24424.7,7154.7,2638.1,21368.2,418.4,""smooth"",""left"",""left"",""good_move""]","",""
"13657","","<div style=""width:500px;"">
  <p>What determined the result of this run?</p>
  </div>","1","html-slider-response","15","392539","0.0-5.0-1.1","225","1","2025-07-23 15:05:04","1f75c3e559b7213887762d5229550c2b","41.114.36.76","Mozilla/5.0 (Windows NT 10.0; Win64; x64) AppleWebKit/537.36 (KHTML, like Gecko) Chrome/138.0.0.0 Safari/537.36","WebKit","Chrome","138.0.0.0","Windows","10.0","https://app.prolific.com/","en-US,en;q=0.9","6612e7f231d13a67b8e758cc","683db9eb0562dbf637994deb","6880f9e7a986a7cc66b76696","2","1","6612e7f231d13a67b8e758cc","2","1","2025-07-23T15:11:40.528Z","","","","","","","","","","","AttribQ","","50","","","","","","","","","","","","","","","","","","","","","","","","","","","","",""
"4972","","<div style=""width:500px;"">
  <p>How much control did you have over the ball?</p>
  </div>","0","html-slider-response","16","397513","0.0-5.0-2.1","225","1","2025-07-23 15:05:04","1f75c3e559b7213887762d5229550c2b","41.114.36.76","Mozilla/5.0 (Windows NT 10.0; Win64; x64) AppleWebKit/537.36 (KHTML, like Gecko) Chrome/138.0.0.0 Safari/537.36","WebKit","Chrome","138.0.0.0","Windows","10.0","https://app.prolific.com/","en-US,en;q=0.9","6612e7f231d13a67b8e758cc","683db9eb0562dbf637994deb","6880f9e7a986a7cc66b76696","2","1","6612e7f231d13a67b8e758cc","2","1","2025-07-23T15:11:45.502Z","","","","","","","","","","","ControlQ","","50","","","","","","","","","","","","","","","","","","","","","","","","","","","","",""
"6633","","<div style=""width:500px;"">
  <p>How would you describe your current emotional state?</p>
  </div>","54","html-slider-response","17","404148","0.0-5.0-3.1","225","1","2025-07-23 15:05:04","1f75c3e559b7213887762d5229550c2b","41.114.36.76","Mozilla/5.0 (Windows NT 10.0; Win64; x64) AppleWebKit/537.36 (KHTML, like Gecko) Chrome/138.0.0.0 Safari/537.36","WebKit","Chrome","138.0.0.0","Windows","10.0","https://app.prolific.com/","en-US,en;q=0.9","6612e7f231d13a67b8e758cc","683db9eb0562dbf637994deb","6880f9e7a986a7cc66b76696","2","1","6612e7f231d13a67b8e758cc","2","1","2025-07-23T15:11:52.137Z","","","","","","","","","","","StressQ","","50","","","","","","","","","","","","","","","","","","","","","","","","","","","","",""
"5007","","<div style=""width:500px;"">
  <p>What best describes how you currently feel?</p>
  </div>","62","html-slider-response","18","409157","0.0-5.0-4.1","225","1","2025-07-23 15:05:04","1f75c3e559b7213887762d5229550c2b","41.114.36.76","Mozilla/5.0 (Windows NT 10.0; Win64; x64) AppleWebKit/537.36 (KHTML, like Gecko) Chrome/138.0.0.0 Safari/537.36","WebKit","Chrome","138.0.0.0","Windows","10.0","https://app.prolific.com/","en-US,en;q=0.9","6612e7f231d13a67b8e758cc","683db9eb0562dbf637994deb","6880f9e7a986a7cc66b76696","2","1","6612e7f231d13a67b8e758cc","2","1","2025-07-23T15:11:57.147Z","","","","","","","","","","","MotivationQ","","50","","","","","","","","","","","","","","","","","","","","","","","","","","","","",""
"","","","","ctl-task-cpt","19","443159","0.0-5.0-0.2","225","1","2025-07-23 15:05:04","1f75c3e559b7213887762d5229550c2b","41.114.36.76","Mozilla/5.0 (Windows NT 10.0; Win64; x64) AppleWebKit/537.36 (KHTML, like Gecko) Chrome/138.0.0.0 Safari/537.36","WebKit","Chrome","138.0.0.0","Windows","10.0","https://app.prolific.com/","en-US,en;q=0.9","6612e7f231d13a67b8e758cc","683db9eb0562dbf637994deb","6880f9e7a986a7cc66b76696","2","1","6612e7f231d13a67b8e758cc","2","1","2025-07-23T15:12:31.149Z","","","","","","","","","","","","","","win-only","3","g1:SW,g2:NE","0.8","3","0","435108.5","1725.8","6726.2","30976","1","4","4","6","2","-4","-4","0","0","0","1904.9","3000","-2805","[""up"",""right""]","{""num_key_presses"":7,""num_perfect"":6,""num_errors"":0,""num_randdir"":1,""num_randdir_good_moves"":0,""num_whilered"":0,""num_whileblue"":0,""num_blue"":1,""num_good_moves"":6}","[294.22232142857143,301.12857142857143,0.4,294.22232142857143,301.12857142857143,110.2,294.22232142857143,301.12857142857143,210.5,294.22232142857143,301.12857142857143,311.4,294.22232142857143,301.12857142857143,415.2,294.22232142857143,301.12857142857143,515.3,294.22232142857143,301.12857142857143,622.2,294.22232142857143,301.12857142857143,724.1,294.22232142857143,301.12857142857143,825.6,294.22232142857143,301.12857142857143,925.6,387.22232142857143,210.12857142857143,1025.8,511.22232142857143,51.128571428571426,1127.3,538.2223214285714,13.128571428571426,1231.7,541.2223214285714,8.128571428571426,1337.7,541.2223214285714,8.128571428571426,1439.2,541.2223214285714,19.128571428571426,1545.3,541.2223214285714,29.128571428571426,1645.4,541.2223214285714,32.128571428571426,1751.5,541.2223214285714,32.128571428571426,1855.4,541.2223214285714,32.128571428571426,1960.6,541.2223214285714,32.128571428571426,2064.9,541.2223214285714,32.128571428571426,2165.5,541.2223214285714,32.128571428571426,2275,541.2223214285714,32.128571428571426,2375.4,541.2223214285714,32.128571428571426,2480.3,541.2223214285714,32.128571428571426,2585.3,541.2223214285714,32.128571428571426,2692,541.2223214285714,32.128571428571426,2795.1,541.2223214285714,32.128571428571426,2899.8,541.2223214285714,32.128571428571426,3000.2,541.2223214285714,32.128571428571426,3100.6,541.2223214285714,32.128571428571426,3206.3,541.2223214285714,32.128571428571426,3307.5,541.2223214285714,32.128571428571426,3408.7,541.2223214285714,32.128571428571426,3510.1,541.2223214285714,32.128571428571426,3610.7,541.2223214285714,32.128571428571426,3715.4,541.2223214285714,32.128571428571426,3815.6,541.2223214285714,32.128571428571426,3922.9,541.2223214285714,32.128571428571426,4025.7,541.2223214285714,32.128571428571426,4130.5,541.2223214285714,32.128571428571426,4235.2,541.2223214285714,32.128571428571426,4335.6,541.2223214285714,32.128571428571426,4439.8,541.2223214285714,32.128571428571426,4541.2,541.2223214285714,32.128571428571426,4644.9,541.2223214285714,32.128571428571426,4745.5,541.2223214285714,32.128571428571426,4845.6,541.2223214285714,32.128571428571426,4950.2]","[1451,1451,1000,0,451,""smooth"",""right"",""right"",""good_move"",7052.9,5601.1,1692.9,4909.5,450.5,""smooth"",""right"",""right"",""good_move"",9585,2531.8,2124.6,7053.3,407.1,""smooth"",""right"",""right"",""good_move"",12607.9,3022.6,2612,9585.3,410.7,""oops"",""up"",""left"",""bad_move"",15745.8,3136.2,2734,12609.6,402.2,""smooth"",""up"",""up"",""good_move"",18379.9,2633.7,2169.9,15746.2,463.8,""smooth"",""up"",""up"",""good_move"",20875.8,2494.6,1999.1,18381.2,495.5,""smooth"",""up"",""up"",""good_move""]","",""
"9975","","<div style=""width:500px;"">
  <p>What determined the result of this run?</p>
  </div>","5","html-slider-response","20","453136","0.0-5.0-1.2","225","1","2025-07-23 15:05:04","1f75c3e559b7213887762d5229550c2b","41.114.36.76","Mozilla/5.0 (Windows NT 10.0; Win64; x64) AppleWebKit/537.36 (KHTML, like Gecko) Chrome/138.0.0.0 Safari/537.36","WebKit","Chrome","138.0.0.0","Windows","10.0","https://app.prolific.com/","en-US,en;q=0.9","6612e7f231d13a67b8e758cc","683db9eb0562dbf637994deb","6880f9e7a986a7cc66b76696","2","1","6612e7f231d13a67b8e758cc","2","1","2025-07-23T15:12:41.125Z","","","","","","","","","","","AttribQ","","50","","","","","","","","","","","","","","","","","","","","","","","","","","","","",""
"5463","","<div style=""width:500px;"">
  <p>How much control did you have over the ball?</p>
  </div>","1","html-slider-response","21","458602","0.0-5.0-2.2","225","1","2025-07-23 15:05:04","1f75c3e559b7213887762d5229550c2b","41.114.36.76","Mozilla/5.0 (Windows NT 10.0; Win64; x64) AppleWebKit/537.36 (KHTML, like Gecko) Chrome/138.0.0.0 Safari/537.36","WebKit","Chrome","138.0.0.0","Windows","10.0","https://app.prolific.com/","en-US,en;q=0.9","6612e7f231d13a67b8e758cc","683db9eb0562dbf637994deb","6880f9e7a986a7cc66b76696","2","1","6612e7f231d13a67b8e758cc","2","1","2025-07-23T15:12:46.591Z","","","","","","","","","","","ControlQ","","50","","","","","","","","","","","","","","","","","","","","","","","","","","","","",""
"5549","","<div style=""width:500px;"">
  <p>How would you describe your current emotional state?</p>
  </div>","99","html-slider-response","22","464153","0.0-5.0-3.2","225","1","2025-07-23 15:05:04","1f75c3e559b7213887762d5229550c2b","41.114.36.76","Mozilla/5.0 (Windows NT 10.0; Win64; x64) AppleWebKit/537.36 (KHTML, like Gecko) Chrome/138.0.0.0 Safari/537.36","WebKit","Chrome","138.0.0.0","Windows","10.0","https://app.prolific.com/","en-US,en;q=0.9","6612e7f231d13a67b8e758cc","683db9eb0562dbf637994deb","6880f9e7a986a7cc66b76696","2","1","6612e7f231d13a67b8e758cc","2","1","2025-07-23T15:12:52.142Z","","","","","","","","","","","StressQ","","50","","","","","","","","","","","","","","","","","","","","","","","","","","","","",""
"5132","","<div style=""width:500px;"">
  <p>What best describes how you currently feel?</p>
  </div>","55","html-slider-response","23","469287","0.0-5.0-4.2","225","1","2025-07-23 15:05:04","1f75c3e559b7213887762d5229550c2b","41.114.36.76","Mozilla/5.0 (Windows NT 10.0; Win64; x64) AppleWebKit/537.36 (KHTML, like Gecko) Chrome/138.0.0.0 Safari/537.36","WebKit","Chrome","138.0.0.0","Windows","10.0","https://app.prolific.com/","en-US,en;q=0.9","6612e7f231d13a67b8e758cc","683db9eb0562dbf637994deb","6880f9e7a986a7cc66b76696","2","1","6612e7f231d13a67b8e758cc","2","1","2025-07-23T15:12:57.276Z","","","","","","","","","","","MotivationQ","","50","","","","","","","","","","","","","","","","","","","","","","","","","","","","",""
"","","","","ctl-task-cpt","24","506184","0.0-5.0-0.3","225","1","2025-07-23 15:05:04","1f75c3e559b7213887762d5229550c2b","41.114.36.76","Mozilla/5.0 (Windows NT 10.0; Win64; x64) AppleWebKit/537.36 (KHTML, like Gecko) Chrome/138.0.0.0 Safari/537.36","WebKit","Chrome","138.0.0.0","Windows","10.0","https://app.prolific.com/","en-US,en;q=0.9","6612e7f231d13a67b8e758cc","683db9eb0562dbf637994deb","6880f9e7a986a7cc66b76696","2","1","6612e7f231d13a67b8e758cc","2","1","2025-07-23T15:13:34.173Z","","","","","","","","","","","","","","win-only","0","g1:NW,g2:SE","0.7","4","0","495236.7","1367.6","6371.9","33880.7","1","4","8","6","2","-8","-8","0","0","0","1875.4","3000","-2100","[""down"",""right""]","{""num_key_presses"":9,""num_perfect"":6,""num_errors"":0,""num_randdir"":3,""num_randdir_good_moves"":1,""num_whilered"":0,""num_whileblue"":0,""num_blue"":0,""num_good_moves"":7}","[303.22232142857143,294.12857142857143,1.2,303.22232142857143,294.12857142857143,104.7,303.22232142857143,294.12857142857143,206.8,303.22232142857143,294.12857142857143,309.2,303.22232142857143,294.12857142857143,411,303.22232142857143,294.12857142857143,511.1,303.22232142857143,294.12857142857143,613.1,303.22232142857143,294.12857142857143,713.5,303.22232142857143,294.12857142857143,819.2,303.22232142857143,294.12857142857143,923.8,304.22232142857143,293.12857142857143,1028.2,367.22232142857143,323.12857142857143,1128.3,486.22232142857143,470.12857142857143,1228.8,519.2223214285714,535.1285714285714,1329.7,524.2223214285714,540.1285714285714,1442.3,527.2223214285714,543.1285714285714,1544.3,529.2223214285714,544.1285714285714,1648.3,529.2223214285714,544.1285714285714,1748.3,529.2223214285714,544.1285714285714,1848.3,529.2223214285714,544.1285714285714,1949,529.2223214285714,544.1285714285714,2050.3,529.2223214285714,544.1285714285714,2153.7,529.2223214285714,544.1285714285714,2257.8,529.2223214285714,544.1285714285714,2362.9,529.2223214285714,544.1285714285714,2472.6,529.2223214285714,544.1285714285714,2573.3,529.2223214285714,544.1285714285714,2674.1,529.2223214285714,544.1285714285714,2778.7,529.2223214285714,544.1285714285714,2889.3,529.2223214285714,544.1285714285714,2989.6,529.2223214285714,544.1285714285714,3090.2,529.2223214285714,544.1285714285714,3193.6,529.2223214285714,544.1285714285714,3293.6,529.2223214285714,544.1285714285714,3396.1,529.2223214285714,544.1285714285714,3504.6,529.2223214285714,544.1285714285714,3611.5,529.2223214285714,544.1285714285714,3714.2,529.2223214285714,544.1285714285714,3822.6,529.2223214285714,544.1285714285714,3923.8,529.2223214285714,544.1285714285714,4025.8,529.2223214285714,544.1285714285714,4128.4,529.2223214285714,544.1285714285714,4228.9,529.2223214285714,544.1285714285714,4340.3,529.2223214285714,544.1285714285714,4443,529.2223214285714,544.1285714285714,4543.1,529.2223214285714,544.1285714285714,4643.6,529.2223214285714,544.1285714285714,4748.4,529.2223214285714,544.1285714285714,4851.9,529.2223214285714,544.1285714285714,4953.7]","[1405.8,1405.8,1000,0,405.8,""oops"",""down"",""right"",""good_move"",4555.4,3149.1,2770.6,1406.3,378.5,""smooth"",""down"",""down"",""good_move"",7857.2,3301.5,2895.4,4555.9,406,""oops"",""down"",""up"",""bad_move"",10233.5,2375.8,1933.7,7857.7,442.1,""oops"",""right"",""left"",""bad_move"",13319,3084.7,2699.5,10234.3,385.3,""smooth"",""down"",""down"",""good_move"",16905,3584.7,3234.2,13320.4,350.5,""smooth"",""down"",""down"",""good_move"",19625,2719.6,2195,16905.4,524.6,""smooth"",""down"",""down"",""good_move"",22088.9,2463.5,1980.5,19625.4,483.1,""smooth"",""right"",""right"",""good_move"",24736.6,2647.1,2222.1,22089.5,425,""smooth"",""right"",""right"",""good_move""]","",""
"5866","","<div style=""width:500px;"">
  <p>What determined the result of this run?</p>
  </div>","0","html-slider-response","25","512052","0.0-5.0-1.3","225","1","2025-07-23 15:05:04","1f75c3e559b7213887762d5229550c2b","41.114.36.76","Mozilla/5.0 (Windows NT 10.0; Win64; x64) AppleWebKit/537.36 (KHTML, like Gecko) Chrome/138.0.0.0 Safari/537.36","WebKit","Chrome","138.0.0.0","Windows","10.0","https://app.prolific.com/","en-US,en;q=0.9","6612e7f231d13a67b8e758cc","683db9eb0562dbf637994deb","6880f9e7a986a7cc66b76696","2","1","6612e7f231d13a67b8e758cc","2","1","2025-07-23T15:13:40.041Z","","","","","","","","","","","AttribQ","","50","","","","","","","","","","","","","","","","","","","","","","","","","","","","",""
"3150","","<div style=""width:500px;"">
  <p>How much control did you have over the ball?</p>
  </div>","1","html-slider-response","26","515204","0.0-5.0-2.3","225","1","2025-07-23 15:05:04","1f75c3e559b7213887762d5229550c2b","41.114.36.76","Mozilla/5.0 (Windows NT 10.0; Win64; x64) AppleWebKit/537.36 (KHTML, like Gecko) Chrome/138.0.0.0 Safari/537.36","WebKit","Chrome","138.0.0.0","Windows","10.0","https://app.prolific.com/","en-US,en;q=0.9","6612e7f231d13a67b8e758cc","683db9eb0562dbf637994deb","6880f9e7a986a7cc66b76696","2","1","6612e7f231d13a67b8e758cc","2","1","2025-07-23T15:13:43.193Z","","","","","","","","","","","ControlQ","","50","","","","","","","","","","","","","","","","","","","","","","","","","","","","",""
"4511","","<div style=""width:500px;"">
  <p>How would you describe your current emotional state?</p>
  </div>","100","html-slider-response","27","519717","0.0-5.0-3.3","225","1","2025-07-23 15:05:04","1f75c3e559b7213887762d5229550c2b","41.114.36.76","Mozilla/5.0 (Windows NT 10.0; Win64; x64) AppleWebKit/537.36 (KHTML, like Gecko) Chrome/138.0.0.0 Safari/537.36","WebKit","Chrome","138.0.0.0","Windows","10.0","https://app.prolific.com/","en-US,en;q=0.9","6612e7f231d13a67b8e758cc","683db9eb0562dbf637994deb","6880f9e7a986a7cc66b76696","2","1","6612e7f231d13a67b8e758cc","2","1","2025-07-23T15:13:47.707Z","","","","","","","","","","","StressQ","","50","","","","","","","","","","","","","","","","","","","","","","","","","","","","",""
"5649","","<div style=""width:500px;"">
  <p>What best describes how you currently feel?</p>
  </div>","42","html-slider-response","28","525368","0.0-5.0-4.3","225","1","2025-07-23 15:05:04","1f75c3e559b7213887762d5229550c2b","41.114.36.76","Mozilla/5.0 (Windows NT 10.0; Win64; x64) AppleWebKit/537.36 (KHTML, like Gecko) Chrome/138.0.0.0 Safari/537.36","WebKit","Chrome","138.0.0.0","Windows","10.0","https://app.prolific.com/","en-US,en;q=0.9","6612e7f231d13a67b8e758cc","683db9eb0562dbf637994deb","6880f9e7a986a7cc66b76696","2","1","6612e7f231d13a67b8e758cc","2","1","2025-07-23T15:13:53.357Z","","","","","","","","","","","MotivationQ","","50","","","","","","","","","","","","","","","","","","","","","","","","","","","","",""
"","","","","ctl-task-cpt","29","562414","0.0-5.0-0.4","225","1","2025-07-23 15:05:04","1f75c3e559b7213887762d5229550c2b","41.114.36.76","Mozilla/5.0 (Windows NT 10.0; Win64; x64) AppleWebKit/537.36 (KHTML, like Gecko) Chrome/138.0.0.0 Safari/537.36","WebKit","Chrome","138.0.0.0","Windows","10.0","https://app.prolific.com/","en-US,en;q=0.9","6612e7f231d13a67b8e758cc","683db9eb0562dbf637994deb","6880f9e7a986a7cc66b76696","2","1","6612e7f231d13a67b8e758cc","2","1","2025-07-23T15:14:30.403Z","","","","","","","","","","","","","","win-only","3","g1:SW,g2:NE","0.6","5","0","551318.5","1678.9","6683","34015.2","1","4","8","6","2","8","8","8","0","0.06060606060606061","1597.1","3000","230","[""up"",""right""]","{""num_key_presses"":10,""num_perfect"":6,""num_errors"":0,""num_randdir"":4,""num_randdir_good_moves"":2,""num_whilered"":0,""num_whileblue"":0,""num_blue"":0,""num_good_moves"":8}","[295.22232142857143,289.12857142857143,0.4,295.22232142857143,289.12857142857143,102.3,295.22232142857143,289.12857142857143,203.1,295.22232142857143,289.12857142857143,314.4,295.22232142857143,289.12857142857143,415.7,295.22232142857143,289.12857142857143,516.8,295.22232142857143,289.12857142857143,617.3,419.22232142857143,174.12857142857143,723.6,524.2223214285714,53.128571428571426,840,566.2223214285714,3.1285714285714263,944.5,566.2223214285714,3.1285714285714263,1047.3,566.2223214285714,3.1285714285714263,1149.2,547.2223214285714,31.128571428571426,1251.8,532.2223214285714,49.128571428571426,1355.9,532.2223214285714,50.128571428571426,1458.4,532.2223214285714,50.128571428571426,1561.7,532.2223214285714,50.128571428571426,1663.4,532.2223214285714,50.128571428571426,1767.9,532.2223214285714,50.128571428571426,1871.9,532.2223214285714,50.128571428571426,1980.4,532.2223214285714,50.128571428571426,2084.7,532.2223214285714,50.128571428571426,2187,532.2223214285714,50.128571428571426,2287.2,532.2223214285714,50.128571428571426,2387.4,532.2223214285714,50.128571428571426,2491.9,532.2223214285714,50.128571428571426,2600.9,532.2223214285714,50.128571428571426,2700.9,532.2223214285714,50.128571428571426,2802.8,532.2223214285714,50.128571428571426,2909,532.2223214285714,50.128571428571426,3011.7,532.2223214285714,50.128571428571426,3112.8,532.2223214285714,50.128571428571426,3218.2,532.2223214285714,50.128571428571426,3321.5,532.2223214285714,50.128571428571426,3422.9,532.2223214285714,50.128571428571426,3527.1,532.2223214285714,50.128571428571426,3630.9,532.2223214285714,50.128571428571426,3731.7,532.2223214285714,50.128571428571426,3837,532.2223214285714,50.128571428571426,3937.7,532.2223214285714,50.128571428571426,4044.8,532.2223214285714,50.128571428571426,4148.2,532.2223214285714,50.128571428571426,4252,532.2223214285714,50.128571428571426,4357.6,532.2223214285714,50.128571428571426,4465.5,532.2223214285714,50.128571428571426,4567,532.2223214285714,50.128571428571426,4667.2,532.2223214285714,50.128571428571426,4772.3,532.2223214285714,50.128571428571426,4873.4,532.2223214285714,50.128571428571426,4988.4]","[1413.4,1413.4,1000,0,413.4,""oops"",""up"",""left"",""bad_move"",4909.3,3494.4,3087.8,1414.9,406.6,""smooth"",""up"",""up"",""good_move"",7858.3,2947.9,2584.8,4910.4,363.2,""smooth"",""up"",""up"",""good_move"",10036.6,2177.5,1802.7,7859.2,374.7,""smooth"",""up"",""up"",""good_move"",12913.6,2876.7,2529.3,10036.9,347.4,""oops"",""right"",""right"",""good_move"",15478.3,2563.5,2246.6,12914.8,316.9,""oops"",""right"",""right"",""good_move"",18588.5,3109.8,2744.5,15478.7,365.3,""smooth"",""right"",""right"",""good_move"",21661.2,3071.7,2758.1,18589.5,313.6,""oops"",""right"",""down"",""bad_move"",24665.9,3003.3,2622.3,21662.6,381,""smooth"",""up"",""up"",""good_move"",27222.3,2555.9,2260,24666.4,295.9,""smooth"",""right"",""right"",""good_move""]","",""
"5986","","<div style=""width:500px;"">
  <p>What determined the result of this run?</p>
  </div>","9","html-slider-response","30","568402","0.0-5.0-1.4","225","1","2025-07-23 15:05:04","1f75c3e559b7213887762d5229550c2b","41.114.36.76","Mozilla/5.0 (Windows NT 10.0; Win64; x64) AppleWebKit/537.36 (KHTML, like Gecko) Chrome/138.0.0.0 Safari/537.36","WebKit","Chrome","138.0.0.0","Windows","10.0","https://app.prolific.com/","en-US,en;q=0.9","6612e7f231d13a67b8e758cc","683db9eb0562dbf637994deb","6880f9e7a986a7cc66b76696","2","1","6612e7f231d13a67b8e758cc","2","1","2025-07-23T15:14:36.391Z","","","","","","","","","","","AttribQ","","50","","","","","","","","","","","","","","","","","","","","","","","","","","","","",""
"3533","","<div style=""width:500px;"">
  <p>How much control did you have over the ball?</p>
  </div>","2","html-slider-response","31","571937","0.0-5.0-2.4","225","1","2025-07-23 15:05:04","1f75c3e559b7213887762d5229550c2b","41.114.36.76","Mozilla/5.0 (Windows NT 10.0; Win64; x64) AppleWebKit/537.36 (KHTML, like Gecko) Chrome/138.0.0.0 Safari/537.36","WebKit","Chrome","138.0.0.0","Windows","10.0","https://app.prolific.com/","en-US,en;q=0.9","6612e7f231d13a67b8e758cc","683db9eb0562dbf637994deb","6880f9e7a986a7cc66b76696","2","1","6612e7f231d13a67b8e758cc","2","1","2025-07-23T15:14:39.927Z","","","","","","","","","","","ControlQ","","50","","","","","","","","","","","","","","","","","","","","","","","","","","","","",""
"5285","","<div style=""width:500px;"">
  <p>How would you describe your current emotional state?</p>
  </div>","60","html-slider-response","32","577225","0.0-5.0-3.4","225","1","2025-07-23 15:05:04","1f75c3e559b7213887762d5229550c2b","41.114.36.76","Mozilla/5.0 (Windows NT 10.0; Win64; x64) AppleWebKit/537.36 (KHTML, like Gecko) Chrome/138.0.0.0 Safari/537.36","WebKit","Chrome","138.0.0.0","Windows","10.0","https://app.prolific.com/","en-US,en;q=0.9","6612e7f231d13a67b8e758cc","683db9eb0562dbf637994deb","6880f9e7a986a7cc66b76696","2","1","6612e7f231d13a67b8e758cc","2","1","2025-07-23T15:14:45.214Z","","","","","","","","","","","StressQ","","50","","","","","","","","","","","","","","","","","","","","","","","","","","","","",""
"2732","","<div style=""width:500px;"">
  <p>What best describes how you currently feel?</p>
  </div>","30","html-slider-response","33","579960","0.0-5.0-4.4","225","1","2025-07-23 15:05:04","1f75c3e559b7213887762d5229550c2b","41.114.36.76","Mozilla/5.0 (Windows NT 10.0; Win64; x64) AppleWebKit/537.36 (KHTML, like Gecko) Chrome/138.0.0.0 Safari/537.36","WebKit","Chrome","138.0.0.0","Windows","10.0","https://app.prolific.com/","en-US,en;q=0.9","6612e7f231d13a67b8e758cc","683db9eb0562dbf637994deb","6880f9e7a986a7cc66b76696","2","1","6612e7f231d13a67b8e758cc","2","1","2025-07-23T15:14:47.949Z","","","","","","","","","","","MotivationQ","","50","","","","","","","","","","","","","","","","","","","","","","","","","","","","",""
"","","","","ctl-task-cpt","34","619697","0.0-5.0-0.5","225","1","2025-07-23 15:05:04","1f75c3e559b7213887762d5229550c2b","41.114.36.76","Mozilla/5.0 (Windows NT 10.0; Win64; x64) AppleWebKit/537.36 (KHTML, like Gecko) Chrome/138.0.0.0 Safari/537.36","WebKit","Chrome","138.0.0.0","Windows","10.0","https://app.prolific.com/","en-US,en;q=0.9","6612e7f231d13a67b8e758cc","683db9eb0562dbf637994deb","6880f9e7a986a7cc66b76696","2","1","6612e7f231d13a67b8e758cc","2","1","2025-07-23T15:15:27.686Z","","","","","","","","","","","","","","win-only","0","g1:NW,g2:SE","0.5","6","0","605911.5","1598.5","6600.5","36705.9","1","4","4","6","2","-4","-4","4","8","0.030303030303030304","2006","3000","-2185","[""down"",""right""]","{""num_key_presses"":11,""num_perfect"":5,""num_errors"":0,""num_randdir"":6,""num_randdir_good_moves"":3,""num_whilered"":0,""num_whileblue"":0,""num_blue"":0,""num_good_moves"":8}","[302.22232142857143,292.12857142857143,0.6,302.22232142857143,292.12857142857143,100.4,302.22232142857143,292.12857142857143,202.5,302.22232142857143,292.12857142857143,311.6,302.22232142857143,292.12857142857143,413.6,302.22232142857143,292.12857142857143,531.3,302.22232142857143,292.12857142857143,633.6,302.22232142857143,292.12857142857143,741.2,302.22232142857143,292.12857142857143,859.1,305.22232142857143,292.12857142857143,966.2,405.22232142857143,324.12857142857143,1067.6,495.22232142857143,445.12857142857143,1170.3,498.22232142857143,513.1285714285714,1274.9,497.22232142857143,520.1285714285714,1384,520.2223214285714,521.1285714285714,1488,532.2223214285714,521.1285714285714,1591.5,532.2223214285714,521.1285714285714,1692.1,532.2223214285714,521.1285714285714,1793.5,532.2223214285714,521.1285714285714,1896.2,532.2223214285714,521.1285714285714,2013.8,532.2223214285714,521.1285714285714,2115,532.2223214285714,521.1285714285714,2219.4,532.2223214285714,521.1285714285714,2324.7,532.2223214285714,521.1285714285714,2425,532.2223214285714,521.1285714285714,2529.5,532.2223214285714,521.1285714285714,2633.4,532.2223214285714,521.1285714285714,2733.9,532.2223214285714,521.1285714285714,2838.2,532.2223214285714,521.1285714285714,2940,804.2223214285714,360.12857142857143,3045.5,804.2223214285714,360.12857142857143,3152.6,804.2223214285714,360.12857142857143,3252.8,804.2223214285714,360.12857142857143,3356.2,804.2223214285714,360.12857142857143,3458,804.2223214285714,360.12857142857143,3559,804.2223214285714,360.12857142857143,3659.3,804.2223214285714,360.12857142857143,3765,804.2223214285714,360.12857142857143,3869.1,804.2223214285714,360.12857142857143,3972.7,804.2223214285714,360.12857142857143,4073.7,804.2223214285714,360.12857142857143,4180.3,804.2223214285714,360.12857142857143,4283,804.2223214285714,360.12857142857143,4391.1,804.2223214285714,360.12857142857143,4492,804.2223214285714,360.12857142857143,4593.4,804.2223214285714,360.12857142857143,4695.4,804.2223214285714,360.12857142857143,4797.5,804.2223214285714,360.12857142857143,4898.2]","[1364.9,1364.9,1000,0,364.9,""oops"",""down"",""down"",""good_move"",4151.3,2784.9,2402.3,1366.5,382.6,""smooth"",""down"",""down"",""good_move"",6548.5,2396.6,2038,4151.9,358.6,""smooth"",""down"",""down"",""good_move"",9744.9,3195.7,2847.9,6549.3,347.8,""oops"",""right"",""up"",""bad_move"",12637.4,2891.2,2527.9,9746.2,363.3,""smooth"",""right"",""right"",""good_move"",15417.1,2779.2,2398.1,12637.9,381.1,""smooth"",""right"",""right"",""good_move"",18004.2,2586.7,2220.8,15417.6,365.8,""oops"",""right"",""down"",""good_move"",20902.1,2897.2,2558.4,18004.9,338.8,""oops"",""right"",""up"",""bad_move"",23495.8,2592.6,2218.4,20903.3,374.2,""smooth"",""right"",""right"",""good_move"",26067.8,2570.9,2256.9,23496.9,314,""oops"",""down"",""left"",""bad_move"",28335.9,2266.7,1877.1,26069.2,389.6,""oops"",""right"",""right"",""good_move""]","",""
"5091","","<div style=""width:500px;"">
  <p>What determined the result of this run?</p>
  </div>","0","html-slider-response","35","624789","0.0-5.0-1.5","225","1","2025-07-23 15:05:04","1f75c3e559b7213887762d5229550c2b","41.114.36.76","Mozilla/5.0 (Windows NT 10.0; Win64; x64) AppleWebKit/537.36 (KHTML, like Gecko) Chrome/138.0.0.0 Safari/537.36","WebKit","Chrome","138.0.0.0","Windows","10.0","https://app.prolific.com/","en-US,en;q=0.9","6612e7f231d13a67b8e758cc","683db9eb0562dbf637994deb","6880f9e7a986a7cc66b76696","2","1","6612e7f231d13a67b8e758cc","2","1","2025-07-23T15:15:32.778Z","","","","","","","","","","","AttribQ","","50","","","","","","","","","","","","","","","","","","","","","","","","","","","","",""
"3917","","<div style=""width:500px;"">
  <p>How much control did you have over the ball?</p>
  </div>","0","html-slider-response","36","628708","0.0-5.0-2.5","225","1","2025-07-23 15:05:04","1f75c3e559b7213887762d5229550c2b","41.114.36.76","Mozilla/5.0 (Windows NT 10.0; Win64; x64) AppleWebKit/537.36 (KHTML, like Gecko) Chrome/138.0.0.0 Safari/537.36","WebKit","Chrome","138.0.0.0","Windows","10.0","https://app.prolific.com/","en-US,en;q=0.9","6612e7f231d13a67b8e758cc","683db9eb0562dbf637994deb","6880f9e7a986a7cc66b76696","2","1","6612e7f231d13a67b8e758cc","2","1","2025-07-23T15:15:36.697Z","","","","","","","","","","","ControlQ","","50","","","","","","","","","","","","","","","","","","","","","","","","","","","","",""
"3669","","<div style=""width:500px;"">
  <p>How would you describe your current emotional state?</p>
  </div>","100","html-slider-response","37","632379","0.0-5.0-3.5","225","1","2025-07-23 15:05:04","1f75c3e559b7213887762d5229550c2b","41.114.36.76","Mozilla/5.0 (Windows NT 10.0; Win64; x64) AppleWebKit/537.36 (KHTML, like Gecko) Chrome/138.0.0.0 Safari/537.36","WebKit","Chrome","138.0.0.0","Windows","10.0","https://app.prolific.com/","en-US,en;q=0.9","6612e7f231d13a67b8e758cc","683db9eb0562dbf637994deb","6880f9e7a986a7cc66b76696","2","1","6612e7f231d13a67b8e758cc","2","1","2025-07-23T15:15:40.368Z","","","","","","","","","","","StressQ","","50","","","","","","","","","","","","","","","","","","","","","","","","","","","","",""
"3081","","<div style=""width:500px;"">
  <p>What best describes how you currently feel?</p>
  </div>","14","html-slider-response","38","635462","0.0-5.0-4.5","225","1","2025-07-23 15:05:04","1f75c3e559b7213887762d5229550c2b","41.114.36.76","Mozilla/5.0 (Windows NT 10.0; Win64; x64) AppleWebKit/537.36 (KHTML, like Gecko) Chrome/138.0.0.0 Safari/537.36","WebKit","Chrome","138.0.0.0","Windows","10.0","https://app.prolific.com/","en-US,en;q=0.9","6612e7f231d13a67b8e758cc","683db9eb0562dbf637994deb","6880f9e7a986a7cc66b76696","2","1","6612e7f231d13a67b8e758cc","2","1","2025-07-23T15:15:43.451Z","","","","","","","","","","","MotivationQ","","50","","","","","","","","","","","","","","","","","","","","","","","","","","","","",""
"","","","","ctl-task-cpt","39","694175","0.0-5.0-0.6","225","1","2025-07-23 15:05:04","1f75c3e559b7213887762d5229550c2b","41.114.36.76","Mozilla/5.0 (Windows NT 10.0; Win64; x64) AppleWebKit/537.36 (KHTML, like Gecko) Chrome/138.0.0.0 Safari/537.36","WebKit","Chrome","138.0.0.0","Windows","10.0","https://app.prolific.com/","en-US,en;q=0.9","6612e7f231d13a67b8e758cc","683db9eb0562dbf637994deb","6880f9e7a986a7cc66b76696","2","1","6612e7f231d13a67b8e758cc","2","1","2025-07-23T15:16:42.165Z","","","","","","","","","","","","","","win-only","1","g1:NE,g2:SW","0.4","7","0","661411.9","1693.1","6712.8","55687.3","1","4","8","6","2","-8","-9","0","4","0","1737.7","3000","-1920","[""down"",""left""]","{""num_key_presses"":12,""num_perfect"":4,""num_errors"":1,""num_randdir"":7,""num_randdir_good_moves"":2,""num_whilered"":0,""num_whileblue"":1,""num_blue"":4,""num_good_moves"":7}","[294.22232142857143,296.12857142857143,1.6,294.22232142857143,296.12857142857143,103.5,294.22232142857143,296.12857142857143,212.8,294.22232142857143,296.12857142857143,319.9,294.22232142857143,296.12857142857143,420.9,294.22232142857143,296.12857142857143,521,294.22232142857143,296.12857142857143,624.7,249.22232142857143,326.12857142857143,726.2,112.22232142857143,433.12857142857143,836,74.22232142857143,465.12857142857143,947.4,73.22232142857143,465.12857142857143,1050.3,73.22232142857143,465.12857142857143,1156.6,73.22232142857143,465.12857142857143,1256.7,52.222321428571426,504.12857142857143,1365,39.222321428571426,543.1285714285714,1470.1,35.222321428571426,549.1285714285714,1575.1,34.222321428571426,551.1285714285714,1680.8,34.222321428571426,550.1285714285714,1785.2,34.222321428571426,550.1285714285714,1888.9,34.222321428571426,550.1285714285714,1992.7,34.222321428571426,550.1285714285714,2101.1,34.222321428571426,550.1285714285714,2202.7,34.222321428571426,550.1285714285714,2306.3,34.222321428571426,550.1285714285714,2409.9,34.222321428571426,550.1285714285714,2513.8,34.222321428571426,550.1285714285714,2619,34.222321428571426,550.1285714285714,2734.6,34.222321428571426,550.1285714285714,2834.9,34.222321428571426,550.1285714285714,2945.2,34.222321428571426,550.1285714285714,3052.7,34.222321428571426,550.1285714285714,3154.2,34.222321428571426,550.1285714285714,3256.1,34.222321428571426,550.1285714285714,3358.1,34.222321428571426,550.1285714285714,3461.5,34.222321428571426,550.1285714285714,3562.5,34.222321428571426,550.1285714285714,3665.8,34.222321428571426,550.1285714285714,3774.2,34.222321428571426,550.1285714285714,3875.6,34.222321428571426,550.1285714285714,3975.8,34.222321428571426,550.1285714285714,4086.6,34.222321428571426,550.1285714285714,4187.9,34.222321428571426,550.1285714285714,4290.4,34.222321428571426,550.1285714285714,4396,34.222321428571426,550.1285714285714,4496.1,34.222321428571426,550.1285714285714,4602,34.222321428571426,550.1285714285714,4711.8,34.222321428571426,550.1285714285714,4814.1,34.222321428571426,550.1285714285714,4919.9]","[12136.1,12136.1,2855.2,8875.6,405.3,""smooth"",""left"",""left"",""good_move"",15066.9,2929.8,2288,12137.1,641.8,""smooth"",""left"",""left"",""good_move"",18564.2,3496.8,3160.4,15067.4,336.4,""oops"",""left"",""right"",""bad_move"",21457.4,2891.9,2400,18565.5,491.9,""oops"",""down"",""down"",""good_move"",25043.4,3584.9,3194.2,21458.5,390.7,""oops"",""down"",""left"",""good_move"",28463.1,3418.9,3073.6,25044.2,345.3,""oops"",""down"",""up"",""bad_move"",31448.2,2984.1,2671.5,28464.1,312.7,""oops"",""left"",""up"",""bad_move"",33794.1,2345.2,1788.1,31448.9,557.1,""oops"",""left"",""right"",""bad_move"",36563.2,2767.6,2414,33795.7,353.5,""smooth"",""left"",""left"",""good_move"",39733.3,3169.7,2814.2,36563.6,355.5,""smooth"",""left"",""left"",""good_move"",42690.3,2956.7,2475.1,39733.6,481.6,""while_blue"",""up"",""down"",""good_move"",45508.4,2817.4,2458,42691,359.4,""oops"",""down"",""up"",""bad_move""]","",""
"7559","","<div style=""width:500px;"">
  <p>What determined the result of this run?</p>
  </div>","0","html-slider-response","40","701737","0.0-5.0-1.6","225","1","2025-07-23 15:05:04","1f75c3e559b7213887762d5229550c2b","41.114.36.76","Mozilla/5.0 (Windows NT 10.0; Win64; x64) AppleWebKit/537.36 (KHTML, like Gecko) Chrome/138.0.0.0 Safari/537.36","WebKit","Chrome","138.0.0.0","Windows","10.0","https://app.prolific.com/","en-US,en;q=0.9","6612e7f231d13a67b8e758cc","683db9eb0562dbf637994deb","6880f9e7a986a7cc66b76696","2","1","6612e7f231d13a67b8e758cc","2","1","2025-07-23T15:16:49.726Z","","","","","","","","","","","AttribQ","","50","","","","","","","","","","","","","","","","","","","","","","","","","","","","",""
"3998","","<div style=""width:500px;"">
  <p>How much control did you have over the ball?</p>
  </div>","0","html-slider-response","41","705738","0.0-5.0-2.6","225","1","2025-07-23 15:05:04","1f75c3e559b7213887762d5229550c2b","41.114.36.76","Mozilla/5.0 (Windows NT 10.0; Win64; x64) AppleWebKit/537.36 (KHTML, like Gecko) Chrome/138.0.0.0 Safari/537.36","WebKit","Chrome","138.0.0.0","Windows","10.0","https://app.prolific.com/","en-US,en;q=0.9","6612e7f231d13a67b8e758cc","683db9eb0562dbf637994deb","6880f9e7a986a7cc66b76696","2","1","6612e7f231d13a67b8e758cc","2","1","2025-07-23T15:16:53.727Z","","","","","","","","","","","ControlQ","","50","","","","","","","","","","","","","","","","","","","","","","","","","","","","",""
"3577","","<div style=""width:500px;"">
  <p>How would you describe your current emotional state?</p>
  </div>","100","html-slider-response","42","709318","0.0-5.0-3.6","225","1","2025-07-23 15:05:04","1f75c3e559b7213887762d5229550c2b","41.114.36.76","Mozilla/5.0 (Windows NT 10.0; Win64; x64) AppleWebKit/537.36 (KHTML, like Gecko) Chrome/138.0.0.0 Safari/537.36","WebKit","Chrome","138.0.0.0","Windows","10.0","https://app.prolific.com/","en-US,en;q=0.9","6612e7f231d13a67b8e758cc","683db9eb0562dbf637994deb","6880f9e7a986a7cc66b76696","2","1","6612e7f231d13a67b8e758cc","2","1","2025-07-23T15:16:57.307Z","","","","","","","","","","","StressQ","","50","","","","","","","","","","","","","","","","","","","","","","","","","","","","",""
"3610","","<div style=""width:500px;"">
  <p>What best describes how you currently feel?</p>
  </div>","0","html-slider-response","43","712930","0.0-5.0-4.6","225","1","2025-07-23 15:05:04","1f75c3e559b7213887762d5229550c2b","41.114.36.76","Mozilla/5.0 (Windows NT 10.0; Win64; x64) AppleWebKit/537.36 (KHTML, like Gecko) Chrome/138.0.0.0 Safari/537.36","WebKit","Chrome","138.0.0.0","Windows","10.0","https://app.prolific.com/","en-US,en;q=0.9","6612e7f231d13a67b8e758cc","683db9eb0562dbf637994deb","6880f9e7a986a7cc66b76696","2","1","6612e7f231d13a67b8e758cc","2","1","2025-07-23T15:17:00.920Z","","","","","","","","","","","MotivationQ","","50","","","","","","","","","","","","","","","","","","","","","","","","","","","","",""
"","","","","ctl-task-cpt","44","746143","0.0-5.0-0.7","225","1","2025-07-23 15:05:04","1f75c3e559b7213887762d5229550c2b","41.114.36.76","Mozilla/5.0 (Windows NT 10.0; Win64; x64) AppleWebKit/537.36 (KHTML, like Gecko) Chrome/138.0.0.0 Safari/537.36","WebKit","Chrome","138.0.0.0","Windows","10.0","https://app.prolific.com/","en-US,en;q=0.9","6612e7f231d13a67b8e758cc","683db9eb0562dbf637994deb","6880f9e7a986a7cc66b76696","2","1","6612e7f231d13a67b8e758cc","2","1","2025-07-23T15:17:34.132Z","","","","","","","","","","","","","","win-only","1","g1:NE,g2:SW","0.3","8","0","738881.9","4526.9","9534.6","30175","1","4","4","6","2","4","3","3","0","0.022727272727272728","1473.7","3000","1345","[""down"",""left""]","{""num_key_presses"":8,""num_perfect"":3,""num_errors"":1,""num_randdir"":4,""num_randdir_good_moves"":3,""num_whilered"":0,""num_whileblue"":1,""num_blue"":1,""num_good_moves"":7}","[294.22232142857143,302.12857142857143,2.4,294.22232142857143,302.12857142857143,119.1,294.22232142857143,302.12857142857143,226.3,294.22232142857143,302.12857142857143,326.7,294.22232142857143,302.12857142857143,429.4,294.22232142857143,302.12857142857143,529.8,294.22232142857143,302.12857142857143,637.7,294.22232142857143,301.12857142857143,742.9,166.22232142857143,389.12857142857143,849.5,51.222321428571426,525.1285714285714,952.4,16.222321428571426,571.1285714285714,1057.7,5.222321428571426,578.1285714285714,1158.1,4.222321428571426,578.1285714285714,1266.2,4.222321428571426,578.1285714285714,1368.7,4.222321428571426,578.1285714285714,1485.6,4.222321428571426,578.1285714285714,1591.3,4.222321428571426,578.1285714285714,1691.9,4.222321428571426,578.1285714285714,1792.3,4.222321428571426,578.1285714285714,1900.3,4.222321428571426,578.1285714285714,2003.2,4.222321428571426,578.1285714285714,2105.1,4.222321428571426,578.1285714285714,2208.3,4.222321428571426,578.1285714285714,2313.6,4.222321428571426,578.1285714285714,2417.9,4.222321428571426,578.1285714285714,2522.5,4.222321428571426,578.1285714285714,2623.3,4.222321428571426,578.1285714285714,2723.6,4.222321428571426,578.1285714285714,2826.6,4.222321428571426,578.1285714285714,2931.9,4.222321428571426,578.1285714285714,3032.4,4.222321428571426,578.1285714285714,3133.8,4.222321428571426,578.1285714285714,3237.6,4.222321428571426,578.1285714285714,3338.7,4.222321428571426,578.1285714285714,3448.1,4.222321428571426,578.1285714285714,3548.3,4.222321428571426,578.1285714285714,3648.6,4.222321428571426,578.1285714285714,3753.1,4.222321428571426,578.1285714285714,3854.1,4.222321428571426,578.1285714285714,3956.3,4.222321428571426,578.1285714285714,4057.4,4.222321428571426,578.1285714285714,4163.9,4.222321428571426,578.1285714285714,4264.3,4.222321428571426,578.1285714285714,4371.5,4.222321428571426,578.1285714285714,4473.6,4.222321428571426,578.1285714285714,4573.8,4.222321428571426,578.1285714285714,4677.7,4.222321428571426,578.1285714285714,4779.6,4.222321428571426,578.1285714285714,4885.4,4.222321428571426,578.1285714285714,4986.1]","[1424,1424,1000,0,424,""smooth"",""left"",""left"",""good_move"",4034.2,2608.3,2218.2,1425.9,390.1,""smooth"",""left"",""left"",""good_move"",6921.7,2886.6,2510.4,4035.1,376.2,""oops"",""left"",""down"",""good_move"",10156.1,3234,2845.4,6922.1,388.6,""smooth"",""left"",""left"",""good_move"",13235.6,3078.3,2708.4,10157.3,369.9,""oops"",""down"",""right"",""bad_move"",15431.5,2193.3,1665.8,13238.2,527.5,""oops"",""left"",""down"",""good_move"",17464.7,2032.2,1599.8,15432.5,432.4,""oops"",""left"",""down"",""good_move"",20416,2950.5,2514.1,17465.5,436.4,""while_blue"",""left"",""left"",""good_move""]","",""
"4766","","<div style=""width:500px;"">
  <p>What determined the result of this run?</p>
  </div>","2","html-slider-response","45","750912","0.0-5.0-1.7","225","1","2025-07-23 15:05:04","1f75c3e559b7213887762d5229550c2b","41.114.36.76","Mozilla/5.0 (Windows NT 10.0; Win64; x64) AppleWebKit/537.36 (KHTML, like Gecko) Chrome/138.0.0.0 Safari/537.36","WebKit","Chrome","138.0.0.0","Windows","10.0","https://app.prolific.com/","en-US,en;q=0.9","6612e7f231d13a67b8e758cc","683db9eb0562dbf637994deb","6880f9e7a986a7cc66b76696","2","1","6612e7f231d13a67b8e758cc","2","1","2025-07-23T15:17:38.901Z","","","","","","","","","","","AttribQ","","50","","","","","","","","","","","","","","","","","","","","","","","","","","","","",""
"3043","","<div style=""width:500px;"">
  <p>How much control did you have over the ball?</p>
  </div>","0","html-slider-response","46","753957","0.0-5.0-2.7","225","1","2025-07-23 15:05:04","1f75c3e559b7213887762d5229550c2b","41.114.36.76","Mozilla/5.0 (Windows NT 10.0; Win64; x64) AppleWebKit/537.36 (KHTML, like Gecko) Chrome/138.0.0.0 Safari/537.36","WebKit","Chrome","138.0.0.0","Windows","10.0","https://app.prolific.com/","en-US,en;q=0.9","6612e7f231d13a67b8e758cc","683db9eb0562dbf637994deb","6880f9e7a986a7cc66b76696","2","1","6612e7f231d13a67b8e758cc","2","1","2025-07-23T15:17:41.946Z","","","","","","","","","","","ControlQ","","50","","","","","","","","","","","","","","","","","","","","","","","","","","","","",""
"5462","","<div style=""width:500px;"">
  <p>How would you describe your current emotional state?</p>
  </div>","100","html-slider-response","47","759422","0.0-5.0-3.7","225","1","2025-07-23 15:05:04","1f75c3e559b7213887762d5229550c2b","41.114.36.76","Mozilla/5.0 (Windows NT 10.0; Win64; x64) AppleWebKit/537.36 (KHTML, like Gecko) Chrome/138.0.0.0 Safari/537.36","WebKit","Chrome","138.0.0.0","Windows","10.0","https://app.prolific.com/","en-US,en;q=0.9","6612e7f231d13a67b8e758cc","683db9eb0562dbf637994deb","6880f9e7a986a7cc66b76696","2","1","6612e7f231d13a67b8e758cc","2","1","2025-07-23T15:17:47.411Z","","","","","","","","","","","StressQ","","50","","","","","","","","","","","","","","","","","","","","","","","","","","","","",""
"3294","","<div style=""width:500px;"">
  <p>What best describes how you currently feel?</p>
  </div>","0","html-slider-response","48","762719","0.0-5.0-4.7","225","1","2025-07-23 15:05:04","1f75c3e559b7213887762d5229550c2b","41.114.36.76","Mozilla/5.0 (Windows NT 10.0; Win64; x64) AppleWebKit/537.36 (KHTML, like Gecko) Chrome/138.0.0.0 Safari/537.36","WebKit","Chrome","138.0.0.0","Windows","10.0","https://app.prolific.com/","en-US,en;q=0.9","6612e7f231d13a67b8e758cc","683db9eb0562dbf637994deb","6880f9e7a986a7cc66b76696","2","1","6612e7f231d13a67b8e758cc","2","1","2025-07-23T15:17:50.708Z","","","","","","","","","","","MotivationQ","","50","","","","","","","","","","","","","","","","","","","","","","","","","","","","",""
"","","","","ctl-task-cpt","49","868001","0.0-5.0-0.8","225","1","2025-07-23 15:05:04","1f75c3e559b7213887762d5229550c2b","41.114.36.76","Mozilla/5.0 (Windows NT 10.0; Win64; x64) AppleWebKit/537.36 (KHTML, like Gecko) Chrome/138.0.0.0 Safari/537.36","WebKit","Chrome","138.0.0.0","Windows","10.0","https://app.prolific.com/","en-US,en;q=0.9","6612e7f231d13a67b8e758cc","683db9eb0562dbf637994deb","6880f9e7a986a7cc66b76696","2","1","6612e7f231d13a67b8e758cc","2","1","2025-07-23T15:19:35.990Z","","","","","","","","","","","","","","win-only","1","g1:NE,g2:SW","0.2","9","0","788670","3489.1","8503.1","102257","1","4","8","6","2","-8","-10","0","3","0","1978.4","3000","-1780","[""down"",""left""]","{""num_key_presses"":24,""num_perfect"":4,""num_errors"":2,""num_randdir"":18,""num_randdir_good_moves"":9,""num_whilered"":0,""num_whileblue"":1,""num_blue"":4,""num_good_moves"":13}","[298.22232142857143,297.12857142857143,0.7,298.22232142857143,297.12857142857143,116.8,298.22232142857143,297.12857142857143,229.2,298.22232142857143,297.12857142857143,344.8,298.22232142857143,297.12857142857143,453.8,298.22232142857143,297.12857142857143,563.1,294.22232142857143,297.12857142857143,675.9,196.22232142857143,331.12857142857143,780.6,127.22232142857143,407.12857142857143,881.3,110.22232142857143,444.12857142857143,994.7,95.22232142857143,481.12857142857143,1096.5,93.22232142857143,484.12857142857143,1213.1,85.22232142857143,491.12857142857143,1315.3,85.22232142857143,491.12857142857143,1423,85.22232142857143,491.12857142857143,1532.8,83.22232142857143,494.12857142857143,1634.3,80.22232142857143,500.12857142857143,1737.6,80.22232142857143,500.12857142857143,1848.8,80.22232142857143,500.12857142857143,1959.3,80.22232142857143,500.12857142857143,2066.5,80.22232142857143,500.12857142857143,2184.1,80.22232142857143,500.12857142857143,2291.4,80.22232142857143,500.12857142857143,2395.1,80.22232142857143,500.12857142857143,2500.8,80.22232142857143,500.12857142857143,2617.5,80.22232142857143,500.12857142857143,2730.3,80.22232142857143,500.12857142857143,2841.5,80.22232142857143,500.12857142857143,2955.4,80.22232142857143,500.12857142857143,3068.8,80.22232142857143,500.12857142857143,3183.6,80.22232142857143,500.12857142857143,3291.1,80.22232142857143,500.12857142857143,3402.5,80.22232142857143,500.12857142857143,3510.8,80.22232142857143,500.12857142857143,3616.9,80.22232142857143,500.12857142857143,3726.1,80.22232142857143,500.12857142857143,3834.6,80.22232142857143,500.12857142857143,3940.7,80.22232142857143,500.12857142857143,4049.1,80.22232142857143,500.12857142857143,4149.1,80.22232142857143,500.12857142857143,4257.2,80.22232142857143,500.12857142857143,4366.1,80.22232142857143,500.12857142857143,4476.1,80.22232142857143,500.12857142857143,4589.9,80.22232142857143,500.12857142857143,4703.3,80.22232142857143,500.12857142857143,4809.2,80.22232142857143,500.12857142857143,4919.7]","[1494.3,1494.3,1000,0,494.3,""oops"",""left"",""right"",""bad_move"",4299.7,2804.9,2106.2,1494.8,698.7,""smooth"",""left"",""left"",""good_move"",7501.8,3201.5,2332.2,4300.3,869.4,""oops"",""down"",""left"",""good_move"",11470.7,3968.1,3068.5,7502.6,899.6,""oops"",""down"",""down"",""good_move"",13682.6,2211.4,1710.6,11471.2,500.8,""smooth"",""down"",""down"",""good_move"",16303.6,2620.6,2232.4,13683,388.2,""oops"",""down"",""down"",""good_move"",25784.5,9480.1,2551.5,22782.3,450.7,""oops"",""left"",""up"",""bad_move"",30240.7,4455.7,3091.9,25785,1363.8,""oops"",""left"",""up"",""bad_move"",34635.8,4394.5,2616.7,30241.3,1777.8,""oops"",""left"",""right"",""bad_move"",38292.8,3656.8,2739.5,34636.1,917.3,""oops"",""left"",""right"",""bad_move"",41140.5,2847.3,2457,38293.2,390.3,""oops"",""down"",""left"",""good_move"",45628.1,4487.2,2631,41140.9,1856.2,""oops"",""down"",""left"",""good_move"",50152.4,4524,2568.6,45628.4,1955.4,""oops"",""down"",""right"",""bad_move"",53585.2,3432.4,2710.8,50152.8,721.6,""oops"",""down"",""left"",""good_move"",58789.7,5204.1,3016.8,53585.6,2187.3,""oops"",""down"",""right"",""bad_move"",61659.9,2869.9,2344.8,58790.1,525,""oops"",""down"",""left"",""good_move"",68133.8,6473.5,2554.5,61660.3,3919,""smooth"",""down"",""down"",""good_move"",71861,3725.6,3134.3,71460,-2733.3,""error"",""-"",""-"",""no_move"",76181.3,4318.9,2886.2,72869.8,425.4,""oops"",""down"",""down"",""good_move"",78525.7,2343.8,1842.6,76181.9,501.2,""smooth"",""left"",""left"",""good_move"",81518.3,2991.8,2582.1,78526.5,409.7,""oops"",""left"",""up"",""bad_move"",84540.9,3020.1,2597.5,81520.8,422.6,""while_blue"",""left"",""right"",""bad_move"",87724.9,3183,2726.7,84541.9,456.3,""oops"",""down"",""left"",""good_move"",91176.6,3451.4,3016.1,87725.2,435.3,""oops"",""down"",""up"",""bad_move""]","",""
"4063","","<div style=""width:500px;"">
  <p>What determined the result of this run?</p>
  </div>","1","html-slider-response","50","872066","0.0-5.0-1.8","225","1","2025-07-23 15:05:04","1f75c3e559b7213887762d5229550c2b","41.114.36.76","Mozilla/5.0 (Windows NT 10.0; Win64; x64) AppleWebKit/537.36 (KHTML, like Gecko) Chrome/138.0.0.0 Safari/537.36","WebKit","Chrome","138.0.0.0","Windows","10.0","https://app.prolific.com/","en-US,en;q=0.9","6612e7f231d13a67b8e758cc","683db9eb0562dbf637994deb","6880f9e7a986a7cc66b76696","2","1","6612e7f231d13a67b8e758cc","2","1","2025-07-23T15:19:40.055Z","","","","","","","","","","","AttribQ","","50","","","","","","","","","","","","","","","","","","","","","","","","","","","","",""
"3451","","<div style=""width:500px;"">
  <p>How much control did you have over the ball?</p>
  </div>","0","html-slider-response","51","875519","0.0-5.0-2.8","225","1","2025-07-23 15:05:04","1f75c3e559b7213887762d5229550c2b","41.114.36.76","Mozilla/5.0 (Windows NT 10.0; Win64; x64) AppleWebKit/537.36 (KHTML, like Gecko) Chrome/138.0.0.0 Safari/537.36","WebKit","Chrome","138.0.0.0","Windows","10.0","https://app.prolific.com/","en-US,en;q=0.9","6612e7f231d13a67b8e758cc","683db9eb0562dbf637994deb","6880f9e7a986a7cc66b76696","2","1","6612e7f231d13a67b8e758cc","2","1","2025-07-23T15:19:43.508Z","","","","","","","","","","","ControlQ","","50","","","","","","","","","","","","","","","","","","","","","","","","","","","","",""
"4198","","<div style=""width:500px;"">
  <p>How would you describe your current emotional state?</p>
  </div>","99","html-slider-response","52","879720","0.0-5.0-3.8","225","1","2025-07-23 15:05:04","1f75c3e559b7213887762d5229550c2b","41.114.36.76","Mozilla/5.0 (Windows NT 10.0; Win64; x64) AppleWebKit/537.36 (KHTML, like Gecko) Chrome/138.0.0.0 Safari/537.36","WebKit","Chrome","138.0.0.0","Windows","10.0","https://app.prolific.com/","en-US,en;q=0.9","6612e7f231d13a67b8e758cc","683db9eb0562dbf637994deb","6880f9e7a986a7cc66b76696","2","1","6612e7f231d13a67b8e758cc","2","1","2025-07-23T15:19:47.710Z","","","","","","","","","","","StressQ","","50","","","","","","","","","","","","","","","","","","","","","","","","","","","","",""
"5046","","<div style=""width:500px;"">
  <p>What best describes how you currently feel?</p>
  </div>","3","html-slider-response","53","884771","0.0-5.0-4.8","225","1","2025-07-23 15:05:04","1f75c3e559b7213887762d5229550c2b","41.114.36.76","Mozilla/5.0 (Windows NT 10.0; Win64; x64) AppleWebKit/537.36 (KHTML, like Gecko) Chrome/138.0.0.0 Safari/537.36","WebKit","Chrome","138.0.0.0","Windows","10.0","https://app.prolific.com/","en-US,en;q=0.9","6612e7f231d13a67b8e758cc","683db9eb0562dbf637994deb","6880f9e7a986a7cc66b76696","2","1","6612e7f231d13a67b8e758cc","2","1","2025-07-23T15:19:52.760Z","","","","","","","","","","","MotivationQ","","50","","","","","","","","","","","","","","","","","","","","","","","","","","","","",""
"","","","","ctl-task-cpt","54","913964","0.0-5.0-0.9","225","1","2025-07-23 15:05:04","1f75c3e559b7213887762d5229550c2b","41.114.36.76","Mozilla/5.0 (Windows NT 10.0; Win64; x64) AppleWebKit/537.36 (KHTML, like Gecko) Chrome/138.0.0.0 Safari/537.36","WebKit","Chrome","138.0.0.0","Windows","10.0","https://app.prolific.com/","en-US,en;q=0.9","6612e7f231d13a67b8e758cc","683db9eb0562dbf637994deb","6880f9e7a986a7cc66b76696","2","1","6612e7f231d13a67b8e758cc","2","1","2025-07-23T15:20:21.953Z","","","","","","","","","","","","","","win-only","2","g1:SE,g2:NW","0.4","10","0","910723.6","1948","6953.1","26167.3","1","4","4","6","2","4","4","4","0","0.030303030303030304","1809.1","3000","1770","[""left"",""up""]","{""num_key_presses"":6,""num_perfect"":3,""num_errors"":0,""num_randdir"":3,""num_randdir_good_moves"":3,""num_whilered"":0,""num_whileblue"":0,""num_blue"":1,""num_good_moves"":6}","[296.22232142857143,294.12857142857143,0.4,296.22232142857143,294.12857142857143,103.2,296.22232142857143,294.12857142857143,209.5,296.22232142857143,294.12857142857143,319.1,296.22232142857143,294.12857142857143,422.2,296.22232142857143,294.12857142857143,528.8,296.22232142857143,294.12857142857143,632.5,287.22232142857143,280.12857142857143,739,125.22232142857143,76.12857142857143,857.9,97.22232142857143,36.128571428571426,968,97.22232142857143,36.128571428571426,1068.1,97.22232142857143,36.128571428571426,1168.9,90.22232142857143,33.128571428571426,1272.4,84.22232142857143,32.128571428571426,1373.5,72.22232142857143,33.128571428571426,1482.3,68.22232142857143,35.128571428571426,1591.1,68.22232142857143,35.128571428571426,1699.5,68.22232142857143,36.128571428571426,1814.3,68.22232142857143,36.128571428571426,1922.7,68.22232142857143,36.128571428571426,2023.8,68.22232142857143,36.128571428571426,2127.1,68.22232142857143,36.128571428571426,2233,68.22232142857143,36.128571428571426,2340.5,68.22232142857143,36.128571428571426,2442.5,68.22232142857143,36.128571428571426,2550.6,68.22232142857143,36.128571428571426,2658.9,68.22232142857143,36.128571428571426,2770.1,68.22232142857143,36.128571428571426,2881,68.22232142857143,36.128571428571426,2981.5,68.22232142857143,36.128571428571426,3086.6,68.22232142857143,36.128571428571426,3195.1,68.22232142857143,36.128571428571426,3304.9,68.22232142857143,36.128571428571426,3405.1,68.22232142857143,36.128571428571426,3510.9,68.22232142857143,36.128571428571426,3618.6,68.22232142857143,36.128571428571426,3729.2,68.22232142857143,36.128571428571426,3837.6,68.22232142857143,36.128571428571426,3944.1,68.22232142857143,36.128571428571426,4048.9,68.22232142857143,36.128571428571426,4158.2,68.22232142857143,36.128571428571426,4260.7,68.22232142857143,36.128571428571426,4370.2,68.22232142857143,36.128571428571426,4477.5,68.22232142857143,36.128571428571426,4579.3,68.22232142857143,36.128571428571426,4682.7,68.22232142857143,36.128571428571426,4791.8,68.22232142857143,36.128571428571426,4894.8]","[1578.2,1578.2,1000,0,578.2,""oops"",""up"",""left"",""good_move"",4489.8,2910,2386.2,1579.9,523.7,""smooth"",""up"",""up"",""good_move"",7887.2,3394.9,2889.5,4492.3,505.4,""smooth"",""up"",""up"",""good_move"",10414.5,2526.6,2091.5,7887.9,435.1,""oops"",""up"",""left"",""good_move"",16555.5,6140.6,2427.2,13660.4,467.9,""oops"",""up"",""up"",""good_move"",18985.4,2429.3,1744.9,16556.1,684.4,""smooth"",""left"",""left"",""good_move""]","",""
"4475","","<div style=""width:500px;"">
  <p>What determined the result of this run?</p>
  </div>","0","html-slider-response","55","918441","0.0-5.0-1.9","225","1","2025-07-23 15:05:04","1f75c3e559b7213887762d5229550c2b","41.114.36.76","Mozilla/5.0 (Windows NT 10.0; Win64; x64) AppleWebKit/537.36 (KHTML, like Gecko) Chrome/138.0.0.0 Safari/537.36","WebKit","Chrome","138.0.0.0","Windows","10.0","https://app.prolific.com/","en-US,en;q=0.9","6612e7f231d13a67b8e758cc","683db9eb0562dbf637994deb","6880f9e7a986a7cc66b76696","2","1","6612e7f231d13a67b8e758cc","2","1","2025-07-23T15:20:26.430Z","","","","","","","","","","","AttribQ","","50","","","","","","","","","","","","","","","","","","","","","","","","","","","","",""
"3023","","<div style=""width:500px;"">
  <p>How much control did you have over the ball?</p>
  </div>","0","html-slider-response","56","921468","0.0-5.0-2.9","225","1","2025-07-23 15:05:04","1f75c3e559b7213887762d5229550c2b","41.114.36.76","Mozilla/5.0 (Windows NT 10.0; Win64; x64) AppleWebKit/537.36 (KHTML, like Gecko) Chrome/138.0.0.0 Safari/537.36","WebKit","Chrome","138.0.0.0","Windows","10.0","https://app.prolific.com/","en-US,en;q=0.9","6612e7f231d13a67b8e758cc","683db9eb0562dbf637994deb","6880f9e7a986a7cc66b76696","2","1","6612e7f231d13a67b8e758cc","2","1","2025-07-23T15:20:29.457Z","","","","","","","","","","","ControlQ","","50","","","","","","","","","","","","","","","","","","","","","","","","","","","","",""
"5384","","<div style=""width:500px;"">
  <p>How would you describe your current emotional state?</p>
  </div>","100","html-slider-response","57","926854","0.0-5.0-3.9","225","1","2025-07-23 15:05:04","1f75c3e559b7213887762d5229550c2b","41.114.36.76","Mozilla/5.0 (Windows NT 10.0; Win64; x64) AppleWebKit/537.36 (KHTML, like Gecko) Chrome/138.0.0.0 Safari/537.36","WebKit","Chrome","138.0.0.0","Windows","10.0","https://app.prolific.com/","en-US,en;q=0.9","6612e7f231d13a67b8e758cc","683db9eb0562dbf637994deb","6880f9e7a986a7cc66b76696","2","1","6612e7f231d13a67b8e758cc","2","1","2025-07-23T15:20:34.843Z","","","","","","","","","","","StressQ","","50","","","","","","","","","","","","","","","","","","","","","","","","","","","","",""
"3083","","<div style=""width:500px;"">
  <p>What best describes how you currently feel?</p>
  </div>","0","html-slider-response","58","929938","0.0-5.0-4.9","225","1","2025-07-23 15:05:04","1f75c3e559b7213887762d5229550c2b","41.114.36.76","Mozilla/5.0 (Windows NT 10.0; Win64; x64) AppleWebKit/537.36 (KHTML, like Gecko) Chrome/138.0.0.0 Safari/537.36","WebKit","Chrome","138.0.0.0","Windows","10.0","https://app.prolific.com/","en-US,en;q=0.9","6612e7f231d13a67b8e758cc","683db9eb0562dbf637994deb","6880f9e7a986a7cc66b76696","2","1","6612e7f231d13a67b8e758cc","2","1","2025-07-23T15:20:37.928Z","","","","","","","","","","","MotivationQ","","50","","","","","","","","","","","","","","","","","","","","","","","","","","","","",""
"","","","","ctl-task-cpt","59","981092","0.0-5.0-0.10","225","1","2025-07-23 15:05:04","1f75c3e559b7213887762d5229550c2b","41.114.36.76","Mozilla/5.0 (Windows NT 10.0; Win64; x64) AppleWebKit/537.36 (KHTML, like Gecko) Chrome/138.0.0.0 Safari/537.36","WebKit","Chrome","138.0.0.0","Windows","10.0","https://app.prolific.com/","en-US,en;q=0.9","6612e7f231d13a67b8e758cc","683db9eb0562dbf637994deb","6880f9e7a986a7cc66b76696","2","1","6612e7f231d13a67b8e758cc","2","1","2025-07-23T15:21:29.082Z","","","","","","","","","","","","","","win-only","3","g1:SW,g2:NE","0.5","11","0","955889.3","1548.3","6551.5","48113.9","1","4","4","6","2","4","4","8","4","0.06060606060606061","1415.6","3000","1690","[""up"",""right""]","{""num_key_presses"":10,""num_perfect"":5,""num_errors"":0,""num_randdir"":5,""num_randdir_good_moves"":3,""num_whilered"":0,""num_whileblue"":0,""num_blue"":1,""num_good_moves"":8}","[300.22232142857143,297.12857142857143,0.2,300.22232142857143,297.12857142857143,105.8,300.22232142857143,297.12857142857143,220.4,300.22232142857143,297.12857142857143,339.3,300.22232142857143,297.12857142857143,447.2,300.22232142857143,297.12857142857143,562.4,300.22232142857143,297.12857142857143,675.2,319.22232142857143,276.12857142857143,790.4,514.2223214285714,85.12857142857143,891.9,553.2223214285714,45.128571428571426,1011.2,553.2223214285714,44.128571428571426,1125.8,554.2223214285714,44.128571428571426,1240.7,554.2223214285714,44.128571428571426,1354.7,554.2223214285714,44.128571428571426,1456.9,554.2223214285714,44.128571428571426,1558.3,554.2223214285714,44.128571428571426,1675.5,554.2223214285714,44.128571428571426,1782.9,554.2223214285714,44.128571428571426,1900.9,554.2223214285714,44.128571428571426,2015.9,554.2223214285714,44.128571428571426,2117.1,554.2223214285714,44.128571428571426,2227.8,554.2223214285714,44.128571428571426,2342.3,554.2223214285714,44.128571428571426,2451.1,554.2223214285714,44.128571428571426,2563.5,554.2223214285714,44.128571428571426,2673.9,554.2223214285714,44.128571428571426,2784.1,554.2223214285714,44.128571428571426,2892.6,554.2223214285714,44.128571428571426,3002.6,554.2223214285714,44.128571428571426,3111,554.2223214285714,44.128571428571426,3227.3,554.2223214285714,44.128571428571426,3341.9,554.2223214285714,44.128571428571426,3452.3,554.2223214285714,44.128571428571426,3564.3,554.2223214285714,44.128571428571426,3674,554.2223214285714,44.128571428571426,3783.5,554.2223214285714,44.128571428571426,3895.1,554.2223214285714,44.128571428571426,4003.8,554.2223214285714,44.128571428571426,4119,554.2223214285714,44.128571428571426,4226.9,554.2223214285714,44.128571428571426,4341.5,554.2223214285714,44.128571428571426,4457.1,554.2223214285714,44.128571428571426,4567.4,554.2223214285714,44.128571428571426,4683.8,554.2223214285714,44.128571428571426,4798.7,554.2223214285714,44.128571428571426,4908.7]","[1458.9,1458.9,1000,0,458.9,""oops"",""right"",""left"",""bad_move"",5449.3,3989.9,2114.5,1459.4,1875.4,""oops"",""up"",""down"",""bad_move"",8873.9,3423.9,2939.6,5450,484.3,""smooth"",""up"",""up"",""good_move"",13854.4,4980.1,2877.6,8874.3,2102.5,""smooth"",""up"",""up"",""good_move"",18921.6,5066.5,2777,13855.1,2289.5,""smooth"",""up"",""up"",""good_move"",24026,5104,2485.3,18922,2618.8,""oops"",""up"",""up"",""good_move"",27855.3,3828.9,2826.9,24026.4,1002,""oops"",""right"",""right"",""good_move"",35406.1,7549.7,3022.1,31946.6,437.4,""smooth"",""right"",""right"",""good_move"",38823.7,3416.6,2938.5,35407.1,478.1,""oops"",""right"",""right"",""good_move"",41295.7,2471.5,2049.7,38824.4,421.8,""smooth"",""right"",""right"",""good_move""]","",""
"5048","","<div style=""width:500px;"">
  <p>What determined the result of this run?</p>
  </div>","0","html-slider-response","60","986144","0.0-5.0-1.10","225","1","2025-07-23 15:05:04","1f75c3e559b7213887762d5229550c2b","41.114.36.76","Mozilla/5.0 (Windows NT 10.0; Win64; x64) AppleWebKit/537.36 (KHTML, like Gecko) Chrome/138.0.0.0 Safari/537.36","WebKit","Chrome","138.0.0.0","Windows","10.0","https://app.prolific.com/","en-US,en;q=0.9","6612e7f231d13a67b8e758cc","683db9eb0562dbf637994deb","6880f9e7a986a7cc66b76696","2","1","6612e7f231d13a67b8e758cc","2","1","2025-07-23T15:21:34.133Z","","","","","","","","","","","AttribQ","","50","","","","","","","","","","","","","","","","","","","","","","","","","","","","",""
"3978","","<div style=""width:500px;"">
  <p>How much control did you have over the ball?</p>
  </div>","0","html-slider-response","61","990126","0.0-5.0-2.10","225","1","2025-07-23 15:05:04","1f75c3e559b7213887762d5229550c2b","41.114.36.76","Mozilla/5.0 (Windows NT 10.0; Win64; x64) AppleWebKit/537.36 (KHTML, like Gecko) Chrome/138.0.0.0 Safari/537.36","WebKit","Chrome","138.0.0.0","Windows","10.0","https://app.prolific.com/","en-US,en;q=0.9","6612e7f231d13a67b8e758cc","683db9eb0562dbf637994deb","6880f9e7a986a7cc66b76696","2","1","6612e7f231d13a67b8e758cc","2","1","2025-07-23T15:21:38.115Z","","","","","","","","","","","ControlQ","","50","","","","","","","","","","","","","","","","","","","","","","","","","","","","",""
"2739","","<div style=""width:500px;"">
  <p>How would you describe your current emotional state?</p>
  </div>","100","html-slider-response","62","992868","0.0-5.0-3.10","225","1","2025-07-23 15:05:04","1f75c3e559b7213887762d5229550c2b","41.114.36.76","Mozilla/5.0 (Windows NT 10.0; Win64; x64) AppleWebKit/537.36 (KHTML, like Gecko) Chrome/138.0.0.0 Safari/537.36","WebKit","Chrome","138.0.0.0","Windows","10.0","https://app.prolific.com/","en-US,en;q=0.9","6612e7f231d13a67b8e758cc","683db9eb0562dbf637994deb","6880f9e7a986a7cc66b76696","2","1","6612e7f231d13a67b8e758cc","2","1","2025-07-23T15:21:40.857Z","","","","","","","","","","","StressQ","","50","","","","","","","","","","","","","","","","","","","","","","","","","","","","",""
"2964","","<div style=""width:500px;"">
  <p>What best describes how you currently feel?</p>
  </div>","0","html-slider-response","63","995837","0.0-5.0-4.10","225","1","2025-07-23 15:05:04","1f75c3e559b7213887762d5229550c2b","41.114.36.76","Mozilla/5.0 (Windows NT 10.0; Win64; x64) AppleWebKit/537.36 (KHTML, like Gecko) Chrome/138.0.0.0 Safari/537.36","WebKit","Chrome","138.0.0.0","Windows","10.0","https://app.prolific.com/","en-US,en;q=0.9","6612e7f231d13a67b8e758cc","683db9eb0562dbf637994deb","6880f9e7a986a7cc66b76696","2","1","6612e7f231d13a67b8e758cc","2","1","2025-07-23T15:21:43.826Z","","","","","","","","","","","MotivationQ","","50","","","","","","","","","","","","","","","","","","","","","","","","","","","","",""
"","","","","ctl-task-cpt","64","1028717","0.0-5.0-0.11","225","1","2025-07-23 15:05:04","1f75c3e559b7213887762d5229550c2b","41.114.36.76","Mozilla/5.0 (Windows NT 10.0; Win64; x64) AppleWebKit/537.36 (KHTML, like Gecko) Chrome/138.0.0.0 Safari/537.36","WebKit","Chrome","138.0.0.0","Windows","10.0","https://app.prolific.com/","en-US,en;q=0.9","6612e7f231d13a67b8e758cc","683db9eb0562dbf637994deb","6880f9e7a986a7cc66b76696","2","1","6612e7f231d13a67b8e758cc","2","1","2025-07-23T15:22:16.706Z","","","","","","","","","","","","","","win-only","1","g1:NE,g2:SW","0.6","12","0","1021789.5","1516.6","6523.1","29851.5","1","4","8","6","2","8","8","16","8","0.12121212121212122","1381.1","3000","2175","[""down"",""left""]","{""num_key_presses"":6,""num_perfect"":5,""num_errors"":0,""num_randdir"":1,""num_randdir_good_moves"":1,""num_whilered"":0,""num_whileblue"":0,""num_blue"":2,""num_good_moves"":6}","[291.22232142857143,296.12857142857143,0.4,291.22232142857143,296.12857142857143,110.6,291.22232142857143,296.12857142857143,230.8,291.22232142857143,296.12857142857143,352.3,291.22232142857143,296.12857142857143,481.5,291.22232142857143,296.12857142857143,597.8,273.22232142857143,309.12857142857143,725.7,154.22232142857143,437.12857142857143,852.7,96.22232142857143,507.12857142857143,971.8,81.22232142857143,519.1285714285714,1105.1,70.22232142857143,526.1285714285714,1225.6,70.22232142857143,526.1285714285714,1345.6,70.22232142857143,526.1285714285714,1473.1,70.22232142857143,526.1285714285714,1597.3,70.22232142857143,526.1285714285714,1720.3,70.22232142857143,526.1285714285714,1841.1,70.22232142857143,526.1285714285714,1963.8,70.22232142857143,526.1285714285714,2092,70.22232142857143,526.1285714285714,2209.5,70.22232142857143,526.1285714285714,2327.1,70.22232142857143,526.1285714285714,2443.8,70.22232142857143,526.1285714285714,2561.6,70.22232142857143,526.1285714285714,2681,70.22232142857143,526.1285714285714,2793.9,70.22232142857143,526.1285714285714,2919.4,70.22232142857143,526.1285714285714,3038.5,70.22232142857143,526.1285714285714,3156.1,70.22232142857143,526.1285714285714,3278.7,70.22232142857143,526.1285714285714,3390.5,70.22232142857143,526.1285714285714,3508.8,70.22232142857143,526.1285714285714,3628.2,70.22232142857143,526.1285714285714,3744.3,70.22232142857143,526.1285714285714,3864.2,70.22232142857143,526.1285714285714,3983.6,70.22232142857143,526.1285714285714,4104.2,70.22232142857143,526.1285714285714,4222.8,70.22232142857143,526.1285714285714,4342.7,70.22232142857143,526.1285714285714,4460,70.22232142857143,526.1285714285714,4586.5,70.22232142857143,526.1285714285714,4700.8,70.22232142857143,526.1285714285714,4816.8,70.22232142857143,526.1285714285714,4923]","[1414.2,1414.2,1000,0,414.2,""smooth"",""down"",""down"",""good_move"",3830.8,2415.8,2009.2,1415,406.6,""smooth"",""down"",""down"",""good_move"",9493.8,5661.9,1739.7,7303.8,450.3,""smooth"",""down"",""down"",""good_move"",11963.3,2469.2,2016.2,9494.1,453,""smooth"",""left"",""left"",""good_move"",19541,7576.5,2691.1,16279.3,570.6,""smooth"",""left"",""left"",""good_move"",23046.1,3504.7,3060.7,19541.4,444,""oops"",""left"",""left"",""good_move""]","",""
"4618","","<div style=""width:500px;"">
  <p>What determined the result of this run?</p>
  </div>","0","html-slider-response","65","1033337","0.0-5.0-1.11","225","1","2025-07-23 15:05:04","1f75c3e559b7213887762d5229550c2b","41.114.36.76","Mozilla/5.0 (Windows NT 10.0; Win64; x64) AppleWebKit/537.36 (KHTML, like Gecko) Chrome/138.0.0.0 Safari/537.36","WebKit","Chrome","138.0.0.0","Windows","10.0","https://app.prolific.com/","en-US,en;q=0.9","6612e7f231d13a67b8e758cc","683db9eb0562dbf637994deb","6880f9e7a986a7cc66b76696","2","1","6612e7f231d13a67b8e758cc","2","1","2025-07-23T15:22:21.326Z","","","","","","","","","","","AttribQ","","50","","","","","","","","","","","","","","","","","","","","","","","","","","","","",""
"4029","","<div style=""width:500px;"">
  <p>How much control did you have over the ball?</p>
  </div>","1","html-slider-response","66","1037369","0.0-5.0-2.11","225","1","2025-07-23 15:05:04","1f75c3e559b7213887762d5229550c2b","41.114.36.76","Mozilla/5.0 (Windows NT 10.0; Win64; x64) AppleWebKit/537.36 (KHTML, like Gecko) Chrome/138.0.0.0 Safari/537.36","WebKit","Chrome","138.0.0.0","Windows","10.0","https://app.prolific.com/","en-US,en;q=0.9","6612e7f231d13a67b8e758cc","683db9eb0562dbf637994deb","6880f9e7a986a7cc66b76696","2","1","6612e7f231d13a67b8e758cc","2","1","2025-07-23T15:22:25.358Z","","","","","","","","","","","ControlQ","","50","","","","","","","","","","","","","","","","","","","","","","","","","","","","",""
"3649","","<div style=""width:500px;"">
  <p>How would you describe your current emotional state?</p>
  </div>","92","html-slider-response","67","1041022","0.0-5.0-3.11","225","1","2025-07-23 15:05:04","1f75c3e559b7213887762d5229550c2b","41.114.36.76","Mozilla/5.0 (Windows NT 10.0; Win64; x64) AppleWebKit/537.36 (KHTML, like Gecko) Chrome/138.0.0.0 Safari/537.36","WebKit","Chrome","138.0.0.0","Windows","10.0","https://app.prolific.com/","en-US,en;q=0.9","6612e7f231d13a67b8e758cc","683db9eb0562dbf637994deb","6880f9e7a986a7cc66b76696","2","1","6612e7f231d13a67b8e758cc","2","1","2025-07-23T15:22:29.011Z","","","","","","","","","","","StressQ","","50","","","","","","","","","","","","","","","","","","","","","","","","","","","","",""
"4460","","<div style=""width:500px;"">
  <p>What best describes how you currently feel?</p>
  </div>","0","html-slider-response","68","1045486","0.0-5.0-4.11","225","1","2025-07-23 15:05:04","1f75c3e559b7213887762d5229550c2b","41.114.36.76","Mozilla/5.0 (Windows NT 10.0; Win64; x64) AppleWebKit/537.36 (KHTML, like Gecko) Chrome/138.0.0.0 Safari/537.36","WebKit","Chrome","138.0.0.0","Windows","10.0","https://app.prolific.com/","en-US,en;q=0.9","6612e7f231d13a67b8e758cc","683db9eb0562dbf637994deb","6880f9e7a986a7cc66b76696","2","1","6612e7f231d13a67b8e758cc","2","1","2025-07-23T15:22:33.475Z","","","","","","","","","","","MotivationQ","","50","","","","","","","","","","","","","","","","","","","","","","","","","","","","",""
"","","","","ctl-task-cpt","69","1107141","0.0-5.0-0.12","225","1","2025-07-23 15:05:04","1f75c3e559b7213887762d5229550c2b","41.114.36.76","Mozilla/5.0 (Windows NT 10.0; Win64; x64) AppleWebKit/537.36 (KHTML, like Gecko) Chrome/138.0.0.0 Safari/537.36","WebKit","Chrome","138.0.0.0","Windows","10.0","https://app.prolific.com/","en-US,en;q=0.9","6612e7f231d13a67b8e758cc","683db9eb0562dbf637994deb","6880f9e7a986a7cc66b76696","2","1","6612e7f231d13a67b8e758cc","2","1","2025-07-23T15:23:35.130Z","","","","","","","","","","","","","","win-only","3","g1:SW,g2:NE","0.7","13","0","1071438","1403.7","6408.7","58623.9","1","4","4","6","2","4","4","20","16","0.15151515151515152","1330.5","3000","1440","[""up"",""right""]","{""num_key_presses"":10,""num_perfect"":7,""num_errors"":0,""num_randdir"":3,""num_randdir_good_moves"":1,""num_whilered"":0,""num_whileblue"":0,""num_blue"":6,""num_good_moves"":8}","[297.22232142857143,301.12857142857143,0.4,297.22232142857143,301.12857142857143,105.2,297.22232142857143,301.12857142857143,206,297.22232142857143,301.12857142857143,336,297.22232142857143,301.12857142857143,436.9,308.22232142857143,301.12857142857143,540.6,338.22232142857143,297.12857142857143,643.9,437.22232142857143,178.12857142857143,747.7,515.2223214285714,55.128571428571426,855.9,519.2223214285714,48.128571428571426,981.8,520.2223214285714,48.128571428571426,1112.7,520.2223214285714,48.128571428571426,1245.8,520.2223214285714,48.128571428571426,1350.1,520.2223214285714,48.128571428571426,1450.2,520.2223214285714,48.128571428571426,1553.1,520.2223214285714,48.128571428571426,1654.8,520.2223214285714,48.128571428571426,1783,520.2223214285714,48.128571428571426,1883.8,520.2223214285714,48.128571428571426,2014.3,520.2223214285714,48.128571428571426,2114.8,520.2223214285714,48.128571428571426,2240.7,520.2223214285714,48.128571428571426,2367.4,520.2223214285714,48.128571428571426,2496.9,520.2223214285714,48.128571428571426,2621.4,520.2223214285714,48.128571428571426,2722.1,520.2223214285714,48.128571428571426,2844.8,520.2223214285714,48.128571428571426,2952.2,520.2223214285714,48.128571428571426,3068.4,520.2223214285714,48.128571428571426,3170.9,520.2223214285714,48.128571428571426,3281.8,520.2223214285714,48.128571428571426,3389.9,520.2223214285714,48.128571428571426,3527.8,520.2223214285714,48.128571428571426,3631.1,520.2223214285714,48.128571428571426,3734.3,520.2223214285714,48.128571428571426,3838.1,520.2223214285714,48.128571428571426,3950.5,520.2223214285714,48.128571428571426,4054,520.2223214285714,48.128571428571426,4158.1,520.2223214285714,48.128571428571426,4267.4,520.2223214285714,48.128571428571426,4375,520.2223214285714,48.128571428571426,4482.8,520.2223214285714,48.128571428571426,4584.3,520.2223214285714,48.128571428571426,4690.5,520.2223214285714,48.128571428571426,4791.6,520.2223214285714,48.128571428571426,4904.9]","[1515,1515,1000,0,515,""smooth"",""up"",""up"",""good_move"",4474.3,2958.3,2437.8,1516.1,520.5,""oops"",""up"",""left"",""bad_move"",8133.6,3657.4,3167,4476.4,490.3,""oops"",""up"",""up"",""good_move"",25485.8,17351.1,2396,22506.8,583,""smooth"",""up"",""up"",""good_move"",32630,7143.7,2805.3,29462,362.7,""smooth"",""right"",""right"",""good_move"",35533.2,2902.7,2425.8,32630.5,476.9,""smooth"",""right"",""right"",""good_move"",38149.7,2616.2,2241.9,35533.5,374.3,""oops"",""right"",""down"",""bad_move"",41073.5,2922,2481.3,38151.7,440.5,""smooth"",""right"",""right"",""good_move"",48758.8,7684.4,3446.7,44927.3,384.8,""smooth"",""right"",""right"",""good_move"",51976.7,3217.1,2653.8,48759.6,563.3,""smooth"",""up"",""up"",""good_move""]","",""
"4298","","<div style=""width:500px;"">
  <p>What determined the result of this run?</p>
  </div>","0","html-slider-response","70","1111440","0.0-5.0-1.12","225","1","2025-07-23 15:05:04","1f75c3e559b7213887762d5229550c2b","41.114.36.76","Mozilla/5.0 (Windows NT 10.0; Win64; x64) AppleWebKit/537.36 (KHTML, like Gecko) Chrome/138.0.0.0 Safari/537.36","WebKit","Chrome","138.0.0.0","Windows","10.0","https://app.prolific.com/","en-US,en;q=0.9","6612e7f231d13a67b8e758cc","683db9eb0562dbf637994deb","6880f9e7a986a7cc66b76696","2","1","6612e7f231d13a67b8e758cc","2","1","2025-07-23T15:23:39.429Z","","","","","","","","","","","AttribQ","","50","","","","","","","","","","","","","","","","","","","","","","","","","","","","",""
"3202","","<div style=""width:500px;"">
  <p>How much control did you have over the ball?</p>
  </div>","0","html-slider-response","71","1114644","0.0-5.0-2.12","225","1","2025-07-23 15:05:04","1f75c3e559b7213887762d5229550c2b","41.114.36.76","Mozilla/5.0 (Windows NT 10.0; Win64; x64) AppleWebKit/537.36 (KHTML, like Gecko) Chrome/138.0.0.0 Safari/537.36","WebKit","Chrome","138.0.0.0","Windows","10.0","https://app.prolific.com/","en-US,en;q=0.9","6612e7f231d13a67b8e758cc","683db9eb0562dbf637994deb","6880f9e7a986a7cc66b76696","2","1","6612e7f231d13a67b8e758cc","2","1","2025-07-23T15:23:42.634Z","","","","","","","","","","","ControlQ","","50","","","","","","","","","","","","","","","","","","","","","","","","","","","","",""
"3757","","<div style=""width:500px;"">
  <p>How would you describe your current emotional state?</p>
  </div>","31","html-slider-response","72","1118404","0.0-5.0-3.12","225","1","2025-07-23 15:05:04","1f75c3e559b7213887762d5229550c2b","41.114.36.76","Mozilla/5.0 (Windows NT 10.0; Win64; x64) AppleWebKit/537.36 (KHTML, like Gecko) Chrome/138.0.0.0 Safari/537.36","WebKit","Chrome","138.0.0.0","Windows","10.0","https://app.prolific.com/","en-US,en;q=0.9","6612e7f231d13a67b8e758cc","683db9eb0562dbf637994deb","6880f9e7a986a7cc66b76696","2","1","6612e7f231d13a67b8e758cc","2","1","2025-07-23T15:23:46.393Z","","","","","","","","","","","StressQ","","50","","","","","","","","","","","","","","","","","","","","","","","","","","","","",""
"3980","","<div style=""width:500px;"">
  <p>What best describes how you currently feel?</p>
  </div>","12","html-slider-response","73","1122387","0.0-5.0-4.12","225","1","2025-07-23 15:05:04","1f75c3e559b7213887762d5229550c2b","41.114.36.76","Mozilla/5.0 (Windows NT 10.0; Win64; x64) AppleWebKit/537.36 (KHTML, like Gecko) Chrome/138.0.0.0 Safari/537.36","WebKit","Chrome","138.0.0.0","Windows","10.0","https://app.prolific.com/","en-US,en;q=0.9","6612e7f231d13a67b8e758cc","683db9eb0562dbf637994deb","6880f9e7a986a7cc66b76696","2","1","6612e7f231d13a67b8e758cc","2","1","2025-07-23T15:23:50.376Z","","","","","","","","","","","MotivationQ","","50","","","","","","","","","","","","","","","","","","","","","","","","","","","","",""
"","","","","ctl-task-cpt","74","1176293","0.0-5.0-0.13","225","1","2025-07-23 15:05:04","1f75c3e559b7213887762d5229550c2b","41.114.36.76","Mozilla/5.0 (Windows NT 10.0; Win64; x64) AppleWebKit/537.36 (KHTML, like Gecko) Chrome/138.0.0.0 Safari/537.36","WebKit","Chrome","138.0.0.0","Windows","10.0","https://app.prolific.com/","en-US,en;q=0.9","6612e7f231d13a67b8e758cc","683db9eb0562dbf637994deb","6880f9e7a986a7cc66b76696","2","1","6612e7f231d13a67b8e758cc","2","1","2025-07-23T15:24:44.282Z","","","","","","","","","","","","","","win-only","2","g1:SE,g2:NW","0.8","14","0","1148339.9","1359.4","6375.1","50879.5","1","4","8","6","2","8","8","28","20","0.21212121212121213","1338.4","3000","1980","[""left"",""up""]","{""num_key_presses"":10,""num_perfect"":8,""num_errors"":0,""num_randdir"":2,""num_randdir_good_moves"":0,""num_whilered"":0,""num_whileblue"":0,""num_blue"":2,""num_good_moves"":8}","[294.22232142857143,298.12857142857143,3.1,294.22232142857143,298.12857142857143,113.4,294.22232142857143,298.12857142857143,223.5,294.22232142857143,298.12857142857143,342.9,294.22232142857143,298.12857142857143,454.8,294.22232142857143,298.12857142857143,566.9,294.22232142857143,298.12857142857143,683.9,161.22232142857143,183.12857142857143,784.4,73.22232142857143,78.12857142857143,886.5,31.222321428571426,33.128571428571426,991.2,27.222321428571426,28.128571428571426,1093,27.222321428571426,28.128571428571426,1209.1,27.222321428571426,28.128571428571426,1322.2,27.222321428571426,28.128571428571426,1426.2,27.222321428571426,28.128571428571426,1543.6,27.222321428571426,28.128571428571426,1656.4,27.222321428571426,28.128571428571426,1768.2,27.222321428571426,28.128571428571426,1887.5,27.222321428571426,28.128571428571426,2003.7,27.222321428571426,28.128571428571426,2110.1,27.222321428571426,28.128571428571426,2220.6,27.222321428571426,28.128571428571426,2328.6,27.222321428571426,28.128571428571426,2440.8,27.222321428571426,28.128571428571426,2558.2,27.222321428571426,28.128571428571426,2667.8,27.222321428571426,28.128571428571426,2781.7,27.222321428571426,28.128571428571426,2893.7,27.222321428571426,28.128571428571426,2999.8,27.222321428571426,28.128571428571426,3116.1,27.222321428571426,28.128571428571426,3231.9,27.222321428571426,28.128571428571426,3337.9,27.222321428571426,28.128571428571426,3447.7,27.222321428571426,28.128571428571426,3561.1,27.222321428571426,28.128571428571426,3667.8,27.222321428571426,28.128571428571426,3780.8,27.222321428571426,28.128571428571426,3896.9,27.222321428571426,28.128571428571426,4005.1,27.222321428571426,28.128571428571426,4120.4,27.222321428571426,28.128571428571426,4230.8,27.222321428571426,28.128571428571426,4340.7,27.222321428571426,28.128571428571426,4456.1,27.222321428571426,28.128571428571426,4562.9,27.222321428571426,28.128571428571426,4679.6,27.222321428571426,28.128571428571426,4791.6,27.222321428571426,28.128571428571426,4899.8]","[1434.5,1434.5,1000,0.1,434.4,""smooth"",""left"",""left"",""good_move"",9115.1,7677.8,2226.8,6420.5,467.8,""smooth"",""left"",""left"",""good_move"",12395.1,3279.2,2855.7,9115.9,423.5,""oops"",""left"",""down"",""bad_move"",18442.5,6046.3,2533.5,15480.4,428.6,""smooth"",""left"",""left"",""good_move"",21924.3,3481.2,2480.2,18443.1,1001,""smooth"",""up"",""up"",""good_move"",25897.1,3972,2374.5,21925.2,1597.5,""smooth"",""up"",""up"",""good_move"",30255.2,4357.7,2480.2,25897.5,1877.5,""smooth"",""up"",""up"",""good_move"",34706.5,4450.9,2378,30255.6,2072.9,""oops"",""up"",""down"",""bad_move"",37952.8,3245.3,2866.1,34707.5,379.2,""smooth"",""up"",""up"",""good_move"",43933.9,5980.9,3598.6,37953.1,2382.2,""smooth"",""up"",""up"",""good_move""]","",""
"4960","","<div style=""width:500px;"">
  <p>What determined the result of this run?</p>
