"rt","response_timestamp","stimulus","response","trial_type","trial_index","time_elapsed","internal_node_id","run_id","condition","recorded_at","source_code_version","ip","user_agent","device","browser","browser_version","platform","platform_version","referer","accept_language","PROLIFIC_PID","STUDY_ID","SESSION_ID","WEEK","BATCH","prolific_id","week","batch","realtime","success","responses","item_order","radio_event_ids","radio_event_times","key_event_times","mouse_event_times","straightlining","zigzagging","honeypot","eventType","view_history","slider_start","which_type","canvas_config","goals_layout","control_level","trial_number","tutorial_trial_number","trial_start_time","phase1_start_time","phase2_start_time","phase3_start_time","goal_1_value","goal_1_distance","goal_2_value","goal_2_distance","goal_selected","outcome","outcome_total","participant_final_score","participant_initial_score","participant_final_score_prop","goal_choice_rt","allocated_time","allocated_time_remaining","goal_direction","counts","mouse_movements","key_presses","question_order","question_id"
"2237","1753268949951","<p style='font-size:40px;line-height:1.25'><strong>Welcome to the experiment!</strong></p><p style='font-size:1.1em;line-height:1.25'>Thank you for participanting in our experiment again! You will be asked to play the Dysfunctional Ball Game again. We will briefly recap the rules before we start.</p><p style='font-size:1.1em;line-height:1.25'>Press <strong>Next</strong> to continue.</p>","0","custom-html-button-response","0","2239","0.0-0.0","213","1","2025-07-23 11:09:06","1f75c3e559b7213887762d5229550c2b","76.221.209.152","Mozilla/5.0 (Windows NT 10.0; Win64; x64) AppleWebKit/537.36 (KHTML, like Gecko) Chrome/138.0.0.0 Safari/537.36","WebKit","Chrome","138.0.0.0","Windows","10.0","https://app.prolific.com/","en-US,en;q=0.9,de;q=0.8,zh-TW;q=0.7,zh-CN;q=0.6,zh;q=0.5","5d617ba9364f9a0019f1dac3","683dba2a8a9dda3513610c04","6880c2ccfa624451b8bf703a","3","0","5d617ba9364f9a0019f1dac3","3","0","2025-07-23T11:09:09.952Z","","","","","","","","","","","","","","","","","","","","","","","","","","","","","","","","","","","","","","","","","",""
"2288","","","","fullscreen","1","5547","0.0-1.0","213","1","2025-07-23 11:09:06","1f75c3e559b7213887762d5229550c2b","76.221.209.152","Mozilla/5.0 (Windows NT 10.0; Win64; x64) AppleWebKit/537.36 (KHTML, like Gecko) Chrome/138.0.0.0 Safari/537.36","WebKit","Chrome","138.0.0.0","Windows","10.0","https://app.prolific.com/","en-US,en;q=0.9,de;q=0.8,zh-TW;q=0.7,zh-CN;q=0.6,zh;q=0.5","5d617ba9364f9a0019f1dac3","683dba2a8a9dda3513610c04","6880c2ccfa624451b8bf703a","3","0","5d617ba9364f9a0019f1dac3","3","0","","true","","","","","","","","","","","","","","","","","","","","","","","","","","","","","","","","","","","","","","","","",""
"956","1753268954216","<p style='font-size:1.1em;line-height:1.25'>In the following, we will ask you a few questions relating to your feelings in the last 24 hours.<br></p><p style='font-size:1.1em;line-height:1.25'>Press the <strong>Next</strong> button to continue.</p>","0","custom-html-button-response","2","6504","0.0-2.0-0.0","213","1","2025-07-23 11:09:06","1f75c3e559b7213887762d5229550c2b","76.221.209.152","Mozilla/5.0 (Windows NT 10.0; Win64; x64) AppleWebKit/537.36 (KHTML, like Gecko) Chrome/138.0.0.0 Safari/537.36","WebKit","Chrome","138.0.0.0","Windows","10.0","https://app.prolific.com/","en-US,en;q=0.9,de;q=0.8,zh-TW;q=0.7,zh-CN;q=0.6,zh;q=0.5","5d617ba9364f9a0019f1dac3","683dba2a8a9dda3513610c04","6880c2ccfa624451b8bf703a","3","0","5d617ba9364f9a0019f1dac3","3","0","2025-07-23T11:09:14.217Z","","","","","","","","","","","","","","","","","","","","","","","","","","","","","","","","","","","","","","","","","",""
"47415.199999928474","","","","survey-template","3","53922","0.0-2.0-1.0","213","1","2025-07-23 11:09:06","1f75c3e559b7213887762d5229550c2b","76.221.209.152","Mozilla/5.0 (Windows NT 10.0; Win64; x64) AppleWebKit/537.36 (KHTML, like Gecko) Chrome/138.0.0.0 Safari/537.36","WebKit","Chrome","138.0.0.0","Windows","10.0","https://app.prolific.com/","en-US,en;q=0.9,de;q=0.8,zh-TW;q=0.7,zh-CN;q=0.6,zh;q=0.5","5d617ba9364f9a0019f1dac3","683dba2a8a9dda3513610c04","6880c2ccfa624451b8bf703a","3","0","5d617ba9364f9a0019f1dac3","3","0","2025-07-23T11:10:01.635Z","","{""Q01"":""2"",""Q02"":""2"",""Q03"":""3"",""Q04"":""3"",""Q05"":""1"",""Q06"":""1"",""Q07"":""2"",""Q08"":""0"",""Q09"":""3"",""Q10"":""3"",""Q11"":""3"",""Q12"":""2"",""Q13"":""5"",""Q14"":""1"",""Q15"":""0"",""Q16"":""0"",""Q17"":""2"",""Q18"":""0"",""Q19"":""2"",""Q20"":""1"",""Q21"":""2"",""Q22"":""1""}","[0,1,2,3,4,5,6,7,8,9,10,11,12,13,14,15,16,17,18,19,20,21]","[""Q01"",""Q02"",""Q03"",""Q04"",""Q05"",""Q06"",""Q07"",""Q08"",""Q09"",""Q10"",""Q11"",""Q12"",""Q12"",""Q13"",""Q14"",""Q15"",""Q16"",""Q17"",""Q18"",""Q19"",""Q20"",""Q22"",""Q21""]","[2955.0999999046326,3937.1999999284744,5131.5,6276.5,7333,8659.599999904633,9651.599999904633,10779.5,12123.699999928474,14618.299999952316,15493.399999976158,17319,18309.399999976158,19505.599999904633,21111.599999904633,23608.699999928474,25001.199999928474,28801.699999928474,29926.099999904633,35716.299999952316,38804.59999990463,43140,46718.59999990463]","[]","[1.399999976158142,2955.0999999046326,3937.1999999284744,5131.5,6276.5,7333,8659.599999904633,9651.599999904633,10779.5,12123.699999928474,13815,14618.299999952316,15493.399999976158,17319,17930.799999952316,18309.399999976158,19505.599999904633,21111.599999904633,23608.699999928474,25001.199999928474,28801.699999928474,29926.099999904633,35716.299999952316,38804.59999990463,40347.59999990463,41712.5,42828.5,43140,46123.39999997616,46718.59999990463,47410.5]","0.3181818181818182","0.3333333333333333","0","drsp","","","","","","","","","","","","","","","","","","","","","","","","","","","","","","",""
"7122.899999976158","","","","survey-template","4","61048","0.0-2.0-2.0","213","1","2025-07-23 11:09:06","1f75c3e559b7213887762d5229550c2b","76.221.209.152","Mozilla/5.0 (Windows NT 10.0; Win64; x64) AppleWebKit/537.36 (KHTML, like Gecko) Chrome/138.0.0.0 Safari/537.36","WebKit","Chrome","138.0.0.0","Windows","10.0","https://app.prolific.com/","en-US,en;q=0.9,de;q=0.8,zh-TW;q=0.7,zh-CN;q=0.6,zh;q=0.5","5d617ba9364f9a0019f1dac3","683dba2a8a9dda3513610c04","6880c2ccfa624451b8bf703a","3","0","5d617ba9364f9a0019f1dac3","3","0","2025-07-23T11:10:08.761Z","","{""Q01"":""3"",""Q02"":""4"",""Q03"":""2""}","[0,1,2]","[""Q01"",""Q02"",""Q03""]","[2594.8000000715256,4492.600000023842,5660.399999976158]","[]","[2594.8000000715256,4492.600000023842,5660.399999976158,7122.100000023842]","0.3333333333333333","0.5","0","stress","","","","","","","","","","","","","","","","","","","","","","","","","","","","","","",""
"3164","","","","instructions","5","64213","0.0-3.0-0.0","213","1","2025-07-23 11:09:06","1f75c3e559b7213887762d5229550c2b","76.221.209.152","Mozilla/5.0 (Windows NT 10.0; Win64; x64) AppleWebKit/537.36 (KHTML, like Gecko) Chrome/138.0.0.0 Safari/537.36","WebKit","Chrome","138.0.0.0","Windows","10.0","https://app.prolific.com/","en-US,en;q=0.9,de;q=0.8,zh-TW;q=0.7,zh-CN;q=0.6,zh;q=0.5","5d617ba9364f9a0019f1dac3","683dba2a8a9dda3513610c04","6880c2ccfa624451b8bf703a","3","0","5d617ba9364f9a0019f1dac3","3","0","","","","","","","","","","","","","[{""page_index"":0,""viewing_time"":3164}]","","","","","","","","","","","","","","","","","","","","","","","","","","","","","",""
"14255","","<p>Before you start with this game please answer the following three questions yourself. </p>
  <p>Through this game, we measure several aspects of your cognitive performance, such as reaction times, multi-tasking capabilities </p>
  <p>and the ability to assess the situation you are in.</p>
  <p></p>
  <p><b>How good do you usually are in such tasks?</b></p>","2","html-slider-response","6","78469","0.0-4.0-0.0","213","1","2025-07-23 11:09:06","1f75c3e559b7213887762d5229550c2b","76.221.209.152","Mozilla/5.0 (Windows NT 10.0; Win64; x64) AppleWebKit/537.36 (KHTML, like Gecko) Chrome/138.0.0.0 Safari/537.36","WebKit","Chrome","138.0.0.0","Windows","10.0","https://app.prolific.com/","en-US,en;q=0.9,de;q=0.8,zh-TW;q=0.7,zh-CN;q=0.6,zh;q=0.5","5d617ba9364f9a0019f1dac3","683dba2a8a9dda3513610c04","6880c2ccfa624451b8bf703a","3","0","5d617ba9364f9a0019f1dac3","3","0","2025-07-23T11:10:26.182Z","","","","","","","","","","","PreSkillQ","","50","","","","","","","","","","","","","","","","","","","","","","","","","","","","",""
"2498","","<div style=""width:500px;"">
  <p>How well do you think you will perform in this task compared to other participants?</p>
  </div>","5","html-slider-response","7","80967","0.0-4.0-1.0","213","1","2025-07-23 11:09:06","1f75c3e559b7213887762d5229550c2b","76.221.209.152","Mozilla/5.0 (Windows NT 10.0; Win64; x64) AppleWebKit/537.36 (KHTML, like Gecko) Chrome/138.0.0.0 Safari/537.36","WebKit","Chrome","138.0.0.0","Windows","10.0","https://app.prolific.com/","en-US,en;q=0.9,de;q=0.8,zh-TW;q=0.7,zh-CN;q=0.6,zh;q=0.5","5d617ba9364f9a0019f1dac3","683dba2a8a9dda3513610c04","6880c2ccfa624451b8bf703a","3","0","5d617ba9364f9a0019f1dac3","3","0","2025-07-23T11:10:28.680Z","","","","","","","","","","","PrePerfQ","","50","","","","","","","","","","","","","","","","","","","","","","","","","","","","",""
"2347","","<div style=""width:500px;"">
  <p>What best describes how you currently feel?</p>
  </div>","16","html-slider-response","8","83315","0.0-4.0-2.0","213","1","2025-07-23 11:09:06","1f75c3e559b7213887762d5229550c2b","76.221.209.152","Mozilla/5.0 (Windows NT 10.0; Win64; x64) AppleWebKit/537.36 (KHTML, like Gecko) Chrome/138.0.0.0 Safari/537.36","WebKit","Chrome","138.0.0.0","Windows","10.0","https://app.prolific.com/","en-US,en;q=0.9,de;q=0.8,zh-TW;q=0.7,zh-CN;q=0.6,zh;q=0.5","5d617ba9364f9a0019f1dac3","683dba2a8a9dda3513610c04","6880c2ccfa624451b8bf703a","3","0","5d617ba9364f9a0019f1dac3","3","0","2025-07-23T11:10:31.028Z","","","","","","","","","","","PreMotivationQ","","50","","","","","","","","","","","","","","","","","","","","","","","","","","","","",""
"","","","","ctl-task-cpt","9","102934","0.0-5.0-0.0","213","1","2025-07-23 11:09:06","1f75c3e559b7213887762d5229550c2b","76.221.209.152","Mozilla/5.0 (Windows NT 10.0; Win64; x64) AppleWebKit/537.36 (KHTML, like Gecko) Chrome/138.0.0.0 Safari/537.36","WebKit","Chrome","138.0.0.0","Windows","10.0","https://app.prolific.com/","en-US,en;q=0.9,de;q=0.8,zh-TW;q=0.7,zh-CN;q=0.6,zh;q=0.5","5d617ba9364f9a0019f1dac3","683dba2a8a9dda3513610c04","6880c2ccfa624451b8bf703a","3","0","5d617ba9364f9a0019f1dac3","3","0","2025-07-23T11:10:50.647Z","","","","","","","","","","","","","","win-only","1","g1:NE,g2:SW","1","1","0","85593.8","1075.2","6076.7","16612.5","1","4","8","6","1","1","1","1","0","0.007575757575757576","695.3","3000","1500","[""up"",""right""]","{""num_key_presses"":4,""num_perfect"":4,""num_errors"":0,""num_randdir"":0,""num_randdir_good_moves"":0,""num_whilered"":0,""num_whileblue"":0,""num_blue"":0,""num_good_moves"":4}","[415.3214133126395,426.57142761775424,0.1,415.3214133126395,426.57142761775424,101,411.5714133126395,424.07142761775424,206.2,411.5714133126395,420.32142761775424,310.7,411.5714133126395,411.57142761775424,411.4,530.3214133126395,281.57142761775424,520.6,697.8214133126395,110.32142761775425,621.2,734.0714133126395,75.32142761775425,721.2,736.5714133126395,75.32142761775425,821.4,752.8214133126395,69.07142761775425,926.1,761.5714133126395,-109.67857238224575,1026.1,761.5714133126395,-109.67857238224575,1130.3,761.5714133126395,-109.67857238224575,1230.5,761.5714133126395,-109.67857238224575,1330.7,761.5714133126395,-109.67857238224575,1430.7,761.5714133126395,-109.67857238224575,1535.8,761.5714133126395,-109.67857238224575,1640.6,761.5714133126395,-109.67857238224575,1740.7,761.5714133126395,-109.67857238224575,1846.1,761.5714133126395,-109.67857238224575,1950.2,761.5714133126395,-109.67857238224575,2050.4,761.5714133126395,-109.67857238224575,2152.2,761.5714133126395,-109.67857238224575,2255.4,761.5714133126395,-109.67857238224575,2355.5,761.5714133126395,-109.67857238224575,2455.9,761.5714133126395,-109.67857238224575,2560.3,761.5714133126395,-109.67857238224575,2660.5,761.5714133126395,-109.67857238224575,2766.2,761.5714133126395,-109.67857238224575,2870.9,761.5714133126395,-109.67857238224575,2971.5,761.5714133126395,-109.67857238224575,3076.5,761.5714133126395,-109.67857238224575,3180.4,761.5714133126395,-109.67857238224575,3280.4,761.5714133126395,-109.67857238224575,3385.9,761.5714133126395,-109.67857238224575,3491,761.5714133126395,-109.67857238224575,3596.6,761.5714133126395,-109.67857238224575,3696.8,761.5714133126395,-109.67857238224575,3801.4,761.5714133126395,-109.67857238224575,3905.1,761.5714133126395,-109.67857238224575,4005.2,761.5714133126395,-109.67857238224575,4111.1,761.5714133126395,-109.67857238224575,4215.3,761.5714133126395,-109.67857238224575,4315.9,761.5714133126395,-109.67857238224575,4416.2,761.5714133126395,-109.67857238224575,4516.2,761.5714133126395,-109.67857238224575,4621.1,761.5714133126395,-109.67857238224575,4721.4,761.5714133126395,-109.67857238224575,4826,761.5714133126395,-109.67857238224575,4926.6]","[1405.9,1405.9,1000,0,405.9,""smooth"",""up"",""up"",""good_move"",4389.1,2982.8,2628.4,1406.3,354.4,""smooth"",""right"",""right"",""good_move"",7933.1,3543.7,3183.4,4389.4,360.3,""smooth"",""up"",""up"",""good_move"",10444.9,2511.7,2109.6,7933.2,402.1,""smooth"",""right"",""right"",""good_move""]","",""
"4474","","<div style=""width:500px;"">
  <p>What determined the result of this run?</p>
  </div>","16","html-slider-response","10","107409","0.0-5.0-1.0","213","1","2025-07-23 11:09:06","1f75c3e559b7213887762d5229550c2b","76.221.209.152","Mozilla/5.0 (Windows NT 10.0; Win64; x64) AppleWebKit/537.36 (KHTML, like Gecko) Chrome/138.0.0.0 Safari/537.36","WebKit","Chrome","138.0.0.0","Windows","10.0","https://app.prolific.com/","en-US,en;q=0.9,de;q=0.8,zh-TW;q=0.7,zh-CN;q=0.6,zh;q=0.5","5d617ba9364f9a0019f1dac3","683dba2a8a9dda3513610c04","6880c2ccfa624451b8bf703a","3","0","5d617ba9364f9a0019f1dac3","3","0","2025-07-23T11:10:55.122Z","","","","","","","","","","","AttribQ","","50","","","","","","","","","","","","","","","","","","","","","","","","","","","","",""
"1876","","<div style=""width:500px;"">
  <p>How much control did you have over the ball?</p>
  </div>","100","html-slider-response","11","109285","0.0-5.0-2.0","213","1","2025-07-23 11:09:06","1f75c3e559b7213887762d5229550c2b","76.221.209.152","Mozilla/5.0 (Windows NT 10.0; Win64; x64) AppleWebKit/537.36 (KHTML, like Gecko) Chrome/138.0.0.0 Safari/537.36","WebKit","Chrome","138.0.0.0","Windows","10.0","https://app.prolific.com/","en-US,en;q=0.9,de;q=0.8,zh-TW;q=0.7,zh-CN;q=0.6,zh;q=0.5","5d617ba9364f9a0019f1dac3","683dba2a8a9dda3513610c04","6880c2ccfa624451b8bf703a","3","0","5d617ba9364f9a0019f1dac3","3","0","2025-07-23T11:10:56.998Z","","","","","","","","","","","ControlQ","","50","","","","","","","","","","","","","","","","","","","","","","","","","","","","",""
"2208","","<div style=""width:500px;"">
  <p>How would you describe your current emotional state?</p>
  </div>","17","html-slider-response","12","111493","0.0-5.0-3.0","213","1","2025-07-23 11:09:06","1f75c3e559b7213887762d5229550c2b","76.221.209.152","Mozilla/5.0 (Windows NT 10.0; Win64; x64) AppleWebKit/537.36 (KHTML, like Gecko) Chrome/138.0.0.0 Safari/537.36","WebKit","Chrome","138.0.0.0","Windows","10.0","https://app.prolific.com/","en-US,en;q=0.9,de;q=0.8,zh-TW;q=0.7,zh-CN;q=0.6,zh;q=0.5","5d617ba9364f9a0019f1dac3","683dba2a8a9dda3513610c04","6880c2ccfa624451b8bf703a","3","0","5d617ba9364f9a0019f1dac3","3","0","2025-07-23T11:10:59.206Z","","","","","","","","","","","StressQ","","50","","","","","","","","","","","","","","","","","","","","","","","","","","","","",""
"2537","","<div style=""width:500px;"">
  <p>What best describes how you currently feel?</p>
  </div>","16","html-slider-response","13","114031","0.0-5.0-4.0","213","1","2025-07-23 11:09:06","1f75c3e559b7213887762d5229550c2b","76.221.209.152","Mozilla/5.0 (Windows NT 10.0; Win64; x64) AppleWebKit/537.36 (KHTML, like Gecko) Chrome/138.0.0.0 Safari/537.36","WebKit","Chrome","138.0.0.0","Windows","10.0","https://app.prolific.com/","en-US,en;q=0.9,de;q=0.8,zh-TW;q=0.7,zh-CN;q=0.6,zh;q=0.5","5d617ba9364f9a0019f1dac3","683dba2a8a9dda3513610c04","6880c2ccfa624451b8bf703a","3","0","5d617ba9364f9a0019f1dac3","3","0","2025-07-23T11:11:01.744Z","","","","","","","","","","","MotivationQ","","50","","","","","","","","","","","","","","","","","","","","","","","","","","","","",""
"","","","","ctl-task-cpt","14","140268","0.0-5.0-0.1","213","1","2025-07-23 11:09:06","1f75c3e559b7213887762d5229550c2b","76.221.209.152","Mozilla/5.0 (Windows NT 10.0; Win64; x64) AppleWebKit/537.36 (KHTML, like Gecko) Chrome/138.0.0.0 Safari/537.36","WebKit","Chrome","138.0.0.0","Windows","10.0","https://app.prolific.com/","en-US,en;q=0.9,de;q=0.8,zh-TW;q=0.7,zh-CN;q=0.6,zh;q=0.5","5d617ba9364f9a0019f1dac3","683dba2a8a9dda3513610c04","6880c2ccfa624451b8bf703a","3","0","5d617ba9364f9a0019f1dac3","3","0","2025-07-23T11:11:27.981Z","","","","","","","","","","","","","","win-only","2","g1:SE,g2:NW","0.9","2","0","116309","751.8","5756.8","23230.9","1","4","4","6","1","1","1","2","1","0.015151515151515152","1404","3000","275","[""down"",""right""]","{""num_key_presses"":6,""num_perfect"":5,""num_errors"":0,""num_randdir"":1,""num_randdir_good_moves"":0,""num_whilered"":0,""num_whileblue"":0,""num_blue"":1,""num_good_moves"":5}","[421.5714133126395,416.57142761775424,0.2,421.5714133126395,416.57142761775424,104.4,412.8214133126395,422.82142761775424,209.2,311.5714133126395,626.5714276177542,311.1,405.3214133126395,677.8214276177542,414.5,476.5714133126395,697.8214276177542,518.6,331.5714133126395,510.32142761775424,624,41.57141331263951,120.32142761775425,729,46.57141331263951,99.07142761775425,829.7,56.57141331263951,94.07142761775425,934.2,392.8214133126395,450.32142761775424,1035.3,912.8214133126395,864.0714276177542,1139.3,841.5714133126395,790.3214276177542,1243.7,812.8214133126395,766.5714276177542,1343.8,786.5714133126395,756.5714276177542,1443.8,864.0714133126395,801.5714276177542,1543.9,1375.3214133126396,956.5714276177542,1644.2,1375.3214133126396,956.5714276177542,1750,1375.3214133126396,956.5714276177542,1854,1375.3214133126396,956.5714276177542,1955.6,1375.3214133126396,956.5714276177542,2060.3,1375.3214133126396,956.5714276177542,2164,1375.3214133126396,956.5714276177542,2268.5,1375.3214133126396,956.5714276177542,2374.3,1375.3214133126396,956.5714276177542,2479.2,1375.3214133126396,956.5714276177542,2580,1375.3214133126396,956.5714276177542,2684.8,1375.3214133126396,956.5714276177542,2788.5,1375.3214133126396,956.5714276177542,2889.1,1375.3214133126396,956.5714276177542,2989.3,1375.3214133126396,956.5714276177542,3093.4,1375.3214133126396,956.5714276177542,3195.2,1375.3214133126396,956.5714276177542,3299.2,1375.3214133126396,956.5714276177542,3399.4,1375.3214133126396,956.5714276177542,3499.6,1375.3214133126396,956.5714276177542,3599.8,1375.3214133126396,956.5714276177542,3704.4,1375.3214133126396,956.5714276177542,3805,1375.3214133126396,956.5714276177542,3909.5,1375.3214133126396,956.5714276177542,4009.6,1375.3214133126396,956.5714276177542,4114.9,1375.3214133126396,956.5714276177542,4215.1,1375.3214133126396,956.5714276177542,4320.2,1375.3214133126396,956.5714276177542,4424.3,1375.3214133126396,956.5714276177542,4524.5,1375.3214133126396,956.5714276177542,4624.5,1375.3214133126396,956.5714276177542,4724.7,1375.3214133126396,956.5714276177542,4829.6,1375.3214133126396,956.5714276177542,4930.2]","[4914,4914,2515.2,2004.2,394.6,""smooth"",""down"",""down"",""good_move"",8154.5,3240.1,2776.1,4914.4,464,""smooth"",""down"",""down"",""good_move"",10433.8,2279.1,1777.7,8154.7,501.4,""oops"",""right"",""left"",""bad_move"",12170.2,1736.2,1122,10434,614.2,""smooth"",""right"",""right"",""good_move"",14490,2319.7,1881.4,12170.4,438.2,""smooth"",""right"",""right"",""good_move"",17386.7,2896.6,2553.2,14490.2,343.3,""smooth"",""right"",""right"",""good_move""]","",""
"3010","","<div style=""width:500px;"">
  <p>What determined the result of this run?</p>
  </div>","36","html-slider-response","15","143279","0.0-5.0-1.1","213","1","2025-07-23 11:09:06","1f75c3e559b7213887762d5229550c2b","76.221.209.152","Mozilla/5.0 (Windows NT 10.0; Win64; x64) AppleWebKit/537.36 (KHTML, like Gecko) Chrome/138.0.0.0 Safari/537.36","WebKit","Chrome","138.0.0.0","Windows","10.0","https://app.prolific.com/","en-US,en;q=0.9,de;q=0.8,zh-TW;q=0.7,zh-CN;q=0.6,zh;q=0.5","5d617ba9364f9a0019f1dac3","683dba2a8a9dda3513610c04","6880c2ccfa624451b8bf703a","3","0","5d617ba9364f9a0019f1dac3","3","0","2025-07-23T11:11:30.992Z","","","","","","","","","","","AttribQ","","50","","","","","","","","","","","","","","","","","","","","","","","","","","","","",""
"2483","","<div style=""width:500px;"">
  <p>How much control did you have over the ball?</p>
  </div>","69","html-slider-response","16","145763","0.0-5.0-2.1","213","1","2025-07-23 11:09:06","1f75c3e559b7213887762d5229550c2b","76.221.209.152","Mozilla/5.0 (Windows NT 10.0; Win64; x64) AppleWebKit/537.36 (KHTML, like Gecko) Chrome/138.0.0.0 Safari/537.36","WebKit","Chrome","138.0.0.0","Windows","10.0","https://app.prolific.com/","en-US,en;q=0.9,de;q=0.8,zh-TW;q=0.7,zh-CN;q=0.6,zh;q=0.5","5d617ba9364f9a0019f1dac3","683dba2a8a9dda3513610c04","6880c2ccfa624451b8bf703a","3","0","5d617ba9364f9a0019f1dac3","3","0","2025-07-23T11:11:33.476Z","","","","","","","","","","","ControlQ","","50","","","","","","","","","","","","","","","","","","","","","","","","","","","","",""
"3851","","<div style=""width:500px;"">
  <p>How would you describe your current emotional state?</p>
  </div>","67","html-slider-response","17","149615","0.0-5.0-3.1","213","1","2025-07-23 11:09:06","1f75c3e559b7213887762d5229550c2b","76.221.209.152","Mozilla/5.0 (Windows NT 10.0; Win64; x64) AppleWebKit/537.36 (KHTML, like Gecko) Chrome/138.0.0.0 Safari/537.36","WebKit","Chrome","138.0.0.0","Windows","10.0","https://app.prolific.com/","en-US,en;q=0.9,de;q=0.8,zh-TW;q=0.7,zh-CN;q=0.6,zh;q=0.5","5d617ba9364f9a0019f1dac3","683dba2a8a9dda3513610c04","6880c2ccfa624451b8bf703a","3","0","5d617ba9364f9a0019f1dac3","3","0","2025-07-23T11:11:37.328Z","","","","","","","","","","","StressQ","","50","","","","","","","","","","","","","","","","","","","","","","","","","","","","",""
"2245","","<div style=""width:500px;"">
  <p>What best describes how you currently feel?</p>
  </div>","12","html-slider-response","18","151861","0.0-5.0-4.1","213","1","2025-07-23 11:09:06","1f75c3e559b7213887762d5229550c2b","76.221.209.152","Mozilla/5.0 (Windows NT 10.0; Win64; x64) AppleWebKit/537.36 (KHTML, like Gecko) Chrome/138.0.0.0 Safari/537.36","WebKit","Chrome","138.0.0.0","Windows","10.0","https://app.prolific.com/","en-US,en;q=0.9,de;q=0.8,zh-TW;q=0.7,zh-CN;q=0.6,zh;q=0.5","5d617ba9364f9a0019f1dac3","683dba2a8a9dda3513610c04","6880c2ccfa624451b8bf703a","3","0","5d617ba9364f9a0019f1dac3","3","0","2025-07-23T11:11:39.575Z","","","","","","","","","","","MotivationQ","","50","","","","","","","","","","","","","","","","","","","","","","","","","","","","",""
"","","","","ctl-task-cpt","19","173571","0.0-5.0-0.2","213","1","2025-07-23 11:09:06","1f75c3e559b7213887762d5229550c2b","76.221.209.152","Mozilla/5.0 (Windows NT 10.0; Win64; x64) AppleWebKit/537.36 (KHTML, like Gecko) Chrome/138.0.0.0 Safari/537.36","WebKit","Chrome","138.0.0.0","Windows","10.0","https://app.prolific.com/","en-US,en;q=0.9,de;q=0.8,zh-TW;q=0.7,zh-CN;q=0.6,zh;q=0.5","5d617ba9364f9a0019f1dac3","683dba2a8a9dda3513610c04","6880c2ccfa624451b8bf703a","3","0","5d617ba9364f9a0019f1dac3","3","0","2025-07-23T11:12:01.284Z","","","","","","","","","","","","","","win-only","3","g1:SW,g2:NE","0.8","3","0","154141.3","705.7","5711.7","18690.1","1","4","8","6","1","1","1","3","2","0.022727272727272728","671.5","3000","1540","[""down"",""left""]","{""num_key_presses"":4,""num_perfect"":4,""num_errors"":0,""num_randdir"":0,""num_randdir_good_moves"":0,""num_whilered"":0,""num_whileblue"":0,""num_blue"":1,""num_good_moves"":4}","[425.3214133126395,409.07142761775424,0.3,425.3214133126395,411.57142761775424,101,425.3214133126395,411.57142761775424,201.4,16.571413312639507,427.82142761775424,305.1,-268.4285866873605,631.5714276177542,410.9,-104.6785866873605,746.5714276177542,511,-2.178586687360493,731.5714276177542,615.8,9.071413312639507,731.5714276177542,719.9,80.3214133126395,741.5714276177542,825.9,-98.4285866873605,761.5714276177542,930.5,-543.4285866873605,711.5714276177542,1035.5,-543.4285866873605,702.8214276177542,1135.5,-543.4285866873605,702.8214276177542,1241.4,-543.4285866873605,702.8214276177542,1344.4,-543.4285866873605,702.8214276177542,1444.6,-543.4285866873605,702.8214276177542,1544.8,-543.4285866873605,702.8214276177542,1650.5,-543.4285866873605,702.8214276177542,1756.1,-543.4285866873605,702.8214276177542,1860.8,-543.4285866873605,702.8214276177542,1965.6,-543.4285866873605,702.8214276177542,2066.2,-543.4285866873605,702.8214276177542,2169.5,-543.4285866873605,702.8214276177542,2269.5,-543.4285866873605,702.8214276177542,2369.5,-543.4285866873605,702.8214276177542,2469.5,-543.4285866873605,702.8214276177542,2575.9,-543.4285866873605,702.8214276177542,2679.7,-543.4285866873605,702.8214276177542,2781.3,-543.4285866873605,702.8214276177542,2885.8,-543.4285866873605,702.8214276177542,2985.8,-543.4285866873605,702.8214276177542,3089.5,-543.4285866873605,702.8214276177542,3190.3,-543.4285866873605,702.8214276177542,3294.6,-543.4285866873605,702.8214276177542,3399.8,-543.4285866873605,702.8214276177542,3500.9,-543.4285866873605,702.8214276177542,3605.7,-543.4285866873605,702.8214276177542,3710.4,-543.4285866873605,702.8214276177542,3810.8,-543.4285866873605,702.8214276177542,3915.8,-543.4285866873605,702.8214276177542,4019.7,-543.4285866873605,702.8214276177542,4119.7,-543.4285866873605,702.8214276177542,4219.8,-543.4285866873605,702.8214276177542,4325.6,-543.4285866873605,702.8214276177542,4429.6,-543.4285866873605,702.8214276177542,4530.2,-543.4285866873605,702.8214276177542,4630.9,-543.4285866873605,702.8214276177542,4735.7,-543.4285866873605,702.8214276177542,4840.3,-543.4285866873605,702.8214276177542,4944.7]","[4758.7,4758.7,2342.7,2009,407.1,""smooth"",""down"",""down"",""good_move"",7478.9,2720.1,2365,4758.9,355.1,""smooth"",""down"",""down"",""good_move"",10150.3,2671.1,2300.4,7479.2,370.7,""smooth"",""left"",""left"",""good_move"",12894.6,2744.1,2387.8,10150.5,356.3,""smooth"",""left"",""left"",""good_move""]","",""
"3153","","<div style=""width:500px;"">
  <p>What determined the result of this run?</p>
  </div>","15","html-slider-response","20","176725","0.0-5.0-1.2","213","1","2025-07-23 11:09:06","1f75c3e559b7213887762d5229550c2b","76.221.209.152","Mozilla/5.0 (Windows NT 10.0; Win64; x64) AppleWebKit/537.36 (KHTML, like Gecko) Chrome/138.0.0.0 Safari/537.36","WebKit","Chrome","138.0.0.0","Windows","10.0","https://app.prolific.com/","en-US,en;q=0.9,de;q=0.8,zh-TW;q=0.7,zh-CN;q=0.6,zh;q=0.5","5d617ba9364f9a0019f1dac3","683dba2a8a9dda3513610c04","6880c2ccfa624451b8bf703a","3","0","5d617ba9364f9a0019f1dac3","3","0","2025-07-23T11:12:04.438Z","","","","","","","","","","","AttribQ","","50","","","","","","","","","","","","","","","","","","","","","","","","","","","","",""
"2073","","<div style=""width:500px;"">
  <p>How much control did you have over the ball?</p>
  </div>","100","html-slider-response","21","178799","0.0-5.0-2.2","213","1","2025-07-23 11:09:06","1f75c3e559b7213887762d5229550c2b","76.221.209.152","Mozilla/5.0 (Windows NT 10.0; Win64; x64) AppleWebKit/537.36 (KHTML, like Gecko) Chrome/138.0.0.0 Safari/537.36","WebKit","Chrome","138.0.0.0","Windows","10.0","https://app.prolific.com/","en-US,en;q=0.9,de;q=0.8,zh-TW;q=0.7,zh-CN;q=0.6,zh;q=0.5","5d617ba9364f9a0019f1dac3","683dba2a8a9dda3513610c04","6880c2ccfa624451b8bf703a","3","0","5d617ba9364f9a0019f1dac3","3","0","2025-07-23T11:12:06.512Z","","","","","","","","","","","ControlQ","","50","","","","","","","","","","","","","","","","","","","","","","","","","","","","",""
"1932","","<div style=""width:500px;"">
  <p>How would you describe your current emotional state?</p>
  </div>","24","html-slider-response","22","180732","0.0-5.0-3.2","213","1","2025-07-23 11:09:06","1f75c3e559b7213887762d5229550c2b","76.221.209.152","Mozilla/5.0 (Windows NT 10.0; Win64; x64) AppleWebKit/537.36 (KHTML, like Gecko) Chrome/138.0.0.0 Safari/537.36","WebKit","Chrome","138.0.0.0","Windows","10.0","https://app.prolific.com/","en-US,en;q=0.9,de;q=0.8,zh-TW;q=0.7,zh-CN;q=0.6,zh;q=0.5","5d617ba9364f9a0019f1dac3","683dba2a8a9dda3513610c04","6880c2ccfa624451b8bf703a","3","0","5d617ba9364f9a0019f1dac3","3","0","2025-07-23T11:12:08.445Z","","","","","","","","","","","StressQ","","50","","","","","","","","","","","","","","","","","","","","","","","","","","","","",""
"2268","","<div style=""width:500px;"">
  <p>What best describes how you currently feel?</p>
  </div>","10","html-slider-response","23","183001","0.0-5.0-4.2","213","1","2025-07-23 11:09:06","1f75c3e559b7213887762d5229550c2b","76.221.209.152","Mozilla/5.0 (Windows NT 10.0; Win64; x64) AppleWebKit/537.36 (KHTML, like Gecko) Chrome/138.0.0.0 Safari/537.36","WebKit","Chrome","138.0.0.0","Windows","10.0","https://app.prolific.com/","en-US,en;q=0.9,de;q=0.8,zh-TW;q=0.7,zh-CN;q=0.6,zh;q=0.5","5d617ba9364f9a0019f1dac3","683dba2a8a9dda3513610c04","6880c2ccfa624451b8bf703a","3","0","5d617ba9364f9a0019f1dac3","3","0","2025-07-23T11:12:10.714Z","","","","","","","","","","","MotivationQ","","50","","","","","","","","","","","","","","","","","","","","","","","","","","","","",""
"","","","","ctl-task-cpt","24","202058","0.0-5.0-0.3","213","1","2025-07-23 11:09:06","1f75c3e559b7213887762d5229550c2b","76.221.209.152","Mozilla/5.0 (Windows NT 10.0; Win64; x64) AppleWebKit/537.36 (KHTML, like Gecko) Chrome/138.0.0.0 Safari/537.36","WebKit","Chrome","138.0.0.0","Windows","10.0","https://app.prolific.com/","en-US,en;q=0.9,de;q=0.8,zh-TW;q=0.7,zh-CN;q=0.6,zh;q=0.5","5d617ba9364f9a0019f1dac3","683dba2a8a9dda3513610c04","6880c2ccfa624451b8bf703a","3","0","5d617ba9364f9a0019f1dac3","3","0","2025-07-23T11:12:29.771Z","","","","","","","","","","","","","","win-only","1","g1:NE,g2:SW","0.7","4","0","185279.5","730.8","5736.8","16040.8","1","4","4","6","1","1","1","4","3","0.030303030303030304","844.5","3000","1280","[""up"",""right""]","{""num_key_presses"":4,""num_perfect"":3,""num_errors"":0,""num_randdir"":1,""num_randdir_good_moves"":1,""num_whilered"":0,""num_whileblue"":0,""num_blue"":0,""num_good_moves"":4}","[417.8214133126395,426.57142761775424,0.1,417.8214133126395,426.57142761775424,100.6,416.5714133126395,425.32142761775424,206,337.8214133126395,526.5714276177542,309.3,55.32141331263951,756.5714276177542,410.8,277.8214133126395,540.3214276177542,515.6,734.0714133126395,21.571427617754253,615.7,735.3214133126395,20.321427617754253,720.7,735.3214133126395,20.321427617754253,824.4,737.8214133126395,20.321427617754253,924.5,775.3214133126395,9.071427617754253,1025.2,881.5714133126395,-102.17857238224575,1126.1,881.5714133126395,-102.17857238224575,1229.8,881.5714133126395,-102.17857238224575,1329.8,881.5714133126395,-102.17857238224575,1435.2,881.5714133126395,-102.17857238224575,1535.6,881.5714133126395,-102.17857238224575,1635.6,881.5714133126395,-102.17857238224575,1740.2,881.5714133126395,-102.17857238224575,1845,881.5714133126395,-102.17857238224575,1945.3,881.5714133126395,-102.17857238224575,2045.3,881.5714133126395,-102.17857238224575,2150.6,881.5714133126395,-102.17857238224575,2255.6,881.5714133126395,-102.17857238224575,2355.9,881.5714133126395,-102.17857238224575,2460.7,881.5714133126395,-102.17857238224575,2564.9,881.5714133126395,-102.17857238224575,2670.9,881.5714133126395,-102.17857238224575,2775,881.5714133126395,-102.17857238224575,2875.9,881.5714133126395,-102.17857238224575,2980.7,881.5714133126395,-102.17857238224575,3084.8,881.5714133126395,-102.17857238224575,3184.9,881.5714133126395,-102.17857238224575,3285.4,881.5714133126395,-102.17857238224575,3390.1,881.5714133126395,-102.17857238224575,3490.1,881.5714133126395,-102.17857238224575,3590.3,881.5714133126395,-102.17857238224575,3694.9,881.5714133126395,-102.17857238224575,3795.4,881.5714133126395,-102.17857238224575,3900.8,881.5714133126395,-102.17857238224575,4001.4,881.5714133126395,-102.17857238224575,4105,881.5714133126395,-102.17857238224575,4205,881.5714133126395,-102.17857238224575,4309.8,881.5714133126395,-102.17857238224575,4415,881.5714133126395,-102.17857238224575,4516,881.5714133126395,-102.17857238224575,4619.6,881.5714133126395,-102.17857238224575,4719.7,881.5714133126395,-102.17857238224575,4821.4,881.5714133126395,-102.17857238224575,4924.8]","[1443.4,1443.4,1000,0,443.5,""oops"",""up"",""up"",""good_move"",4299.5,2855.7,2285.4,1443.8,570.3,""smooth"",""right"",""right"",""good_move"",6939.2,2639.6,2249,4299.6,390.6,""smooth"",""up"",""up"",""good_move"",10213.8,3274.5,2942.7,6939.3,331.8,""smooth"",""right"",""right"",""good_move""]","",""
"3404","","<div style=""width:500px;"">
  <p>What determined the result of this run?</p>
  </div>","36","html-slider-response","25","205464","0.0-5.0-1.3","213","1","2025-07-23 11:09:06","1f75c3e559b7213887762d5229550c2b","76.221.209.152","Mozilla/5.0 (Windows NT 10.0; Win64; x64) AppleWebKit/537.36 (KHTML, like Gecko) Chrome/138.0.0.0 Safari/537.36","WebKit","Chrome","138.0.0.0","Windows","10.0","https://app.prolific.com/","en-US,en;q=0.9,de;q=0.8,zh-TW;q=0.7,zh-CN;q=0.6,zh;q=0.5","5d617ba9364f9a0019f1dac3","683dba2a8a9dda3513610c04","6880c2ccfa624451b8bf703a","3","0","5d617ba9364f9a0019f1dac3","3","0","2025-07-23T11:12:33.177Z","","","","","","","","","","","AttribQ","","50","","","","","","","","","","","","","","","","","","","","","","","","","","","","",""
"2883","","<div style=""width:500px;"">
  <p>How much control did you have over the ball?</p>
  </div>","100","html-slider-response","26","208348","0.0-5.0-2.3","213","1","2025-07-23 11:09:06","1f75c3e559b7213887762d5229550c2b","76.221.209.152","Mozilla/5.0 (Windows NT 10.0; Win64; x64) AppleWebKit/537.36 (KHTML, like Gecko) Chrome/138.0.0.0 Safari/537.36","WebKit","Chrome","138.0.0.0","Windows","10.0","https://app.prolific.com/","en-US,en;q=0.9,de;q=0.8,zh-TW;q=0.7,zh-CN;q=0.6,zh;q=0.5","5d617ba9364f9a0019f1dac3","683dba2a8a9dda3513610c04","6880c2ccfa624451b8bf703a","3","0","5d617ba9364f9a0019f1dac3","3","0","2025-07-23T11:12:36.061Z","","","","","","","","","","","ControlQ","","50","","","","","","","","","","","","","","","","","","","","","","","","","","","","",""
"1599","","<div style=""width:500px;"">
  <p>How would you describe your current emotional state?</p>
  </div>","31","html-slider-response","27","209947","0.0-5.0-3.3","213","1","2025-07-23 11:09:06","1f75c3e559b7213887762d5229550c2b","76.221.209.152","Mozilla/5.0 (Windows NT 10.0; Win64; x64) AppleWebKit/537.36 (KHTML, like Gecko) Chrome/138.0.0.0 Safari/537.36","WebKit","Chrome","138.0.0.0","Windows","10.0","https://app.prolific.com/","en-US,en;q=0.9,de;q=0.8,zh-TW;q=0.7,zh-CN;q=0.6,zh;q=0.5","5d617ba9364f9a0019f1dac3","683dba2a8a9dda3513610c04","6880c2ccfa624451b8bf703a","3","0","5d617ba9364f9a0019f1dac3","3","0","2025-07-23T11:12:37.660Z","","","","","","","","","","","StressQ","","50","","","","","","","","","","","","","","","","","","","","","","","","","","","","",""
"1711","","<div style=""width:500px;"">
  <p>What best describes how you currently feel?</p>
  </div>","23","html-slider-response","28","211659","0.0-5.0-4.3","213","1","2025-07-23 11:09:06","1f75c3e559b7213887762d5229550c2b","76.221.209.152","Mozilla/5.0 (Windows NT 10.0; Win64; x64) AppleWebKit/537.36 (KHTML, like Gecko) Chrome/138.0.0.0 Safari/537.36","WebKit","Chrome","138.0.0.0","Windows","10.0","https://app.prolific.com/","en-US,en;q=0.9,de;q=0.8,zh-TW;q=0.7,zh-CN;q=0.6,zh;q=0.5","5d617ba9364f9a0019f1dac3","683dba2a8a9dda3513610c04","6880c2ccfa624451b8bf703a","3","0","5d617ba9364f9a0019f1dac3","3","0","2025-07-23T11:12:39.372Z","","","","","","","","","","","MotivationQ","","50","","","","","","","","","","","","","","","","","","","","","","","","","","","","",""
"","","","","ctl-task-cpt","29","249117","0.0-5.0-0.4","213","1","2025-07-23 11:09:06","1f75c3e559b7213887762d5229550c2b","76.221.209.152","Mozilla/5.0 (Windows NT 10.0; Win64; x64) AppleWebKit/537.36 (KHTML, like Gecko) Chrome/138.0.0.0 Safari/537.36","WebKit","Chrome","138.0.0.0","Windows","10.0","https://app.prolific.com/","en-US,en;q=0.9,de;q=0.8,zh-TW;q=0.7,zh-CN;q=0.6,zh;q=0.5","5d617ba9364f9a0019f1dac3","683dba2a8a9dda3513610c04","6880c2ccfa624451b8bf703a","3","0","5d617ba9364f9a0019f1dac3","3","0","2025-07-23T11:13:16.831Z","","","","","","","","","","","","","","win-only","3","g1:SW,g2:NE","0.6","5","0","213937.9","486.9","5490.6","34440.4","1","4","4","6","1","-1","-1","3","4","0.022727272727272728","829.5","3000","-3010","[""down"",""left""]","{""num_key_presses"":6,""num_perfect"":3,""num_errors"":0,""num_randdir"":3,""num_randdir_good_moves"":0,""num_whilered"":0,""num_whileblue"":0,""num_blue"":3,""num_good_moves"":3}","[416.5714133126395,404.07142761775424,0.2,420.3214133126395,406.57142761775424,104.2,420.3214133126395,411.57142761775424,205,419.0714133126395,411.57142761775424,309.5,574.0714133126395,241.57142761775424,410.1,194.0714133126395,626.5714276177542,513.7,-43.42858668736049,865.3214276177542,613.7,2.821413312639507,831.5714276177542,713.7,46.57141331263951,776.5714276177542,813.9,59.07141331263951,771.5714276177542,918.4,-55.92858668736049,779.0714276177542,1019.8,-482.1785866873605,806.5714276177542,1123.4,-482.1785866873605,806.5714276177542,1224.8,-482.1785866873605,806.5714276177542,1329.2,-482.1785866873605,806.5714276177542,1429.6,-482.1785866873605,806.5714276177542,1529.8,-482.1785866873605,806.5714276177542,1629.8,-482.1785866873605,806.5714276177542,1734.6,-482.1785866873605,806.5714276177542,1839.3,-482.1785866873605,806.5714276177542,1945,-482.1785866873605,806.5714276177542,2049.8,-482.1785866873605,806.5714276177542,2154.4,-482.1785866873605,806.5714276177542,2259.1,-482.1785866873605,806.5714276177542,2363.6,-482.1785866873605,806.5714276177542,2463.9,-482.1785866873605,806.5714276177542,2564.8,-482.1785866873605,806.5714276177542,2669.2,-482.1785866873605,806.5714276177542,2774,-482.1785866873605,806.5714276177542,2874,-482.1785866873605,806.5714276177542,2974.8,-482.1785866873605,806.5714276177542,3079.4,-482.1785866873605,806.5714276177542,3183.3,-482.1785866873605,806.5714276177542,3283.9,-482.1785866873605,806.5714276177542,3388.3,-482.1785866873605,806.5714276177542,3489.2,-482.1785866873605,806.5714276177542,3594.1,-482.1785866873605,806.5714276177542,3694.7,-482.1785866873605,806.5714276177542,3798.5,-482.1785866873605,806.5714276177542,3899.2,-482.1785866873605,806.5714276177542,3999.9,-482.1785866873605,806.5714276177542,4104.7,-482.1785866873605,806.5714276177542,4208.3,-482.1785866873605,806.5714276177542,4308.3,-482.1785866873605,806.5714276177542,4408.7,-482.1785866873605,806.5714276177542,4509,-482.1785866873605,806.5714276177542,4613.4,-482.1785866873605,806.5714276177542,4714.5,-482.1785866873605,806.5714276177542,4818.5,-482.1785866873605,806.5714276177542,4919.3]","[5071.7,5071.7,2625.4,2005.3,441,""smooth"",""down"",""down"",""good_move"",7319.2,2247.3,1828,5071.9,419.3,""smooth"",""down"",""down"",""good_move"",9895.2,2575.8,2151.4,7319.4,424.4,""smooth"",""left"",""left"",""good_move"",16567.4,6671.6,2759.6,13390.6,417.2,""oops"",""left"",""right"",""bad_move"",19968.8,3401.2,2997.9,16567.7,403.2,""oops"",""left"",""right"",""bad_move"",25870.7,5901.4,2262.4,23175.9,432.4,""oops"",""left"",""right"",""bad_move""]","",""
"2553","","<div style=""width:500px;"">
  <p>What determined the result of this run?</p>
  </div>","5","html-slider-response","30","251671","0.0-5.0-1.4","213","1","2025-07-23 11:09:06","1f75c3e559b7213887762d5229550c2b","76.221.209.152","Mozilla/5.0 (Windows NT 10.0; Win64; x64) AppleWebKit/537.36 (KHTML, like Gecko) Chrome/138.0.0.0 Safari/537.36","WebKit","Chrome","138.0.0.0","Windows","10.0","https://app.prolific.com/","en-US,en;q=0.9,de;q=0.8,zh-TW;q=0.7,zh-CN;q=0.6,zh;q=0.5","5d617ba9364f9a0019f1dac3","683dba2a8a9dda3513610c04","6880c2ccfa624451b8bf703a","3","0","5d617ba9364f9a0019f1dac3","3","0","2025-07-23T11:13:19.384Z","","","","","","","","","","","AttribQ","","50","","","","","","","","","","","","","","","","","","","","","","","","","","","","",""
"2107","","<div style=""width:500px;"">
  <p>How much control did you have over the ball?</p>
  </div>","18","html-slider-response","31","253779","0.0-5.0-2.4","213","1","2025-07-23 11:09:06","1f75c3e559b7213887762d5229550c2b","76.221.209.152","Mozilla/5.0 (Windows NT 10.0; Win64; x64) AppleWebKit/537.36 (KHTML, like Gecko) Chrome/138.0.0.0 Safari/537.36","WebKit","Chrome","138.0.0.0","Windows","10.0","https://app.prolific.com/","en-US,en;q=0.9,de;q=0.8,zh-TW;q=0.7,zh-CN;q=0.6,zh;q=0.5","5d617ba9364f9a0019f1dac3","683dba2a8a9dda3513610c04","6880c2ccfa624451b8bf703a","3","0","5d617ba9364f9a0019f1dac3","3","0","2025-07-23T11:13:21.492Z","","","","","","","","","","","ControlQ","","50","","","","","","","","","","","","","","","","","","","","","","","","","","","","",""
"2218","","<div style=""width:500px;"">
  <p>How would you describe your current emotional state?</p>
  </div>","100","html-slider-response","32","255999","0.0-5.0-3.4","213","1","2025-07-23 11:09:06","1f75c3e559b7213887762d5229550c2b","76.221.209.152","Mozilla/5.0 (Windows NT 10.0; Win64; x64) AppleWebKit/537.36 (KHTML, like Gecko) Chrome/138.0.0.0 Safari/537.36","WebKit","Chrome","138.0.0.0","Windows","10.0","https://app.prolific.com/","en-US,en;q=0.9,de;q=0.8,zh-TW;q=0.7,zh-CN;q=0.6,zh;q=0.5","5d617ba9364f9a0019f1dac3","683dba2a8a9dda3513610c04","6880c2ccfa624451b8bf703a","3","0","5d617ba9364f9a0019f1dac3","3","0","2025-07-23T11:13:23.712Z","","","","","","","","","","","StressQ","","50","","","","","","","","","","","","","","","","","","","","","","","","","","","","",""
"1947","","<div style=""width:500px;"">
  <p>What best describes how you currently feel?</p>
  </div>","24","html-slider-response","33","257947","0.0-5.0-4.4","213","1","2025-07-23 11:09:06","1f75c3e559b7213887762d5229550c2b","76.221.209.152","Mozilla/5.0 (Windows NT 10.0; Win64; x64) AppleWebKit/537.36 (KHTML, like Gecko) Chrome/138.0.0.0 Safari/537.36","WebKit","Chrome","138.0.0.0","Windows","10.0","https://app.prolific.com/","en-US,en;q=0.9,de;q=0.8,zh-TW;q=0.7,zh-CN;q=0.6,zh;q=0.5","5d617ba9364f9a0019f1dac3","683dba2a8a9dda3513610c04","6880c2ccfa624451b8bf703a","3","0","5d617ba9364f9a0019f1dac3","3","0","2025-07-23T11:13:25.660Z","","","","","","","","","","","MotivationQ","","50","","","","","","","","","","","","","","","","","","","","","","","","","","","","",""
"","","","","ctl-task-cpt","34","284615","0.0-5.0-0.5","213","1","2025-07-23 11:09:06","1f75c3e559b7213887762d5229550c2b","76.221.209.152","Mozilla/5.0 (Windows NT 10.0; Win64; x64) AppleWebKit/537.36 (KHTML, like Gecko) Chrome/138.0.0.0 Safari/537.36","WebKit","Chrome","138.0.0.0","Windows","10.0","https://app.prolific.com/","en-US,en;q=0.9,de;q=0.8,zh-TW;q=0.7,zh-CN;q=0.6,zh;q=0.5","5d617ba9364f9a0019f1dac3","683dba2a8a9dda3513610c04","6880c2ccfa624451b8bf703a","3","0","5d617ba9364f9a0019f1dac3","3","0","2025-07-23T11:13:52.328Z","","","","","","","","","","","","","","win-only","3","g1:SW,g2:NE","0.5","6","0","260224.9","623.8","5625.9","23650.6","1","4","8","6","1","1","1","4","3","0.030303030303030304","589.2","3000","295","[""down"",""left""]","{""num_key_presses"":6,""num_perfect"":4,""num_errors"":0,""num_randdir"":2,""num_randdir_good_moves"":1,""num_whilered"":0,""num_whileblue"":0,""num_blue"":1,""num_good_moves"":5}","[411.5714133126395,429.07142761775424,0.1,412.8214133126395,429.07142761775424,102.6,411.5714133126395,426.57142761775424,206.6,404.0714133126395,429.07142761775424,310.1,109.0714133126395,744.0714276177542,412.5,64.0714133126395,770.3214276177542,512.5,66.5714133126395,769.0714276177542,616.7,66.5714133126395,769.0714276177542,718.1,-2.178586687360493,769.0714276177542,821.8,-3.428586687360493,769.0714276177542,922.7,-3.428586687360493,769.0714276177542,1026.7,-3.428586687360493,769.0714276177542,1127.3,-3.428586687360493,769.0714276177542,1232.1,-3.428586687360493,769.0714276177542,1332.2,-3.428586687360493,769.0714276177542,1436.6,-3.428586687360493,769.0714276177542,1536.9,-3.428586687360493,769.0714276177542,1636.9,-3.428586687360493,769.0714276177542,1737.1,-3.428586687360493,769.0714276177542,1837.6,-3.428586687360493,769.0714276177542,1941.4,-3.428586687360493,769.0714276177542,2041.4,-3.428586687360493,769.0714276177542,2142.6,-3.428586687360493,769.0714276177542,2246.7,-3.428586687360493,769.0714276177542,2348.2,-3.428586687360493,769.0714276177542,2448.2,-3.428586687360493,769.0714276177542,2552.8,-3.428586687360493,769.0714276177542,2657.5,-3.428586687360493,769.0714276177542,2759.6,-3.428586687360493,769.0714276177542,2861.5,-3.428586687360493,769.0714276177542,2962.4,-3.428586687360493,769.0714276177542,3072.2,-3.428586687360493,769.0714276177542,3176.9,-3.428586687360493,769.0714276177542,3277.4,-3.428586687360493,769.0714276177542,3381.5,-3.428586687360493,769.0714276177542,3484.1,-3.428586687360493,769.0714276177542,3586.6,-3.428586687360493,769.0714276177542,3686.7,-3.428586687360493,769.0714276177542,3792,-3.428586687360493,769.0714276177542,3892.7,-3.428586687360493,769.0714276177542,3998.1,-3.428586687360493,769.0714276177542,4102.3,-3.428586687360493,769.0714276177542,4207.2,-3.428586687360493,769.0714276177542,4312,-3.428586687360493,769.0714276177542,4416.4,-3.428586687360493,769.0714276177542,4516.9,-3.428586687360493,769.0714276177542,4617.3,-3.428586687360493,769.0714276177542,4722.5,-3.428586687360493,769.0714276177542,4826.9,-3.428586687360493,769.0714276177542,4926.9]","[1432.4,1432.4,1000,0,432.4,""smooth"",""down"",""down"",""good_move"",7177.1,5744.4,2171,4500.7,505.4,""oops"",""down"",""down"",""good_move"",9554.2,2376.9,1839.3,7177.3,537.6,""smooth"",""left"",""left"",""good_move"",11553,1998.5,1552.9,9554.5,445.6,""oops"",""left"",""right"",""bad_move"",14617.5,3064.3,2619.2,11553.2,445.1,""smooth"",""left"",""left"",""good_move"",17937.2,3319.6,2945.8,14617.6,373.8,""smooth"",""left"",""left"",""good_move""]","",""
"2179","","<div style=""width:500px;"">
  <p>What determined the result of this run?</p>
  </div>","21","html-slider-response","35","286795","0.0-5.0-1.5","213","1","2025-07-23 11:09:06","1f75c3e559b7213887762d5229550c2b","76.221.209.152","Mozilla/5.0 (Windows NT 10.0; Win64; x64) AppleWebKit/537.36 (KHTML, like Gecko) Chrome/138.0.0.0 Safari/537.36","WebKit","Chrome","138.0.0.0","Windows","10.0","https://app.prolific.com/","en-US,en;q=0.9,de;q=0.8,zh-TW;q=0.7,zh-CN;q=0.6,zh;q=0.5","5d617ba9364f9a0019f1dac3","683dba2a8a9dda3513610c04","6880c2ccfa624451b8bf703a","3","0","5d617ba9364f9a0019f1dac3","3","0","2025-07-23T11:13:54.508Z","","","","","","","","","","","AttribQ","","50","","","","","","","","","","","","","","","","","","","","","","","","","","","","",""
"3415","","<div style=""width:500px;"">
  <p>How much control did you have over the ball?</p>
  </div>","57","html-slider-response","36","290211","0.0-5.0-2.5","213","1","2025-07-23 11:09:06","1f75c3e559b7213887762d5229550c2b","76.221.209.152","Mozilla/5.0 (Windows NT 10.0; Win64; x64) AppleWebKit/537.36 (KHTML, like Gecko) Chrome/138.0.0.0 Safari/537.36","WebKit","Chrome","138.0.0.0","Windows","10.0","https://app.prolific.com/","en-US,en;q=0.9,de;q=0.8,zh-TW;q=0.7,zh-CN;q=0.6,zh;q=0.5","5d617ba9364f9a0019f1dac3","683dba2a8a9dda3513610c04","6880c2ccfa624451b8bf703a","3","0","5d617ba9364f9a0019f1dac3","3","0","2025-07-23T11:13:57.924Z","","","","","","","","","","","ControlQ","","50","","","","","","","","","","","","","","","","","","","","","","","","","","","","",""
"2434","","<div style=""width:500px;"">
  <p>How would you describe your current emotional state?</p>
  </div>","70","html-slider-response","37","292645","0.0-5.0-3.5","213","1","2025-07-23 11:09:06","1f75c3e559b7213887762d5229550c2b","76.221.209.152","Mozilla/5.0 (Windows NT 10.0; Win64; x64) AppleWebKit/537.36 (KHTML, like Gecko) Chrome/138.0.0.0 Safari/537.36","WebKit","Chrome","138.0.0.0","Windows","10.0","https://app.prolific.com/","en-US,en;q=0.9,de;q=0.8,zh-TW;q=0.7,zh-CN;q=0.6,zh;q=0.5","5d617ba9364f9a0019f1dac3","683dba2a8a9dda3513610c04","6880c2ccfa624451b8bf703a","3","0","5d617ba9364f9a0019f1dac3","3","0","2025-07-23T11:14:00.358Z","","","","","","","","","","","StressQ","","50","","","","","","","","","","","","","","","","","","","","","","","","","","","","",""
"1679","","<div style=""width:500px;"">
  <p>What best describes how you currently feel?</p>
  </div>","17","html-slider-response","38","294325","0.0-5.0-4.5","213","1","2025-07-23 11:09:06","1f75c3e559b7213887762d5229550c2b","76.221.209.152","Mozilla/5.0 (Windows NT 10.0; Win64; x64) AppleWebKit/537.36 (KHTML, like Gecko) Chrome/138.0.0.0 Safari/537.36","WebKit","Chrome","138.0.0.0","Windows","10.0","https://app.prolific.com/","en-US,en;q=0.9,de;q=0.8,zh-TW;q=0.7,zh-CN;q=0.6,zh;q=0.5","5d617ba9364f9a0019f1dac3","683dba2a8a9dda3513610c04","6880c2ccfa624451b8bf703a","3","0","5d617ba9364f9a0019f1dac3","3","0","2025-07-23T11:14:02.038Z","","","","","","","","","","","MotivationQ","","50","","","","","","","","","","","","","","","","","","","","","","","","","","","","",""
"","","","","ctl-task-cpt","39","322884","0.0-5.0-0.6","213","1","2025-07-23 11:09:06","1f75c3e559b7213887762d5229550c2b","76.221.209.152","Mozilla/5.0 (Windows NT 10.0; Win64; x64) AppleWebKit/537.36 (KHTML, like Gecko) Chrome/138.0.0.0 Safari/537.36","WebKit","Chrome","138.0.0.0","Windows","10.0","https://app.prolific.com/","en-US,en;q=0.9,de;q=0.8,zh-TW;q=0.7,zh-CN;q=0.6,zh;q=0.5","5d617ba9364f9a0019f1dac3","683dba2a8a9dda3513610c04","6880c2ccfa624451b8bf703a","3","0","5d617ba9364f9a0019f1dac3","3","0","2025-07-23T11:14:30.597Z","","","","","","","","","","","","","","win-only","1","g1:NE,g2:SW","0.4","7","0","296604","739.9","5740.5","25541.2","1","4","4","6","1","1","1","5","4","0.03787878787878788","755.6","3000","805","[""up"",""right""]","{""num_key_presses"":6,""num_perfect"":2,""num_errors"":0,""num_randdir"":4,""num_randdir_good_moves"":3,""num_whilered"":0,""num_whileblue"":0,""num_blue"":1,""num_good_moves"":5}","[426.5714133126395,414.07142761775424,0.2,426.5714133126395,414.07142761775424,100.7,421.5714133126395,422.82142761775424,206.2,311.5714133126395,576.5714276177542,306.3,235.3214133126395,667.8214276177542,411.2,575.3214133126395,311.57142761775424,512.5,700.3214133126395,152.82142761775424,618.2,721.5714133126395,111.57142761775425,722.5,746.5714133126395,89.07142761775425,826.9,760.3214133126395,85.32142761775425,931.2,760.3214133126395,85.32142761775425,1032.2,760.3214133126395,85.32142761775425,1136.5,760.3214133126395,85.32142761775425,1242.1,760.3214133126395,85.32142761775425,1345.6,760.3214133126395,85.32142761775425,1446.6,760.3214133126395,85.32142761775425,1552.4,760.3214133126395,85.32142761775425,1655.8,760.3214133126395,85.32142761775425,1759,760.3214133126395,85.32142761775425,1861,760.3214133126395,85.32142761775425,1962.3,760.3214133126395,85.32142761775425,2065.6,760.3214133126395,85.32142761775425,2166.4,760.3214133126395,85.32142761775425,2266.5,760.3214133126395,85.32142761775425,2371.5,760.3214133126395,85.32142761775425,2471.5,760.3214133126395,85.32142761775425,2575.3,760.3214133126395,85.32142761775425,2676.2,760.3214133126395,85.32142761775425,2776.3,760.3214133126395,85.32142761775425,2876.5,760.3214133126395,85.32142761775425,2980.3,760.3214133126395,85.32142761775425,3082.2,760.3214133126395,85.32142761775425,3186.1,760.3214133126395,85.32142761775425,3291.1,760.3214133126395,85.32142761775425,3395.7,760.3214133126395,85.32142761775425,3495.7,760.3214133126395,85.32142761775425,3601,760.3214133126395,85.32142761775425,3706.2,760.3214133126395,85.32142761775425,3806.9,760.3214133126395,85.32142761775425,3907,760.3214133126395,85.32142761775425,4011.4,760.3214133126395,85.32142761775425,4111.7,760.3214133126395,85.32142761775425,4215.8,760.3214133126395,85.32142761775425,4315.8,760.3214133126395,85.32142761775425,4417.4,760.3214133126395,85.32142761775425,4520.9,760.3214133126395,85.32142761775425,4620.9,760.3214133126395,85.32142761775425,4721.2,760.3214133126395,85.32142761775425,4825.8,760.3214133126395,85.32142761775425,4926]","[1371,1371,1000,0,371,""oops"",""up"",""right"",""good_move"",4331.8,2960.5,2531.1,1371.3,429.4,""oops"",""up"",""down"",""bad_move"",7051.1,2718.7,2368.6,4332.4,350.1,""oops"",""up"",""up"",""good_move"",10394.9,3343.2,2983.9,7051.7,359.3,""smooth"",""up"",""up"",""good_move"",16883.3,6488.3,3189.5,13305.8,388.1,""oops"",""up"",""up"",""good_move"",19716.3,2832.7,2463.7,16883.6,369,""smooth"",""right"",""right"",""good_move""]","",""
"1536","","<div style=""width:500px;"">
  <p>What determined the result of this run?</p>
  </div>","12","html-slider-response","40","324421","0.0-5.0-1.6","213","1","2025-07-23 11:09:06","1f75c3e559b7213887762d5229550c2b","76.221.209.152","Mozilla/5.0 (Windows NT 10.0; Win64; x64) AppleWebKit/537.36 (KHTML, like Gecko) Chrome/138.0.0.0 Safari/537.36","WebKit","Chrome","138.0.0.0","Windows","10.0","https://app.prolific.com/","en-US,en;q=0.9,de;q=0.8,zh-TW;q=0.7,zh-CN;q=0.6,zh;q=0.5","5d617ba9364f9a0019f1dac3","683dba2a8a9dda3513610c04","6880c2ccfa624451b8bf703a","3","0","5d617ba9364f9a0019f1dac3","3","0","2025-07-23T11:14:32.134Z","","","","","","","","","","","AttribQ","","50","","","","","","","","","","","","","","","","","","","","","","","","","","","","",""
"4343","","<div style=""width:500px;"">
  <p>How much control did you have over the ball?</p>
  </div>","64","html-slider-response","41","328765","0.0-5.0-2.6","213","1","2025-07-23 11:09:06","1f75c3e559b7213887762d5229550c2b","76.221.209.152","Mozilla/5.0 (Windows NT 10.0; Win64; x64) AppleWebKit/537.36 (KHTML, like Gecko) Chrome/138.0.0.0 Safari/537.36","WebKit","Chrome","138.0.0.0","Windows","10.0","https://app.prolific.com/","en-US,en;q=0.9,de;q=0.8,zh-TW;q=0.7,zh-CN;q=0.6,zh;q=0.5","5d617ba9364f9a0019f1dac3","683dba2a8a9dda3513610c04","6880c2ccfa624451b8bf703a","3","0","5d617ba9364f9a0019f1dac3","3","0","2025-07-23T11:14:36.478Z","","","","","","","","","","","ControlQ","","50","","","","","","","","","","","","","","","","","","","","","","","","","","","","",""
"2609","","<div style=""width:500px;"">
  <p>How would you describe your current emotional state?</p>
  </div>","66","html-slider-response","42","331375","0.0-5.0-3.6","213","1","2025-07-23 11:09:06","1f75c3e559b7213887762d5229550c2b","76.221.209.152","Mozilla/5.0 (Windows NT 10.0; Win64; x64) AppleWebKit/537.36 (KHTML, like Gecko) Chrome/138.0.0.0 Safari/537.36","WebKit","Chrome","138.0.0.0","Windows","10.0","https://app.prolific.com/","en-US,en;q=0.9,de;q=0.8,zh-TW;q=0.7,zh-CN;q=0.6,zh;q=0.5","5d617ba9364f9a0019f1dac3","683dba2a8a9dda3513610c04","6880c2ccfa624451b8bf703a","3","0","5d617ba9364f9a0019f1dac3","3","0","2025-07-23T11:14:39.088Z","","","","","","","","","","","StressQ","","50","","","","","","","","","","","","","","","","","","","","","","","","","","","","",""
"1352","","<div style=""width:500px;"">
  <p>What best describes how you currently feel?</p>
  </div>","23","html-slider-response","43","332728","0.0-5.0-4.6","213","1","2025-07-23 11:09:06","1f75c3e559b7213887762d5229550c2b","76.221.209.152","Mozilla/5.0 (Windows NT 10.0; Win64; x64) AppleWebKit/537.36 (KHTML, like Gecko) Chrome/138.0.0.0 Safari/537.36","WebKit","Chrome","138.0.0.0","Windows","10.0","https://app.prolific.com/","en-US,en;q=0.9,de;q=0.8,zh-TW;q=0.7,zh-CN;q=0.6,zh;q=0.5","5d617ba9364f9a0019f1dac3","683dba2a8a9dda3513610c04","6880c2ccfa624451b8bf703a","3","0","5d617ba9364f9a0019f1dac3","3","0","2025-07-23T11:14:40.442Z","","","","","","","","","","","MotivationQ","","50","","","","","","","","","","","","","","","","","","","","","","","","","","","","",""
"","","","","ctl-task-cpt","44","352084","0.0-5.0-0.7","213","1","2025-07-23 11:09:06","1f75c3e559b7213887762d5229550c2b","76.221.209.152","Mozilla/5.0 (Windows NT 10.0; Win64; x64) AppleWebKit/537.36 (KHTML, like Gecko) Chrome/138.0.0.0 Safari/537.36","WebKit","Chrome","138.0.0.0","Windows","10.0","https://app.prolific.com/","en-US,en;q=0.9,de;q=0.8,zh-TW;q=0.7,zh-CN;q=0.6,zh;q=0.5","5d617ba9364f9a0019f1dac3","683dba2a8a9dda3513610c04","6880c2ccfa624451b8bf703a","3","0","5d617ba9364f9a0019f1dac3","3","0","2025-07-23T11:14:59.797Z","","","","","","","","","","","","","","win-only","3","g1:SW,g2:NE","0.3","8","0","335008.2","571.3","5572","16335.6","1","4","8","6","1","1","1","6","5","0.045454545454545456","480.1","3000","1125","[""down"",""left""]","{""num_key_presses"":4,""num_perfect"":2,""num_errors"":0,""num_randdir"":2,""num_randdir_good_moves"":2,""num_whilered"":0,""num_whileblue"":0,""num_blue"":0,""num_good_moves"":4}","[411.5714133126395,426.57142761775424,0.3,411.5714133126395,426.57142761775424,101.8,415.3214133126395,416.57142761775424,204.5,382.8214133126395,475.32142761775424,309.9,121.5714133126395,775.3214276177542,414.9,116.5714133126395,777.8214276177542,520.1,116.5714133126395,777.8214276177542,620.6,-95.9285866873605,807.8214276177542,724.1,-543.4285866873605,867.8214276177542,824.7,-543.4285866873605,896.5714276177542,930.3,-543.4285866873605,896.5714276177542,1034.1,-543.4285866873605,896.5714276177542,1134.5,-543.4285866873605,896.5714276177542,1239.8,-543.4285866873605,896.5714276177542,1340.2,-543.4285866873605,896.5714276177542,1446.1,-543.4285866873605,896.5714276177542,1550.2,-543.4285866873605,896.5714276177542,1655.4,-543.4285866873605,896.5714276177542,1755.4,-543.4285866873605,896.5714276177542,1860,-543.4285866873605,896.5714276177542,1964.4,-543.4285866873605,896.5714276177542,2065,-543.4285866873605,896.5714276177542,2170.2,-543.4285866873605,896.5714276177542,2275.3,-543.4285866873605,896.5714276177542,2379.2,-543.4285866873605,896.5714276177542,2479.3,-543.4285866873605,896.5714276177542,2579.6,-543.4285866873605,896.5714276177542,2680.3,-543.4285866873605,896.5714276177542,2783.9,-543.4285866873605,896.5714276177542,2884.7,-543.4285866873605,896.5714276177542,2989.4,-543.4285866873605,896.5714276177542,3095.6,-543.4285866873605,896.5714276177542,3199.9,-543.4285866873605,896.5714276177542,3304,-543.4285866873605,896.5714276177542,3409.3,-543.4285866873605,896.5714276177542,3514.3,-543.4285866873605,896.5714276177542,3615.5,-543.4285866873605,896.5714276177542,3720.3,-543.4285866873605,896.5714276177542,3820.4,-543.4285866873605,896.5714276177542,3924.5,-543.4285866873605,896.5714276177542,4025.5,-543.4285866873605,896.5714276177542,4129.4,-543.4285866873605,896.5714276177542,4229.9,-543.4285866873605,896.5714276177542,4330.5,-543.4285866873605,896.5714276177542,4433.8,-543.4285866873605,896.5714276177542,4534.3,-543.4285866873605,896.5714276177542,4639.6,-543.4285866873605,896.5714276177542,4746.2,-543.4285866873605,896.5714276177542,4846.4,-543.4285866873605,896.5714276177542,4951.1]","[1472.1,1472.1,1000,0,472.1,""smooth"",""down"",""down"",""good_move"",4855.2,3382.9,2864.1,1472.4,518.8,""oops"",""down"",""left"",""good_move"",7469.6,2614.1,2094.3,4855.5,519.8,""smooth"",""down"",""down"",""good_move"",10679.1,3209.3,2802.9,7469.8,406.4,""oops"",""left"",""left"",""good_move""]","",""
"3566","","<div style=""width:500px;"">
  <p>What determined the result of this run?</p>
  </div>","21","html-slider-response","45","355652","0.0-5.0-1.7","213","1","2025-07-23 11:09:06","1f75c3e559b7213887762d5229550c2b","76.221.209.152","Mozilla/5.0 (Windows NT 10.0; Win64; x64) AppleWebKit/537.36 (KHTML, like Gecko) Chrome/138.0.0.0 Safari/537.36","WebKit","Chrome","138.0.0.0","Windows","10.0","https://app.prolific.com/","en-US,en;q=0.9,de;q=0.8,zh-TW;q=0.7,zh-CN;q=0.6,zh;q=0.5","5d617ba9364f9a0019f1dac3","683dba2a8a9dda3513610c04","6880c2ccfa624451b8bf703a","3","0","5d617ba9364f9a0019f1dac3","3","0","2025-07-23T11:15:03.365Z","","","","","","","","","","","AttribQ","","50","","","","","","","","","","","","","","","","","","","","","","","","","","","","",""
"1916","","<div style=""width:500px;"">
  <p>How much control did you have over the ball?</p>
  </div>","73","html-slider-response","46","357569","0.0-5.0-2.7","213","1","2025-07-23 11:09:06","1f75c3e559b7213887762d5229550c2b","76.221.209.152","Mozilla/5.0 (Windows NT 10.0; Win64; x64) AppleWebKit/537.36 (KHTML, like Gecko) Chrome/138.0.0.0 Safari/537.36","WebKit","Chrome","138.0.0.0","Windows","10.0","https://app.prolific.com/","en-US,en;q=0.9,de;q=0.8,zh-TW;q=0.7,zh-CN;q=0.6,zh;q=0.5","5d617ba9364f9a0019f1dac3","683dba2a8a9dda3513610c04","6880c2ccfa624451b8bf703a","3","0","5d617ba9364f9a0019f1dac3","3","0","2025-07-23T11:15:05.282Z","","","","","","","","","","","ControlQ","","50","","","","","","","","","","","","","","","","","","","","","","","","","","","","",""
"1977","","<div style=""width:500px;"">
  <p>How would you describe your current emotional state?</p>
  </div>","58","html-slider-response","47","359550","0.0-5.0-3.7","213","1","2025-07-23 11:09:06","1f75c3e559b7213887762d5229550c2b","76.221.209.152","Mozilla/5.0 (Windows NT 10.0; Win64; x64) AppleWebKit/537.36 (KHTML, like Gecko) Chrome/138.0.0.0 Safari/537.36","WebKit","Chrome","138.0.0.0","Windows","10.0","https://app.prolific.com/","en-US,en;q=0.9,de;q=0.8,zh-TW;q=0.7,zh-CN;q=0.6,zh;q=0.5","5d617ba9364f9a0019f1dac3","683dba2a8a9dda3513610c04","6880c2ccfa624451b8bf703a","3","0","5d617ba9364f9a0019f1dac3","3","0","2025-07-23T11:15:07.263Z","","","","","","","","","","","StressQ","","50","","","","","","","","","","","","","","","","","","","","","","","","","","","","",""
"1385","","<div style=""width:500px;"">
  <p>What best describes how you currently feel?</p>
  </div>","16","html-slider-response","48","360936","0.0-5.0-4.7","213","1","2025-07-23 11:09:06","1f75c3e559b7213887762d5229550c2b","76.221.209.152","Mozilla/5.0 (Windows NT 10.0; Win64; x64) AppleWebKit/537.36 (KHTML, like Gecko) Chrome/138.0.0.0 Safari/537.36","WebKit","Chrome","138.0.0.0","Windows","10.0","https://app.prolific.com/","en-US,en;q=0.9,de;q=0.8,zh-TW;q=0.7,zh-CN;q=0.6,zh;q=0.5","5d617ba9364f9a0019f1dac3","683dba2a8a9dda3513610c04","6880c2ccfa624451b8bf703a","3","0","5d617ba9364f9a0019f1dac3","3","0","2025-07-23T11:15:08.649Z","","","","","","","","","","","MotivationQ","","50","","","","","","","","","","","","","","","","","","","","","","","","","","","","",""
"","","","","ctl-task-cpt","49","394655","0.0-5.0-0.8","213","1","2025-07-23 11:09:06","1f75c3e559b7213887762d5229550c2b","76.221.209.152","Mozilla/5.0 (Windows NT 10.0; Win64; x64) AppleWebKit/537.36 (KHTML, like Gecko) Chrome/138.0.0.0 Safari/537.36","WebKit","Chrome","138.0.0.0","Windows","10.0","https://app.prolific.com/","en-US,en;q=0.9,de;q=0.8,zh-TW;q=0.7,zh-CN;q=0.6,zh;q=0.5","5d617ba9364f9a0019f1dac3","683dba2a8a9dda3513610c04","6880c2ccfa624451b8bf703a","3","0","5d617ba9364f9a0019f1dac3","3","0","2025-07-23T11:15:42.368Z","","","","","","","","","","","","","","win-only","1","g1:NE,g2:SW","0.2","9","0","363214.9","525.3","5525.5","30700.9","1","4","4","6","1","-1","-2","4","6","0.030303030303030304","791.1","3000","-2990","[""up"",""right""]","{""num_key_presses"":13,""num_perfect"":1,""num_errors"":1,""num_randdir"":5,""num_randdir_good_moves"":2,""num_whilered"":6,""num_whileblue"":0,""num_blue"":1,""num_good_moves"":3}","[417.8214133126395,411.57142761775424,0.3,416.5714133126395,414.07142761775424,102.6,416.5714133126395,424.07142761775424,202.7,304.0714133126395,651.5714276177542,305.4,189.0714133126395,725.3214276177542,406.2,262.8214133126395,635.3214276177542,506.5,769.0714133126395,116.57142761775425,611.7,776.5714133126395,100.32142761775425,715.8,792.8214133126395,79.07142761775425,821,794.0714133126395,75.32142761775425,925.6,797.8214133126395,-25.928572382245747,1026.1,841.5714133126395,-108.42857238224575,1130,841.5714133126395,-108.42857238224575,1239.5,841.5714133126395,-108.42857238224575,1341.2,841.5714133126395,-108.42857238224575,1447.1,841.5714133126395,-108.42857238224575,1548,841.5714133126395,-108.42857238224575,1650.7,841.5714133126395,-108.42857238224575,1751,841.5714133126395,-108.42857238224575,1851.4,841.5714133126395,-108.42857238224575,1957.3,841.5714133126395,-108.42857238224575,2059.1,841.5714133126395,-108.42857238224575,2159.8,841.5714133126395,-108.42857238224575,2259.9,841.5714133126395,-108.42857238224575,2360.3,841.5714133126395,-108.42857238224575,2465.4,841.5714133126395,-108.42857238224575,2566,841.5714133126395,-108.42857238224575,2670.7,841.5714133126395,-108.42857238224575,2771.9,841.5714133126395,-108.42857238224575,2875.5,841.5714133126395,-108.42857238224575,2975.7,841.5714133126395,-108.42857238224575,3084.2,841.5714133126395,-108.42857238224575,3185,841.5714133126395,-108.42857238224575,3285.3,841.5714133126395,-108.42857238224575,3390.2,841.5714133126395,-108.42857238224575,3491.6,841.5714133126395,-108.42857238224575,3597.8,841.5714133126395,-108.42857238224575,3700.1,841.5714133126395,-108.42857238224575,3800.1,841.5714133126395,-108.42857238224575,3900.4,841.5714133126395,-108.42857238224575,4006.3,841.5714133126395,-108.42857238224575,4110,841.5714133126395,-108.42857238224575,4210.5,841.5714133126395,-108.42857238224575,4315.9,841.5714133126395,-108.42857238224575,4416.1,841.5714133126395,-108.42857238224575,4520.9,841.5714133126395,-108.42857238224575,4621.5,841.5714133126395,-108.42857238224575,4722,841.5714133126395,-108.42857238224575,4825.4,841.5714133126395,-108.42857238224575,4926.2]","[1423.3,1423.3,1000,0,423.3,""oops"",""up"",""left"",""bad_move"",4767.8,3344.1,2749.8,1423.7,594.3,""smooth"",""right"",""right"",""good_move"",7567.7,2799.3,2369.7,4768.4,429.6,""oops"",""up"",""right"",""good_move"",10344.5,2776.6,2371.6,7568,404.9,""oops"",""up"",""down"",""bad_move"",13343.3,2998.4,2572.8,10344.9,425.6,""oops"",""up"",""down"",""bad_move"",15528,2184.3,2840.7,13343.8,-656.5,""error"",""-"",""-"",""no_move"",15623.5,95.3,2840.7,13343.8,-561,""while_red"",""-"",""-"",""no_move"",15727,198.8,2840.7,13343.8,-457.5,""while_red"",""-"",""-"",""no_move"",15831.8,303.6,2840.7,13343.8,-352.7,""while_red"",""-"",""-"",""no_move"",15937.4,409.2,2840.7,13343.8,-247.1,""while_red"",""-"",""-"",""no_move"",16038.6,510.4,2840.7,13343.8,-145.9,""while_red"",""-"",""-"",""no_move"",16162,633.8,2840.7,13343.8,-22.5,""while_red"",""-"",""-"",""no_move"",19039,3510.8,2062.9,16529.9,446.2,""oops"",""down"",""up"",""good_move""]","",""
"1867","","<div style=""width:500px;"">
  <p>What determined the result of this run?</p>
  </div>","12","html-slider-response","50","396523","0.0-5.0-1.8","213","1","2025-07-23 11:09:06","1f75c3e559b7213887762d5229550c2b","76.221.209.152","Mozilla/5.0 (Windows NT 10.0; Win64; x64) AppleWebKit/537.36 (KHTML, like Gecko) Chrome/138.0.0.0 Safari/537.36","WebKit","Chrome","138.0.0.0","Windows","10.0","https://app.prolific.com/","en-US,en;q=0.9,de;q=0.8,zh-TW;q=0.7,zh-CN;q=0.6,zh;q=0.5","5d617ba9364f9a0019f1dac3","683dba2a8a9dda3513610c04","6880c2ccfa624451b8bf703a","3","0","5d617ba9364f9a0019f1dac3","3","0","2025-07-23T11:15:44.236Z","","","","","","","","","","","AttribQ","","50","","","","","","","","","","","","","","","","","","","","","","","","","","","","",""
"2191","","<div style=""width:500px;"">
  <p>How much control did you have over the ball?</p>
  </div>","23","html-slider-response","51","398715","0.0-5.0-2.8","213","1","2025-07-23 11:09:06","1f75c3e559b7213887762d5229550c2b","76.221.209.152","Mozilla/5.0 (Windows NT 10.0; Win64; x64) AppleWebKit/537.36 (KHTML, like Gecko) Chrome/138.0.0.0 Safari/537.36","WebKit","Chrome","138.0.0.0","Windows","10.0","https://app.prolific.com/","en-US,en;q=0.9,de;q=0.8,zh-TW;q=0.7,zh-CN;q=0.6,zh;q=0.5","5d617ba9364f9a0019f1dac3","683dba2a8a9dda3513610c04","6880c2ccfa624451b8bf703a","3","0","5d617ba9364f9a0019f1dac3","3","0","2025-07-23T11:15:46.428Z","","","","","","","","","","","ControlQ","","50","","","","","","","","","","","","","","","","","","","","","","","","","","","","",""
"1501","","<div style=""width:500px;"">
  <p>How would you describe your current emotional state?</p>
  </div>","100","html-slider-response","52","400218","0.0-5.0-3.8","213","1","2025-07-23 11:09:06","1f75c3e559b7213887762d5229550c2b","76.221.209.152","Mozilla/5.0 (Windows NT 10.0; Win64; x64) AppleWebKit/537.36 (KHTML, like Gecko) Chrome/138.0.0.0 Safari/537.36","WebKit","Chrome","138.0.0.0","Windows","10.0","https://app.prolific.com/","en-US,en;q=0.9,de;q=0.8,zh-TW;q=0.7,zh-CN;q=0.6,zh;q=0.5","5d617ba9364f9a0019f1dac3","683dba2a8a9dda3513610c04","6880c2ccfa624451b8bf703a","3","0","5d617ba9364f9a0019f1dac3","3","0","2025-07-23T11:15:47.931Z","","","","","","","","","","","StressQ","","50","","","","","","","","","","","","","","","","","","","","","","","","","","","","",""
"2447","","<div style=""width:500px;"">
  <p>What best describes how you currently feel?</p>
  </div>","29","html-slider-response","53","402666","0.0-5.0-4.8","213","1","2025-07-23 11:09:06","1f75c3e559b7213887762d5229550c2b","76.221.209.152","Mozilla/5.0 (Windows NT 10.0; Win64; x64) AppleWebKit/537.36 (KHTML, like Gecko) Chrome/138.0.0.0 Safari/537.36","WebKit","Chrome","138.0.0.0","Windows","10.0","https://app.prolific.com/","en-US,en;q=0.9,de;q=0.8,zh-TW;q=0.7,zh-CN;q=0.6,zh;q=0.5","5d617ba9364f9a0019f1dac3","683dba2a8a9dda3513610c04","6880c2ccfa624451b8bf703a","3","0","5d617ba9364f9a0019f1dac3","3","0","2025-07-23T11:15:50.379Z","","","","","","","","","","","MotivationQ","","50","","","","","","","","","","","","","","","","","","","","","","","","","","","","",""
"","","","","ctl-task-cpt","54","434658","0.0-5.0-0.9","213","1","2025-07-23 11:09:06","1f75c3e559b7213887762d5229550c2b","76.221.209.152","Mozilla/5.0 (Windows NT 10.0; Win64; x64) AppleWebKit/537.36 (KHTML, like Gecko) Chrome/138.0.0.0 Safari/537.36","WebKit","Chrome","138.0.0.0","Windows","10.0","https://app.prolific.com/","en-US,en;q=0.9,de;q=0.8,zh-TW;q=0.7,zh-CN;q=0.6,zh;q=0.5","5d617ba9364f9a0019f1dac3","683dba2a8a9dda3513610c04","6880c2ccfa624451b8bf703a","3","0","5d617ba9364f9a0019f1dac3","3","0","2025-07-23T11:16:22.371Z","","","","","","","","","","","","","","win-only","2","g1:SE,g2:NW","0.4","10","0","404947.4","977.6","5980.6","28971","1","4","8","6","1","-1","-1","3","4","0.022727272727272728","644.2","3000","-2970","[""down"",""right""]","{""num_key_presses"":6,""num_perfect"":2,""num_errors"":0,""num_randdir"":4,""num_randdir_good_moves"":2,""num_whilered"":0,""num_whileblue"":0,""num_blue"":1,""num_good_moves"":4}","[411.5714133126395,412.82142761775424,0.5,411.5714133126395,414.07142761775424,104.5,406.5714133126395,426.57142761775424,208,311.5714133126395,610.3214276177542,310.1,562.8214133126395,650.3214276177542,413.7,656.5714133126395,702.8214276177542,513.9,682.8214133126395,726.5714276177542,619.4,720.3214133126395,727.8214276177542,723.1,751.5714133126395,726.5714276177542,827.7,757.8214133126395,725.3214276177542,928.7,806.5714133126395,667.8214276177542,1029.1,1171.5714133126396,301.57142761775424,1133.8,1364.0714133126396,194.07142761775424,1237.9,1364.0714133126396,194.07142761775424,1338.2,1364.0714133126396,194.07142761775424,1438.3,1364.0714133126396,194.07142761775424,1538.5,1364.0714133126396,194.07142761775424,1644.8,1364.0714133126396,194.07142761775424,1747.7,1364.0714133126396,194.07142761775424,1850.4,1364.0714133126396,194.07142761775424,1952.6,1364.0714133126396,194.07142761775424,2054.4,1364.0714133126396,194.07142761775424,2159.3,1364.0714133126396,194.07142761775424,2259.4,1364.0714133126396,194.07142761775424,2363.2,1364.0714133126396,194.07142761775424,2470.3,1364.0714133126396,194.07142761775424,2582,1364.0714133126396,194.07142761775424,2683.3,1364.0714133126396,194.07142761775424,2784.3,1364.0714133126396,194.07142761775424,2884.6,1364.0714133126396,194.07142761775424,2988.4,1364.0714133126396,194.07142761775424,3093,1364.0714133126396,194.07142761775424,3197.9,1364.0714133126396,194.07142761775424,3299.1,1364.0714133126396,194.07142761775424,3403.4,1364.0714133126396,194.07142761775424,3509.6,1364.0714133126396,194.07142761775424,3613.5,1364.0714133126396,194.07142761775424,3719.4,1364.0714133126396,194.07142761775424,3822.8,1364.0714133126396,194.07142761775424,3924.6,1364.0714133126396,194.07142761775424,4027.8,1364.0714133126396,194.07142761775424,4128.1,1364.0714133126396,194.07142761775424,4233.7,1364.0714133126396,194.07142761775424,4337.6,1364.0714133126396,194.07142761775424,4437.9,1364.0714133126396,194.07142761775424,4538.3,1364.0714133126396,194.07142761775424,4643.7,1364.0714133126396,194.07142761775424,4748.9,1364.0714133126396,194.07142761775424,4853.8,1364.0714133126396,194.07142761775424,4954]","[1429.2,1429.2,1000,0,429.2,""oops"",""down"",""left"",""bad_move"",4660.5,3230.9,2740.3,1429.7,490.5,""oops"",""right"",""right"",""good_move"",7589.1,2928,2535.4,4661.1,392.6,""smooth"",""right"",""right"",""good_move"",10947.1,3357.2,2985.4,7589.9,371.8,""smooth"",""right"",""right"",""good_move"",16606.1,5658.8,1719.1,14430.2,456.8,""oops"",""down"",""down"",""good_move"",20475.9,3869.5,3236.6,16606.4,632.9,""oops"",""down"",""left"",""bad_move""]","",""
"1574","","<div style=""width:500px;"">
  <p>What determined the result of this run?</p>
  </div>","16","html-slider-response","55","436233","0.0-5.0-1.9","213","1","2025-07-23 11:09:06","1f75c3e559b7213887762d5229550c2b","76.221.209.152","Mozilla/5.0 (Windows NT 10.0; Win64; x64) AppleWebKit/537.36 (KHTML, like Gecko) Chrome/138.0.0.0 Safari/537.36","WebKit","Chrome","138.0.0.0","Windows","10.0","https://app.prolific.com/","en-US,en;q=0.9,de;q=0.8,zh-TW;q=0.7,zh-CN;q=0.6,zh;q=0.5","5d617ba9364f9a0019f1dac3","683dba2a8a9dda3513610c04","6880c2ccfa624451b8bf703a","3","0","5d617ba9364f9a0019f1dac3","3","0","2025-07-23T11:16:23.946Z","","","","","","","","","","","AttribQ","","50","","","","","","","","","","","","","","","","","","","","","","","","","","","","",""
"3305","","<div style=""width:500px;"">
  <p>How much control did you have over the ball?</p>
  </div>","37","html-slider-response","56","439539","0.0-5.0-2.9","213","1","2025-07-23 11:09:06","1f75c3e559b7213887762d5229550c2b","76.221.209.152","Mozilla/5.0 (Windows NT 10.0; Win64; x64) AppleWebKit/537.36 (KHTML, like Gecko) Chrome/138.0.0.0 Safari/537.36","WebKit","Chrome","138.0.0.0","Windows","10.0","https://app.prolific.com/","en-US,en;q=0.9,de;q=0.8,zh-TW;q=0.7,zh-CN;q=0.6,zh;q=0.5","5d617ba9364f9a0019f1dac3","683dba2a8a9dda3513610c04","6880c2ccfa624451b8bf703a","3","0","5d617ba9364f9a0019f1dac3","3","0","2025-07-23T11:16:27.252Z","","","","","","","","","","","ControlQ","","50","","","","","","","","","","","","","","","","","","","","","","","","","","","","",""
"2405","","<div style=""width:500px;"">
  <p>How would you describe your current emotional state?</p>
  </div>","99","html-slider-response","57","441945","0.0-5.0-3.9","213","1","2025-07-23 11:09:06","1f75c3e559b7213887762d5229550c2b","76.221.209.152","Mozilla/5.0 (Windows NT 10.0; Win64; x64) AppleWebKit/537.36 (KHTML, like Gecko) Chrome/138.0.0.0 Safari/537.36","WebKit","Chrome","138.0.0.0","Windows","10.0","https://app.prolific.com/","en-US,en;q=0.9,de;q=0.8,zh-TW;q=0.7,zh-CN;q=0.6,zh;q=0.5","5d617ba9364f9a0019f1dac3","683dba2a8a9dda3513610c04","6880c2ccfa624451b8bf703a","3","0","5d617ba9364f9a0019f1dac3","3","0","2025-07-23T11:16:29.658Z","","","","","","","","","","","StressQ","","50","","","","","","","","","","","","","","","","","","","","","","","","","","","","",""
"1768","","<div style=""width:500px;"">
  <p>What best describes how you currently feel?</p>
  </div>","18","html-slider-response","58","443714","0.0-5.0-4.9","213","1","2025-07-23 11:09:06","1f75c3e559b7213887762d5229550c2b","76.221.209.152","Mozilla/5.0 (Windows NT 10.0; Win64; x64) AppleWebKit/537.36 (KHTML, like Gecko) Chrome/138.0.0.0 Safari/537.36","WebKit","Chrome","138.0.0.0","Windows","10.0","https://app.prolific.com/","en-US,en;q=0.9,de;q=0.8,zh-TW;q=0.7,zh-CN;q=0.6,zh;q=0.5","5d617ba9364f9a0019f1dac3","683dba2a8a9dda3513610c04","6880c2ccfa624451b8bf703a","3","0","5d617ba9364f9a0019f1dac3","3","0","2025-07-23T11:16:31.427Z","","","","","","","","","","","MotivationQ","","50","","","","","","","","","","","","","","","","","","","","","","","","","","","","",""
"","","","","ctl-task-cpt","59","472735","0.0-5.0-0.10","213","1","2025-07-23 11:09:06","1f75c3e559b7213887762d5229550c2b","76.221.209.152","Mozilla/5.0 (Windows NT 10.0; Win64; x64) AppleWebKit/537.36 (KHTML, like Gecko) Chrome/138.0.0.0 Safari/537.36","WebKit","Chrome","138.0.0.0","Windows","10.0","https://app.prolific.com/","en-US,en;q=0.9,de;q=0.8,zh-TW;q=0.7,zh-CN;q=0.6,zh;q=0.5","5d617ba9364f9a0019f1dac3","683dba2a8a9dda3513610c04","6880c2ccfa624451b8bf703a","3","0","5d617ba9364f9a0019f1dac3","3","0","2025-07-23T11:17:00.448Z","","","","","","","","","","","","","","win-only","2","g1:SE,g2:NW","0.5","11","0","445993.2","550.7","5557.6","26000.6","1","4","4","6","1","-1","-1","2","3","0.015151515151515152","551.3","3000","-2980","[""down"",""right""]","{""num_key_presses"":5,""num_perfect"":3,""num_errors"":0,""num_randdir"":2,""num_randdir_good_moves"":1,""num_whilered"":0,""num_whileblue"":0,""num_blue"":1,""num_good_moves"":4}","[422.8214133126395,406.57142761775424,0.1,422.8214133126395,405.32142761775424,100.5,422.8214133126395,405.32142761775424,206.1,444.0714133126395,507.82142761775424,311.4,724.0714133126395,731.5714276177542,414.8,762.8214133126395,792.8214276177542,516.3,766.5714133126395,792.8214276177542,623,766.5714133126395,785.3214276177542,724.9,1092.8214133126396,691.5714276177542,826.5,1369.0714133126396,592.8214276177542,932,1369.0714133126396,592.8214276177542,1037,1369.0714133126396,592.8214276177542,1141.1,1369.0714133126396,592.8214276177542,1241.9,1369.0714133126396,592.8214276177542,1346.9,1369.0714133126396,592.8214276177542,1447.2,1369.0714133126396,592.8214276177542,1549.7,1369.0714133126396,592.8214276177542,1650.7,1369.0714133126396,592.8214276177542,1756.4,1369.0714133126396,592.8214276177542,1860.5,1369.0714133126396,592.8214276177542,1965.5,1369.0714133126396,592.8214276177542,2070.1,1369.0714133126396,592.8214276177542,2172.9,1369.0714133126396,592.8214276177542,2273.5,1369.0714133126396,592.8214276177542,2375.4,1369.0714133126396,592.8214276177542,2476.2,1369.0714133126396,592.8214276177542,2581.4,1369.0714133126396,592.8214276177542,2682.3,1369.0714133126396,592.8214276177542,2784.8,1369.0714133126396,592.8214276177542,2884.9,1369.0714133126396,592.8214276177542,2989.5,1369.0714133126396,592.8214276177542,3089.9,1369.0714133126396,592.8214276177542,3197.2,1371.5714133126396,552.8214276177542,3297.8,1362.8214133126396,429.07142761775424,3402.1,1362.8214133126396,429.07142761775424,3644.8,1362.8214133126396,429.07142761775424,3744.9,1362.8214133126396,429.07142761775424,3845,1362.8214133126396,429.07142761775424,3952.2,1362.8214133126396,429.07142761775424,4060.6,951.5714133126395,515.3214276177542,4166.4,816.5714133126395,637.8214276177542,4269.1,781.5714133126395,674.0714276177542,4372,749.0714133126395,691.5714276177542,4477.4,749.0714133126395,692.8214276177542,4580.4,716.5714133126395,714.0714276177542,4681.2,675.3214133126395,746.5714276177542,4781.8,675.3214133126395,746.5714276177542,4882.1,672.8214133126395,747.8214276177542,4985.5]","[1454.7,1454.7,1000,0,454.7,""smooth"",""down"",""down"",""good_move"",4308.8,2852.9,2383.9,1456,468.9,""smooth"",""down"",""down"",""good_move"",7524.8,3215.9,2503.1,4308.9,712.8,""oops"",""right"",""right"",""good_move"",14229.2,6704.4,2525.7,11114.2,589.4,""oops"",""right"",""left"",""bad_move"",17540.2,3310.5,2618.4,14229.7,692.1,""smooth"",""right"",""right"",""good_move""]","",""
"2880","","<div style=""width:500px;"">
  <p>What determined the result of this run?</p>
  </div>","20","html-slider-response","60","475616","0.0-5.0-1.10","213","1","2025-07-23 11:09:06","1f75c3e559b7213887762d5229550c2b","76.221.209.152","Mozilla/5.0 (Windows NT 10.0; Win64; x64) AppleWebKit/537.36 (KHTML, like Gecko) Chrome/138.0.0.0 Safari/537.36","WebKit","Chrome","138.0.0.0","Windows","10.0","https://app.prolific.com/","en-US,en;q=0.9,de;q=0.8,zh-TW;q=0.7,zh-CN;q=0.6,zh;q=0.5","5d617ba9364f9a0019f1dac3","683dba2a8a9dda3513610c04","6880c2ccfa624451b8bf703a","3","0","5d617ba9364f9a0019f1dac3","3","0","2025-07-23T11:17:03.330Z","","","","","","","","","","","AttribQ","","50","","","","","","","","","","","","","","","","","","","","","","","","","","","","",""
"1228","","<div style=""width:500px;"">
  <p>How much control did you have over the ball?</p>
  </div>","35","html-slider-response","61","476846","0.0-5.0-2.10","213","1","2025-07-23 11:09:06","1f75c3e559b7213887762d5229550c2b","76.221.209.152","Mozilla/5.0 (Windows NT 10.0; Win64; x64) AppleWebKit/537.36 (KHTML, like Gecko) Chrome/138.0.0.0 Safari/537.36","WebKit","Chrome","138.0.0.0","Windows","10.0","https://app.prolific.com/","en-US,en;q=0.9,de;q=0.8,zh-TW;q=0.7,zh-CN;q=0.6,zh;q=0.5","5d617ba9364f9a0019f1dac3","683dba2a8a9dda3513610c04","6880c2ccfa624451b8bf703a","3","0","5d617ba9364f9a0019f1dac3","3","0","2025-07-23T11:17:04.559Z","","","","","","","","","","","ControlQ","","50","","","","","","","","","","","","","","","","","","","","","","","","","","","","",""
"1740","","<div style=""width:500px;"">
  <p>How would you describe your current emotional state?</p>
  </div>","74","html-slider-response","62","478587","0.0-5.0-3.10","213","1","2025-07-23 11:09:06","1f75c3e559b7213887762d5229550c2b","76.221.209.152","Mozilla/5.0 (Windows NT 10.0; Win64; x64) AppleWebKit/537.36 (KHTML, like Gecko) Chrome/138.0.0.0 Safari/537.36","WebKit","Chrome","138.0.0.0","Windows","10.0","https://app.prolific.com/","en-US,en;q=0.9,de;q=0.8,zh-TW;q=0.7,zh-CN;q=0.6,zh;q=0.5","5d617ba9364f9a0019f1dac3","683dba2a8a9dda3513610c04","6880c2ccfa624451b8bf703a","3","0","5d617ba9364f9a0019f1dac3","3","0","2025-07-23T11:17:06.300Z","","","","","","","","","","","StressQ","","50","","","","","","","","","","","","","","","","","","","","","","","","","","","","",""
"1413","","<div style=""width:500px;"">
  <p>What best describes how you currently feel?</p>
  </div>","16","html-slider-response","63","480001","0.0-5.0-4.10","213","1","2025-07-23 11:09:06","1f75c3e559b7213887762d5229550c2b","76.221.209.152","Mozilla/5.0 (Windows NT 10.0; Win64; x64) AppleWebKit/537.36 (KHTML, like Gecko) Chrome/138.0.0.0 Safari/537.36","WebKit","Chrome","138.0.0.0","Windows","10.0","https://app.prolific.com/","en-US,en;q=0.9,de;q=0.8,zh-TW;q=0.7,zh-CN;q=0.6,zh;q=0.5","5d617ba9364f9a0019f1dac3","683dba2a8a9dda3513610c04","6880c2ccfa624451b8bf703a","3","0","5d617ba9364f9a0019f1dac3","3","0","2025-07-23T11:17:07.714Z","","","","","","","","","","","MotivationQ","","50","","","","","","","","","","","","","","","","","","","","","","","","","","","","",""
"","","","","ctl-task-cpt","64","502875","0.0-5.0-0.11","213","1","2025-07-23 11:09:06","1f75c3e559b7213887762d5229550c2b","76.221.209.152","Mozilla/5.0 (Windows NT 10.0; Win64; x64) AppleWebKit/537.36 (KHTML, like Gecko) Chrome/138.0.0.0 Safari/537.36","WebKit","Chrome","138.0.0.0","Windows","10.0","https://app.prolific.com/","en-US,en;q=0.9,de;q=0.8,zh-TW;q=0.7,zh-CN;q=0.6,zh;q=0.5","5d617ba9364f9a0019f1dac3","683dba2a8a9dda3513610c04","6880c2ccfa624451b8bf703a","3","0","5d617ba9364f9a0019f1dac3","3","0","2025-07-23T11:17:30.588Z","","","","","","","","","","","","","","win-only","3","g1:SW,g2:NE","0.6","12","0","482280","886.9","5894","19853.7","1","4","8","6","1","-1","-1","1","2","0.007575757575757576","598.4","3000","-2890","[""down"",""left""]","{""num_key_presses"":4,""num_perfect"":2,""num_errors"":0,""num_randdir"":2,""num_randdir_good_moves"":1,""num_whilered"":0,""num_whileblue"":0,""num_blue"":0,""num_good_moves"":3}","[425.3214133126395,406.57142761775424,0.1,425.3214133126395,406.57142761775424,100.3,425.3214133126395,409.07142761775424,203.9,386.5714133126395,491.57142761775424,304.3,167.8214133126395,780.3214276177542,405.4,109.0714133126395,780.3214276177542,512.8,106.5714133126395,757.8214276177542,614.5,101.5714133126395,756.5714276177542,714.8,-160.9285866873605,837.8214276177542,820.3,-383.4285866873605,931.5714276177542,921,-383.4285866873605,931.5714276177542,1025.2,-383.4285866873605,931.5714276177542,1125.6,-383.4285866873605,931.5714276177542,1230,-383.4285866873605,931.5714276177542,1331,-383.4285866873605,931.5714276177542,1433.9,-383.4285866873605,931.5714276177542,1535,-383.4285866873605,931.5714276177542,1636.1,-383.4285866873605,931.5714276177542,1737,-383.4285866873605,931.5714276177542,1839.1,-383.4285866873605,931.5714276177542,1944.6,-383.4285866873605,931.5714276177542,2045.4,-383.4285866873605,931.5714276177542,2145.9,-383.4285866873605,931.5714276177542,2246.1,-383.4285866873605,931.5714276177542,2346.4,-383.4285866873605,931.5714276177542,2446.4,-383.4285866873605,931.5714276177542,2549.1,-383.4285866873605,931.5714276177542,2654.4,-383.4285866873605,931.5714276177542,2754.4,-383.4285866873605,931.5714276177542,2860.4,-383.4285866873605,931.5714276177542,2964,-383.4285866873605,931.5714276177542,3064,-383.4285866873605,931.5714276177542,3164.2,-383.4285866873605,931.5714276177542,3271.1,-383.4285866873605,931.5714276177542,3373.9,-383.4285866873605,931.5714276177542,3474,-383.4285866873605,931.5714276177542,3580.5,-383.4285866873605,931.5714276177542,3682.5,-383.4285866873605,931.5714276177542,3784.5,-383.4285866873605,931.5714276177542,3887.6,-383.4285866873605,931.5714276177542,3990.8,-383.4285866873605,931.5714276177542,4096.1,-383.4285866873605,931.5714276177542,4199.9,-383.4285866873605,931.5714276177542,4300.1,-383.4285866873605,931.5714276177542,4404.7,-383.4285866873605,931.5714276177542,4505.4,-383.4285866873605,931.5714276177542,4610.4,-383.4285866873605,931.5714276177542,4711.7,-383.4285866873605,931.5714276177542,4817.6,-383.4285866873605,931.5714276177542,4920.6]","[1422.2,1422.2,1000,0,422.2,""oops"",""down"",""left"",""good_move"",5038.6,3616,2574.6,1422.6,1041.4,""smooth"",""down"",""down"",""good_move"",8087.4,3048.5,2548.9,5038.9,499.6,""smooth"",""down"",""down"",""good_move"",11261.4,3173.7,2699.4,8087.7,474.3,""oops"",""left"",""right"",""bad_move""]","",""
"1351","","<div style=""width:500px;"">
  <p>What determined the result of this run?</p>
  </div>","19","html-slider-response","65","504226","0.0-5.0-1.11","213","1","2025-07-23 11:09:06","1f75c3e559b7213887762d5229550c2b","76.221.209.152","Mozilla/5.0 (Windows NT 10.0; Win64; x64) AppleWebKit/537.36 (KHTML, like Gecko) Chrome/138.0.0.0 Safari/537.36","WebKit","Chrome","138.0.0.0","Windows","10.0","https://app.prolific.com/","en-US,en;q=0.9,de;q=0.8,zh-TW;q=0.7,zh-CN;q=0.6,zh;q=0.5","5d617ba9364f9a0019f1dac3","683dba2a8a9dda3513610c04","6880c2ccfa624451b8bf703a","3","0","5d617ba9364f9a0019f1dac3","3","0","2025-07-23T11:17:31.940Z","","","","","","","","","","","AttribQ","","50","","","","","","","","","","","","","","","","","","","","","","","","","","","","",""
"2015","","<div style=""width:500px;"">
  <p>How much control did you have over the ball?</p>
  </div>","33","html-slider-response","66","506242","0.0-5.0-2.11","213","1","2025-07-23 11:09:06","1f75c3e559b7213887762d5229550c2b","76.221.209.152","Mozilla/5.0 (Windows NT 10.0; Win64; x64) AppleWebKit/537.36 (KHTML, like Gecko) Chrome/138.0.0.0 Safari/537.36","WebKit","Chrome","138.0.0.0","Windows","10.0","https://app.prolific.com/","en-US,en;q=0.9,de;q=0.8,zh-TW;q=0.7,zh-CN;q=0.6,zh;q=0.5","5d617ba9364f9a0019f1dac3","683dba2a8a9dda3513610c04","6880c2ccfa624451b8bf703a","3","0","5d617ba9364f9a0019f1dac3","3","0","2025-07-23T11:17:33.956Z","","","","","","","","","","","ControlQ","","50","","","","","","","","","","","","","","","","","","","","","","","","","","","","",""
"1585","","<div style=""width:500px;"">
  <p>How would you describe your current emotional state?</p>
  </div>","100","html-slider-response","67","507829","0.0-5.0-3.11","213","1","2025-07-23 11:09:06","1f75c3e559b7213887762d5229550c2b","76.221.209.152","Mozilla/5.0 (Windows NT 10.0; Win64; x64) AppleWebKit/537.36 (KHTML, like Gecko) Chrome/138.0.0.0 Safari/537.36","WebKit","Chrome","138.0.0.0","Windows","10.0","https://app.prolific.com/","en-US,en;q=0.9,de;q=0.8,zh-TW;q=0.7,zh-CN;q=0.6,zh;q=0.5","5d617ba9364f9a0019f1dac3","683dba2a8a9dda3513610c04","6880c2ccfa624451b8bf703a","3","0","5d617ba9364f9a0019f1dac3","3","0","2025-07-23T11:17:35.542Z","","","","","","","","","","","StressQ","","50","","","","","","","","","","","","","","","","","","","","","","","","","","","","",""
"1419","","<div style=""width:500px;"">
  <p>What best describes how you currently feel?</p>
  </div>","17","html-slider-response","68","509249","0.0-5.0-4.11","213","1","2025-07-23 11:09:06","1f75c3e559b7213887762d5229550c2b","76.221.209.152","Mozilla/5.0 (Windows NT 10.0; Win64; x64) AppleWebKit/537.36 (KHTML, like Gecko) Chrome/138.0.0.0 Safari/537.36","WebKit","Chrome","138.0.0.0","Windows","10.0","https://app.prolific.com/","en-US,en;q=0.9,de;q=0.8,zh-TW;q=0.7,zh-CN;q=0.6,zh;q=0.5","5d617ba9364f9a0019f1dac3","683dba2a8a9dda3513610c04","6880c2ccfa624451b8bf703a","3","0","5d617ba9364f9a0019f1dac3","3","0","2025-07-23T11:17:36.963Z","","","","","","","","","","","MotivationQ","","50","","","","","","","","","","","","","","","","","","","","","","","","","","","","",""
"","","","","ctl-task-cpt","69","536521","0.0-5.0-0.12","213","1","2025-07-23 11:09:06","1f75c3e559b7213887762d5229550c2b","76.221.209.152","Mozilla/5.0 (Windows NT 10.0; Win64; x64) AppleWebKit/537.36 (KHTML, like Gecko) Chrome/138.0.0.0 Safari/537.36","WebKit","Chrome","138.0.0.0","Windows","10.0","https://app.prolific.com/","en-US,en;q=0.9,de;q=0.8,zh-TW;q=0.7,zh-CN;q=0.6,zh;q=0.5","5d617ba9364f9a0019f1dac3","683dba2a8a9dda3513610c04","6880c2ccfa624451b8bf703a","3","0","5d617ba9364f9a0019f1dac3","3","0","2025-07-23T11:18:04.234Z","","","","","","","","","","","","","","win-only","3","g1:SW,g2:NE","0.7","13","0","511530.2","1173.7","6177.4","24251.2","1","4","8","6","1","1","1","2","1","0.015151515151515152","536.3","3000","990","[""down"",""left""]","{""num_key_presses"":4,""num_perfect"":4,""num_errors"":0,""num_randdir"":0,""num_randdir_good_moves"":0,""num_whilered"":0,""num_whileblue"":0,""num_blue"":2,""num_good_moves"":4}","[421.5714133126395,419.07142761775424,0.3,421.5714133126395,419.07142761775424,105.3,419.0714133126395,417.82142761775424,210.6,267.8214133126395,571.5714276177542,315.6,87.8214133126395,787.8214276177542,421.8,50.32141331263951,822.8214276177542,523.3,50.32141331263951,824.0714276177542,631.4,-8.428586687360493,824.0714276177542,736.7,-255.9285866873605,840.3214276177542,842.4,-353.4285866873605,861.5714276177542,944.7,-353.4285866873605,861.5714276177542,1052.1,-353.4285866873605,861.5714276177542,1154.6,-353.4285866873605,861.5714276177542,1255.7,-353.4285866873605,861.5714276177542,1363.9,-353.4285866873605,861.5714276177542,1470.2,-353.4285866873605,861.5714276177542,1575.3,-353.4285866873605,861.5714276177542,1683.6,-353.4285866873605,861.5714276177542,1791,-353.4285866873605,861.5714276177542,1892.6,-353.4285866873605,861.5714276177542,1993.6,-353.4285866873605,861.5714276177542,2102.3,-353.4285866873605,861.5714276177542,2203.2,-353.4285866873605,861.5714276177542,2303.7,-353.4285866873605,861.5714276177542,2407.6,-353.4285866873605,861.5714276177542,2513.2,-353.4285866873605,861.5714276177542,2614.4,-353.4285866873605,861.5714276177542,2714.9,-353.4285866873605,861.5714276177542,2817,-353.4285866873605,861.5714276177542,2917.2,-353.4285866873605,861.5714276177542,3018.5,-353.4285866873605,861.5714276177542,3125.4,-353.4285866873605,861.5714276177542,3227.8,-353.4285866873605,861.5714276177542,3329.1,-353.4285866873605,861.5714276177542,3433.7,-353.4285866873605,861.5714276177542,3538.8,-353.4285866873605,861.5714276177542,3639.3,-353.4285866873605,861.5714276177542,3741.9,-353.4285866873605,861.5714276177542,3847,-353.4285866873605,861.5714276177542,3947.1,-353.4285866873605,861.5714276177542,4047.1,-353.4285866873605,861.5714276177542,4155.5,-353.4285866873605,861.5714276177542,4257.4,-353.4285866873605,861.5714276177542,4366.8,-353.4285866873605,861.5714276177542,4468.3,-353.4285866873605,861.5714276177542,4572.9,-353.4285866873605,861.5714276177542,4673.2,-353.4285866873605,861.5714276177542,4779.6,-353.4285866873605,861.5714276177542,4882.3,-353.4285866873605,861.5714276177542,4982.9]","[1457.6,1457.6,1000,0,457.6,""smooth"",""down"",""down"",""good_move"",8575.5,7117.3,2181.9,5692.1,701.5,""smooth"",""down"",""down"",""good_move"",11945.6,3369.9,2769,8575.7,600.9,""smooth"",""left"",""left"",""good_move"",17976.2,6030,2064,15496.2,416.1,""smooth"",""left"",""left"",""good_move""]","",""
"2943","","<div style=""width:500px;"">
  <p>What determined the result of this run?</p>
  </div>","21","html-slider-response","70","539465","0.0-5.0-1.12","213","1","2025-07-23 11:09:06","1f75c3e559b7213887762d5229550c2b","76.221.209.152","Mozilla/5.0 (Windows NT 10.0; Win64; x64) AppleWebKit/537.36 (KHTML, like Gecko) Chrome/138.0.0.0 Safari/537.36","WebKit","Chrome","138.0.0.0","Windows","10.0","https://app.prolific.com/","en-US,en;q=0.9,de;q=0.8,zh-TW;q=0.7,zh-CN;q=0.6,zh;q=0.5","5d617ba9364f9a0019f1dac3","683dba2a8a9dda3513610c04","6880c2ccfa624451b8bf703a","3","0","5d617ba9364f9a0019f1dac3","3","0","2025-07-23T11:18:07.178Z","","","","","","","","","","","AttribQ","","50","","","","","","","","","","","","","","","","","","","","","","","","","","","","",""
"2575","","<div style=""width:500px;"">
  <p>How much control did you have over the ball?</p>
  </div>","71","html-slider-response","71","542042","0.0-5.0-2.12","213","1","2025-07-23 11:09:06","1f75c3e559b7213887762d5229550c2b","76.221.209.152","Mozilla/5.0 (Windows NT 10.0; Win64; x64) AppleWebKit/537.36 (KHTML, like Gecko) Chrome/138.0.0.0 Safari/537.36","WebKit","Chrome","138.0.0.0","Windows","10.0","https://app.prolific.com/","en-US,en;q=0.9,de;q=0.8,zh-TW;q=0.7,zh-CN;q=0.6,zh;q=0.5","5d617ba9364f9a0019f1dac3","683dba2a8a9dda3513610c04","6880c2ccfa624451b8bf703a","3","0","5d617ba9364f9a0019f1dac3","3","0","2025-07-23T11:18:09.755Z","","","","","","","","","","","ControlQ","","50","","","","","","","","","","","","","","","","","","","","","","","","","","","","",""
"1626","","<div style=""width:500px;"">
  <p>How would you describe your current emotional state?</p>
  </div>","28","html-slider-response","72","543670","0.0-5.0-3.12","213","1","2025-07-23 11:09:06","1f75c3e559b7213887762d5229550c2b","76.221.209.152","Mozilla/5.0 (Windows NT 10.0; Win64; x64) AppleWebKit/537.36 (KHTML, like Gecko) Chrome/138.0.0.0 Safari/537.36","WebKit","Chrome","138.0.0.0","Windows","10.0","https://app.prolific.com/","en-US,en;q=0.9,de;q=0.8,zh-TW;q=0.7,zh-CN;q=0.6,zh;q=0.5","5d617ba9364f9a0019f1dac3","683dba2a8a9dda3513610c04","6880c2ccfa624451b8bf703a","3","0","5d617ba9364f9a0019f1dac3","3","0","2025-07-23T11:18:11.383Z","","","","","","","","","","","StressQ","","50","","","","","","","","","","","","","","","","","","","","","","","","","","","","",""
"1293","","<div style=""width:500px;"">
  <p>What best describes how you currently feel?</p>
  </div>","19","html-slider-response","73","544964","0.0-5.0-4.12","213","1","2025-07-23 11:09:06","1f75c3e559b7213887762d5229550c2b","76.221.209.152","Mozilla/5.0 (Windows NT 10.0; Win64; x64) AppleWebKit/537.36 (KHTML, like Gecko) Chrome/138.0.0.0 Safari/537.36","WebKit","Chrome","138.0.0.0","Windows","10.0","https://app.prolific.com/","en-US,en;q=0.9,de;q=0.8,zh-TW;q=0.7,zh-CN;q=0.6,zh;q=0.5","5d617ba9364f9a0019f1dac3","683dba2a8a9dda3513610c04","6880c2ccfa624451b8bf703a","3","0","5d617ba9364f9a0019f1dac3","3","0","2025-07-23T11:18:12.677Z","","","","","","","","","","","MotivationQ","","50","","","","","","","","","","","","","","","","","","","","","","","","","","","","",""
"","","","","ctl-task-cpt","74","569963","0.0-5.0-0.13","213","1","2025-07-23 11:09:06","1f75c3e559b7213887762d5229550c2b","76.221.209.152","Mozilla/5.0 (Windows NT 10.0; Win64; x64) AppleWebKit/537.36 (KHTML, like Gecko) Chrome/138.0.0.0 Safari/537.36","WebKit","Chrome","138.0.0.0","Windows","10.0","https://app.prolific.com/","en-US,en;q=0.9,de;q=0.8,zh-TW;q=0.7,zh-CN;q=0.6,zh;q=0.5","5d617ba9364f9a0019f1dac3","683dba2a8a9dda3513610c04","6880c2ccfa624451b8bf703a","3","0","5d617ba9364f9a0019f1dac3","3","0","2025-07-23T11:18:37.676Z","","","","","","","","","","","","","","win-only","2","g1:SE,g2:NW","0.8","14","0","547243.7","811.6","5816.8","21975.2","1","4","4","6","1","1","1","3","2","0.022727272727272728","741.5","3000","725","[""down"",""right""]","{""num_key_presses"":4,""num_perfect"":4,""num_errors"":0,""num_randdir"":0,""num_randdir_good_moves"":0,""num_whilered"":0,""num_whileblue"":0,""num_blue"":1,""num_good_moves"":4}","[421.5714133126395,417.82142761775424,0.7,421.5714133126395,417.82142761775424,104.4,421.5714133126395,417.82142761775424,208.6,420.3214133126395,417.82142761775424,309.8,426.5714133126395,436.57142761775424,414.7,591.5714133126395,622.8214276177542,517.5,656.5714133126395,657.8214276177542,621.2,746.5714133126395,715.3214276177542,724.3,747.8214133126395,716.5714276177542,828.8,776.5714133126395,742.8214276177542,930.4,784.0714133126395,760.3214276177542,1034.2,745.3214133126395,876.5714276177542,1135.4,660.3214133126395,960.3214276177542,1257.4,659.0714133126395,960.3214276177542,1359.9,659.0714133126395,960.3214276177542,1460.8,659.0714133126395,960.3214276177542,1566.4,659.0714133126395,960.3214276177542,1671,659.0714133126395,960.3214276177542,1776.7,659.0714133126395,960.3214276177542,1882.5,659.0714133126395,960.3214276177542,1987.8,659.0714133126395,960.3214276177542,2090.3,659.0714133126395,960.3214276177542,2191.7,659.0714133126395,960.3214276177542,2297.3,659.0714133126395,960.3214276177542,2400.4,659.0714133126395,960.3214276177542,2505,659.0714133126395,960.3214276177542,2605.1,659.0714133126395,960.3214276177542,2711.3,659.0714133126395,960.3214276177542,2812.3,659.0714133126395,960.3214276177542,2916,659.0714133126395,960.3214276177542,3019.5,659.0714133126395,960.3214276177542,3124.7,659.0714133126395,960.3214276177542,3230.1,659.0714133126395,960.3214276177542,3332.6,659.0714133126395,960.3214276177542,3433.9,659.0714133126395,960.3214276177542,3534.8,659.0714133126395,960.3214276177542,3635.2,659.0714133126395,960.3214276177542,3735.5,659.0714133126395,960.3214276177542,3835.9,659.0714133126395,960.3214276177542,3940.6,659.0714133126395,960.3214276177542,4047.3,659.0714133126395,960.3214276177542,4147.4,659.0714133126395,960.3214276177542,4249.9,659.0714133126395,960.3214276177542,4353.9,659.0714133126395,960.3214276177542,4457.3,659.0714133126395,960.3214276177542,4558.5,659.0714133126395,960.3214276177542,4660.7,659.0714133126395,960.3214276177542,4764,659.0714133126395,960.3214276177542,4871.3,659.0714133126395,960.3214276177542,4974.7]","[5888.3,5888.3,3321.3,2009.5,557.5,""smooth"",""down"",""down"",""good_move"",9304.7,3415.8,2890.3,5888.9,525.5,""smooth"",""down"",""down"",""good_move"",12817.5,3512.5,2614.2,9305,898.3,""smooth"",""right"",""right"",""good_move"",16065.6,3247.3,2752,12818.4,495.2,""smooth"",""right"",""right"",""good_move""]","",""
"2097","","<div style=""width:500px;"">
  <p>What determined the result of this run?</p>
