"rt","response_timestamp","stimulus","response","trial_type","trial_index","time_elapsed","internal_node_id","run_id","condition","recorded_at","source_code_version","ip","user_agent","device","browser","browser_version","platform","platform_version","referer","accept_language","PROLIFIC_PID","STUDY_ID","SESSION_ID","WEEK","BATCH","prolific_id","week","batch","realtime","success","responses","item_order","radio_event_ids","radio_event_times","key_event_times","mouse_event_times","straightlining","zigzagging","honeypot","eventType","view_history","slider_start","which_type","canvas_config","goals_layout","control_level","trial_number","tutorial_trial_number","trial_start_time","phase1_start_time","phase2_start_time","phase3_start_time","goal_1_value","goal_1_distance","goal_2_value","goal_2_distance","goal_selected","outcome","outcome_total","participant_final_score","participant_initial_score","participant_final_score_prop","goal_choice_rt","allocated_time","allocated_time_remaining","goal_direction","counts","mouse_movements","key_presses","question_order","question_id"
"28163","1753252546113","<p style='font-size:40px;line-height:1.25'><strong>Welcome to the experiment!</strong></p><p style='font-size:1.1em;line-height:1.25'>Thank you for participanting in our experiment again! You will be asked to play the Dysfunctional Ball Game again. We will briefly recap the rules before we start.</p><p style='font-size:1.1em;line-height:1.25'>Press <strong>Next</strong> to continue.</p>","0","custom-html-button-response","0","28167","0.0-0.0","146","1","2025-07-23 06:31:38","1f75c3e559b7213887762d5229550c2b","41.145.194.131","Mozilla/5.0 (Windows NT 10.0; Win64; x64) AppleWebKit/537.36 (KHTML, like Gecko) Chrome/138.0.0.0 Safari/537.36","WebKit","Chrome","138.0.0.0","Windows","10.0","https://app.prolific.com/","en-ZA,en-GB;q=0.9,en-US;q=0.8,en;q=0.7","67f14975a8c12321ab2d0e61","683db9eb0562dbf637994deb","68808150e8b3f87ededef406","2","1","67f14975a8c12321ab2d0e61","2","1","2025-07-23T06:35:46.115Z","","","","","","","","","","","","","","","","","","","","","","","","","","","","","","","","","","","","","","","","","",""
"14809","","","","fullscreen","1","44006","0.0-1.0","146","1","2025-07-23 06:31:38","1f75c3e559b7213887762d5229550c2b","41.145.194.131","Mozilla/5.0 (Windows NT 10.0; Win64; x64) AppleWebKit/537.36 (KHTML, like Gecko) Chrome/138.0.0.0 Safari/537.36","WebKit","Chrome","138.0.0.0","Windows","10.0","https://app.prolific.com/","en-ZA,en-GB;q=0.9,en-US;q=0.8,en;q=0.7","67f14975a8c12321ab2d0e61","683db9eb0562dbf637994deb","68808150e8b3f87ededef406","2","1","67f14975a8c12321ab2d0e61","2","1","","true","","","","","","","","","","","","","","","","","","","","","","","","","","","","","","","","","","","","","","","","",""
"7688","1753252569661","<p style='font-size:1.1em;line-height:1.25'>In the following, we will ask you a few questions relating to your feelings in the last 24 hours.<br></p><p style='font-size:1.1em;line-height:1.25'>Press the <strong>Next</strong> button to continue.</p>","0","custom-html-button-response","2","51714","0.0-2.0-0.0","146","1","2025-07-23 06:31:38","1f75c3e559b7213887762d5229550c2b","41.145.194.131","Mozilla/5.0 (Windows NT 10.0; Win64; x64) AppleWebKit/537.36 (KHTML, like Gecko) Chrome/138.0.0.0 Safari/537.36","WebKit","Chrome","138.0.0.0","Windows","10.0","https://app.prolific.com/","en-ZA,en-GB;q=0.9,en-US;q=0.8,en;q=0.7","67f14975a8c12321ab2d0e61","683db9eb0562dbf637994deb","68808150e8b3f87ededef406","2","1","67f14975a8c12321ab2d0e61","2","1","2025-07-23T06:36:09.662Z","","","","","","","","","","","","","","","","","","","","","","","","","","","","","","","","","","","","","","","","","",""
"216385.89999997616","","","","survey-template","3","268147","0.0-2.0-1.0","146","1","2025-07-23 06:31:38","1f75c3e559b7213887762d5229550c2b","41.145.194.131","Mozilla/5.0 (Windows NT 10.0; Win64; x64) AppleWebKit/537.36 (KHTML, like Gecko) Chrome/138.0.0.0 Safari/537.36","WebKit","Chrome","138.0.0.0","Windows","10.0","https://app.prolific.com/","en-ZA,en-GB;q=0.9,en-US;q=0.8,en;q=0.7","67f14975a8c12321ab2d0e61","683db9eb0562dbf637994deb","68808150e8b3f87ededef406","2","1","67f14975a8c12321ab2d0e61","2","1","2025-07-23T06:39:46.096Z","","{""Q01"":""1"",""Q02"":""0"",""Q03"":""0"",""Q04"":""1"",""Q05"":""2"",""Q06"":""3"",""Q07"":""1"",""Q08"":""3"",""Q09"":""3"",""Q10"":""0"",""Q11"":""0"",""Q12"":""0"",""Q13"":""5"",""Q14"":""4"",""Q15"":""0"",""Q16"":""0"",""Q17"":""1"",""Q18"":""0"",""Q19"":""2"",""Q20"":""1"",""Q21"":""0"",""Q22"":""1""}","[0,1,2,3,4,5,6,7,8,9,10,11,12,13,14,15,16,17,18,19,20,21]","[""Q01"",""Q01"",""Q01"",""Q02"",""Q04"",""Q05"",""Q06"",""Q07"",""Q08"",""Q08"",""Q09"",""Q10"",""Q11"",""Q12"",""Q13"",""Q14"",""Q15"",""Q16"",""Q17"",""Q17"",""Q18"",""Q19"",""Q20"",""Q20"",""Q21"",""Q22"",""Q22"",""Q03""]","[5090.100000023842,8305.399999976158,13661.600000023842,17471.199999928474,24830.299999952316,28113.100000023842,38608.10000002384,43337.89999997616,47439.5,49685.39999997616,52795.5,57831.199999928474,62135,69813.39999997616,73356.5,91592.89999997616,97703.69999992847,101767.69999992847,103400,104807.60000002384,106468,115785.29999995232,122970,124449.39999997616,132954.5,141188.69999992847,187956.5,209369.19999992847]","[187956.5]","[0.19999992847442627,5090.100000023842,8305.399999976158,10393.399999976158,13661.600000023842,17471.199999928474,22695.299999952316,24830.299999952316,28113.100000023842,37371.699999928474,38608.10000002384,43337.89999997616,47439.5,48643.799999952316,49685.39999997616,52795.5,57831.199999928474,59953.5,62135,69813.39999997616,73356.5,91592.89999997616,95726.39999997616,97703.69999992847,98924.69999992847,100519.29999995232,101767.69999992847,103400,104807.60000002384,106468,115785.29999995232,122970,124449.39999997616,132954.5,141188.69999992847,201915.19999992847,209369.19999992847,216379.19999992847]","0.4090909090909091","0.5238095238095238","0","drsp","","","","","","","","","","","","","","","","","","","","","","","","","","","","","","",""
"15235.400000095367","","","","survey-template","4","283387","0.0-2.0-2.0","146","1","2025-07-23 06:31:38","1f75c3e559b7213887762d5229550c2b","41.145.194.131","Mozilla/5.0 (Windows NT 10.0; Win64; x64) AppleWebKit/537.36 (KHTML, like Gecko) Chrome/138.0.0.0 Safari/537.36","WebKit","Chrome","138.0.0.0","Windows","10.0","https://app.prolific.com/","en-ZA,en-GB;q=0.9,en-US;q=0.8,en;q=0.7","67f14975a8c12321ab2d0e61","683db9eb0562dbf637994deb","68808150e8b3f87ededef406","2","1","67f14975a8c12321ab2d0e61","2","1","2025-07-23T06:40:01.335Z","","{""Q01"":""1"",""Q02"":""1"",""Q03"":""1""}","[0,1,2]","[""Q01"",""Q02"",""Q03""]","[3923.9000000953674,7932.600000023842,14043.400000095367]","[]","[3923.9000000953674,7932.600000023842,12335,14043.400000095367,15234.5]","0.6666666666666666","0","0","stress","","","","","","","","","","","","","","","","","","","","","","","","","","","","","","",""
"50328","","","","instructions","5","333717","0.0-3.0-0.0","146","1","2025-07-23 06:31:38","1f75c3e559b7213887762d5229550c2b","41.145.194.131","Mozilla/5.0 (Windows NT 10.0; Win64; x64) AppleWebKit/537.36 (KHTML, like Gecko) Chrome/138.0.0.0 Safari/537.36","WebKit","Chrome","138.0.0.0","Windows","10.0","https://app.prolific.com/","en-ZA,en-GB;q=0.9,en-US;q=0.8,en;q=0.7","67f14975a8c12321ab2d0e61","683db9eb0562dbf637994deb","68808150e8b3f87ededef406","2","1","67f14975a8c12321ab2d0e61","2","1","","","","","","","","","","","","","[{""page_index"":0,""viewing_time"":50328}]","","","","","","","","","","","","","","","","","","","","","","","","","","","","","",""
"6641","","<p>Before you start with this game please answer the following three questions yourself. </p>
  <p>Through this game, we measure several aspects of your cognitive performance, such as reaction times, multi-tasking capabilities </p>
  <p>and the ability to assess the situation you are in.</p>
  <p></p>
  <p><b>How good do you usually are in such tasks?</b></p>","97","html-slider-response","6","340391","0.0-4.0-0.0","146","1","2025-07-23 06:31:38","1f75c3e559b7213887762d5229550c2b","41.145.194.131","Mozilla/5.0 (Windows NT 10.0; Win64; x64) AppleWebKit/537.36 (KHTML, like Gecko) Chrome/138.0.0.0 Safari/537.36","WebKit","Chrome","138.0.0.0","Windows","10.0","https://app.prolific.com/","en-ZA,en-GB;q=0.9,en-US;q=0.8,en;q=0.7","67f14975a8c12321ab2d0e61","683db9eb0562dbf637994deb","68808150e8b3f87ededef406","2","1","67f14975a8c12321ab2d0e61","2","1","2025-07-23T06:40:58.339Z","","","","","","","","","","","PreSkillQ","","50","","","","","","","","","","","","","","","","","","","","","","","","","","","","",""
"7517","","<div style=""width:500px;"">
  <p>How well do you think you will perform in this task compared to other participants?</p>
  </div>","86","html-slider-response","7","347910","0.0-4.0-1.0","146","1","2025-07-23 06:31:38","1f75c3e559b7213887762d5229550c2b","41.145.194.131","Mozilla/5.0 (Windows NT 10.0; Win64; x64) AppleWebKit/537.36 (KHTML, like Gecko) Chrome/138.0.0.0 Safari/537.36","WebKit","Chrome","138.0.0.0","Windows","10.0","https://app.prolific.com/","en-ZA,en-GB;q=0.9,en-US;q=0.8,en;q=0.7","67f14975a8c12321ab2d0e61","683db9eb0562dbf637994deb","68808150e8b3f87ededef406","2","1","67f14975a8c12321ab2d0e61","2","1","2025-07-23T06:41:05.858Z","","","","","","","","","","","PrePerfQ","","50","","","","","","","","","","","","","","","","","","","","","","","","","","","","",""
"7047","","<div style=""width:500px;"">
  <p>What best describes how you currently feel?</p>
  </div>","100","html-slider-response","8","354959","0.0-4.0-2.0","146","1","2025-07-23 06:31:38","1f75c3e559b7213887762d5229550c2b","41.145.194.131","Mozilla/5.0 (Windows NT 10.0; Win64; x64) AppleWebKit/537.36 (KHTML, like Gecko) Chrome/138.0.0.0 Safari/537.36","WebKit","Chrome","138.0.0.0","Windows","10.0","https://app.prolific.com/","en-ZA,en-GB;q=0.9,en-US;q=0.8,en;q=0.7","67f14975a8c12321ab2d0e61","683db9eb0562dbf637994deb","68808150e8b3f87ededef406","2","1","67f14975a8c12321ab2d0e61","2","1","2025-07-23T06:41:12.907Z","","","","","","","","","","","PreMotivationQ","","50","","","","","","","","","","","","","","","","","","","","","","","","","","","","",""
"","","","","ctl-task-cpt","9","390547","0.0-5.0-0.0","146","1","2025-07-23 06:31:38","1f75c3e559b7213887762d5229550c2b","41.145.194.131","Mozilla/5.0 (Windows NT 10.0; Win64; x64) AppleWebKit/537.36 (KHTML, like Gecko) Chrome/138.0.0.0 Safari/537.36","WebKit","Chrome","138.0.0.0","Windows","10.0","https://app.prolific.com/","en-ZA,en-GB;q=0.9,en-US;q=0.8,en;q=0.7","67f14975a8c12321ab2d0e61","683db9eb0562dbf637994deb","68808150e8b3f87ededef406","2","1","67f14975a8c12321ab2d0e61","2","1","2025-07-23T06:41:48.495Z","","","","","","","","","","","","","","win-only","1","g1:NE,g2:SW","1","1","0","360636.5","4176.5","9181.3","32556.4","1","4","8","6","2","8","8","8","0","0.06060606060606061","1199.6","3000","1395","[""down"",""left""]","{""num_key_presses"":6,""num_perfect"":6,""num_errors"":0,""num_randdir"":0,""num_randdir_good_moves"":0,""num_whilered"":0,""num_whileblue"":0,""num_blue"":2,""num_good_moves"":6}","[293.22232142857143,291.12857142857143,17.5,293.22232142857143,291.12857142857143,107.7,293.22232142857143,291.12857142857143,213.8,293.22232142857143,291.12857142857143,321.8,293.22232142857143,291.12857142857143,425.6,323.22232142857143,277.12857142857143,528.6,157.22232142857143,414.12857142857143,629.9,85.22232142857143,475.12857142857143,741.3,37.222321428571426,522.1285714285714,847.6,29.222321428571426,536.1285714285714,947.8,29.222321428571426,536.1285714285714,1050.7,29.222321428571426,536.1285714285714,1156.5,29.222321428571426,536.1285714285714,1266.8,29.222321428571426,536.1285714285714,1369.1,29.222321428571426,536.1285714285714,1472.1,29.222321428571426,536.1285714285714,1578.2,29.222321428571426,536.1285714285714,1686.7,29.222321428571426,536.1285714285714,1790.6,29.222321428571426,536.1285714285714,1893.6,29.222321428571426,536.1285714285714,1995.6,29.222321428571426,536.1285714285714,2102.8,29.222321428571426,536.1285714285714,2203,29.222321428571426,536.1285714285714,2305.5,29.222321428571426,536.1285714285714,2413.2,29.222321428571426,536.1285714285714,2520,29.222321428571426,536.1285714285714,2622.6,29.222321428571426,536.1285714285714,2730,29.222321428571426,536.1285714285714,2838.7,29.222321428571426,536.1285714285714,2938.7,29.222321428571426,536.1285714285714,3046.8,29.222321428571426,536.1285714285714,3153.9,29.222321428571426,536.1285714285714,3254.5,29.222321428571426,536.1285714285714,3355.5,29.222321428571426,536.1285714285714,3460.9,29.222321428571426,536.1285714285714,3570.2,29.222321428571426,536.1285714285714,3671.3,29.222321428571426,536.1285714285714,3778.7,29.222321428571426,536.1285714285714,3883.4,29.222321428571426,536.1285714285714,3987.1,29.222321428571426,536.1285714285714,4088.5,29.222321428571426,536.1285714285714,4188.7,29.222321428571426,536.1285714285714,4288.8,29.222321428571426,536.1285714285714,4394.9,29.222321428571426,536.1285714285714,4495.4,29.222321428571426,536.1285714285714,4603.4,29.222321428571426,536.1285714285714,4704.1,29.222321428571426,536.1285714285714,4806,29.222321428571426,536.1285714285714,4907]","[1351.5,1351.5,1000,0.1,351.5,""smooth"",""left"",""left"",""good_move"",3959.2,2607.1,2267,1352.1,340.1,""smooth"",""down"",""down"",""good_move"",14469,10509.2,2784.4,11329.9,354.8,""smooth"",""down"",""down"",""good_move"",17443.5,2974.2,2583.5,14469.5,390.6,""smooth"",""left"",""left"",""good_move"",19957.7,2513.8,2155.9,17443.9,357.9,""smooth"",""left"",""left"",""good_move"",23243.8,3285.8,2889.8,19958,396,""smooth"",""down"",""down"",""good_move""]","",""
"5126","","<div style=""width:500px;"">
  <p>What determined the result of this run?</p>
  </div>","100","html-slider-response","10","395675","0.0-5.0-1.0","146","1","2025-07-23 06:31:38","1f75c3e559b7213887762d5229550c2b","41.145.194.131","Mozilla/5.0 (Windows NT 10.0; Win64; x64) AppleWebKit/537.36 (KHTML, like Gecko) Chrome/138.0.0.0 Safari/537.36","WebKit","Chrome","138.0.0.0","Windows","10.0","https://app.prolific.com/","en-ZA,en-GB;q=0.9,en-US;q=0.8,en;q=0.7","67f14975a8c12321ab2d0e61","683db9eb0562dbf637994deb","68808150e8b3f87ededef406","2","1","67f14975a8c12321ab2d0e61","2","1","2025-07-23T06:41:53.623Z","","","","","","","","","","","AttribQ","","50","","","","","","","","","","","","","","","","","","","","","","","","","","","","",""
"2994","","<div style=""width:500px;"">
  <p>How much control did you have over the ball?</p>
  </div>","100","html-slider-response","11","398671","0.0-5.0-2.0","146","1","2025-07-23 06:31:38","1f75c3e559b7213887762d5229550c2b","41.145.194.131","Mozilla/5.0 (Windows NT 10.0; Win64; x64) AppleWebKit/537.36 (KHTML, like Gecko) Chrome/138.0.0.0 Safari/537.36","WebKit","Chrome","138.0.0.0","Windows","10.0","https://app.prolific.com/","en-ZA,en-GB;q=0.9,en-US;q=0.8,en;q=0.7","67f14975a8c12321ab2d0e61","683db9eb0562dbf637994deb","68808150e8b3f87ededef406","2","1","67f14975a8c12321ab2d0e61","2","1","2025-07-23T06:41:56.619Z","","","","","","","","","","","ControlQ","","50","","","","","","","","","","","","","","","","","","","","","","","","","","","","",""
"4859","","<div style=""width:500px;"">
  <p>How would you describe your current emotional state?</p>
  </div>","0","html-slider-response","12","403531","0.0-5.0-3.0","146","1","2025-07-23 06:31:38","1f75c3e559b7213887762d5229550c2b","41.145.194.131","Mozilla/5.0 (Windows NT 10.0; Win64; x64) AppleWebKit/537.36 (KHTML, like Gecko) Chrome/138.0.0.0 Safari/537.36","WebKit","Chrome","138.0.0.0","Windows","10.0","https://app.prolific.com/","en-ZA,en-GB;q=0.9,en-US;q=0.8,en;q=0.7","67f14975a8c12321ab2d0e61","683db9eb0562dbf637994deb","68808150e8b3f87ededef406","2","1","67f14975a8c12321ab2d0e61","2","1","2025-07-23T06:42:01.480Z","","","","","","","","","","","StressQ","","50","","","","","","","","","","","","","","","","","","","","","","","","","","","","",""
"3724","","<div style=""width:500px;"">
  <p>What best describes how you currently feel?</p>
  </div>","99","html-slider-response","13","407257","0.0-5.0-4.0","146","1","2025-07-23 06:31:38","1f75c3e559b7213887762d5229550c2b","41.145.194.131","Mozilla/5.0 (Windows NT 10.0; Win64; x64) AppleWebKit/537.36 (KHTML, like Gecko) Chrome/138.0.0.0 Safari/537.36","WebKit","Chrome","138.0.0.0","Windows","10.0","https://app.prolific.com/","en-ZA,en-GB;q=0.9,en-US;q=0.8,en;q=0.7","67f14975a8c12321ab2d0e61","683db9eb0562dbf637994deb","68808150e8b3f87ededef406","2","1","67f14975a8c12321ab2d0e61","2","1","2025-07-23T06:42:05.205Z","","","","","","","","","","","MotivationQ","","50","","","","","","","","","","","","","","","","","","","","","","","","","","","","",""
"","","","","ctl-task-cpt","14","449365","0.0-5.0-0.1","146","1","2025-07-23 06:31:38","1f75c3e559b7213887762d5229550c2b","41.145.194.131","Mozilla/5.0 (Windows NT 10.0; Win64; x64) AppleWebKit/537.36 (KHTML, like Gecko) Chrome/138.0.0.0 Safari/537.36","WebKit","Chrome","138.0.0.0","Windows","10.0","https://app.prolific.com/","en-ZA,en-GB;q=0.9,en-US;q=0.8,en;q=0.7","67f14975a8c12321ab2d0e61","683db9eb0562dbf637994deb","68808150e8b3f87ededef406","2","1","67f14975a8c12321ab2d0e61","2","1","2025-07-23T06:42:47.313Z","","","","","","","","","","","","","","win-only","0","g1:NW,g2:SE","0.9","2","0","412912.8","1887","6895.3","39101.8","1","4","4","6","2","4","4","12","8","0.09090909090909091","1284.5","3000","1220","[""down"",""right""]","{""num_key_presses"":6,""num_perfect"":6,""num_errors"":0,""num_randdir"":0,""num_randdir_good_moves"":0,""num_whilered"":0,""num_whileblue"":0,""num_blue"":4,""num_good_moves"":6}","[298.22232142857143,288.12857142857143,0.3,298.22232142857143,288.12857142857143,100.5,298.22232142857143,288.12857142857143,203.1,298.22232142857143,288.12857142857143,305.2,298.22232142857143,288.12857142857143,416.4,261.22232142857143,260.12857142857143,520.7,302.22232142857143,305.12857142857143,629.4,472.22232142857143,473.12857142857143,730.9,508.22232142857143,497.12857142857143,837.3,521.2223214285714,514.1285714285714,941,522.2223214285714,522.1285714285714,1043.3,522.2223214285714,525.1285714285714,1147.4,522.2223214285714,525.1285714285714,1250.6,522.2223214285714,525.1285714285714,1357.6,522.2223214285714,525.1285714285714,1457.6,522.2223214285714,525.1285714285714,1566.3,522.2223214285714,525.1285714285714,1670.1,522.2223214285714,525.1285714285714,1774.4,522.2223214285714,525.1285714285714,1875.1,522.2223214285714,525.1285714285714,1983,522.2223214285714,525.1285714285714,2083.4,522.2223214285714,525.1285714285714,2184.7,522.2223214285714,525.1285714285714,2289.7,522.2223214285714,525.1285714285714,2391.3,522.2223214285714,525.1285714285714,2493.9,522.2223214285714,525.1285714285714,2599.5,522.2223214285714,525.1285714285714,2704.3,522.2223214285714,525.1285714285714,2805.6,522.2223214285714,525.1285714285714,2917.3,522.2223214285714,525.1285714285714,3022.3,522.2223214285714,525.1285714285714,3123.9,522.2223214285714,525.1285714285714,3228.3,522.2223214285714,525.1285714285714,3329.9,522.2223214285714,525.1285714285714,3436.3,522.2223214285714,525.1285714285714,3538.9,522.2223214285714,525.1285714285714,3639.5,522.2223214285714,525.1285714285714,3748,522.2223214285714,525.1285714285714,3850.3,522.2223214285714,525.1285714285714,3953.7,522.2223214285714,525.1285714285714,4055.1,522.2223214285714,525.1285714285714,4163.1,522.2223214285714,525.1285714285714,4264.3,522.2223214285714,525.1285714285714,4365.9,522.2223214285714,525.1285714285714,4467.1,522.2223214285714,525.1285714285714,4574.1,522.2223214285714,525.1285714285714,4682.8,522.2223214285714,525.1285714285714,4783.4,522.2223214285714,525.1285714285714,4883.6,522.2223214285714,525.1285714285714,4983.8]","[1346.8,1346.8,1000,0.1,346.7,""smooth"",""right"",""right"",""good_move"",5242.7,3895.5,3545.6,1347.2,349.9,""smooth"",""right"",""right"",""good_move"",8694.4,3451.5,3042.1,5243,409.3,""smooth"",""down"",""down"",""good_move"",19038.7,10344.1,1982.3,16556.6,499.8,""smooth"",""right"",""right"",""good_move"",25635.5,6596.3,2710.1,22523.9,401.5,""smooth"",""down"",""down"",""good_move"",32071.8,6436.1,2105.2,29461.7,505,""smooth"",""down"",""down"",""good_move""]","",""
"2904","","<div style=""width:500px;"">
  <p>What determined the result of this run?</p>
  </div>","100","html-slider-response","15","452271","0.0-5.0-1.1","146","1","2025-07-23 06:31:38","1f75c3e559b7213887762d5229550c2b","41.145.194.131","Mozilla/5.0 (Windows NT 10.0; Win64; x64) AppleWebKit/537.36 (KHTML, like Gecko) Chrome/138.0.0.0 Safari/537.36","WebKit","Chrome","138.0.0.0","Windows","10.0","https://app.prolific.com/","en-ZA,en-GB;q=0.9,en-US;q=0.8,en;q=0.7","67f14975a8c12321ab2d0e61","683db9eb0562dbf637994deb","68808150e8b3f87ededef406","2","1","67f14975a8c12321ab2d0e61","2","1","2025-07-23T06:42:50.219Z","","","","","","","","","","","AttribQ","","50","","","","","","","","","","","","","","","","","","","","","","","","","","","","",""
"3344","","<div style=""width:500px;"">
  <p>How much control did you have over the ball?</p>
  </div>","100","html-slider-response","16","455616","0.0-5.0-2.1","146","1","2025-07-23 06:31:38","1f75c3e559b7213887762d5229550c2b","41.145.194.131","Mozilla/5.0 (Windows NT 10.0; Win64; x64) AppleWebKit/537.36 (KHTML, like Gecko) Chrome/138.0.0.0 Safari/537.36","WebKit","Chrome","138.0.0.0","Windows","10.0","https://app.prolific.com/","en-ZA,en-GB;q=0.9,en-US;q=0.8,en;q=0.7","67f14975a8c12321ab2d0e61","683db9eb0562dbf637994deb","68808150e8b3f87ededef406","2","1","67f14975a8c12321ab2d0e61","2","1","2025-07-23T06:42:53.564Z","","","","","","","","","","","ControlQ","","50","","","","","","","","","","","","","","","","","","","","","","","","","","","","",""
"3317","","<div style=""width:500px;"">
  <p>How would you describe your current emotional state?</p>
  </div>","0","html-slider-response","17","458935","0.0-5.0-3.1","146","1","2025-07-23 06:31:38","1f75c3e559b7213887762d5229550c2b","41.145.194.131","Mozilla/5.0 (Windows NT 10.0; Win64; x64) AppleWebKit/537.36 (KHTML, like Gecko) Chrome/138.0.0.0 Safari/537.36","WebKit","Chrome","138.0.0.0","Windows","10.0","https://app.prolific.com/","en-ZA,en-GB;q=0.9,en-US;q=0.8,en;q=0.7","67f14975a8c12321ab2d0e61","683db9eb0562dbf637994deb","68808150e8b3f87ededef406","2","1","67f14975a8c12321ab2d0e61","2","1","2025-07-23T06:42:56.883Z","","","","","","","","","","","StressQ","","50","","","","","","","","","","","","","","","","","","","","","","","","","","","","",""
"4979","","<div style=""width:500px;"">
  <p>What best describes how you currently feel?</p>
  </div>","97","html-slider-response","18","463916","0.0-5.0-4.1","146","1","2025-07-23 06:31:38","1f75c3e559b7213887762d5229550c2b","41.145.194.131","Mozilla/5.0 (Windows NT 10.0; Win64; x64) AppleWebKit/537.36 (KHTML, like Gecko) Chrome/138.0.0.0 Safari/537.36","WebKit","Chrome","138.0.0.0","Windows","10.0","https://app.prolific.com/","en-ZA,en-GB;q=0.9,en-US;q=0.8,en;q=0.7","67f14975a8c12321ab2d0e61","683db9eb0562dbf637994deb","68808150e8b3f87ededef406","2","1","67f14975a8c12321ab2d0e61","2","1","2025-07-23T06:43:01.864Z","","","","","","","","","","","MotivationQ","","50","","","","","","","","","","","","","","","","","","","","","","","","","","","","",""
"","","","","ctl-task-cpt","19","524036","0.0-5.0-0.2","146","1","2025-07-23 06:31:38","1f75c3e559b7213887762d5229550c2b","41.145.194.131","Mozilla/5.0 (Windows NT 10.0; Win64; x64) AppleWebKit/537.36 (KHTML, like Gecko) Chrome/138.0.0.0 Safari/537.36","WebKit","Chrome","138.0.0.0","Windows","10.0","https://app.prolific.com/","en-ZA,en-GB;q=0.9,en-US;q=0.8,en;q=0.7","67f14975a8c12321ab2d0e61","683db9eb0562dbf637994deb","68808150e8b3f87ededef406","2","1","67f14975a8c12321ab2d0e61","2","1","2025-07-23T06:44:01.984Z","","","","","","","","","","","","","","win-only","0","g1:NW,g2:SE","0.8","3","0","469572.7","1943.3","6953.3","57099.6","1","4","8","6","2","-8","-9","3","12","0.022727272727272728","1115.1","3000","-2365","[""down"",""right""]","{""num_key_presses"":13,""num_perfect"":9,""num_errors"":1,""num_randdir"":3,""num_randdir_good_moves"":0,""num_whilered"":0,""num_whileblue"":1,""num_blue"":5,""num_good_moves"":9}","[296.22232142857143,298.12857142857143,0.1,296.22232142857143,298.12857142857143,108,296.22232142857143,298.12857142857143,208.4,296.22232142857143,298.12857142857143,313.8,296.22232142857143,298.12857142857143,414.2,296.22232142857143,298.12857142857143,520.5,422.22232142857143,483.12857142857143,629.5,512.2223214285714,549.1285714285714,733.3,532.2223214285714,555.1285714285714,838.7,540.2223214285714,555.1285714285714,942.7,540.2223214285714,555.1285714285714,1043.2,540.2223214285714,555.1285714285714,1148.1,540.2223214285714,555.1285714285714,1249.2,540.2223214285714,555.1285714285714,1349.3,540.2223214285714,555.1285714285714,1455,540.2223214285714,555.1285714285714,1564,540.2223214285714,555.1285714285714,1671.5,540.2223214285714,555.1285714285714,1779.7,540.2223214285714,555.1285714285714,1885.9,540.2223214285714,555.1285714285714,1994.5,540.2223214285714,555.1285714285714,2097.6,540.2223214285714,555.1285714285714,2209.4,540.2223214285714,555.1285714285714,2315,540.2223214285714,555.1285714285714,2424.9,540.2223214285714,555.1285714285714,2526.5,540.2223214285714,555.1285714285714,2628.2,540.2223214285714,555.1285714285714,2729.1,540.2223214285714,555.1285714285714,2835.8,540.2223214285714,555.1285714285714,2944.6,540.2223214285714,555.1285714285714,3047.5,540.2223214285714,555.1285714285714,3159.3,540.2223214285714,555.1285714285714,3263.6,540.2223214285714,555.1285714285714,3364.3,540.2223214285714,555.1285714285714,3469.5,540.2223214285714,555.1285714285714,3570.6,540.2223214285714,555.1285714285714,3671.7,540.2223214285714,555.1285714285714,3777.6,540.2223214285714,555.1285714285714,3877.9,540.2223214285714,555.1285714285714,3983.5,540.2223214285714,555.1285714285714,4087.4,540.2223214285714,555.1285714285714,4193.8,540.2223214285714,555.1285714285714,4297.9,540.2223214285714,555.1285714285714,4399.2,540.2223214285714,555.1285714285714,4509.2,540.2223214285714,555.1285714285714,4611.7,540.2223214285714,555.1285714285714,4716.9,540.2223214285714,555.1285714285714,4817.8,540.2223214285714,555.1285714285714,4927.8]","[4373.7,4373.7,1967,2006.4,400.3,""smooth"",""right"",""right"",""good_move"",10788,6413.6,2673.7,7719.6,394.7,""oops"",""right"",""left"",""bad_move"",14039.6,3251.2,2933.1,10788.4,318.1,""smooth"",""right"",""right"",""good_move"",16026.8,1986.9,1566.9,14039.9,420,""smooth"",""right"",""right"",""good_move"",22586.2,6559.1,3402.7,18880.1,303.4,""oops"",""right"",""up"",""bad_move"",25590.9,3004.4,2617.2,22586.5,387.2,""smooth"",""down"",""down"",""good_move"",27959.3,2367.7,2060.8,25591.6,306.9,""while_blue"",""down"",""up"",""bad_move"",31153.2,3176.9,2885,27976.4,291.8,""smooth"",""down"",""down"",""good_move"",34147,2993.3,2655.3,31153.7,338,""smooth"",""down"",""down"",""good_move"",36390.3,2242.8,1952.9,34147.5,289.9,""smooth"",""down"",""down"",""good_move"",39339.5,2949,2675.9,36390.5,273.1,""smooth"",""down"",""down"",""good_move"",42436.1,3096.3,2795.8,39339.8,300.5,""oops"",""right"",""up"",""bad_move"",48275.3,5838.8,2465.1,45528.9,281.3,""smooth"",""down"",""down"",""good_move""]","",""
"4834","","<div style=""width:500px;"">
  <p>What determined the result of this run?</p>
  </div>","89","html-slider-response","20","528872","0.0-5.0-1.2","146","1","2025-07-23 06:31:38","1f75c3e559b7213887762d5229550c2b","41.145.194.131","Mozilla/5.0 (Windows NT 10.0; Win64; x64) AppleWebKit/537.36 (KHTML, like Gecko) Chrome/138.0.0.0 Safari/537.36","WebKit","Chrome","138.0.0.0","Windows","10.0","https://app.prolific.com/","en-ZA,en-GB;q=0.9,en-US;q=0.8,en;q=0.7","67f14975a8c12321ab2d0e61","683db9eb0562dbf637994deb","68808150e8b3f87ededef406","2","1","67f14975a8c12321ab2d0e61","2","1","2025-07-23T06:44:06.820Z","","","","","","","","","","","AttribQ","","50","","","","","","","","","","","","","","","","","","","","","","","","","","","","",""
"4934","","<div style=""width:500px;"">
  <p>How much control did you have over the ball?</p>
  </div>","84","html-slider-response","21","533808","0.0-5.0-2.2","146","1","2025-07-23 06:31:38","1f75c3e559b7213887762d5229550c2b","41.145.194.131","Mozilla/5.0 (Windows NT 10.0; Win64; x64) AppleWebKit/537.36 (KHTML, like Gecko) Chrome/138.0.0.0 Safari/537.36","WebKit","Chrome","138.0.0.0","Windows","10.0","https://app.prolific.com/","en-ZA,en-GB;q=0.9,en-US;q=0.8,en;q=0.7","67f14975a8c12321ab2d0e61","683db9eb0562dbf637994deb","68808150e8b3f87ededef406","2","1","67f14975a8c12321ab2d0e61","2","1","2025-07-23T06:44:11.756Z","","","","","","","","","","","ControlQ","","50","","","","","","","","","","","","","","","","","","","","","","","","","","","","",""
"6149","","<div style=""width:500px;"">
  <p>How would you describe your current emotional state?</p>
  </div>","67","html-slider-response","22","539958","0.0-5.0-3.2","146","1","2025-07-23 06:31:38","1f75c3e559b7213887762d5229550c2b","41.145.194.131","Mozilla/5.0 (Windows NT 10.0; Win64; x64) AppleWebKit/537.36 (KHTML, like Gecko) Chrome/138.0.0.0 Safari/537.36","WebKit","Chrome","138.0.0.0","Windows","10.0","https://app.prolific.com/","en-ZA,en-GB;q=0.9,en-US;q=0.8,en;q=0.7","67f14975a8c12321ab2d0e61","683db9eb0562dbf637994deb","68808150e8b3f87ededef406","2","1","67f14975a8c12321ab2d0e61","2","1","2025-07-23T06:44:17.907Z","","","","","","","","","","","StressQ","","50","","","","","","","","","","","","","","","","","","","","","","","","","","","","",""
"3479","","<div style=""width:500px;"">
  <p>What best describes how you currently feel?</p>
  </div>","87","html-slider-response","23","543439","0.0-5.0-4.2","146","1","2025-07-23 06:31:38","1f75c3e559b7213887762d5229550c2b","41.145.194.131","Mozilla/5.0 (Windows NT 10.0; Win64; x64) AppleWebKit/537.36 (KHTML, like Gecko) Chrome/138.0.0.0 Safari/537.36","WebKit","Chrome","138.0.0.0","Windows","10.0","https://app.prolific.com/","en-ZA,en-GB;q=0.9,en-US;q=0.8,en;q=0.7","67f14975a8c12321ab2d0e61","683db9eb0562dbf637994deb","68808150e8b3f87ededef406","2","1","67f14975a8c12321ab2d0e61","2","1","2025-07-23T06:44:21.387Z","","","","","","","","","","","MotivationQ","","50","","","","","","","","","","","","","","","","","","","","","","","","","","","","",""
"","","","","ctl-task-cpt","24","588638","0.0-5.0-0.3","146","1","2025-07-23 06:31:38","1f75c3e559b7213887762d5229550c2b","41.145.194.131","Mozilla/5.0 (Windows NT 10.0; Win64; x64) AppleWebKit/537.36 (KHTML, like Gecko) Chrome/138.0.0.0 Safari/537.36","WebKit","Chrome","138.0.0.0","Windows","10.0","https://app.prolific.com/","en-ZA,en-GB;q=0.9,en-US;q=0.8,en;q=0.7","67f14975a8c12321ab2d0e61","683db9eb0562dbf637994deb","68808150e8b3f87ededef406","2","1","67f14975a8c12321ab2d0e61","2","1","2025-07-23T06:45:06.586Z","","","","","","","","","","","","","","win-only","0","g1:NW,g2:SE","0.7","4","0","549095.5","6549.3","11554.8","42177.5","1","4","4","6","2","4","4","7","3","0.05303030303030303","1230.7","3000","580","[""down"",""right""]","{""num_key_presses"":10,""num_perfect"":7,""num_errors"":0,""num_randdir"":3,""num_randdir_good_moves"":1,""num_whilered"":0,""num_whileblue"":0,""num_blue"":1,""num_good_moves"":8}","[297.22232142857143,300.12857142857143,0.6,297.22232142857143,300.12857142857143,102.9,297.22232142857143,300.12857142857143,209.5,297.22232142857143,300.12857142857143,312.2,297.22232142857143,300.12857142857143,415,314.22232142857143,309.12857142857143,516,544.2223214285714,476.12857142857143,618.9,545.2223214285714,477.12857142857143,724.7,545.2223214285714,477.12857142857143,825.9,545.2223214285714,485.12857142857143,930.6,544.2223214285714,527.1285714285714,1034.6,545.2223214285714,528.1285714285714,1139,545.2223214285714,528.1285714285714,1247.1,545.2223214285714,528.1285714285714,1352.4,545.2223214285714,528.1285714285714,1454.6,545.2223214285714,528.1285714285714,1560.3,545.2223214285714,528.1285714285714,1662.3,545.2223214285714,528.1285714285714,1767.7,545.2223214285714,528.1285714285714,1869.4,545.2223214285714,528.1285714285714,1973.7,545.2223214285714,528.1285714285714,2079,545.2223214285714,528.1285714285714,2181.6,545.2223214285714,528.1285714285714,2288.1,545.2223214285714,528.1285714285714,2394.9,545.2223214285714,528.1285714285714,2496.7,545.2223214285714,528.1285714285714,2596.7,545.2223214285714,528.1285714285714,2697.1,545.2223214285714,528.1285714285714,2800.8,545.2223214285714,528.1285714285714,2902.4,545.2223214285714,528.1285714285714,3003.7,545.2223214285714,528.1285714285714,3105.5,545.2223214285714,528.1285714285714,3206.9,545.2223214285714,528.1285714285714,3312.2,545.2223214285714,528.1285714285714,3413.7,545.2223214285714,528.1285714285714,3516.3,545.2223214285714,528.1285714285714,3621.1,545.2223214285714,528.1285714285714,3726.8,545.2223214285714,528.1285714285714,3828.8,545.2223214285714,528.1285714285714,3931.1,545.2223214285714,528.1285714285714,4031.8,545.2223214285714,528.1285714285714,4143.7,545.2223214285714,528.1285714285714,4244.7,545.2223214285714,528.1285714285714,4347,545.2223214285714,528.1285714285714,4453.5,545.2223214285714,528.1285714285714,4555,545.2223214285714,528.1285714285714,4655.5,545.2223214285714,528.1285714285714,4763.5,545.2223214285714,528.1285714285714,4864.7,545.2223214285714,528.1285714285714,4972.1]","[4110.7,4110.7,1731.3,2007.1,372.3,""smooth"",""right"",""right"",""good_move"",6804.7,2693.2,2361.8,4111.5,331.4,""smooth"",""right"",""right"",""good_move"",9313.9,2508.7,2195.6,6805.2,313.1,""oops"",""down"",""left"",""bad_move"",12214.5,2900.2,2614.7,9314.4,285.4,""oops"",""right"",""up"",""bad_move"",15412.1,3196.9,2869.3,12215.2,327.6,""smooth"",""down"",""down"",""good_move"",18898,3485.5,3171.4,15412.5,314.1,""smooth"",""down"",""down"",""good_move"",21659,2760.7,2370.6,18898.3,390.1,""smooth"",""right"",""right"",""good_move"",24050.2,2391,2029.1,21659.2,361.9,""oops"",""down"",""right"",""good_move"",27177.2,3126.8,2847.2,24050.5,279.5,""smooth"",""down"",""down"",""good_move"",30509.8,3332.3,3001.4,27177.5,330.9,""smooth"",""down"",""down"",""good_move""]","",""
"6837","","<div style=""width:500px;"">
  <p>What determined the result of this run?</p>
  </div>","96","html-slider-response","25","595477","0.0-5.0-1.3","146","1","2025-07-23 06:31:38","1f75c3e559b7213887762d5229550c2b","41.145.194.131","Mozilla/5.0 (Windows NT 10.0; Win64; x64) AppleWebKit/537.36 (KHTML, like Gecko) Chrome/138.0.0.0 Safari/537.36","WebKit","Chrome","138.0.0.0","Windows","10.0","https://app.prolific.com/","en-ZA,en-GB;q=0.9,en-US;q=0.8,en;q=0.7","67f14975a8c12321ab2d0e61","683db9eb0562dbf637994deb","68808150e8b3f87ededef406","2","1","67f14975a8c12321ab2d0e61","2","1","2025-07-23T06:45:13.425Z","","","","","","","","","","","AttribQ","","50","","","","","","","","","","","","","","","","","","","","","","","","","","","","",""
"3505","","<div style=""width:500px;"">
  <p>How much control did you have over the ball?</p>
  </div>","87","html-slider-response","26","598983","0.0-5.0-2.3","146","1","2025-07-23 06:31:38","1f75c3e559b7213887762d5229550c2b","41.145.194.131","Mozilla/5.0 (Windows NT 10.0; Win64; x64) AppleWebKit/537.36 (KHTML, like Gecko) Chrome/138.0.0.0 Safari/537.36","WebKit","Chrome","138.0.0.0","Windows","10.0","https://app.prolific.com/","en-ZA,en-GB;q=0.9,en-US;q=0.8,en;q=0.7","67f14975a8c12321ab2d0e61","683db9eb0562dbf637994deb","68808150e8b3f87ededef406","2","1","67f14975a8c12321ab2d0e61","2","1","2025-07-23T06:45:16.931Z","","","","","","","","","","","ControlQ","","50","","","","","","","","","","","","","","","","","","","","","","","","","","","","",""
"5540","","<div style=""width:500px;"">
  <p>How would you describe your current emotional state?</p>
  </div>","33","html-slider-response","27","604524","0.0-5.0-3.3","146","1","2025-07-23 06:31:38","1f75c3e559b7213887762d5229550c2b","41.145.194.131","Mozilla/5.0 (Windows NT 10.0; Win64; x64) AppleWebKit/537.36 (KHTML, like Gecko) Chrome/138.0.0.0 Safari/537.36","WebKit","Chrome","138.0.0.0","Windows","10.0","https://app.prolific.com/","en-ZA,en-GB;q=0.9,en-US;q=0.8,en;q=0.7","67f14975a8c12321ab2d0e61","683db9eb0562dbf637994deb","68808150e8b3f87ededef406","2","1","67f14975a8c12321ab2d0e61","2","1","2025-07-23T06:45:22.473Z","","","","","","","","","","","StressQ","","50","","","","","","","","","","","","","","","","","","","","","","","","","","","","",""
"4699","","<div style=""width:500px;"">
  <p>What best describes how you currently feel?</p>
  </div>","86","html-slider-response","28","609225","0.0-5.0-4.3","146","1","2025-07-23 06:31:38","1f75c3e559b7213887762d5229550c2b","41.145.194.131","Mozilla/5.0 (Windows NT 10.0; Win64; x64) AppleWebKit/537.36 (KHTML, like Gecko) Chrome/138.0.0.0 Safari/537.36","WebKit","Chrome","138.0.0.0","Windows","10.0","https://app.prolific.com/","en-ZA,en-GB;q=0.9,en-US;q=0.8,en;q=0.7","67f14975a8c12321ab2d0e61","683db9eb0562dbf637994deb","68808150e8b3f87ededef406","2","1","67f14975a8c12321ab2d0e61","2","1","2025-07-23T06:45:27.173Z","","","","","","","","","","","MotivationQ","","50","","","","","","","","","","","","","","","","","","","","","","","","","","","","",""
"","","","","ctl-task-cpt","29","634494","0.0-5.0-0.4","146","1","2025-07-23 06:31:38","1f75c3e559b7213887762d5229550c2b","41.145.194.131","Mozilla/5.0 (Windows NT 10.0; Win64; x64) AppleWebKit/537.36 (KHTML, like Gecko) Chrome/138.0.0.0 Safari/537.36","WebKit","Chrome","138.0.0.0","Windows","10.0","https://app.prolific.com/","en-ZA,en-GB;q=0.9,en-US;q=0.8,en;q=0.7","67f14975a8c12321ab2d0e61","683db9eb0562dbf637994deb","68808150e8b3f87ededef406","2","1","67f14975a8c12321ab2d0e61","2","1","2025-07-23T06:45:52.442Z","","","","","","","","","","","","","","win-only","3","g1:SW,g2:NE","0.6","5","0","614882.2","2798.5","7805.1","22256.6","1","4","4","6","2","4","4","11","7","0.08333333333333333","1372.3","3000","1450","[""up"",""right""]","{""num_key_presses"":6,""num_perfect"":5,""num_errors"":0,""num_randdir"":1,""num_randdir_good_moves"":1,""num_whilered"":0,""num_whileblue"":0,""num_blue"":0,""num_good_moves"":6}","[300.22232142857143,293.12857142857143,0.3,300.22232142857143,293.12857142857143,108.1,300.22232142857143,293.12857142857143,212.5,300.22232142857143,293.12857142857143,322.4,300.22232142857143,293.12857142857143,425.6,282.22232142857143,300.12857142857143,528.6,307.22232142857143,292.12857142857143,630.5,422.22232142857143,125.12857142857143,735.8,482.22232142857143,69.12857142857143,841.6,488.22232142857143,65.12857142857143,942.5,510.22232142857143,75.12857142857143,1047.4,536.2223214285714,79.12857142857143,1150.2,545.2223214285714,77.12857142857143,1257.8,545.2223214285714,77.12857142857143,1357.8,545.2223214285714,77.12857142857143,1463.1,545.2223214285714,77.12857142857143,1569.7,545.2223214285714,77.12857142857143,1669.9,545.2223214285714,77.12857142857143,1775.3,545.2223214285714,77.12857142857143,1876,545.2223214285714,77.12857142857143,1976.6,545.2223214285714,77.12857142857143,2080.6,545.2223214285714,77.12857142857143,2182.1,545.2223214285714,77.12857142857143,2283.6,545.2223214285714,77.12857142857143,2385.5,545.2223214285714,77.12857142857143,2488.2,545.2223214285714,77.12857142857143,2590.3,545.2223214285714,77.12857142857143,2692.2,545.2223214285714,77.12857142857143,2796.1,545.2223214285714,77.12857142857143,2899.3,545.2223214285714,77.12857142857143,2999.3,545.2223214285714,77.12857142857143,3105.6,545.2223214285714,77.12857142857143,3207.5,545.2223214285714,77.12857142857143,3307.7,545.2223214285714,77.12857142857143,3412.4,545.2223214285714,77.12857142857143,3516.5,545.2223214285714,77.12857142857143,3625.1,545.2223214285714,77.12857142857143,3727.4,545.2223214285714,77.12857142857143,3831.4,545.2223214285714,77.12857142857143,3938.3,545.2223214285714,77.12857142857143,4041,545.2223214285714,77.12857142857143,4144.9,545.2223214285714,77.12857142857143,4254.9,545.2223214285714,77.12857142857143,4355.3,545.2223214285714,77.12857142857143,4458.1,545.2223214285714,77.12857142857143,4562.7,545.2223214285714,77.12857142857143,4669.3,545.2223214285714,77.12857142857143,4770.3,545.2223214285714,77.12857142857143,4875.6,545.2223214285714,77.12857142857143,4979.5]","[1388,1388,1000,0,388,""smooth"",""right"",""right"",""good_move"",3295,1906.3,1536.5,1388.7,369.8,""smooth"",""right"",""right"",""good_move"",5228.8,1933.5,1636.1,3295.3,297.4,""oops"",""up"",""up"",""good_move"",8556,3326.8,2993.7,5229.2,333.1,""smooth"",""up"",""up"",""good_move"",11386.8,2830.6,2498.9,8556.3,331.7,""smooth"",""up"",""up"",""good_move"",14336.2,2949.1,2549.5,11387.2,399.6,""smooth"",""right"",""right"",""good_move""]","",""
"4201","","<div style=""width:500px;"">
  <p>What determined the result of this run?</p>
  </div>","93","html-slider-response","30","638696","0.0-5.0-1.4","146","1","2025-07-23 06:31:38","1f75c3e559b7213887762d5229550c2b","41.145.194.131","Mozilla/5.0 (Windows NT 10.0; Win64; x64) AppleWebKit/537.36 (KHTML, like Gecko) Chrome/138.0.0.0 Safari/537.36","WebKit","Chrome","138.0.0.0","Windows","10.0","https://app.prolific.com/","en-ZA,en-GB;q=0.9,en-US;q=0.8,en;q=0.7","67f14975a8c12321ab2d0e61","683db9eb0562dbf637994deb","68808150e8b3f87ededef406","2","1","67f14975a8c12321ab2d0e61","2","1","2025-07-23T06:45:56.644Z","","","","","","","","","","","AttribQ","","50","","","","","","","","","","","","","","","","","","","","","","","","","","","","",""
"3165","","<div style=""width:500px;"">
  <p>How much control did you have over the ball?</p>
  </div>","88","html-slider-response","31","641863","0.0-5.0-2.4","146","1","2025-07-23 06:31:38","1f75c3e559b7213887762d5229550c2b","41.145.194.131","Mozilla/5.0 (Windows NT 10.0; Win64; x64) AppleWebKit/537.36 (KHTML, like Gecko) Chrome/138.0.0.0 Safari/537.36","WebKit","Chrome","138.0.0.0","Windows","10.0","https://app.prolific.com/","en-ZA,en-GB;q=0.9,en-US;q=0.8,en;q=0.7","67f14975a8c12321ab2d0e61","683db9eb0562dbf637994deb","68808150e8b3f87ededef406","2","1","67f14975a8c12321ab2d0e61","2","1","2025-07-23T06:45:59.811Z","","","","","","","","","","","ControlQ","","50","","","","","","","","","","","","","","","","","","","","","","","","","","","","",""
"3295","","<div style=""width:500px;"">
  <p>How would you describe your current emotional state?</p>
  </div>","28","html-slider-response","32","645159","0.0-5.0-3.4","146","1","2025-07-23 06:31:38","1f75c3e559b7213887762d5229550c2b","41.145.194.131","Mozilla/5.0 (Windows NT 10.0; Win64; x64) AppleWebKit/537.36 (KHTML, like Gecko) Chrome/138.0.0.0 Safari/537.36","WebKit","Chrome","138.0.0.0","Windows","10.0","https://app.prolific.com/","en-ZA,en-GB;q=0.9,en-US;q=0.8,en;q=0.7","67f14975a8c12321ab2d0e61","683db9eb0562dbf637994deb","68808150e8b3f87ededef406","2","1","67f14975a8c12321ab2d0e61","2","1","2025-07-23T06:46:03.107Z","","","","","","","","","","","StressQ","","50","","","","","","","","","","","","","","","","","","","","","","","","","","","","",""
"3382","","<div style=""width:500px;"">
  <p>What best describes how you currently feel?</p>
  </div>","96","html-slider-response","33","648542","0.0-5.0-4.4","146","1","2025-07-23 06:31:38","1f75c3e559b7213887762d5229550c2b","41.145.194.131","Mozilla/5.0 (Windows NT 10.0; Win64; x64) AppleWebKit/537.36 (KHTML, like Gecko) Chrome/138.0.0.0 Safari/537.36","WebKit","Chrome","138.0.0.0","Windows","10.0","https://app.prolific.com/","en-ZA,en-GB;q=0.9,en-US;q=0.8,en;q=0.7","67f14975a8c12321ab2d0e61","683db9eb0562dbf637994deb","68808150e8b3f87ededef406","2","1","67f14975a8c12321ab2d0e61","2","1","2025-07-23T06:46:06.491Z","","","","","","","","","","","MotivationQ","","50","","","","","","","","","","","","","","","","","","","","","","","","","","","","",""
"","","","","ctl-task-cpt","34","711143","0.0-5.0-0.5","146","1","2025-07-23 06:31:38","1f75c3e559b7213887762d5229550c2b","41.145.194.131","Mozilla/5.0 (Windows NT 10.0; Win64; x64) AppleWebKit/537.36 (KHTML, like Gecko) Chrome/138.0.0.0 Safari/537.36","WebKit","Chrome","138.0.0.0","Windows","10.0","https://app.prolific.com/","en-ZA,en-GB;q=0.9,en-US;q=0.8,en;q=0.7","67f14975a8c12321ab2d0e61","683db9eb0562dbf637994deb","68808150e8b3f87ededef406","2","1","67f14975a8c12321ab2d0e61","2","1","2025-07-23T06:47:09.091Z","","","","","","","","","","","","","","win-only","2","g1:SE,g2:NW","0.5","6","0","654198.7","1897.6","6907.1","59586.9","1","4","8","6","2","-8","-9","2","11","0.015151515151515152","1028.5","3000","-2275","[""left"",""up""]","{""num_key_presses"":11,""num_perfect"":5,""num_errors"":1,""num_randdir"":5,""num_randdir_good_moves"":1,""num_whilered"":0,""num_whileblue"":0,""num_blue"":6,""num_good_moves"":6}","[300.22232142857143,292.12857142857143,1,300.22232142857143,292.12857142857143,105.5,300.22232142857143,292.12857142857143,208.4,300.22232142857143,292.12857142857143,313.5,240.22232142857143,244.12857142857143,422.3,134.22232142857143,130.12857142857143,523.5,78.22232142857143,87.12857142857143,623.6,63.222321428571426,72.12857142857143,724.1,62.222321428571426,68.12857142857143,824.1,62.222321428571426,68.12857142857143,924.7,62.222321428571426,68.12857142857143,1034.4,62.222321428571426,68.12857142857143,1137.8,62.222321428571426,68.12857142857143,1238.2,62.222321428571426,68.12857142857143,1344.4,62.222321428571426,68.12857142857143,1446.7,62.222321428571426,68.12857142857143,1549.9,62.222321428571426,68.12857142857143,1651.8,62.222321428571426,68.12857142857143,1757.2,62.222321428571426,68.12857142857143,1858.6,62.222321428571426,68.12857142857143,1959.3,62.222321428571426,68.12857142857143,2063,62.222321428571426,68.12857142857143,2163.1,62.222321428571426,68.12857142857143,2264.2,62.222321428571426,68.12857142857143,2365,62.222321428571426,68.12857142857143,2473,62.222321428571426,68.12857142857143,2580.1,62.222321428571426,68.12857142857143,2680.3,62.222321428571426,68.12857142857143,2781.1,62.222321428571426,68.12857142857143,2881.9,62.222321428571426,68.12857142857143,2988.2,62.222321428571426,68.12857142857143,3088.9,62.222321428571426,68.12857142857143,3192.8,62.222321428571426,68.12857142857143,3297.2,62.222321428571426,68.12857142857143,3397.9,62.222321428571426,68.12857142857143,3498,62.222321428571426,68.12857142857143,3607.4,62.222321428571426,68.12857142857143,3707.9,62.222321428571426,68.12857142857143,3808.4,62.222321428571426,68.12857142857143,3908.7,62.222321428571426,68.12857142857143,4009.5,62.222321428571426,68.12857142857143,4115.5,62.222321428571426,68.12857142857143,4222.2,62.222321428571426,68.12857142857143,4322.3,62.222321428571426,68.12857142857143,4425.6,62.222321428571426,68.12857142857143,4531.8,62.222321428571426,68.12857142857143,4636,62.222321428571426,68.12857142857143,4736.4,62.222321428571426,68.12857142857143,4841,62.222321428571426,68.12857142857143,4943.2]","[5018.4,5018.5,2652.3,2010.9,355.3,""smooth"",""left"",""left"",""good_move"",17798.5,12779.4,2721.7,14643.4,433.5,""oops"",""left"",""right"",""bad_move"",20663.6,2864.5,2407.7,17799.1,456.9,""oops"",""left"",""down"",""bad_move"",23638.4,2974.1,2614.9,20664.3,359.2,""oops"",""left"",""down"",""bad_move"",29342.5,5703.8,2180.8,26794,367.7,""smooth"",""left"",""left"",""good_move"",35630.2,6287.3,2667.6,32670.2,292.4,""oops"",""left"",""up"",""good_move"",38665.4,3034.8,2706.6,35630.6,328.2,""smooth"",""left"",""left"",""good_move"",39435.7,769.7,3050.7,38666,-2281,""error"",""-"",""-"",""no_move"",43408.1,3972.2,2607.8,40436.1,364.2,""smooth"",""left"",""left"",""good_move"",46098.8,2690.6,2274.3,43408.2,416.3,""oops"",""up"",""down"",""bad_move"",49913.3,3813.9,3366.2,46099.4,447.7,""smooth"",""up"",""up"",""good_move""]","",""
"5737","","<div style=""width:500px;"">
  <p>What determined the result of this run?</p>
  </div>","78","html-slider-response","35","716882","0.0-5.0-1.5","146","1","2025-07-23 06:31:38","1f75c3e559b7213887762d5229550c2b","41.145.194.131","Mozilla/5.0 (Windows NT 10.0; Win64; x64) AppleWebKit/537.36 (KHTML, like Gecko) Chrome/138.0.0.0 Safari/537.36","WebKit","Chrome","138.0.0.0","Windows","10.0","https://app.prolific.com/","en-ZA,en-GB;q=0.9,en-US;q=0.8,en;q=0.7","67f14975a8c12321ab2d0e61","683db9eb0562dbf637994deb","68808150e8b3f87ededef406","2","1","67f14975a8c12321ab2d0e61","2","1","2025-07-23T06:47:14.830Z","","","","","","","","","","","AttribQ","","50","","","","","","","","","","","","","","","","","","","","","","","","","","","","",""
"9289","","<div style=""width:500px;"">
  <p>How much control did you have over the ball?</p>
  </div>","60","html-slider-response","36","726173","0.0-5.0-2.5","146","1","2025-07-23 06:31:38","1f75c3e559b7213887762d5229550c2b","41.145.194.131","Mozilla/5.0 (Windows NT 10.0; Win64; x64) AppleWebKit/537.36 (KHTML, like Gecko) Chrome/138.0.0.0 Safari/537.36","WebKit","Chrome","138.0.0.0","Windows","10.0","https://app.prolific.com/","en-ZA,en-GB;q=0.9,en-US;q=0.8,en;q=0.7","67f14975a8c12321ab2d0e61","683db9eb0562dbf637994deb","68808150e8b3f87ededef406","2","1","67f14975a8c12321ab2d0e61","2","1","2025-07-23T06:47:24.121Z","","","","","","","","","","","ControlQ","","50","","","","","","","","","","","","","","","","","","","","","","","","","","","","",""
"3495","","<div style=""width:500px;"">
  <p>How would you describe your current emotional state?</p>
  </div>","60","html-slider-response","37","729669","0.0-5.0-3.5","146","1","2025-07-23 06:31:38","1f75c3e559b7213887762d5229550c2b","41.145.194.131","Mozilla/5.0 (Windows NT 10.0; Win64; x64) AppleWebKit/537.36 (KHTML, like Gecko) Chrome/138.0.0.0 Safari/537.36","WebKit","Chrome","138.0.0.0","Windows","10.0","https://app.prolific.com/","en-ZA,en-GB;q=0.9,en-US;q=0.8,en;q=0.7","67f14975a8c12321ab2d0e61","683db9eb0562dbf637994deb","68808150e8b3f87ededef406","2","1","67f14975a8c12321ab2d0e61","2","1","2025-07-23T06:47:27.617Z","","","","","","","","","","","StressQ","","50","","","","","","","","","","","","","","","","","","","","","","","","","","","","",""
"3712","","<div style=""width:500px;"">
  <p>What best describes how you currently feel?</p>
  </div>","100","html-slider-response","38","733383","0.0-5.0-4.5","146","1","2025-07-23 06:31:38","1f75c3e559b7213887762d5229550c2b","41.145.194.131","Mozilla/5.0 (Windows NT 10.0; Win64; x64) AppleWebKit/537.36 (KHTML, like Gecko) Chrome/138.0.0.0 Safari/537.36","WebKit","Chrome","138.0.0.0","Windows","10.0","https://app.prolific.com/","en-ZA,en-GB;q=0.9,en-US;q=0.8,en;q=0.7","67f14975a8c12321ab2d0e61","683db9eb0562dbf637994deb","68808150e8b3f87ededef406","2","1","67f14975a8c12321ab2d0e61","2","1","2025-07-23T06:47:31.332Z","","","","","","","","","","","MotivationQ","","50","","","","","","","","","","","","","","","","","","","","","","","","","","","","",""
"","","","","ctl-task-cpt","39","780952","0.0-5.0-0.6","146","1","2025-07-23 06:31:38","1f75c3e559b7213887762d5229550c2b","41.145.194.131","Mozilla/5.0 (Windows NT 10.0; Win64; x64) AppleWebKit/537.36 (KHTML, like Gecko) Chrome/138.0.0.0 Safari/537.36","WebKit","Chrome","138.0.0.0","Windows","10.0","https://app.prolific.com/","en-ZA,en-GB;q=0.9,en-US;q=0.8,en;q=0.7","67f14975a8c12321ab2d0e61","683db9eb0562dbf637994deb","68808150e8b3f87ededef406","2","1","67f14975a8c12321ab2d0e61","2","1","2025-07-23T06:48:18.901Z","","","","","","","","","","","","","","win-only","3","g1:SW,g2:NE","0.4","7","0","739040.6","3486","8487.8","44555.3","1","4","4","6","2","4","4","6","2","0.045454545454545456","1530.8","3000","290","[""up"",""right""]","{""num_key_presses"":10,""num_perfect"":4,""num_errors"":0,""num_randdir"":6,""num_randdir_good_moves"":4,""num_whilered"":0,""num_whileblue"":0,""num_blue"":3,""num_good_moves"":8}","[294.22232142857143,291.12857142857143,0.5,294.22232142857143,291.12857142857143,105.6,294.22232142857143,291.12857142857143,211.8,294.22232142857143,291.12857142857143,312.3,294.22232142857143,291.12857142857143,413.4,294.22232142857143,291.12857142857143,514.8,393.22232142857143,200.12857142857143,618.4,472.22232142857143,59.128571428571426,729.2,487.22232142857143,39.128571428571426,829.3,487.22232142857143,44.128571428571426,929.9,487.22232142857143,44.128571428571426,1030.2,487.22232142857143,44.128571428571426,1130.9,506.22232142857143,43.128571428571426,1237,532.2223214285714,43.128571428571426,1339,532.2223214285714,43.128571428571426,1445.4,532.2223214285714,43.128571428571426,1547.8,532.2223214285714,43.128571428571426,1654.8,532.2223214285714,43.128571428571426,1757.8,532.2223214285714,43.128571428571426,1864.5,532.2223214285714,43.128571428571426,1969.3,532.2223214285714,43.128571428571426,2070.2,532.2223214285714,43.128571428571426,2177.9,532.2223214285714,43.128571428571426,2278.2,532.2223214285714,43.128571428571426,2385.9,532.2223214285714,43.128571428571426,2491,532.2223214285714,43.128571428571426,2595.6,532.2223214285714,43.128571428571426,2706.5,532.2223214285714,43.128571428571426,2811.3,532.2223214285714,43.128571428571426,2919.8,532.2223214285714,43.128571428571426,3027.7,532.2223214285714,43.128571428571426,3138.5,532.2223214285714,43.128571428571426,3240.7,532.2223214285714,43.128571428571426,3348.1,532.2223214285714,43.128571428571426,3456.4,532.2223214285714,43.128571428571426,3556.6,532.2223214285714,43.128571428571426,3663.7,532.2223214285714,43.128571428571426,3769.5,532.2223214285714,43.128571428571426,3872.6,532.2223214285714,43.128571428571426,3974.8,532.2223214285714,43.128571428571426,4076.6,532.2223214285714,43.128571428571426,4185.9,532.2223214285714,43.128571428571426,4286.5,532.2223214285714,43.128571428571426,4390.7,532.2223214285714,43.128571428571426,4490.9,532.2223214285714,43.128571428571426,4593.8,532.2223214285714,43.128571428571426,4698.1,532.2223214285714,43.128571428571426,4807.2,532.2223214285714,43.128571428571426,4914.5]","[1446.1,1446.1,1000,0,446.1,""oops"",""right"",""up"",""good_move"",4221.5,2775,2363,1446.5,412,""smooth"",""right"",""right"",""good_move"",6843.1,2620.9,2245.5,4222.2,375.4,""oops"",""right"",""up"",""good_move"",15491.1,8647.6,2110.6,12994.9,385.7,""oops"",""right"",""down"",""bad_move"",21340.9,5849.3,2224.4,18724.3,392.2,""smooth"",""right"",""right"",""good_move"",23920.4,2579,2157.1,21341.4,421.9,""oops"",""up"",""left"",""bad_move"",26712.2,2791.4,2419.9,23920.8,371.5,""oops"",""right"",""right"",""good_move"",29799,3086.5,2708.2,26712.5,378.3,""oops"",""up"",""right"",""good_move"",33254,3454.7,3138.1,29799.3,316.6,""smooth"",""up"",""up"",""good_move"",35944.1,2689.5,2338.4,33254.6,351.1,""smooth"",""up"",""up"",""good_move""]","",""
"3635","","<div style=""width:500px;"">
  <p>What determined the result of this run?</p>
  </div>","89","html-slider-response","40","784589","0.0-5.0-1.6","146","1","2025-07-23 06:31:38","1f75c3e559b7213887762d5229550c2b","41.145.194.131","Mozilla/5.0 (Windows NT 10.0; Win64; x64) AppleWebKit/537.36 (KHTML, like Gecko) Chrome/138.0.0.0 Safari/537.36","WebKit","Chrome","138.0.0.0","Windows","10.0","https://app.prolific.com/","en-ZA,en-GB;q=0.9,en-US;q=0.8,en;q=0.7","67f14975a8c12321ab2d0e61","683db9eb0562dbf637994deb","68808150e8b3f87ededef406","2","1","67f14975a8c12321ab2d0e61","2","1","2025-07-23T06:48:22.537Z","","","","","","","","","","","AttribQ","","50","","","","","","","","","","","","","","","","","","","","","","","","","","","","",""
"2957","","<div style=""width:500px;"">
  <p>How much control did you have over the ball?</p>
  </div>","68","html-slider-response","41","787548","0.0-5.0-2.6","146","1","2025-07-23 06:31:38","1f75c3e559b7213887762d5229550c2b","41.145.194.131","Mozilla/5.0 (Windows NT 10.0; Win64; x64) AppleWebKit/537.36 (KHTML, like Gecko) Chrome/138.0.0.0 Safari/537.36","WebKit","Chrome","138.0.0.0","Windows","10.0","https://app.prolific.com/","en-ZA,en-GB;q=0.9,en-US;q=0.8,en;q=0.7","67f14975a8c12321ab2d0e61","683db9eb0562dbf637994deb","68808150e8b3f87ededef406","2","1","67f14975a8c12321ab2d0e61","2","1","2025-07-23T06:48:25.496Z","","","","","","","","","","","ControlQ","","50","","","","","","","","","","","","","","","","","","","","","","","","","","","","",""
"4736","","<div style=""width:500px;"">
  <p>How would you describe your current emotional state?</p>
  </div>","15","html-slider-response","42","792285","0.0-5.0-3.6","146","1","2025-07-23 06:31:38","1f75c3e559b7213887762d5229550c2b","41.145.194.131","Mozilla/5.0 (Windows NT 10.0; Win64; x64) AppleWebKit/537.36 (KHTML, like Gecko) Chrome/138.0.0.0 Safari/537.36","WebKit","Chrome","138.0.0.0","Windows","10.0","https://app.prolific.com/","en-ZA,en-GB;q=0.9,en-US;q=0.8,en;q=0.7","67f14975a8c12321ab2d0e61","683db9eb0562dbf637994deb","68808150e8b3f87ededef406","2","1","67f14975a8c12321ab2d0e61","2","1","2025-07-23T06:48:30.233Z","","","","","","","","","","","StressQ","","50","","","","","","","","","","","","","","","","","","","","","","","","","","","","",""
"2702","","<div style=""width:500px;"">
  <p>What best describes how you currently feel?</p>
  </div>","100","html-slider-response","43","794988","0.0-5.0-4.6","146","1","2025-07-23 06:31:38","1f75c3e559b7213887762d5229550c2b","41.145.194.131","Mozilla/5.0 (Windows NT 10.0; Win64; x64) AppleWebKit/537.36 (KHTML, like Gecko) Chrome/138.0.0.0 Safari/537.36","WebKit","Chrome","138.0.0.0","Windows","10.0","https://app.prolific.com/","en-ZA,en-GB;q=0.9,en-US;q=0.8,en;q=0.7","67f14975a8c12321ab2d0e61","683db9eb0562dbf637994deb","68808150e8b3f87ededef406","2","1","67f14975a8c12321ab2d0e61","2","1","2025-07-23T06:48:32.937Z","","","","","","","","","","","MotivationQ","","50","","","","","","","","","","","","","","","","","","","","","","","","","","","","",""
"","","","","ctl-task-cpt","44","847964","0.0-5.0-0.7","146","1","2025-07-23 06:31:38","1f75c3e559b7213887762d5229550c2b","41.145.194.131","Mozilla/5.0 (Windows NT 10.0; Win64; x64) AppleWebKit/537.36 (KHTML, like Gecko) Chrome/138.0.0.0 Safari/537.36","WebKit","Chrome","138.0.0.0","Windows","10.0","https://app.prolific.com/","en-ZA,en-GB;q=0.9,en-US;q=0.8,en;q=0.7","67f14975a8c12321ab2d0e61","683db9eb0562dbf637994deb","68808150e8b3f87ededef406","2","1","67f14975a8c12321ab2d0e61","2","1","2025-07-23T06:49:25.913Z","","","","","","","","","","","","","","win-only","1","g1:NE,g2:SW","0.3","8","0","800644.5","1278.7","6289.7","49967.5","1","4","8","6","2","-8","-8","0","6","0","1143.6","3000","-2115","[""down"",""left""]","{""num_key_presses"":11,""num_perfect"":4,""num_errors"":0,""num_randdir"":7,""num_randdir_good_moves"":3,""num_whilered"":0,""num_whileblue"":0,""num_blue"":3,""num_good_moves"":7}","[288.22232142857143,297.12857142857143,0.4,288.22232142857143,297.12857142857143,105.4,288.22232142857143,297.12857142857143,207.4,288.22232142857143,297.12857142857143,312.1,288.22232142857143,297.12857142857143,416.3,324.22232142857143,258.12857142857143,520.2,221.22232142857143,346.12857142857143,620.2,119.22232142857143,501.12857142857143,723.8,86.22232142857143,538.1285714285714,823.9,77.22232142857143,552.1285714285714,930.3,77.22232142857143,552.1285714285714,1035.6,77.22232142857143,552.1285714285714,1149.3,77.22232142857143,552.1285714285714,1252,77.22232142857143,552.1285714285714,1354.7,77.22232142857143,552.1285714285714,1456.9,77.22232142857143,552.1285714285714,1558.1,77.22232142857143,552.1285714285714,1661.2,77.22232142857143,552.1285714285714,1763.5,77.22232142857143,552.1285714285714,1866.1,77.22232142857143,552.1285714285714,1968.9,77.22232142857143,552.1285714285714,2074.6,77.22232142857143,552.1285714285714,2179.7,77.22232142857143,552.1285714285714,2281.4,77.22232142857143,552.1285714285714,2389.9,77.22232142857143,552.1285714285714,2490.5,77.22232142857143,552.1285714285714,2595.1,77.22232142857143,552.1285714285714,2695.1,77.22232142857143,552.1285714285714,2796.4,77.22232142857143,552.1285714285714,2898.4,77.22232142857143,552.1285714285714,3003.1,77.22232142857143,552.1285714285714,3110.2,77.22232142857143,552.1285714285714,3210.4,77.22232142857143,552.1285714285714,3313.7,77.22232142857143,552.1285714285714,3419.7,77.22232142857143,552.1285714285714,3523,77.22232142857143,552.1285714285714,3624.7,77.22232142857143,552.1285714285714,3726.9,77.22232142857143,552.1285714285714,3829.8,77.22232142857143,552.1285714285714,3935,77.22232142857143,552.1285714285714,4042,77.22232142857143,552.1285714285714,4150,77.22232142857143,552.1285714285714,4255,77.22232142857143,552.1285714285714,4355.8,77.22232142857143,552.1285714285714,4460.8,77.22232142857143,552.1285714285714,4561.2,77.22232142857143,552.1285714285714,4661.8,77.22232142857143,552.1285714285714,4764.6,77.22232142857143,552.1285714285714,4872.4,77.22232142857143,552.1285714285714,4977.9]","[1369.6,1369.6,1000,0,369.6,""oops"",""down"",""up"",""bad_move"",7940.8,6570.6,3044.7,4586.3,309.8,""oops"",""down"",""left"",""good_move"",10936.2,2995,2595.5,7941.2,399.5,""smooth"",""down"",""down"",""good_move"",13353.2,2416.5,2079.7,10936.7,336.8,""smooth"",""down"",""down"",""good_move"",15997.8,2644.4,2301.5,13353.4,342.9,""oops"",""down"",""down"",""good_move"",19216.7,3218.4,2855.8,15998.3,362.6,""oops"",""left"",""up"",""bad_move"",22054.8,2837.7,2504.3,19217.2,333.4,""oops"",""down"",""down"",""good_move"",25236.6,3181.4,2852.6,22055.2,328.8,""smooth"",""down"",""down"",""good_move"",27779.5,2542.7,2122.3,25236.8,420.4,""oops"",""left"",""right"",""bad_move"",34269.3,6488.9,2931.8,30980.8,356.7,""oops"",""left"",""up"",""bad_move"",37356.1,3086.4,2682.9,34269.7,403.5,""smooth"",""left"",""left"",""good_move""]","",""
"6387","","<div style=""width:500px;"">
  <p>What determined the result of this run?</p>
  </div>","81","html-slider-response","45","854354","0.0-5.0-1.7","146","1","2025-07-23 06:31:38","1f75c3e559b7213887762d5229550c2b","41.145.194.131","Mozilla/5.0 (Windows NT 10.0; Win64; x64) AppleWebKit/537.36 (KHTML, like Gecko) Chrome/138.0.0.0 Safari/537.36","WebKit","Chrome","138.0.0.0","Windows","10.0","https://app.prolific.com/","en-ZA,en-GB;q=0.9,en-US;q=0.8,en;q=0.7","67f14975a8c12321ab2d0e61","683db9eb0562dbf637994deb","68808150e8b3f87ededef406","2","1","67f14975a8c12321ab2d0e61","2","1","2025-07-23T06:49:32.302Z","","","","","","","","","","","AttribQ","","50","","","","","","","","","","","","","","","","","","","","","","","","","","","","",""
"3029","","<div style=""width:500px;"">
  <p>How much control did you have over the ball?</p>
  </div>","26","html-slider-response","46","857384","0.0-5.0-2.7","146","1","2025-07-23 06:31:38","1f75c3e559b7213887762d5229550c2b","41.145.194.131","Mozilla/5.0 (Windows NT 10.0; Win64; x64) AppleWebKit/537.36 (KHTML, like Gecko) Chrome/138.0.0.0 Safari/537.36","WebKit","Chrome","138.0.0.0","Windows","10.0","https://app.prolific.com/","en-ZA,en-GB;q=0.9,en-US;q=0.8,en;q=0.7","67f14975a8c12321ab2d0e61","683db9eb0562dbf637994deb","68808150e8b3f87ededef406","2","1","67f14975a8c12321ab2d0e61","2","1","2025-07-23T06:49:35.333Z","","","","","","","","","","","ControlQ","","50","","","","","","","","","","","","","","","","","","","","","","","","","","","","",""
"3821","","<div style=""width:500px;"">
  <p>How would you describe your current emotional state?</p>
  </div>","66","html-slider-response","47","861208","0.0-5.0-3.7","146","1","2025-07-23 06:31:38","1f75c3e559b7213887762d5229550c2b","41.145.194.131","Mozilla/5.0 (Windows NT 10.0; Win64; x64) AppleWebKit/537.36 (KHTML, like Gecko) Chrome/138.0.0.0 Safari/537.36","WebKit","Chrome","138.0.0.0","Windows","10.0","https://app.prolific.com/","en-ZA,en-GB;q=0.9,en-US;q=0.8,en;q=0.7","67f14975a8c12321ab2d0e61","683db9eb0562dbf637994deb","68808150e8b3f87ededef406","2","1","67f14975a8c12321ab2d0e61","2","1","2025-07-23T06:49:39.156Z","","","","","","","","","","","StressQ","","50","","","","","","","","","","","","","","","","","","","","","","","","","","","","",""
"4608","","<div style=""width:500px;"">
  <p>What best describes how you currently feel?</p>
  </div>","100","html-slider-response","48","865817","0.0-5.0-4.7","146","1","2025-07-23 06:31:38","1f75c3e559b7213887762d5229550c2b","41.145.194.131","Mozilla/5.0 (Windows NT 10.0; Win64; x64) AppleWebKit/537.36 (KHTML, like Gecko) Chrome/138.0.0.0 Safari/537.36","WebKit","Chrome","138.0.0.0","Windows","10.0","https://app.prolific.com/","en-ZA,en-GB;q=0.9,en-US;q=0.8,en;q=0.7","67f14975a8c12321ab2d0e61","683db9eb0562dbf637994deb","68808150e8b3f87ededef406","2","1","67f14975a8c12321ab2d0e61","2","1","2025-07-23T06:49:43.765Z","","","","","","","","","","","MotivationQ","","50","","","","","","","","","","","","","","","","","","","","","","","","","","","","",""
"","","","","ctl-task-cpt","49","907904","0.0-5.0-0.8","146","1","2025-07-23 06:31:38","1f75c3e559b7213887762d5229550c2b","41.145.194.131","Mozilla/5.0 (Windows NT 10.0; Win64; x64) AppleWebKit/537.36 (KHTML, like Gecko) Chrome/138.0.0.0 Safari/537.36","WebKit","Chrome","138.0.0.0","Windows","10.0","https://app.prolific.com/","en-ZA,en-GB;q=0.9,en-US;q=0.8,en;q=0.7","67f14975a8c12321ab2d0e61","683db9eb0562dbf637994deb","68808150e8b3f87ededef406","2","1","67f14975a8c12321ab2d0e61","2","1","2025-07-23T06:50:25.853Z","","","","","","","","","","","","","","win-only","0","g1:NW,g2:SE","0.2","9","0","871472.8","1536","6543.1","39066.5","1","4","4","6","2","-4","-4","0","0","0","1115.2","3000","-2100","[""down"",""right""]","{""num_key_presses"":12,""num_perfect"":4,""num_errors"":0,""num_randdir"":8,""num_randdir_good_moves"":4,""num_whilered"":0,""num_whileblue"":0,""num_blue"":0,""num_good_moves"":8}","[300.22232142857143,298.12857142857143,0.4,300.22232142857143,298.12857142857143,102.2,300.22232142857143,298.12857142857143,209.1,300.22232142857143,298.12857142857143,309.6,289.22232142857143,285.12857142857143,421.4,298.22232142857143,293.12857142857143,523.8,470.22232142857143,438.12857142857143,627.9,507.22232142857143,490.12857142857143,735.8,520.2223214285714,524.1285714285714,836.4,523.2223214285714,535.1285714285714,939.6,523.2223214285714,535.1285714285714,1051.5,523.2223214285714,535.1285714285714,1152.1,523.2223214285714,535.1285714285714,1254.9,523.2223214285714,535.1285714285714,1362.8,523.2223214285714,535.1285714285714,1473.3,523.2223214285714,535.1285714285714,1584,523.2223214285714,535.1285714285714,1685.4,523.2223214285714,535.1285714285714,1785.6,523.2223214285714,535.1285714285714,1890.4,523.2223214285714,535.1285714285714,2000.5,523.2223214285714,535.1285714285714,2102.4,523.2223214285714,535.1285714285714,2208.3,523.2223214285714,535.1285714285714,2316.5,523.2223214285714,535.1285714285714,2420.3,523.2223214285714,535.1285714285714,2521.7,523.2223214285714,535.1285714285714,2629.3,523.2223214285714,535.1285714285714,2734.3,523.2223214285714,535.1285714285714,2836.4,523.2223214285714,535.1285714285714,2939.5,523.2223214285714,535.1285714285714,3052.4,523.2223214285714,535.1285714285714,3158.4,523.2223214285714,535.1285714285714,3266.3,523.2223214285714,535.1285714285714,3372.4,523.2223214285714,535.1285714285714,3478.9,523.2223214285714,535.1285714285714,3582.7,523.2223214285714,535.1285714285714,3685.2,523.2223214285714,535.1285714285714,3792.2,523.2223214285714,535.1285714285714,3897.5,523.2223214285714,535.1285714285714,3999.4,523.2223214285714,535.1285714285714,4100.8,523.2223214285714,535.1285714285714,4201.1,523.2223214285714,535.1285714285714,4307.4,523.2223214285714,535.1285714285714,4414.1,523.2223214285714,535.1285714285714,4517.3,523.2223214285714,535.1285714285714,4620.5,523.2223214285714,535.1285714285714,4731.2,523.2223214285714,535.1285714285714,4833.2,523.2223214285714,535.1285714285714,4933.8]","[1389.8,1389.8,1000,0,389.8,""smooth"",""right"",""right"",""good_move"",3787.9,2397.5,2062.7,1390.4,334.8,""smooth"",""right"",""right"",""good_move"",6065.3,2277.1,1972.4,3788.2,304.7,""oops"",""down"",""left"",""bad_move"",9529.4,3463.6,3127.3,6065.8,336.3,""oops"",""right"",""up"",""bad_move"",12064.2,2534.2,2009.9,9530,524.3,""oops"",""right"",""right"",""good_move"",14480.1,2415.4,2125.4,12064.7,290,""oops"",""right"",""right"",""good_move"",16731.4,2250.7,1950.8,14480.7,299.9,""oops"",""down"",""left"",""bad_move"",19648.7,2916.8,2636.1,16731.9,280.7,""oops"",""down"",""down"",""good_move"",22612.4,2963.2,2661.7,19649.2,301.5,""oops"",""down"",""down"",""good_move"",25403.2,2790.6,2489.1,22612.7,301.4,""oops"",""down"",""up"",""bad_move"",27859.9,2456.1,2189.4,25403.8,266.7,""smooth"",""down"",""down"",""good_move"",30235.8,2375.5,1968.8,27860.3,406.7,""smooth"",""down"",""down"",""good_move""]","",""
"3789","","<div style=""width:500px;"">
  <p>What determined the result of this run?</p>
  </div>","71","html-slider-response","50","911695","0.0-5.0-1.8","146","1","2025-07-23 06:31:38","1f75c3e559b7213887762d5229550c2b","41.145.194.131","Mozilla/5.0 (Windows NT 10.0; Win64; x64) AppleWebKit/537.36 (KHTML, like Gecko) Chrome/138.0.0.0 Safari/537.36","WebKit","Chrome","138.0.0.0","Windows","10.0","https://app.prolific.com/","en-ZA,en-GB;q=0.9,en-US;q=0.8,en;q=0.7","67f14975a8c12321ab2d0e61","683db9eb0562dbf637994deb","68808150e8b3f87ededef406","2","1","67f14975a8c12321ab2d0e61","2","1","2025-07-23T06:50:29.643Z","","","","","","","","","","","AttribQ","","50","","","","","","","","","","","","","","","","","","","","","","","","","","","","",""
"3981","","<div style=""width:500px;"">
  <p>How much control did you have over the ball?</p>
  </div>","33","html-slider-response","51","915678","0.0-5.0-2.8","146","1","2025-07-23 06:31:38","1f75c3e559b7213887762d5229550c2b","41.145.194.131","Mozilla/5.0 (Windows NT 10.0; Win64; x64) AppleWebKit/537.36 (KHTML, like Gecko) Chrome/138.0.0.0 Safari/537.36","WebKit","Chrome","138.0.0.0","Windows","10.0","https://app.prolific.com/","en-ZA,en-GB;q=0.9,en-US;q=0.8,en;q=0.7","67f14975a8c12321ab2d0e61","683db9eb0562dbf637994deb","68808150e8b3f87ededef406","2","1","67f14975a8c12321ab2d0e61","2","1","2025-07-23T06:50:33.626Z","","","","","","","","","","","ControlQ","","50","","","","","","","","","","","","","","","","","","","","","","","","","","","","",""
"4225","","<div style=""width:500px;"">
  <p>How would you describe your current emotional state?</p>
  </div>","33","html-slider-response","52","919905","0.0-5.0-3.8","146","1","2025-07-23 06:31:38","1f75c3e559b7213887762d5229550c2b","41.145.194.131","Mozilla/5.0 (Windows NT 10.0; Win64; x64) AppleWebKit/537.36 (KHTML, like Gecko) Chrome/138.0.0.0 Safari/537.36","WebKit","Chrome","138.0.0.0","Windows","10.0","https://app.prolific.com/","en-ZA,en-GB;q=0.9,en-US;q=0.8,en;q=0.7","67f14975a8c12321ab2d0e61","683db9eb0562dbf637994deb","68808150e8b3f87ededef406","2","1","67f14975a8c12321ab2d0e61","2","1","2025-07-23T06:50:37.853Z","","","","","","","","","","","StressQ","","50","","","","","","","","","","","","","","","","","","","","","","","","","","","","",""
"4234","","<div style=""width:500px;"">
  <p>What best describes how you currently feel?</p>
  </div>","100","html-slider-response","53","924141","0.0-5.0-4.8","146","1","2025-07-23 06:31:38","1f75c3e559b7213887762d5229550c2b","41.145.194.131","Mozilla/5.0 (Windows NT 10.0; Win64; x64) AppleWebKit/537.36 (KHTML, like Gecko) Chrome/138.0.0.0 Safari/537.36","WebKit","Chrome","138.0.0.0","Windows","10.0","https://app.prolific.com/","en-ZA,en-GB;q=0.9,en-US;q=0.8,en;q=0.7","67f14975a8c12321ab2d0e61","683db9eb0562dbf637994deb","68808150e8b3f87ededef406","2","1","67f14975a8c12321ab2d0e61","2","1","2025-07-23T06:50:42.089Z","","","","","","","","","","","MotivationQ","","50","","","","","","","","","","","","","","","","","","","","","","","","","","","","",""
"","","","","ctl-task-cpt","54","955526","0.0-5.0-0.9","146","1","2025-07-23 06:31:38","1f75c3e559b7213887762d5229550c2b","41.145.194.131","Mozilla/5.0 (Windows NT 10.0; Win64; x64) AppleWebKit/537.36 (KHTML, like Gecko) Chrome/138.0.0.0 Safari/537.36","WebKit","Chrome","138.0.0.0","Windows","10.0","https://app.prolific.com/","en-ZA,en-GB;q=0.9,en-US;q=0.8,en;q=0.7","67f14975a8c12321ab2d0e61","683db9eb0562dbf637994deb","68808150e8b3f87ededef406","2","1","67f14975a8c12321ab2d0e61","2","1","2025-07-23T06:51:13.474Z","","","","","","","","","","","","","","win-only","0","g1:NW,g2:SE","0.4","10","0","929798","1031.8","6035.7","28376.3","1","4","8","6","2","8","8","8","0","0.06060606060606061","1280","3000","1455","[""down"",""right""]","{""num_key_presses"":6,""num_perfect"":3,""num_errors"":0,""num_randdir"":3,""num_randdir_good_moves"":3,""num_whilered"":0,""num_whileblue"":0,""num_blue"":2,""num_good_moves"":6}","[302.22232142857143,292.12857142857143,0.3,302.22232142857143,292.12857142857143,100,302.22232142857143,292.12857142857143,206.4,302.22232142857143,292.12857142857143,314.9,302.22232142857143,292.12857142857143,417.2,302.22232142857143,292.12857142857143,525.5,367.22232142857143,384.12857142857143,629.9,410.22232142857143,439.12857142857143,735.4,391.22232142857143,431.12857142857143,835.7,503.22232142857143,504.12857142857143,945.6,548.2223214285714,530.1285714285714,1050.9,548.2223214285714,530.1285714285714,1152.7,548.2223214285714,530.1285714285714,1263.1,548.2223214285714,530.1285714285714,1373.2,548.2223214285714,530.1285714285714,1483.7,548.2223214285714,530.1285714285714,1585.2,548.2223214285714,530.1285714285714,1685.5,548.2223214285714,530.1285714285714,1794.2,548.2223214285714,530.1285714285714,1903,548.2223214285714,530.1285714285714,2004,548.2223214285714,530.1285714285714,2104.5,548.2223214285714,530.1285714285714,2212,548.2223214285714,530.1285714285714,2317.9,548.2223214285714,530.1285714285714,2428.1,548.2223214285714,530.1285714285714,2534.2,548.2223214285714,530.1285714285714,2639.9,548.2223214285714,530.1285714285714,2744.5,548.2223214285714,530.1285714285714,2845.5,548.2223214285714,530.1285714285714,2952.4,548.2223214285714,530.1285714285714,3055.8,548.2223214285714,530.1285714285714,3159.8,548.2223214285714,530.1285714285714,3260.8,548.2223214285714,530.1285714285714,3367.6,548.2223214285714,530.1285714285714,3468.8,548.2223214285714,530.1285714285714,3578.9,548.2223214285714,530.1285714285714,3678.9,548.2223214285714,530.1285714285714,3783.5,548.2223214285714,530.1285714285714,3884.2,548.2223214285714,530.1285714285714,3984.7,548.2223214285714,530.1285714285714,4091,548.2223214285714,530.1285714285714,4193.3,548.2223214285714,530.1285714285714,4294.1,548.2223214285714,530.1285714285714,4399.3,548.2223214285714,530.1285714285714,4502.5,548.2223214285714,530.1285714285714,4610.1,548.2223214285714,530.1285714285714,4710.3,548.2223214285714,530.1285714285714,4815.9,548.2223214285714,530.1285714285714,4915.9]","[1387.6,1387.7,1000,0,387.7,""oops"",""right"",""down"",""good_move"",4735.2,3347.1,3017.4,1388.1,329.7,""oops"",""right"",""right"",""good_move"",13971.7,9235.9,2333.6,11247.1,391,""smooth"",""right"",""right"",""good_move"",17389.5,3417.2,3018.7,13972.3,398.5,""smooth"",""right"",""right"",""good_move"",19775.5,2385.7,2006.7,17389.8,379,""smooth"",""down"",""down"",""good_move"",22207.8,2431.6,2070.9,19776.2,360.7,""oops"",""down"",""down"",""good_move""]","",""
"3692","","<div style=""width:500px;"">
  <p>What determined the result of this run?</p>
  </div>","72","html-slider-response","55","959219","0.0-5.0-1.9","146","1","2025-07-23 06:31:38","1f75c3e559b7213887762d5229550c2b","41.145.194.131","Mozilla/5.0 (Windows NT 10.0; Win64; x64) AppleWebKit/537.36 (KHTML, like Gecko) Chrome/138.0.0.0 Safari/537.36","WebKit","Chrome","138.0.0.0","Windows","10.0","https://app.prolific.com/","en-ZA,en-GB;q=0.9,en-US;q=0.8,en;q=0.7","67f14975a8c12321ab2d0e61","683db9eb0562dbf637994deb","68808150e8b3f87ededef406","2","1","67f14975a8c12321ab2d0e61","2","1","2025-07-23T06:51:17.167Z","","","","","","","","","","","AttribQ","","50","","","","","","","","","","","","","","","","","","","","","","","","","","","","",""
"6881","","<div style=""width:500px;"">
  <p>How much control did you have over the ball?</p>
  </div>","67","html-slider-response","56","966102","0.0-5.0-2.9","146","1","2025-07-23 06:31:38","1f75c3e559b7213887762d5229550c2b","41.145.194.131","Mozilla/5.0 (Windows NT 10.0; Win64; x64) AppleWebKit/537.36 (KHTML, like Gecko) Chrome/138.0.0.0 Safari/537.36","WebKit","Chrome","138.0.0.0","Windows","10.0","https://app.prolific.com/","en-ZA,en-GB;q=0.9,en-US;q=0.8,en;q=0.7","67f14975a8c12321ab2d0e61","683db9eb0562dbf637994deb","68808150e8b3f87ededef406","2","1","67f14975a8c12321ab2d0e61","2","1","2025-07-23T06:51:24.050Z","","","","","","","","","","","ControlQ","","50","","","","","","","","","","","","","","","","","","","","","","","","","","","","",""
"3720","","<div style=""width:500px;"">
  <p>How would you describe your current emotional state?</p>
  </div>","25","html-slider-response","57","969824","0.0-5.0-3.9","146","1","2025-07-23 06:31:38","1f75c3e559b7213887762d5229550c2b","41.145.194.131","Mozilla/5.0 (Windows NT 10.0; Win64; x64) AppleWebKit/537.36 (KHTML, like Gecko) Chrome/138.0.0.0 Safari/537.36","WebKit","Chrome","138.0.0.0","Windows","10.0","https://app.prolific.com/","en-ZA,en-GB;q=0.9,en-US;q=0.8,en;q=0.7","67f14975a8c12321ab2d0e61","683db9eb0562dbf637994deb","68808150e8b3f87ededef406","2","1","67f14975a8c12321ab2d0e61","2","1","2025-07-23T06:51:27.772Z","","","","","","","","","","","StressQ","","50","","","","","","","","","","","","","","","","","","","","","","","","","","","","",""
"3868","","<div style=""width:500px;"">
  <p>What best describes how you currently feel?</p>
  </div>","100","html-slider-response","58","973693","0.0-5.0-4.9","146","1","2025-07-23 06:31:38","1f75c3e559b7213887762d5229550c2b","41.145.194.131","Mozilla/5.0 (Windows NT 10.0; Win64; x64) AppleWebKit/537.36 (KHTML, like Gecko) Chrome/138.0.0.0 Safari/537.36","WebKit","Chrome","138.0.0.0","Windows","10.0","https://app.prolific.com/","en-ZA,en-GB;q=0.9,en-US;q=0.8,en;q=0.7","67f14975a8c12321ab2d0e61","683db9eb0562dbf637994deb","68808150e8b3f87ededef406","2","1","67f14975a8c12321ab2d0e61","2","1","2025-07-23T06:51:31.641Z","","","","","","","","","","","MotivationQ","","50","","","","","","","","","","","","","","","","","","","","","","","","","","","","",""
"","","","","ctl-task-cpt","59","1009602","0.0-5.0-0.10","146","1","2025-07-23 06:31:38","1f75c3e559b7213887762d5229550c2b","41.145.194.131","Mozilla/5.0 (Windows NT 10.0; Win64; x64) AppleWebKit/537.36 (KHTML, like Gecko) Chrome/138.0.0.0 Safari/537.36","WebKit","Chrome","138.0.0.0","Windows","10.0","https://app.prolific.com/","en-ZA,en-GB;q=0.9,en-US;q=0.8,en;q=0.7","67f14975a8c12321ab2d0e61","683db9eb0562dbf637994deb","68808150e8b3f87ededef406","2","1","67f14975a8c12321ab2d0e61","2","1","2025-07-23T06:52:07.550Z","","","","","","","","","","","","","","win-only","3","g1:SW,g2:NE","0.5","11","0","979349.4","1152.1","6155.4","32890.3","1","4","4","6","2","4","4","12","8","0.09090909090909091","1298.8","3000","975","[""up"",""right""]","{""num_key_presses"":8,""num_perfect"":3,""num_errors"":0,""num_randdir"":5,""num_randdir_good_moves"":4,""num_whilered"":0,""num_whileblue"":0,""num_blue"":2,""num_good_moves"":7}","[291.22232142857143,298.12857142857143,0.2,291.22232142857143,298.12857142857143,101.8,291.22232142857143,298.12857142857143,202.7,291.22232142857143,298.12857142857143,304.6,291.22232142857143,298.12857142857143,412.6,279.22232142857143,308.12857142857143,514.7,283.22232142857143,312.12857142857143,616.5,429.22232142857143,199.12857142857143,716.9,467.22232142857143,133.12857142857143,818.4,476.22232142857143,120.12857142857143,924.6,521.2223214285714,79.12857142857143,1026.6,543.2223214285714,43.128571428571426,1137.5,543.2223214285714,43.128571428571426,1239.6,543.2223214285714,43.128571428571426,1366.4,543.2223214285714,43.128571428571426,1470.3,543.2223214285714,43.128571428571426,1570.5,543.2223214285714,43.128571428571426,1676.9,543.2223214285714,43.128571428571426,1787.2,543.2223214285714,43.128571428571426,1891.2,543.2223214285714,43.128571428571426,1998.2,543.2223214285714,43.128571428571426,2102.7,543.2223214285714,43.128571428571426,2204.4,543.2223214285714,43.128571428571426,2310.7,543.2223214285714,43.128571428571426,2419.7,543.2223214285714,43.128571428571426,2524.1,543.2223214285714,43.128571428571426,2625.5,543.2223214285714,43.128571428571426,2736.9,543.2223214285714,43.128571428571426,2840.4,543.2223214285714,43.128571428571426,2945.3,543.2223214285714,43.128571428571426,3049.8,543.2223214285714,43.128571428571426,3153.2,543.2223214285714,43.128571428571426,3254.4,543.2223214285714,43.128571428571426,3360.2,543.2223214285714,43.128571428571426,3460.3,543.2223214285714,43.128571428571426,3568.4,543.2223214285714,43.128571428571426,3673.3,543.2223214285714,43.128571428571426,3776.3,543.2223214285714,43.128571428571426,3883.1,543.2223214285714,43.128571428571426,3986.5,543.2223214285714,43.128571428571426,4093.3,543.2223214285714,43.128571428571426,4194,543.2223214285714,43.128571428571426,4304.1,543.2223214285714,43.128571428571426,4407.6,543.2223214285714,43.128571428571426,4510.3,543.2223214285714,43.128571428571426,4611.2,543.2223214285714,43.128571428571426,4715.7,543.2223214285714,43.128571428571426,4818.3,543.2223214285714,43.128571428571426,4919.7]","[1349,1349,1000,0,349,""oops"",""right"",""up"",""good_move"",3868.8,2519.3,2153.6,1349.5,365.7,""oops"",""right"",""right"",""good_move"",6865.3,2996,2640.7,3869.3,355.4,""oops"",""right"",""left"",""bad_move"",12338,5472.1,2002.8,9967.3,367.9,""oops"",""right"",""up"",""good_move"",15583.3,3244.9,2849.4,12338.4,395.5,""smooth"",""right"",""right"",""good_move"",18263.3,2679.6,2323.7,15583.8,355.9,""oops"",""right"",""up"",""good_move"",20551,2287.1,1931.3,18263.9,355.8,""smooth"",""right"",""right"",""good_move"",26607.5,6056.2,2128.3,24070.8,408.4,""smooth"",""right"",""right"",""good_move""]","",""
"15366","","<div style=""width:500px;"">
  <p>What determined the result of this run?</p>
  </div>","95","html-slider-response","60","1024969","0.0-5.0-1.10","146","1","2025-07-23 06:31:38","1f75c3e559b7213887762d5229550c2b","41.145.194.131","Mozilla/5.0 (Windows NT 10.0; Win64; x64) AppleWebKit/537.36 (KHTML, like Gecko) Chrome/138.0.0.0 Safari/537.36","WebKit","Chrome","138.0.0.0","Windows","10.0","https://app.prolific.com/","en-ZA,en-GB;q=0.9,en-US;q=0.8,en;q=0.7","67f14975a8c12321ab2d0e61","683db9eb0562dbf637994deb","68808150e8b3f87ededef406","2","1","67f14975a8c12321ab2d0e61","2","1","2025-07-23T06:52:22.917Z","","","","","","","","","","","AttribQ","","50","","","","","","","","","","","","","","","","","","","","","","","","","","","","",""
"4324","","<div style=""width:500px;"">
  <p>How much control did you have over the ball?</p>
  </div>","61","html-slider-response","61","1029295","0.0-5.0-2.10","146","1","2025-07-23 06:31:38","1f75c3e559b7213887762d5229550c2b","41.145.194.131","Mozilla/5.0 (Windows NT 10.0; Win64; x64) AppleWebKit/537.36 (KHTML, like Gecko) Chrome/138.0.0.0 Safari/537.36","WebKit","Chrome","138.0.0.0","Windows","10.0","https://app.prolific.com/","en-ZA,en-GB;q=0.9,en-US;q=0.8,en;q=0.7","67f14975a8c12321ab2d0e61","683db9eb0562dbf637994deb","68808150e8b3f87ededef406","2","1","67f14975a8c12321ab2d0e61","2","1","2025-07-23T06:52:27.243Z","","","","","","","","","","","ControlQ","","50","","","","","","","","","","","","","","","","","","","","","","","","","","","","",""
"4628","","<div style=""width:500px;"">
  <p>How would you describe your current emotional state?</p>
  </div>","24","html-slider-response","62","1033925","0.0-5.0-3.10","146","1","2025-07-23 06:31:38","1f75c3e559b7213887762d5229550c2b","41.145.194.131","Mozilla/5.0 (Windows NT 10.0; Win64; x64) AppleWebKit/537.36 (KHTML, like Gecko) Chrome/138.0.0.0 Safari/537.36","WebKit","Chrome","138.0.0.0","Windows","10.0","https://app.prolific.com/","en-ZA,en-GB;q=0.9,en-US;q=0.8,en;q=0.7","67f14975a8c12321ab2d0e61","683db9eb0562dbf637994deb","68808150e8b3f87ededef406","2","1","67f14975a8c12321ab2d0e61","2","1","2025-07-23T06:52:31.873Z","","","","","","","","","","","StressQ","","50","","","","","","","","","","","","","","","","","","","","","","","","","","","","",""
"6090","","<div style=""width:500px;"">
  <p>What best describes how you currently feel?</p>
  </div>","72","html-slider-response","63","1040016","0.0-5.0-4.10","146","1","2025-07-23 06:31:38","1f75c3e559b7213887762d5229550c2b","41.145.194.131","Mozilla/5.0 (Windows NT 10.0; Win64; x64) AppleWebKit/537.36 (KHTML, like Gecko) Chrome/138.0.0.0 Safari/537.36","WebKit","Chrome","138.0.0.0","Windows","10.0","https://app.prolific.com/","en-ZA,en-GB;q=0.9,en-US;q=0.8,en;q=0.7","67f14975a8c12321ab2d0e61","683db9eb0562dbf637994deb","68808150e8b3f87ededef406","2","1","67f14975a8c12321ab2d0e61","2","1","2025-07-23T06:52:37.964Z","","","","","","","","","","","MotivationQ","","50","","","","","","","","","","","","","","","","","","","","","","","","","","","","",""
"","","","","ctl-task-cpt","64","1089799","0.0-5.0-0.11","146","1","2025-07-23 06:31:38","1f75c3e559b7213887762d5229550c2b","41.145.194.131","Mozilla/5.0 (Windows NT 10.0; Win64; x64) AppleWebKit/537.36 (KHTML, like Gecko) Chrome/138.0.0.0 Safari/537.36","WebKit","Chrome","138.0.0.0","Windows","10.0","https://app.prolific.com/","en-ZA,en-GB;q=0.9,en-US;q=0.8,en;q=0.7","67f14975a8c12321ab2d0e61","683db9eb0562dbf637994deb","68808150e8b3f87ededef406","2","1","67f14975a8c12321ab2d0e61","2","1","2025-07-23T06:53:27.747Z","","","","","","","","","","","","","","win-only","0","g1:NW,g2:SE","0.6","12","0","1045671.7","11671.6","16678.8","46759.3","1","4","8","6","2","8","7","19","12","0.14393939393939395","1002.9","3000","855","[""down"",""right""]","{""num_key_presses"":9,""num_perfect"":5,""num_errors"":1,""num_randdir"":3,""num_randdir_good_moves"":2,""num_whilered"":0,""num_whileblue"":0,""num_blue"":2,""num_good_moves"":7}","[296.22232142857143,294.12857142857143,0.4,296.22232142857143,294.12857142857143,101.9,296.22232142857143,294.12857142857143,203.6,296.22232142857143,294.12857142857143,306.1,296.22232142857143,294.12857142857143,413.2,440.22232142857143,432.12857142857143,523.6,506.22232142857143,513.1285714285714,631.7,524.2223214285714,521.1285714285714,734.6,526.2223214285714,522.1285714285714,841.9,526.2223214285714,522.1285714285714,945.6,526.2223214285714,522.1285714285714,1046.1,526.2223214285714,522.1285714285714,1147.3,526.2223214285714,522.1285714285714,1249.1,526.2223214285714,522.1285714285714,1351.1,526.2223214285714,522.1285714285714,1451.6,526.2223214285714,522.1285714285714,1557.1,526.2223214285714,522.1285714285714,1657.5,526.2223214285714,522.1285714285714,1760.8,526.2223214285714,522.1285714285714,1861.1,526.2223214285714,522.1285714285714,1962.8,526.2223214285714,522.1285714285714,2064.5,526.2223214285714,522.1285714285714,2165,526.2223214285714,522.1285714285714,2272.2,526.2223214285714,522.1285714285714,2372.5,526.2223214285714,522.1285714285714,2472.9,526.2223214285714,522.1285714285714,2576.2,526.2223214285714,522.1285714285714,2685.9,526.2223214285714,522.1285714285714,2788,526.2223214285714,522.1285714285714,2889.8,526.2223214285714,522.1285714285714,2995.2,526.2223214285714,522.1285714285714,3095.5,526.2223214285714,522.1285714285714,3202.6,526.2223214285714,522.1285714285714,3304.8,526.2223214285714,522.1285714285714,3406.9,526.2223214285714,522.1285714285714,3507.2,526.2223214285714,522.1285714285714,3613.8,526.2223214285714,522.1285714285714,3714.1,526.2223214285714,522.1285714285714,3814.3,526.2223214285714,522.1285714285714,3914.5,526.2223214285714,522.1285714285714,4022.7,526.2223214285714,522.1285714285714,4125.1,526.2223214285714,522.1285714285714,4230.4,526.2223214285714,522.1285714285714,4339.7,526.2223214285714,522.1285714285714,4448.5,526.2223214285714,522.1285714285714,4555.3,526.2223214285714,522.1285714285714,4657.3,526.2223214285714,522.1285714285714,4759,526.2223214285714,522.1285714285714,4864.9,526.2223214285714,522.1285714285714,4972.8]","[349.2,349.2,1000,0,-650.8,""error"",""-"",""-"",""no_move"",7208.2,6858.7,2230.1,4522.8,455.3,""smooth"",""right"",""right"",""good_move"",10746,3537.3,3185.6,7208.7,351.7,""oops"",""right"",""left"",""bad_move"",12758.3,2011,1543.8,10747.3,467.2,""oops"",""right"",""right"",""good_move"",15347.3,2588.6,2211.9,12758.7,376.7,""smooth"",""right"",""right"",""good_move"",18231.5,2883.8,2580.7,15347.7,303.1,""smooth"",""down"",""down"",""good_move"",24699.4,6467.4,2896.6,21476.7,326.1,""smooth"",""down"",""down"",""good_move"",27675.4,2975.7,2553.9,24699.7,421.8,""oops"",""down"",""down"",""good_move"",29946.5,2270.9,1857.4,27675.6,413.5,""smooth"",""right"",""right"",""good_move""]","",""
"4285","","<div style=""width:500px;"">
  <p>What determined the result of this run?</p>
  </div>","81","html-slider-response","65","1094086","0.0-5.0-1.11","146","1","2025-07-23 06:31:38","1f75c3e559b7213887762d5229550c2b","41.145.194.131","Mozilla/5.0 (Windows NT 10.0; Win64; x64) AppleWebKit/537.36 (KHTML, like Gecko) Chrome/138.0.0.0 Safari/537.36","WebKit","Chrome","138.0.0.0","Windows","10.0","https://app.prolific.com/","en-ZA,en-GB;q=0.9,en-US;q=0.8,en;q=0.7","67f14975a8c12321ab2d0e61","683db9eb0562dbf637994deb","68808150e8b3f87ededef406","2","1","67f14975a8c12321ab2d0e61","2","1","2025-07-23T06:53:32.034Z","","","","","","","","","","","AttribQ","","50","","","","","","","","","","","","","","","","","","","","","","","","","","","","",""
"4080","","<div style=""width:500px;"">
  <p>How much control did you have over the ball?</p>
  </div>","85","html-slider-response","66","1098167","0.0-5.0-2.11","146","1","2025-07-23 06:31:38","1f75c3e559b7213887762d5229550c2b","41.145.194.131","Mozilla/5.0 (Windows NT 10.0; Win64; x64) AppleWebKit/537.36 (KHTML, like Gecko) Chrome/138.0.0.0 Safari/537.36","WebKit","Chrome","138.0.0.0","Windows","10.0","https://app.prolific.com/","en-ZA,en-GB;q=0.9,en-US;q=0.8,en;q=0.7","67f14975a8c12321ab2d0e61","683db9eb0562dbf637994deb","68808150e8b3f87ededef406","2","1","67f14975a8c12321ab2d0e61","2","1","2025-07-23T06:53:36.115Z","","","","","","","","","","","ControlQ","","50","","","","","","","","","","","","","","","","","","","","","","","","","","","","",""
"3959","","<div style=""width:500px;"">
  <p>How would you describe your current emotional state?</p>
  </div>","26","html-slider-response","67","1102127","0.0-5.0-3.11","146","1","2025-07-23 06:31:38","1f75c3e559b7213887762d5229550c2b","41.145.194.131","Mozilla/5.0 (Windows NT 10.0; Win64; x64) AppleWebKit/537.36 (KHTML, like Gecko) Chrome/138.0.0.0 Safari/537.36","WebKit","Chrome","138.0.0.0","Windows","10.0","https://app.prolific.com/","en-ZA,en-GB;q=0.9,en-US;q=0.8,en;q=0.7","67f14975a8c12321ab2d0e61","683db9eb0562dbf637994deb","68808150e8b3f87ededef406","2","1","67f14975a8c12321ab2d0e61","2","1","2025-07-23T06:53:40.075Z","","","","","","","","","","","StressQ","","50","","","","","","","","","","","","","","","","","","","","","","","","","","","","",""
"5113","","<div style=""width:500px;"">
  <p>What best describes how you currently feel?</p>
  </div>","67","html-slider-response","68","1107242","0.0-5.0-4.11","146","1","2025-07-23 06:31:38","1f75c3e559b7213887762d5229550c2b","41.145.194.131","Mozilla/5.0 (Windows NT 10.0; Win64; x64) AppleWebKit/537.36 (KHTML, like Gecko) Chrome/138.0.0.0 Safari/537.36","WebKit","Chrome","138.0.0.0","Windows","10.0","https://app.prolific.com/","en-ZA,en-GB;q=0.9,en-US;q=0.8,en;q=0.7","67f14975a8c12321ab2d0e61","683db9eb0562dbf637994deb","68808150e8b3f87ededef406","2","1","67f14975a8c12321ab2d0e61","2","1","2025-07-23T06:53:45.190Z","","","","","","","","","","","MotivationQ","","50","","","","","","","","","","","","","","","","","","","","","","","","","","","","",""
"","","","","ctl-task-cpt","69","1134080","0.0-5.0-0.12","146","1","2025-07-23 06:31:38","1f75c3e559b7213887762d5229550c2b","41.145.194.131","Mozilla/5.0 (Windows NT 10.0; Win64; x64) AppleWebKit/537.36 (KHTML, like Gecko) Chrome/138.0.0.0 Safari/537.36","WebKit","Chrome","138.0.0.0","Windows","10.0","https://app.prolific.com/","en-ZA,en-GB;q=0.9,en-US;q=0.8,en;q=0.7","67f14975a8c12321ab2d0e61","683db9eb0562dbf637994deb","68808150e8b3f87ededef406","2","1","67f14975a8c12321ab2d0e61","2","1","2025-07-23T06:54:12.028Z","","","","","","","","","","","","","","win-only","3","g1:SW,g2:NE","0.7","13","0","1112898.3","1396.4","6400.9","23822.4","1","4","4","6","2","4","4","23","19","0.17424242424242425","1088","3000","1645","[""up"",""right""]","{""num_key_presses"":6,""num_perfect"":5,""num_errors"":0,""num_randdir"":1,""num_randdir_good_moves"":1,""num_whilered"":0,""num_whileblue"":0,""num_blue"":0,""num_good_moves"":6}","[299.22232142857143,294.12857142857143,0.4,299.22232142857143,294.12857142857143,110.3,299.22232142857143,294.12857142857143,210.7,299.22232142857143,294.12857142857143,320.4,299.22232142857143,294.12857142857143,426.7,349.22232142857143,240.12857142857143,528.9,414.22232142857143,193.12857142857143,636.3,506.22232142857143,93.12857142857143,742,549.2223214285714,46.128571428571426,847.9,548.2223214285714,46.128571428571426,951.4,548.2223214285714,46.128571428571426,1060.6,548.2223214285714,46.128571428571426,1161,548.2223214285714,46.128571428571426,1271.8,548.2223214285714,46.128571428571426,1376.1,548.2223214285714,46.128571428571426,1489,548.2223214285714,46.128571428571426,1592.7,548.2223214285714,46.128571428571426,1693,548.2223214285714,46.128571428571426,1794.7,548.2223214285714,46.128571428571426,1902.5,548.2223214285714,46.128571428571426,2005.3,548.2223214285714,46.128571428571426,2111.5,548.2223214285714,46.128571428571426,2219.4,548.2223214285714,46.128571428571426,2319.7,548.2223214285714,46.128571428571426,2420.2,548.2223214285714,46.128571428571426,2521.2,548.2223214285714,46.128571428571426,2621.2,548.2223214285714,46.128571428571426,2726.3,548.2223214285714,46.128571428571426,2838.2,548.2223214285714,46.128571428571426,2940,548.2223214285714,46.128571428571426,3040.9,548.2223214285714,46.128571428571426,3152.7,548.2223214285714,46.128571428571426,3258,548.2223214285714,46.128571428571426,3359.2,548.2223214285714,46.128571428571426,3461.3,548.2223214285714,46.128571428571426,3565.6,548.2223214285714,46.128571428571426,3671.1,548.2223214285714,46.128571428571426,3779.2,548.2223214285714,46.128571428571426,3885.5,548.2223214285714,46.128571428571426,3992.8,548.2223214285714,46.128571428571426,4099.4,548.2223214285714,46.128571428571426,4203.9,548.2223214285714,46.128571428571426,4305.7,548.2223214285714,46.128571428571426,4409.8,548.2223214285714,46.128571428571426,4510.4,548.2223214285714,46.128571428571426,4610.8,548.2223214285714,46.128571428571426,4719.8,548.2223214285714,46.128571428571426,4827.5,548.2223214285714,46.128571428571426,4927.7]","[1398.4,1398.4,1000,0,398.4,""smooth"",""right"",""right"",""good_move"",4271.9,2873,2511.4,1398.9,361.6,""smooth"",""right"",""right"",""good_move"",7421.4,3149.2,2817.8,4272.2,331.4,""smooth"",""up"",""up"",""good_move"",10694.9,3273.1,2909.2,7421.8,363.9,""smooth"",""up"",""up"",""good_move"",13935.1,3239.6,2882.6,10695.5,357,""smooth"",""up"",""up"",""good_move"",17294.1,3358.6,3025.3,13935.5,333.3,""oops"",""right"",""right"",""good_move""]","",""
"4147","","<div style=""width:500px;"">
  <p>What determined the result of this run?</p>
  </div>","88","html-slider-response","70","1138229","0.0-5.0-1.12","146","1","2025-07-23 06:31:38","1f75c3e559b7213887762d5229550c2b","41.145.194.131","Mozilla/5.0 (Windows NT 10.0; Win64; x64) AppleWebKit/537.36 (KHTML, like Gecko) Chrome/138.0.0.0 Safari/537.36","WebKit","Chrome","138.0.0.0","Windows","10.0","https://app.prolific.com/","en-ZA,en-GB;q=0.9,en-US;q=0.8,en;q=0.7","67f14975a8c12321ab2d0e61","683db9eb0562dbf637994deb","68808150e8b3f87ededef406","2","1","67f14975a8c12321ab2d0e61","2","1","2025-07-23T06:54:16.177Z","","","","","","","","","","","AttribQ","","50","","","","","","","","","","","","","","","","","","","","","","","","","","","","",""
"4043","","<div style=""width:500px;"">
  <p>How much control did you have over the ball?</p>
  </div>","93","html-slider-response","71","1142273","0.0-5.0-2.12","146","1","2025-07-23 06:31:38","1f75c3e559b7213887762d5229550c2b","41.145.194.131","Mozilla/5.0 (Windows NT 10.0; Win64; x64) AppleWebKit/537.36 (KHTML, like Gecko) Chrome/138.0.0.0 Safari/537.36","WebKit","Chrome","138.0.0.0","Windows","10.0","https://app.prolific.com/","en-ZA,en-GB;q=0.9,en-US;q=0.8,en;q=0.7","67f14975a8c12321ab2d0e61","683db9eb0562dbf637994deb","68808150e8b3f87ededef406","2","1","67f14975a8c12321ab2d0e61","2","1","2025-07-23T06:54:20.222Z","","","","","","","","","","","ControlQ","","50","","","","","","","","","","","","","","","","","","","","","","","","","","","","",""
"4555","","<div style=""width:500px;"">
  <p>How would you describe your current emotional state?</p>
  </div>","13","html-slider-response","72","1146830","0.0-5.0-3.12","146","1","2025-07-23 06:31:38","1f75c3e559b7213887762d5229550c2b","41.145.194.131","Mozilla/5.0 (Windows NT 10.0; Win64; x64) AppleWebKit/537.36 (KHTML, like Gecko) Chrome/138.0.0.0 Safari/537.36","WebKit","Chrome","138.0.0.0","Windows","10.0","https://app.prolific.com/","en-ZA,en-GB;q=0.9,en-US;q=0.8,en;q=0.7","67f14975a8c12321ab2d0e61","683db9eb0562dbf637994deb","68808150e8b3f87ededef406","2","1","67f14975a8c12321ab2d0e61","2","1","2025-07-23T06:54:24.778Z","","","","","","","","","","","StressQ","","50","","","","","","","","","","","","","","","","","","","","","","","","","","","","",""
"4379","","<div style=""width:500px;"">
  <p>What best describes how you currently feel?</p>
  </div>","82","html-slider-response","73","1151211","0.0-5.0-4.12","146","1","2025-07-23 06:31:38","1f75c3e559b7213887762d5229550c2b","41.145.194.131","Mozilla/5.0 (Windows NT 10.0; Win64; x64) AppleWebKit/537.36 (KHTML, like Gecko) Chrome/138.0.0.0 Safari/537.36","WebKit","Chrome","138.0.0.0","Windows","10.0","https://app.prolific.com/","en-ZA,en-GB;q=0.9,en-US;q=0.8,en;q=0.7","67f14975a8c12321ab2d0e61","683db9eb0562dbf637994deb","68808150e8b3f87ededef406","2","1","67f14975a8c12321ab2d0e61","2","1","2025-07-23T06:54:29.159Z","","","","","","","","","","","MotivationQ","","50","","","","","","","","","","","","","","","","","","","","","","","","","","","","",""
