"rt","response_timestamp","stimulus","response","trial_type","trial_index","time_elapsed","internal_node_id","run_id","condition","recorded_at","source_code_version","ip","user_agent","device","browser","browser_version","platform","platform_version","referer","accept_language","PROLIFIC_PID","STUDY_ID","SESSION_ID","WEEK","BATCH","prolific_id","week","batch","realtime","success","responses","item_order","radio_event_ids","radio_event_times","key_event_times","mouse_event_times","straightlining","zigzagging","honeypot","eventType","view_history","slider_start","which_type","canvas_config","goals_layout","control_level","trial_number","tutorial_trial_number","trial_start_time","phase1_start_time","phase2_start_time","phase3_start_time","goal_1_value","goal_1_distance","goal_2_value","goal_2_distance","goal_selected","outcome","outcome_total","participant_final_score","participant_initial_score","participant_final_score_prop","goal_choice_rt","allocated_time","allocated_time_remaining","goal_direction","counts","mouse_movements","key_presses","question_order","question_id"
"4758","1753255617178","<p style='font-size:40px;line-height:1.25'><strong>Welcome to the experiment!</strong></p><p style='font-size:1.1em;line-height:1.25'>Thank you for participanting in our experiment again! You will be asked to play the Dysfunctional Ball Game again. We will briefly recap the rules before we start.</p><p style='font-size:1.1em;line-height:1.25'>Press <strong>Next</strong> to continue.</p>","0","custom-html-button-response","0","4764","0.0-0.0","173","1","2025-07-23 07:26:50","1f75c3e559b7213887762d5229550c2b","41.116.96.121","Mozilla/5.0 (Windows NT 10.0; Win64; x64) AppleWebKit/537.36 (KHTML, like Gecko) Chrome/138.0.0.0 Safari/537.36","WebKit","Chrome","138.0.0.0","Windows","10.0","https://app.prolific.com/","en-ZA,en-GB;q=0.9,en-US;q=0.8,en;q=0.7","653a6a7224e6c0bfb644ff9b","683dba2a8a9dda3513610c04","68808eadd61b5cde2371ccea","3","0","653a6a7224e6c0bfb644ff9b","3","0","2025-07-23T07:26:57.181Z","","","","","","","","","","","","","","","","","","","","","","","","","","","","","","","","","","","","","","","","","",""
"12704","","","","fullscreen","1","18494","0.0-1.0","173","1","2025-07-23 07:26:50","1f75c3e559b7213887762d5229550c2b","41.116.96.121","Mozilla/5.0 (Windows NT 10.0; Win64; x64) AppleWebKit/537.36 (KHTML, like Gecko) Chrome/138.0.0.0 Safari/537.36","WebKit","Chrome","138.0.0.0","Windows","10.0","https://app.prolific.com/","en-ZA,en-GB;q=0.9,en-US;q=0.8,en;q=0.7","653a6a7224e6c0bfb644ff9b","683dba2a8a9dda3513610c04","68808eadd61b5cde2371ccea","3","0","653a6a7224e6c0bfb644ff9b","3","0","","true","","","","","","","","","","","","","","","","","","","","","","","","","","","","","","","","","","","","","","","","",""
"3487","1753255634399","<p style='font-size:1.1em;line-height:1.25'>In the following, we will ask you a few questions relating to your feelings in the last 24 hours.<br></p><p style='font-size:1.1em;line-height:1.25'>Press the <strong>Next</strong> button to continue.</p>","0","custom-html-button-response","2","21983","0.0-2.0-0.0","173","1","2025-07-23 07:26:50","1f75c3e559b7213887762d5229550c2b","41.116.96.121","Mozilla/5.0 (Windows NT 10.0; Win64; x64) AppleWebKit/537.36 (KHTML, like Gecko) Chrome/138.0.0.0 Safari/537.36","WebKit","Chrome","138.0.0.0","Windows","10.0","https://app.prolific.com/","en-ZA,en-GB;q=0.9,en-US;q=0.8,en;q=0.7","653a6a7224e6c0bfb644ff9b","683dba2a8a9dda3513610c04","68808eadd61b5cde2371ccea","3","0","653a6a7224e6c0bfb644ff9b","3","0","2025-07-23T07:27:14.399Z","","","","","","","","","","","","","","","","","","","","","","","","","","","","","","","","","","","","","","","","","",""
"80233.5","","","","survey-template","3","102229","0.0-2.0-1.0","173","1","2025-07-23 07:26:50","1f75c3e559b7213887762d5229550c2b","41.116.96.121","Mozilla/5.0 (Windows NT 10.0; Win64; x64) AppleWebKit/537.36 (KHTML, like Gecko) Chrome/138.0.0.0 Safari/537.36","WebKit","Chrome","138.0.0.0","Windows","10.0","https://app.prolific.com/","en-ZA,en-GB;q=0.9,en-US;q=0.8,en;q=0.7","653a6a7224e6c0bfb644ff9b","683dba2a8a9dda3513610c04","68808eadd61b5cde2371ccea","3","0","653a6a7224e6c0bfb644ff9b","3","0","2025-07-23T07:28:34.645Z","","{""Q01"":""4"",""Q02"":""3"",""Q03"":""4"",""Q04"":""4"",""Q05"":""4"",""Q06"":""4"",""Q07"":""4"",""Q08"":""4"",""Q09"":""4"",""Q10"":""3"",""Q11"":""3"",""Q12"":""3"",""Q13"":""5"",""Q14"":""3"",""Q15"":""3"",""Q16"":""3"",""Q17"":""4"",""Q18"":""0"",""Q19"":""5"",""Q20"":""4"",""Q21"":""4"",""Q22"":""4""}","[0,1,2,3,4,5,6,7,8,9,10,11,12,13,14,15,16,17,18,19,20,21]","[""Q01"",""Q02"",""Q03"",""Q04"",""Q05"",""Q06"",""Q07"",""Q08"",""Q09"",""Q10"",""Q11"",""Q12"",""Q13"",""Q14"",""Q15"",""Q16"",""Q17"",""Q18"",""Q19"",""Q20"",""Q21"",""Q21"",""Q20"",""Q22""]","[6061,8040.899999976158,11512.100000023842,13493.700000047684,16019.899999976158,18464.5,21367,22409.899999976158,29662,31814.700000047684,34154.5,37131.89999997616,40575,45990.5,48726.60000002384,54044,55941.89999997616,57726.89999997616,59887,65698.89999997616,69359.20000004768,70605,73296.70000004768,77991.60000002384]","[]","[0.20000004768371582,6061,8040.899999976158,11512.100000023842,13493.700000047684,16019.899999976158,18464.5,19702.200000047684,21367,22409.899999976158,29662,31814.700000047684,34154.5,36314.700000047684,37131.89999997616,40575,45990.5,48726.60000002384,53031.89999997616,54044,55941.89999997616,57726.89999997616,59887,65698.89999997616,69359.20000004768,70605,72390.29999995232,73296.70000004768,77991.60000002384,80226.89999997616]","0.5454545454545454","0.2857142857142857","0","drsp","","","","","","","","","","","","","","","","","","","","","","","","","","","","","","",""
"16138.100000023842","","","","survey-template","4","118373","0.0-2.0-2.0","173","1","2025-07-23 07:26:50","1f75c3e559b7213887762d5229550c2b","41.116.96.121","Mozilla/5.0 (Windows NT 10.0; Win64; x64) AppleWebKit/537.36 (KHTML, like Gecko) Chrome/138.0.0.0 Safari/537.36","WebKit","Chrome","138.0.0.0","Windows","10.0","https://app.prolific.com/","en-ZA,en-GB;q=0.9,en-US;q=0.8,en;q=0.7","653a6a7224e6c0bfb644ff9b","683dba2a8a9dda3513610c04","68808eadd61b5cde2371ccea","3","0","653a6a7224e6c0bfb644ff9b","3","0","2025-07-23T07:28:50.789Z","","{""Q01"":""4"",""Q02"":""3"",""Q03"":""5""}","[0,1,2]","[""Q01"",""Q02"",""Q03""]","[3147.2999999523163,10235.600000023842,14194.899999976158]","[]","[3147.2999999523163,10235.600000023842,14194.899999976158,16137]","0.3333333333333333","0","0","stress","","","","","","","","","","","","","","","","","","","","","","","","","","","","","","",""
"29931","","","","instructions","5","148306","0.0-3.0-0.0","173","1","2025-07-23 07:26:50","1f75c3e559b7213887762d5229550c2b","41.116.96.121","Mozilla/5.0 (Windows NT 10.0; Win64; x64) AppleWebKit/537.36 (KHTML, like Gecko) Chrome/138.0.0.0 Safari/537.36","WebKit","Chrome","138.0.0.0","Windows","10.0","https://app.prolific.com/","en-ZA,en-GB;q=0.9,en-US;q=0.8,en;q=0.7","653a6a7224e6c0bfb644ff9b","683dba2a8a9dda3513610c04","68808eadd61b5cde2371ccea","3","0","653a6a7224e6c0bfb644ff9b","3","0","","","","","","","","","","","","","[{""page_index"":0,""viewing_time"":29930}]","","","","","","","","","","","","","","","","","","","","","","","","","","","","","",""
"3403","","<p>Before you start with this game please answer the following three questions yourself. </p>
  <p>Through this game, we measure several aspects of your cognitive performance, such as reaction times, multi-tasking capabilities </p>
  <p>and the ability to assess the situation you are in.</p>
  <p></p>
  <p><b>How good do you usually are in such tasks?</b></p>","58","html-slider-response","6","151730","0.0-4.0-0.0","173","1","2025-07-23 07:26:50","1f75c3e559b7213887762d5229550c2b","41.116.96.121","Mozilla/5.0 (Windows NT 10.0; Win64; x64) AppleWebKit/537.36 (KHTML, like Gecko) Chrome/138.0.0.0 Safari/537.36","WebKit","Chrome","138.0.0.0","Windows","10.0","https://app.prolific.com/","en-ZA,en-GB;q=0.9,en-US;q=0.8,en;q=0.7","653a6a7224e6c0bfb644ff9b","683dba2a8a9dda3513610c04","68808eadd61b5cde2371ccea","3","0","653a6a7224e6c0bfb644ff9b","3","0","2025-07-23T07:29:24.146Z","","","","","","","","","","","PreSkillQ","","50","","","","","","","","","","","","","","","","","","","","","","","","","","","","",""
"3231","","<div style=""width:500px;"">
  <p>How well do you think you will perform in this task compared to other participants?</p>
  </div>","60","html-slider-response","7","154964","0.0-4.0-1.0","173","1","2025-07-23 07:26:50","1f75c3e559b7213887762d5229550c2b","41.116.96.121","Mozilla/5.0 (Windows NT 10.0; Win64; x64) AppleWebKit/537.36 (KHTML, like Gecko) Chrome/138.0.0.0 Safari/537.36","WebKit","Chrome","138.0.0.0","Windows","10.0","https://app.prolific.com/","en-ZA,en-GB;q=0.9,en-US;q=0.8,en;q=0.7","653a6a7224e6c0bfb644ff9b","683dba2a8a9dda3513610c04","68808eadd61b5cde2371ccea","3","0","653a6a7224e6c0bfb644ff9b","3","0","2025-07-23T07:29:27.380Z","","","","","","","","","","","PrePerfQ","","50","","","","","","","","","","","","","","","","","","","","","","","","","","","","",""
"4138","","<div style=""width:500px;"">
  <p>What best describes how you currently feel?</p>
  </div>","11","html-slider-response","8","159104","0.0-4.0-2.0","173","1","2025-07-23 07:26:50","1f75c3e559b7213887762d5229550c2b","41.116.96.121","Mozilla/5.0 (Windows NT 10.0; Win64; x64) AppleWebKit/537.36 (KHTML, like Gecko) Chrome/138.0.0.0 Safari/537.36","WebKit","Chrome","138.0.0.0","Windows","10.0","https://app.prolific.com/","en-ZA,en-GB;q=0.9,en-US;q=0.8,en;q=0.7","653a6a7224e6c0bfb644ff9b","683dba2a8a9dda3513610c04","68808eadd61b5cde2371ccea","3","0","653a6a7224e6c0bfb644ff9b","3","0","2025-07-23T07:29:31.520Z","","","","","","","","","","","PreMotivationQ","","50","","","","","","","","","","","","","","","","","","","","","","","","","","","","",""
"","","","","ctl-task-cpt","9","191357","0.0-5.0-0.0","173","1","2025-07-23 07:26:50","1f75c3e559b7213887762d5229550c2b","41.116.96.121","Mozilla/5.0 (Windows NT 10.0; Win64; x64) AppleWebKit/537.36 (KHTML, like Gecko) Chrome/138.0.0.0 Safari/537.36","WebKit","Chrome","138.0.0.0","Windows","10.0","https://app.prolific.com/","en-ZA,en-GB;q=0.9,en-US;q=0.8,en;q=0.7","653a6a7224e6c0bfb644ff9b","683dba2a8a9dda3513610c04","68808eadd61b5cde2371ccea","3","0","653a6a7224e6c0bfb644ff9b","3","0","2025-07-23T07:30:03.773Z","","","","","","","","","","","","","","win-only","0","g1:NW,g2:SE","1","1","0","162247.5","2738.6","7742.9","29222.3","1","4","8","6","2","8","8","8","0","0.06060606060606061","1159.1","3000","1090","[""down"",""right""]","{""num_key_presses"":6,""num_perfect"":6,""num_errors"":0,""num_randdir"":0,""num_randdir_good_moves"":0,""num_whilered"":0,""num_whileblue"":0,""num_blue"":1,""num_good_moves"":6}","[294.22232142857143,299.12857142857143,16,294.22232142857143,299.12857142857143,103.9,294.22232142857143,299.12857142857143,213.6,294.22232142857143,299.12857142857143,316,215.22232142857143,286.12857142857143,417.5,233.22232142857143,323.12857142857143,518.5,733.2223214285714,683.1285714285714,619.2,732.2223214285714,672.1285714285714,723.7,708.2223214285714,643.1285714285714,828.3,621.2223214285714,591.1285714285714,942.4,549.2223214285714,550.1285714285714,1047,541.2223214285714,544.1285714285714,1148,541.2223214285714,544.1285714285714,1249,541.2223214285714,544.1285714285714,1353.9,541.2223214285714,544.1285714285714,1466.2,546.2223214285714,550.1285714285714,1568.6,547.2223214285714,560.1285714285714,1669.2,548.2223214285714,564.1285714285714,1770.4,551.2223214285714,566.1285714285714,1877.7,552.2223214285714,566.1285714285714,1983.7,552.2223214285714,566.1285714285714,2085.3,552.2223214285714,566.1285714285714,2185.4,552.2223214285714,566.1285714285714,2290.5,552.2223214285714,566.1285714285714,2396.6,552.2223214285714,566.1285714285714,2499.3,552.2223214285714,566.1285714285714,2600.5,552.2223214285714,566.1285714285714,2710.4,552.2223214285714,566.1285714285714,2814,552.2223214285714,566.1285714285714,2914,552.2223214285714,566.1285714285714,3015.7,552.2223214285714,566.1285714285714,3123.2,552.2223214285714,566.1285714285714,3230.5,552.2223214285714,566.1285714285714,3333.6,552.2223214285714,566.1285714285714,3441.2,552.2223214285714,566.1285714285714,3544.2,552.2223214285714,566.1285714285714,3647.9,552.2223214285714,566.1285714285714,3749,552.2223214285714,566.1285714285714,3859,552.2223214285714,566.1285714285714,3964.8,552.2223214285714,566.1285714285714,4064.9,552.2223214285714,566.1285714285714,4165.7,552.2223214285714,566.1285714285714,4271.9,552.2223214285714,566.1285714285714,4379.4,552.2223214285714,566.1285714285714,4482.9,552.2223214285714,566.1285714285714,4582.9,552.2223214285714,566.1285714285714,4684.5,552.2223214285714,566.1285714285714,4790.2,552.2223214285714,566.1285714285714,4893.5,552.2223214285714,566.1285714285714,4996.1]","[1588.9,1588.9,1000,0,588.9,""smooth"",""down"",""down"",""good_move"",5090.6,3500.7,2886.3,1590,614.3,""smooth"",""right"",""right"",""good_move"",8173.6,3079.3,2641.7,5094.3,437.6,""smooth"",""down"",""down"",""good_move"",11005.9,2830.1,2393.8,8175.8,436.3,""smooth"",""right"",""right"",""good_move"",14449.6,3443.5,3046.3,11006.2,397.2,""smooth"",""right"",""right"",""good_move"",21337.7,6887.8,2561.9,18246.3,529.6,""smooth"",""down"",""down"",""good_move""]","",""
"4083","","<div style=""width:500px;"">
  <p>What determined the result of this run?</p>
  </div>","85","html-slider-response","10","195443","0.0-5.0-1.0","173","1","2025-07-23 07:26:50","1f75c3e559b7213887762d5229550c2b","41.116.96.121","Mozilla/5.0 (Windows NT 10.0; Win64; x64) AppleWebKit/537.36 (KHTML, like Gecko) Chrome/138.0.0.0 Safari/537.36","WebKit","Chrome","138.0.0.0","Windows","10.0","https://app.prolific.com/","en-ZA,en-GB;q=0.9,en-US;q=0.8,en;q=0.7","653a6a7224e6c0bfb644ff9b","683dba2a8a9dda3513610c04","68808eadd61b5cde2371ccea","3","0","653a6a7224e6c0bfb644ff9b","3","0","2025-07-23T07:30:07.859Z","","","","","","","","","","","AttribQ","","50","","","","","","","","","","","","","","","","","","","","","","","","","","","","",""
"2998","","<div style=""width:500px;"">
  <p>How much control did you have over the ball?</p>
  </div>","69","html-slider-response","11","198443","0.0-5.0-2.0","173","1","2025-07-23 07:26:50","1f75c3e559b7213887762d5229550c2b","41.116.96.121","Mozilla/5.0 (Windows NT 10.0; Win64; x64) AppleWebKit/537.36 (KHTML, like Gecko) Chrome/138.0.0.0 Safari/537.36","WebKit","Chrome","138.0.0.0","Windows","10.0","https://app.prolific.com/","en-ZA,en-GB;q=0.9,en-US;q=0.8,en;q=0.7","653a6a7224e6c0bfb644ff9b","683dba2a8a9dda3513610c04","68808eadd61b5cde2371ccea","3","0","653a6a7224e6c0bfb644ff9b","3","0","2025-07-23T07:30:10.859Z","","","","","","","","","","","ControlQ","","50","","","","","","","","","","","","","","","","","","","","","","","","","","","","",""
"3064","","<div style=""width:500px;"">
  <p>How would you describe your current emotional state?</p>
  </div>","80","html-slider-response","12","201509","0.0-5.0-3.0","173","1","2025-07-23 07:26:50","1f75c3e559b7213887762d5229550c2b","41.116.96.121","Mozilla/5.0 (Windows NT 10.0; Win64; x64) AppleWebKit/537.36 (KHTML, like Gecko) Chrome/138.0.0.0 Safari/537.36","WebKit","Chrome","138.0.0.0","Windows","10.0","https://app.prolific.com/","en-ZA,en-GB;q=0.9,en-US;q=0.8,en;q=0.7","653a6a7224e6c0bfb644ff9b","683dba2a8a9dda3513610c04","68808eadd61b5cde2371ccea","3","0","653a6a7224e6c0bfb644ff9b","3","0","2025-07-23T07:30:13.925Z","","","","","","","","","","","StressQ","","50","","","","","","","","","","","","","","","","","","","","","","","","","","","","",""
"6500","","<div style=""width:500px;"">
  <p>What best describes how you currently feel?</p>
  </div>","62","html-slider-response","13","208011","0.0-5.0-4.0","173","1","2025-07-23 07:26:50","1f75c3e559b7213887762d5229550c2b","41.116.96.121","Mozilla/5.0 (Windows NT 10.0; Win64; x64) AppleWebKit/537.36 (KHTML, like Gecko) Chrome/138.0.0.0 Safari/537.36","WebKit","Chrome","138.0.0.0","Windows","10.0","https://app.prolific.com/","en-ZA,en-GB;q=0.9,en-US;q=0.8,en;q=0.7","653a6a7224e6c0bfb644ff9b","683dba2a8a9dda3513610c04","68808eadd61b5cde2371ccea","3","0","653a6a7224e6c0bfb644ff9b","3","0","2025-07-23T07:30:20.427Z","","","","","","","","","","","MotivationQ","","50","","","","","","","","","","","","","","","","","","","","","","","","","","","","",""
"","","","","ctl-task-cpt","14","236516","0.0-5.0-0.1","173","1","2025-07-23 07:26:50","1f75c3e559b7213887762d5229550c2b","41.116.96.121","Mozilla/5.0 (Windows NT 10.0; Win64; x64) AppleWebKit/537.36 (KHTML, like Gecko) Chrome/138.0.0.0 Safari/537.36","WebKit","Chrome","138.0.0.0","Windows","10.0","https://app.prolific.com/","en-ZA,en-GB;q=0.9,en-US;q=0.8,en;q=0.7","653a6a7224e6c0bfb644ff9b","683dba2a8a9dda3513610c04","68808eadd61b5cde2371ccea","3","0","653a6a7224e6c0bfb644ff9b","3","0","2025-07-23T07:30:48.932Z","","","","","","","","","","","","","","win-only","3","g1:SW,g2:NE","0.9","2","0","211138.7","1087.8","6090.1","25493.9","1","4","4","6","2","4","4","12","8","0.09090909090909091","1127.8","3000","810","[""up"",""right""]","{""num_key_presses"":6,""num_perfect"":5,""num_errors"":0,""num_randdir"":1,""num_randdir_good_moves"":1,""num_whilered"":0,""num_whileblue"":0,""num_blue"":1,""num_good_moves"":6}","[290.22232142857143,291.12857142857143,0.4,290.22232142857143,291.12857142857143,108.9,290.22232142857143,291.12857142857143,209.1,290.22232142857143,291.12857142857143,310.3,290.22232142857143,291.12857142857143,415,290.22232142857143,291.12857142857143,520.8,376.22232142857143,191.12857142857143,624.4,429.22232142857143,107.12857142857143,732.7,442.22232142857143,97.12857142857143,835.1,521.2223214285714,87.12857142857143,947,530.2223214285714,82.12857142857143,1049.6,530.2223214285714,82.12857142857143,1156.3,530.2223214285714,82.12857142857143,1263.7,530.2223214285714,82.12857142857143,1363.7,490.22232142857143,179.12857142857143,1464.8,460.22232142857143,270.12857142857143,1567.5,452.22232142857143,284.12857142857143,1668,444.22232142857143,291.12857142857143,1776.5,425.22232142857143,292.12857142857143,1879.8,413.22232142857143,283.12857142857143,1985.6,405.22232142857143,279.12857142857143,2094.9,394.22232142857143,279.12857142857143,2197,388.22232142857143,279.12857142857143,2300.7,377.22232142857143,275.12857142857143,2407.4,369.22232142857143,273.12857142857143,2509.5,368.22232142857143,273.12857142857143,2612.8,368.22232142857143,273.12857142857143,2720.4,368.22232142857143,273.12857142857143,2826.4,368.22232142857143,273.12857142857143,2928.3,368.22232142857143,273.12857142857143,3028.5,368.22232142857143,273.12857142857143,3130.2,368.22232142857143,273.12857142857143,3231,368.22232142857143,273.12857142857143,3345.4,368.22232142857143,273.12857142857143,3447.3,368.22232142857143,273.12857142857143,3548.4,368.22232142857143,273.12857142857143,3651.8,368.22232142857143,273.12857142857143,3751.9,368.22232142857143,273.12857142857143,3854,368.22232142857143,273.12857142857143,3955.8,368.22232142857143,273.12857142857143,4056.8,368.22232142857143,273.12857142857143,4161.2,368.22232142857143,273.12857142857143,4262.5,368.22232142857143,273.12857142857143,4363.4,368.22232142857143,273.12857142857143,4468.4,368.22232142857143,273.12857142857143,4570.3,368.22232142857143,273.12857142857143,4684.8,368.22232142857143,273.12857142857143,4785.3,368.22232142857143,273.12857142857143,4890.2,368.22232142857143,273.12857142857143,4994]","[1806.6,1806.6,1000,0,806.6,""smooth"",""up"",""up"",""good_move"",5657.8,3850.6,3461.6,1807.3,389,""smooth"",""up"",""up"",""good_move"",7974.4,2316.2,1879.1,5658.2,437.1,""smooth"",""right"",""right"",""good_move"",13662.4,5687.6,2070.5,11103.3,488.6,""smooth"",""right"",""right"",""good_move"",16722.8,3060,2604.9,13662.8,455.1,""smooth"",""right"",""right"",""good_move"",19260.7,2537.1,2162.2,16723.6,375,""oops"",""up"",""up"",""good_move""]","",""
"3023","","<div style=""width:500px;"">
  <p>What determined the result of this run?</p>
  </div>","81","html-slider-response","15","239541","0.0-5.0-1.1","173","1","2025-07-23 07:26:50","1f75c3e559b7213887762d5229550c2b","41.116.96.121","Mozilla/5.0 (Windows NT 10.0; Win64; x64) AppleWebKit/537.36 (KHTML, like Gecko) Chrome/138.0.0.0 Safari/537.36","WebKit","Chrome","138.0.0.0","Windows","10.0","https://app.prolific.com/","en-ZA,en-GB;q=0.9,en-US;q=0.8,en;q=0.7","653a6a7224e6c0bfb644ff9b","683dba2a8a9dda3513610c04","68808eadd61b5cde2371ccea","3","0","653a6a7224e6c0bfb644ff9b","3","0","2025-07-23T07:30:51.958Z","","","","","","","","","","","AttribQ","","50","","","","","","","","","","","","","","","","","","","","","","","","","","","","",""
"2301","","<div style=""width:500px;"">
  <p>How much control did you have over the ball?</p>
  </div>","70","html-slider-response","16","241844","0.0-5.0-2.1","173","1","2025-07-23 07:26:50","1f75c3e559b7213887762d5229550c2b","41.116.96.121","Mozilla/5.0 (Windows NT 10.0; Win64; x64) AppleWebKit/537.36 (KHTML, like Gecko) Chrome/138.0.0.0 Safari/537.36","WebKit","Chrome","138.0.0.0","Windows","10.0","https://app.prolific.com/","en-ZA,en-GB;q=0.9,en-US;q=0.8,en;q=0.7","653a6a7224e6c0bfb644ff9b","683dba2a8a9dda3513610c04","68808eadd61b5cde2371ccea","3","0","653a6a7224e6c0bfb644ff9b","3","0","2025-07-23T07:30:54.261Z","","","","","","","","","","","ControlQ","","50","","","","","","","","","","","","","","","","","","","","","","","","","","","","",""
"1864","","<div style=""width:500px;"">
  <p>How would you describe your current emotional state?</p>
  </div>","68","html-slider-response","17","243711","0.0-5.0-3.1","173","1","2025-07-23 07:26:50","1f75c3e559b7213887762d5229550c2b","41.116.96.121","Mozilla/5.0 (Windows NT 10.0; Win64; x64) AppleWebKit/537.36 (KHTML, like Gecko) Chrome/138.0.0.0 Safari/537.36","WebKit","Chrome","138.0.0.0","Windows","10.0","https://app.prolific.com/","en-ZA,en-GB;q=0.9,en-US;q=0.8,en;q=0.7","653a6a7224e6c0bfb644ff9b","683dba2a8a9dda3513610c04","68808eadd61b5cde2371ccea","3","0","653a6a7224e6c0bfb644ff9b","3","0","2025-07-23T07:30:56.128Z","","","","","","","","","","","StressQ","","50","","","","","","","","","","","","","","","","","","","","","","","","","","","","",""
"2558","","<div style=""width:500px;"">
  <p>What best describes how you currently feel?</p>
  </div>","62","html-slider-response","18","246272","0.0-5.0-4.1","173","1","2025-07-23 07:26:50","1f75c3e559b7213887762d5229550c2b","41.116.96.121","Mozilla/5.0 (Windows NT 10.0; Win64; x64) AppleWebKit/537.36 (KHTML, like Gecko) Chrome/138.0.0.0 Safari/537.36","WebKit","Chrome","138.0.0.0","Windows","10.0","https://app.prolific.com/","en-ZA,en-GB;q=0.9,en-US;q=0.8,en;q=0.7","653a6a7224e6c0bfb644ff9b","683dba2a8a9dda3513610c04","68808eadd61b5cde2371ccea","3","0","653a6a7224e6c0bfb644ff9b","3","0","2025-07-23T07:30:58.688Z","","","","","","","","","","","MotivationQ","","50","","","","","","","","","","","","","","","","","","","","","","","","","","","","",""
"","","","","ctl-task-cpt","19","270631","0.0-5.0-0.2","173","1","2025-07-23 07:26:50","1f75c3e559b7213887762d5229550c2b","41.116.96.121","Mozilla/5.0 (Windows NT 10.0; Win64; x64) AppleWebKit/537.36 (KHTML, like Gecko) Chrome/138.0.0.0 Safari/537.36","WebKit","Chrome","138.0.0.0","Windows","10.0","https://app.prolific.com/","en-ZA,en-GB;q=0.9,en-US;q=0.8,en;q=0.7","653a6a7224e6c0bfb644ff9b","683dba2a8a9dda3513610c04","68808eadd61b5cde2371ccea","3","0","653a6a7224e6c0bfb644ff9b","3","0","2025-07-23T07:31:23.047Z","","","","","","","","","","","","","","win-only","3","g1:SW,g2:NE","0.8","3","0","249406.7","1181.4","6190.9","21331.7","1","4","8","6","2","8","7","19","12","0.14393939393939395","787.4","3000","1440","[""up"",""right""]","{""num_key_presses"":6,""num_perfect"":3,""num_errors"":1,""num_randdir"":2,""num_randdir_good_moves"":2,""num_whilered"":0,""num_whileblue"":1,""num_blue"":1,""num_good_moves"":6}","[291.22232142857143,292.12857142857143,0.4,291.22232142857143,292.12857142857143,107.8,291.22232142857143,292.12857142857143,209.4,292.22232142857143,292.12857142857143,310.8,341.22232142857143,266.12857142857143,411,477.22232142857143,155.12857142857143,515.8,527.2223214285714,81.12857142857143,616,541.2223214285714,49.128571428571426,718.9,542.2223214285714,46.128571428571426,820.2,542.2223214285714,46.128571428571426,926,542.2223214285714,49.128571428571426,1027.1,485.22232142857143,166.12857142857143,1130.3,469.22232142857143,243.12857142857143,1236.6,467.22232142857143,254.12857142857143,1342.7,465.22232142857143,257.12857142857143,1442.8,465.22232142857143,257.12857142857143,1543.5,465.22232142857143,257.12857142857143,1645.9,465.22232142857143,257.12857142857143,1746.6,465.22232142857143,257.12857142857143,1851.9,465.22232142857143,257.12857142857143,1952.9,465.22232142857143,257.12857142857143,2058.6,465.22232142857143,257.12857142857143,2162.2,465.22232142857143,257.12857142857143,2268.7,465.22232142857143,257.12857142857143,2369.7,465.22232142857143,257.12857142857143,2475,465.22232142857143,257.12857142857143,2578.1,465.22232142857143,257.12857142857143,2686.3,465.22232142857143,257.12857142857143,2792,463.22232142857143,259.12857142857143,2894.7,463.22232142857143,259.12857142857143,2996.4,463.22232142857143,259.12857142857143,3109,463.22232142857143,259.12857142857143,3216.3,463.22232142857143,259.12857142857143,3321.5,463.22232142857143,259.12857142857143,3421.9,463.22232142857143,259.12857142857143,3531.4,463.22232142857143,259.12857142857143,3642.5,463.22232142857143,259.12857142857143,3750.6,463.22232142857143,259.12857142857143,3850.9,463.22232142857143,259.12857142857143,3951.7,463.22232142857143,259.12857142857143,4058.7,463.22232142857143,259.12857142857143,4167.4,463.22232142857143,259.12857142857143,4267.5,463.22232142857143,259.12857142857143,4367.6,463.22232142857143,259.12857142857143,4467.8,463.22232142857143,259.12857142857143,4571.9,463.22232142857143,259.12857142857143,4677,463.22232142857143,259.12857142857143,4783.4,463.22232142857143,259.12857142857143,4893.2,463.22232142857143,259.12857142857143,4994.4]","[1472.8,1472.8,1000,0,472.8,""smooth"",""up"",""up"",""good_move"",4723.8,3249.8,2658.6,1474,591.2,""oops"",""right"",""up"",""good_move"",7658.1,2933.4,2509.7,4724.7,423.7,""oops"",""right"",""right"",""good_move"",10591.6,2932,2550,7659.6,382,""smooth"",""right"",""right"",""good_move"",12585.9,1993.7,1507.9,10592.3,485.7,""smooth"",""up"",""up"",""good_move"",15014.7,2428.3,2081.8,12586.4,346.5,""while_blue"",""right"",""right"",""good_move""]","",""
"2624","","<div style=""width:500px;"">
  <p>What determined the result of this run?</p>
  </div>","89","html-slider-response","20","273257","0.0-5.0-1.2","173","1","2025-07-23 07:26:50","1f75c3e559b7213887762d5229550c2b","41.116.96.121","Mozilla/5.0 (Windows NT 10.0; Win64; x64) AppleWebKit/537.36 (KHTML, like Gecko) Chrome/138.0.0.0 Safari/537.36","WebKit","Chrome","138.0.0.0","Windows","10.0","https://app.prolific.com/","en-ZA,en-GB;q=0.9,en-US;q=0.8,en;q=0.7","653a6a7224e6c0bfb644ff9b","683dba2a8a9dda3513610c04","68808eadd61b5cde2371ccea","3","0","653a6a7224e6c0bfb644ff9b","3","0","2025-07-23T07:31:25.673Z","","","","","","","","","","","AttribQ","","50","","","","","","","","","","","","","","","","","","","","","","","","","","","","",""
"2403","","<div style=""width:500px;"">
  <p>How much control did you have over the ball?</p>
  </div>","75","html-slider-response","21","275662","0.0-5.0-2.2","173","1","2025-07-23 07:26:50","1f75c3e559b7213887762d5229550c2b","41.116.96.121","Mozilla/5.0 (Windows NT 10.0; Win64; x64) AppleWebKit/537.36 (KHTML, like Gecko) Chrome/138.0.0.0 Safari/537.36","WebKit","Chrome","138.0.0.0","Windows","10.0","https://app.prolific.com/","en-ZA,en-GB;q=0.9,en-US;q=0.8,en;q=0.7","653a6a7224e6c0bfb644ff9b","683dba2a8a9dda3513610c04","68808eadd61b5cde2371ccea","3","0","653a6a7224e6c0bfb644ff9b","3","0","2025-07-23T07:31:28.078Z","","","","","","","","","","","ControlQ","","50","","","","","","","","","","","","","","","","","","","","","","","","","","","","",""
"2406","","<div style=""width:500px;"">
  <p>How would you describe your current emotional state?</p>
  </div>","100","html-slider-response","22","278071","0.0-5.0-3.2","173","1","2025-07-23 07:26:50","1f75c3e559b7213887762d5229550c2b","41.116.96.121","Mozilla/5.0 (Windows NT 10.0; Win64; x64) AppleWebKit/537.36 (KHTML, like Gecko) Chrome/138.0.0.0 Safari/537.36","WebKit","Chrome","138.0.0.0","Windows","10.0","https://app.prolific.com/","en-ZA,en-GB;q=0.9,en-US;q=0.8,en;q=0.7","653a6a7224e6c0bfb644ff9b","683dba2a8a9dda3513610c04","68808eadd61b5cde2371ccea","3","0","653a6a7224e6c0bfb644ff9b","3","0","2025-07-23T07:31:30.488Z","","","","","","","","","","","StressQ","","50","","","","","","","","","","","","","","","","","","","","","","","","","","","","",""
"2657","","<div style=""width:500px;"">
  <p>What best describes how you currently feel?</p>
  </div>","67","html-slider-response","23","280731","0.0-5.0-4.2","173","1","2025-07-23 07:26:50","1f75c3e559b7213887762d5229550c2b","41.116.96.121","Mozilla/5.0 (Windows NT 10.0; Win64; x64) AppleWebKit/537.36 (KHTML, like Gecko) Chrome/138.0.0.0 Safari/537.36","WebKit","Chrome","138.0.0.0","Windows","10.0","https://app.prolific.com/","en-ZA,en-GB;q=0.9,en-US;q=0.8,en;q=0.7","653a6a7224e6c0bfb644ff9b","683dba2a8a9dda3513610c04","68808eadd61b5cde2371ccea","3","0","653a6a7224e6c0bfb644ff9b","3","0","2025-07-23T07:31:33.147Z","","","","","","","","","","","MotivationQ","","50","","","","","","","","","","","","","","","","","","","","","","","","","","","","",""
"","","","","ctl-task-cpt","24","326290","0.0-5.0-0.3","173","1","2025-07-23 07:26:50","1f75c3e559b7213887762d5229550c2b","41.116.96.121","Mozilla/5.0 (Windows NT 10.0; Win64; x64) AppleWebKit/537.36 (KHTML, like Gecko) Chrome/138.0.0.0 Safari/537.36","WebKit","Chrome","138.0.0.0","Windows","10.0","https://app.prolific.com/","en-ZA,en-GB;q=0.9,en-US;q=0.8,en;q=0.7","653a6a7224e6c0bfb644ff9b","683dba2a8a9dda3513610c04","68808eadd61b5cde2371ccea","3","0","653a6a7224e6c0bfb644ff9b","3","0","2025-07-23T07:32:18.706Z","","","","","","","","","","","","","","win-only","2","g1:SE,g2:NW","0.7","4","0","283862.4","2021.6","7028.6","42533.6","1","4","4","6","2","-4","-4","15","19","0.11363636363636363","1182.5","3000","-1945","[""left"",""up""]","{""num_key_presses"":10,""num_perfect"":7,""num_errors"":0,""num_randdir"":3,""num_randdir_good_moves"":0,""num_whilered"":0,""num_whileblue"":0,""num_blue"":1,""num_good_moves"":7}","[295.22232142857143,290.12857142857143,0.9,295.22232142857143,290.12857142857143,101.8,295.22232142857143,290.12857142857143,207.9,295.22232142857143,290.12857142857143,312.7,295.22232142857143,290.12857142857143,431.8,300.22232142857143,301.12857142857143,534.4,178.22232142857143,119.12857142857143,656.5,43.222321428571426,57.128571428571426,761.7,8.222321428571426,22.128571428571426,863.6,-6.777678571428574,6.128571428571426,968.6,24.222321428571426,28.128571428571426,1070,32.222321428571426,36.128571428571426,1189,32.222321428571426,36.128571428571426,1289.7,32.222321428571426,36.128571428571426,1390.4,34.222321428571426,40.128571428571426,1491.2,103.22232142857143,108.12857142857143,1598.4,115.22232142857143,124.12857142857143,1699.4,119.22232142857143,129.12857142857143,1801.5,119.22232142857143,129.12857142857143,1906.7,119.22232142857143,129.12857142857143,2011.9,119.22232142857143,129.12857142857143,2118.1,119.22232142857143,129.12857142857143,2219.7,119.22232142857143,129.12857142857143,2323.3,119.22232142857143,129.12857142857143,2431.1,119.22232142857143,129.12857142857143,2546.8,119.22232142857143,129.12857142857143,2650,119.22232142857143,129.12857142857143,2750.7,119.22232142857143,129.12857142857143,2856.1,119.22232142857143,129.12857142857143,2964.9,119.22232142857143,129.12857142857143,3066.7,119.22232142857143,129.12857142857143,3167.4,119.22232142857143,129.12857142857143,3277.1,119.22232142857143,129.12857142857143,3402.1,119.22232142857143,129.12857142857143,3505.2,119.22232142857143,129.12857142857143,3638.6,119.22232142857143,129.12857142857143,3740.3,119.22232142857143,129.12857142857143,3861.4,119.22232142857143,129.12857142857143,3964.3,119.22232142857143,129.12857142857143,4065.8,119.22232142857143,129.12857142857143,4179,119.22232142857143,129.12857142857143,4279.8,119.22232142857143,129.12857142857143,4380,119.22232142857143,129.12857142857143,4482.7,119.22232142857143,129.12857142857143,4589.2,119.22232142857143,129.12857142857143,4689.3,119.22232142857143,129.12857142857143,4795.4,119.22232142857143,129.12857142857143,4895.6]","[1452.8,1452.8,1000,0,452.8,""smooth"",""left"",""left"",""good_move"",4594.2,3139.6,2725.7,1454.6,413.9,""oops"",""left"",""right"",""bad_move"",7926.4,3331.6,2883.1,4594.8,448.5,""smooth"",""left"",""left"",""good_move"",10493.7,2566.9,2192.3,7926.8,374.6,""smooth"",""up"",""up"",""good_move"",13116.2,2621.3,2139.2,10494.9,482.1,""smooth"",""left"",""left"",""good_move"",16844.3,3727.6,3286.7,13116.8,440.8,""smooth"",""up"",""up"",""good_move"",19373.9,2529.2,2100,16844.7,429.2,""oops"",""left"",""right"",""bad_move"",25702.8,6328.2,3001.7,22204.8,496.3,""smooth"",""up"",""up"",""good_move"",28962,3258.6,2729.3,25703.5,529.2,""oops"",""left"",""right"",""bad_move"",32579.4,3616.9,3089,28962.5,528,""smooth"",""left"",""left"",""good_move""]","",""
"2373","","<div style=""width:500px;"">
  <p>What determined the result of this run?</p>
  </div>","3","html-slider-response","25","328664","0.0-5.0-1.3","173","1","2025-07-23 07:26:50","1f75c3e559b7213887762d5229550c2b","41.116.96.121","Mozilla/5.0 (Windows NT 10.0; Win64; x64) AppleWebKit/537.36 (KHTML, like Gecko) Chrome/138.0.0.0 Safari/537.36","WebKit","Chrome","138.0.0.0","Windows","10.0","https://app.prolific.com/","en-ZA,en-GB;q=0.9,en-US;q=0.8,en;q=0.7","653a6a7224e6c0bfb644ff9b","683dba2a8a9dda3513610c04","68808eadd61b5cde2371ccea","3","0","653a6a7224e6c0bfb644ff9b","3","0","2025-07-23T07:32:21.081Z","","","","","","","","","","","AttribQ","","50","","","","","","","","","","","","","","","","","","","","","","","","","","","","",""
"2239","","<div style=""width:500px;"">
  <p>How much control did you have over the ball?</p>
  </div>","6","html-slider-response","26","330907","0.0-5.0-2.3","173","1","2025-07-23 07:26:50","1f75c3e559b7213887762d5229550c2b","41.116.96.121","Mozilla/5.0 (Windows NT 10.0; Win64; x64) AppleWebKit/537.36 (KHTML, like Gecko) Chrome/138.0.0.0 Safari/537.36","WebKit","Chrome","138.0.0.0","Windows","10.0","https://app.prolific.com/","en-ZA,en-GB;q=0.9,en-US;q=0.8,en;q=0.7","653a6a7224e6c0bfb644ff9b","683dba2a8a9dda3513610c04","68808eadd61b5cde2371ccea","3","0","653a6a7224e6c0bfb644ff9b","3","0","2025-07-23T07:32:23.323Z","","","","","","","","","","","ControlQ","","50","","","","","","","","","","","","","","","","","","","","","","","","","","","","",""
"3412","","<div style=""width:500px;"">
  <p>How would you describe your current emotional state?</p>
  </div>","87","html-slider-response","27","334321","0.0-5.0-3.3","173","1","2025-07-23 07:26:50","1f75c3e559b7213887762d5229550c2b","41.116.96.121","Mozilla/5.0 (Windows NT 10.0; Win64; x64) AppleWebKit/537.36 (KHTML, like Gecko) Chrome/138.0.0.0 Safari/537.36","WebKit","Chrome","138.0.0.0","Windows","10.0","https://app.prolific.com/","en-ZA,en-GB;q=0.9,en-US;q=0.8,en;q=0.7","653a6a7224e6c0bfb644ff9b","683dba2a8a9dda3513610c04","68808eadd61b5cde2371ccea","3","0","653a6a7224e6c0bfb644ff9b","3","0","2025-07-23T07:32:26.737Z","","","","","","","","","","","StressQ","","50","","","","","","","","","","","","","","","","","","","","","","","","","","","","",""
"2801","","<div style=""width:500px;"">
  <p>What best describes how you currently feel?</p>
  </div>","62","html-slider-response","28","337125","0.0-5.0-4.3","173","1","2025-07-23 07:26:50","1f75c3e559b7213887762d5229550c2b","41.116.96.121","Mozilla/5.0 (Windows NT 10.0; Win64; x64) AppleWebKit/537.36 (KHTML, like Gecko) Chrome/138.0.0.0 Safari/537.36","WebKit","Chrome","138.0.0.0","Windows","10.0","https://app.prolific.com/","en-ZA,en-GB;q=0.9,en-US;q=0.8,en;q=0.7","653a6a7224e6c0bfb644ff9b","683dba2a8a9dda3513610c04","68808eadd61b5cde2371ccea","3","0","653a6a7224e6c0bfb644ff9b","3","0","2025-07-23T07:32:29.541Z","","","","","","","","","","","MotivationQ","","50","","","","","","","","","","","","","","","","","","","","","","","","","","","","",""
"","","","","ctl-task-cpt","29","396251","0.0-5.0-0.4","173","1","2025-07-23 07:26:50","1f75c3e559b7213887762d5229550c2b","41.116.96.121","Mozilla/5.0 (Windows NT 10.0; Win64; x64) AppleWebKit/537.36 (KHTML, like Gecko) Chrome/138.0.0.0 Safari/537.36","WebKit","Chrome","138.0.0.0","Windows","10.0","https://app.prolific.com/","en-ZA,en-GB;q=0.9,en-US;q=0.8,en;q=0.7","653a6a7224e6c0bfb644ff9b","683dba2a8a9dda3513610c04","68808eadd61b5cde2371ccea","3","0","653a6a7224e6c0bfb644ff9b","3","0","2025-07-23T07:33:28.667Z","","","","","","","","","","","","","","win-only","1","g1:NE,g2:SW","0.6","5","0","340254.5","1864.5","6879.5","56107.5","1","4","8","6","2","8","8","23","15","0.17424242424242425","1058.1","3000","20","[""down"",""left""]","{""num_key_presses"":12,""num_perfect"":8,""num_errors"":0,""num_randdir"":4,""num_randdir_good_moves"":1,""num_whilered"":0,""num_whileblue"":0,""num_blue"":4,""num_good_moves"":9}","[300.22232142857143,300.12857142857143,0.7,300.22232142857143,300.12857142857143,102.9,300.22232142857143,300.12857142857143,207.4,300.22232142857143,300.12857142857143,331.4,300.22232142857143,300.12857142857143,436.3,344.22232142857143,255.12857142857143,539.8,9.222321428571426,496.12857142857143,658.2,15.222321428571426,510.12857142857143,785.1,46.222321428571426,528.1285714285714,907.3,53.222321428571426,530.1285714285714,1023.8,53.222321428571426,530.1285714285714,1126.9,53.222321428571426,530.1285714285714,1227.8,53.222321428571426,530.1285714285714,1334.2,53.222321428571426,530.1285714285714,1436.5,53.222321428571426,530.1285714285714,1546.2,53.222321428571426,530.1285714285714,1647.4,53.222321428571426,530.1285714285714,1764.9,53.222321428571426,530.1285714285714,1873.8,53.222321428571426,530.1285714285714,1988.1,53.222321428571426,530.1285714285714,2110.4,53.222321428571426,530.1285714285714,2228.4,53.222321428571426,530.1285714285714,2339.6,53.222321428571426,530.1285714285714,2445.7,53.222321428571426,530.1285714285714,2546.6,53.222321428571426,530.1285714285714,2647.2,53.222321428571426,530.1285714285714,2759.1,53.222321428571426,530.1285714285714,2860.4,53.222321428571426,530.1285714285714,2962.7,53.222321428571426,530.1285714285714,3065.2,53.222321428571426,530.1285714285714,3169.3,53.222321428571426,530.1285714285714,3276.5,53.222321428571426,530.1285714285714,3378.9,53.222321428571426,530.1285714285714,3482,53.222321428571426,530.1285714285714,3584.4,53.222321428571426,530.1285714285714,3689.7,53.222321428571426,530.1285714285714,3790.8,53.222321428571426,530.1285714285714,3895.6,53.222321428571426,530.1285714285714,3998.2,53.222321428571426,530.1285714285714,4110.3,53.222321428571426,530.1285714285714,4216.2,53.222321428571426,530.1285714285714,4321.5,53.222321428571426,530.1285714285714,4427.3,53.222321428571426,530.1285714285714,4527.9,53.222321428571426,530.1285714285714,4629.4,53.222321428571426,530.1285714285714,4740.6,53.222321428571426,530.1285714285714,4865.8,53.222321428571426,530.1285714285714,4966.6]","[5378.4,5378.4,2793.1,2009,576.3,""oops"",""down"",""down"",""good_move"",8700,3320.8,2682.8,5379.2,638,""smooth"",""left"",""left"",""good_move"",11511.4,2809.7,2107.5,8701.7,702.2,""smooth"",""left"",""left"",""good_move"",17264,5751.5,2507.4,14280.1,476.5,""oops"",""left"",""right"",""bad_move"",21140.7,3875.9,3416.5,17264.8,459.4,""smooth"",""down"",""down"",""good_move"",24257,3115.5,2719.8,21141.5,395.7,""oops"",""left"",""right"",""bad_move"",26873.3,2615.7,2222.1,24257.6,393.6,""smooth"",""down"",""down"",""good_move"",30175.2,3300.4,2925,26874.8,375.4,""smooth"",""left"",""left"",""good_move"",32793.5,2616.6,2217.4,30177,399.1,""smooth"",""left"",""left"",""good_move"",35651.2,2856.9,2483.7,32794.3,373.3,""oops"",""left"",""right"",""bad_move"",38752.9,3101.2,2676.6,35651.7,424.6,""smooth"",""left"",""left"",""good_move"",49056.1,10302.8,2948.7,45675.2,432.3,""smooth"",""left"",""left"",""good_move""]","",""
"2701","","<div style=""width:500px;"">
  <p>What determined the result of this run?</p>
  </div>","94","html-slider-response","30","398955","0.0-5.0-1.4","173","1","2025-07-23 07:26:50","1f75c3e559b7213887762d5229550c2b","41.116.96.121","Mozilla/5.0 (Windows NT 10.0; Win64; x64) AppleWebKit/537.36 (KHTML, like Gecko) Chrome/138.0.0.0 Safari/537.36","WebKit","Chrome","138.0.0.0","Windows","10.0","https://app.prolific.com/","en-ZA,en-GB;q=0.9,en-US;q=0.8,en;q=0.7","653a6a7224e6c0bfb644ff9b","683dba2a8a9dda3513610c04","68808eadd61b5cde2371ccea","3","0","653a6a7224e6c0bfb644ff9b","3","0","2025-07-23T07:33:31.371Z","","","","","","","","","","","AttribQ","","50","","","","","","","","","","","","","","","","","","","","","","","","","","","","",""
"3004","","<div style=""width:500px;"">
  <p>How much control did you have over the ball?</p>
  </div>","59","html-slider-response","31","401962","0.0-5.0-2.4","173","1","2025-07-23 07:26:50","1f75c3e559b7213887762d5229550c2b","41.116.96.121","Mozilla/5.0 (Windows NT 10.0; Win64; x64) AppleWebKit/537.36 (KHTML, like Gecko) Chrome/138.0.0.0 Safari/537.36","WebKit","Chrome","138.0.0.0","Windows","10.0","https://app.prolific.com/","en-ZA,en-GB;q=0.9,en-US;q=0.8,en;q=0.7","653a6a7224e6c0bfb644ff9b","683dba2a8a9dda3513610c04","68808eadd61b5cde2371ccea","3","0","653a6a7224e6c0bfb644ff9b","3","0","2025-07-23T07:33:34.379Z","","","","","","","","","","","ControlQ","","50","","","","","","","","","","","","","","","","","","","","","","","","","","","","",""
"1960","","<div style=""width:500px;"">
  <p>How would you describe your current emotional state?</p>
  </div>","82","html-slider-response","32","403926","0.0-5.0-3.4","173","1","2025-07-23 07:26:50","1f75c3e559b7213887762d5229550c2b","41.116.96.121","Mozilla/5.0 (Windows NT 10.0; Win64; x64) AppleWebKit/537.36 (KHTML, like Gecko) Chrome/138.0.0.0 Safari/537.36","WebKit","Chrome","138.0.0.0","Windows","10.0","https://app.prolific.com/","en-ZA,en-GB;q=0.9,en-US;q=0.8,en;q=0.7","653a6a7224e6c0bfb644ff9b","683dba2a8a9dda3513610c04","68808eadd61b5cde2371ccea","3","0","653a6a7224e6c0bfb644ff9b","3","0","2025-07-23T07:33:36.342Z","","","","","","","","","","","StressQ","","50","","","","","","","","","","","","","","","","","","","","","","","","","","","","",""
"3764","","<div style=""width:500px;"">
  <p>What best describes how you currently feel?</p>
  </div>","59","html-slider-response","33","407693","0.0-5.0-4.4","173","1","2025-07-23 07:26:50","1f75c3e559b7213887762d5229550c2b","41.116.96.121","Mozilla/5.0 (Windows NT 10.0; Win64; x64) AppleWebKit/537.36 (KHTML, like Gecko) Chrome/138.0.0.0 Safari/537.36","WebKit","Chrome","138.0.0.0","Windows","10.0","https://app.prolific.com/","en-ZA,en-GB;q=0.9,en-US;q=0.8,en;q=0.7","653a6a7224e6c0bfb644ff9b","683dba2a8a9dda3513610c04","68808eadd61b5cde2371ccea","3","0","653a6a7224e6c0bfb644ff9b","3","0","2025-07-23T07:33:40.109Z","","","","","","","","","","","MotivationQ","","50","","","","","","","","","","","","","","","","","","","","","","","","","","","","",""
"","","","","ctl-task-cpt","34","454704","0.0-5.0-0.5","173","1","2025-07-23 07:26:50","1f75c3e559b7213887762d5229550c2b","41.116.96.121","Mozilla/5.0 (Windows NT 10.0; Win64; x64) AppleWebKit/537.36 (KHTML, like Gecko) Chrome/138.0.0.0 Safari/537.36","WebKit","Chrome","138.0.0.0","Windows","10.0","https://app.prolific.com/","en-ZA,en-GB;q=0.9,en-US;q=0.8,en;q=0.7","653a6a7224e6c0bfb644ff9b","683dba2a8a9dda3513610c04","68808eadd61b5cde2371ccea","3","0","653a6a7224e6c0bfb644ff9b","3","0","2025-07-23T07:34:27.121Z","","","","","","","","","","","","","","win-only","0","g1:NW,g2:SE","0.5","6","0","410827.6","1056.1","6058.2","43973.5","1","4","4","6","2","4","4","27","23","0.20454545454545456","976.6","3000","2040","[""down"",""right""]","{""num_key_presses"":8,""num_perfect"":5,""num_errors"":0,""num_randdir"":3,""num_randdir_good_moves"":2,""num_whilered"":0,""num_whileblue"":0,""num_blue"":4,""num_good_moves"":7}","[294.22232142857143,293.12857142857143,0.5,294.22232142857143,293.12857142857143,112.7,294.22232142857143,293.12857142857143,223.7,294.22232142857143,293.12857142857143,328.1,294.22232142857143,296.12857142857143,435.6,394.22232142857143,419.12857142857143,540.9,498.22232142857143,533.1285714285714,648.4,516.2223214285714,550.1285714285714,748.7,532.2223214285714,564.1285714285714,851.8,542.2223214285714,561.1285714285714,962,542.2223214285714,561.1285714285714,1063.9,542.2223214285714,561.1285714285714,1165.5,542.2223214285714,561.1285714285714,1268,464.22232142857143,495.12857142857143,1368.6,330.22232142857143,390.12857142857143,1472.8,323.22232142857143,384.12857142857143,1578.1,323.22232142857143,384.12857142857143,1682,323.22232142857143,384.12857142857143,1783.4,323.22232142857143,384.12857142857143,1891.4,323.22232142857143,384.12857142857143,1998.7,323.22232142857143,384.12857142857143,2102.8,323.22232142857143,384.12857142857143,2216.3,323.22232142857143,384.12857142857143,2323.5,323.22232142857143,384.12857142857143,2426,323.22232142857143,384.12857142857143,2533.8,323.22232142857143,384.12857142857143,2642.6,323.22232142857143,384.12857142857143,2751.3,323.22232142857143,384.12857142857143,2852.2,323.22232142857143,384.12857142857143,2958,323.22232142857143,384.12857142857143,3061.4,323.22232142857143,384.12857142857143,3162,323.22232142857143,384.12857142857143,3267.9,323.22232142857143,384.12857142857143,3377.1,323.22232142857143,384.12857142857143,3485.2,323.22232142857143,384.12857142857143,3586.9,323.22232142857143,384.12857142857143,3687.8,323.22232142857143,384.12857142857143,3790,323.22232142857143,384.12857142857143,3898.4,323.22232142857143,384.12857142857143,3998.9,323.22232142857143,384.12857142857143,4099,323.22232142857143,384.12857142857143,4217.8,323.22232142857143,384.12857142857143,4337.8,323.22232142857143,384.12857142857143,4443.3,323.22232142857143,384.12857142857143,4552.5,323.22232142857143,384.12857142857143,4658.8,323.22232142857143,384.12857142857143,4760.2,323.22232142857143,384.12857142857143,4866.6,323.22232142857143,384.12857142857143,4977]","[5285.9,5285.9,2833,2011.3,441.6,""smooth"",""down"",""down"",""good_move"",8048.1,2760.1,2276.9,5288.1,483.2,""smooth"",""down"",""down"",""good_move"",11266.8,3217.7,2758.2,8049.1,459.5,""smooth"",""right"",""right"",""good_move"",17106.1,5837,2305.6,14324.4,476.1,""smooth"",""down"",""down"",""good_move"",20479.3,3372.7,2915.4,17106.6,457.3,""oops"",""right"",""right"",""good_move"",26570.7,6090.5,1886.2,24119.6,564.9,""oops"",""right"",""up"",""bad_move"",30607.2,4035.6,2873.8,26571.6,1161.8,""oops"",""right"",""right"",""good_move"",37508.9,6900.6,2574.1,34422.6,512.2,""smooth"",""down"",""down"",""good_move""]","",""
"2530","","<div style=""width:500px;"">
  <p>What determined the result of this run?</p>
  </div>","85","html-slider-response","35","457238","0.0-5.0-1.5","173","1","2025-07-23 07:26:50","1f75c3e559b7213887762d5229550c2b","41.116.96.121","Mozilla/5.0 (Windows NT 10.0; Win64; x64) AppleWebKit/537.36 (KHTML, like Gecko) Chrome/138.0.0.0 Safari/537.36","WebKit","Chrome","138.0.0.0","Windows","10.0","https://app.prolific.com/","en-ZA,en-GB;q=0.9,en-US;q=0.8,en;q=0.7","653a6a7224e6c0bfb644ff9b","683dba2a8a9dda3513610c04","68808eadd61b5cde2371ccea","3","0","653a6a7224e6c0bfb644ff9b","3","0","2025-07-23T07:34:29.655Z","","","","","","","","","","","AttribQ","","50","","","","","","","","","","","","","","","","","","","","","","","","","","","","",""
"1807","","<div style=""width:500px;"">
  <p>How much control did you have over the ball?</p>
  </div>","61","html-slider-response","36","459053","0.0-5.0-2.5","173","1","2025-07-23 07:26:50","1f75c3e559b7213887762d5229550c2b","41.116.96.121","Mozilla/5.0 (Windows NT 10.0; Win64; x64) AppleWebKit/537.36 (KHTML, like Gecko) Chrome/138.0.0.0 Safari/537.36","WebKit","Chrome","138.0.0.0","Windows","10.0","https://app.prolific.com/","en-ZA,en-GB;q=0.9,en-US;q=0.8,en;q=0.7","653a6a7224e6c0bfb644ff9b","683dba2a8a9dda3513610c04","68808eadd61b5cde2371ccea","3","0","653a6a7224e6c0bfb644ff9b","3","0","2025-07-23T07:34:31.469Z","","","","","","","","","","","ControlQ","","50","","","","","","","","","","","","","","","","","","","","","","","","","","","","",""
"2539","","<div style=""width:500px;"">
  <p>How would you describe your current emotional state?</p>
  </div>","100","html-slider-response","37","461597","0.0-5.0-3.5","173","1","2025-07-23 07:26:50","1f75c3e559b7213887762d5229550c2b","41.116.96.121","Mozilla/5.0 (Windows NT 10.0; Win64; x64) AppleWebKit/537.36 (KHTML, like Gecko) Chrome/138.0.0.0 Safari/537.36","WebKit","Chrome","138.0.0.0","Windows","10.0","https://app.prolific.com/","en-ZA,en-GB;q=0.9,en-US;q=0.8,en;q=0.7","653a6a7224e6c0bfb644ff9b","683dba2a8a9dda3513610c04","68808eadd61b5cde2371ccea","3","0","653a6a7224e6c0bfb644ff9b","3","0","2025-07-23T07:34:34.014Z","","","","","","","","","","","StressQ","","50","","","","","","","","","","","","","","","","","","","","","","","","","","","","",""
"2096","","<div style=""width:500px;"">
  <p>What best describes how you currently feel?</p>
  </div>","72","html-slider-response","38","463699","0.0-5.0-4.5","173","1","2025-07-23 07:26:50","1f75c3e559b7213887762d5229550c2b","41.116.96.121","Mozilla/5.0 (Windows NT 10.0; Win64; x64) AppleWebKit/537.36 (KHTML, like Gecko) Chrome/138.0.0.0 Safari/537.36","WebKit","Chrome","138.0.0.0","Windows","10.0","https://app.prolific.com/","en-ZA,en-GB;q=0.9,en-US;q=0.8,en;q=0.7","653a6a7224e6c0bfb644ff9b","683dba2a8a9dda3513610c04","68808eadd61b5cde2371ccea","3","0","653a6a7224e6c0bfb644ff9b","3","0","2025-07-23T07:34:36.115Z","","","","","","","","","","","MotivationQ","","50","","","","","","","","","","","","","","","","","","","","","","","","","","","","",""
"","","","","ctl-task-cpt","39","508561","0.0-5.0-0.6","173","1","2025-07-23 07:26:50","1f75c3e559b7213887762d5229550c2b","41.116.96.121","Mozilla/5.0 (Windows NT 10.0; Win64; x64) AppleWebKit/537.36 (KHTML, like Gecko) Chrome/138.0.0.0 Safari/537.36","WebKit","Chrome","138.0.0.0","Windows","10.0","https://app.prolific.com/","en-ZA,en-GB;q=0.9,en-US;q=0.8,en;q=0.7","653a6a7224e6c0bfb644ff9b","683dba2a8a9dda3513610c04","68808eadd61b5cde2371ccea","3","0","653a6a7224e6c0bfb644ff9b","3","0","2025-07-23T07:35:20.978Z","","","","","","","","","","","","","","win-only","0","g1:NW,g2:SE","0.4","7","0","466830.3","1183.8","6194.6","41840.5","1","4","8","6","2","8","8","35","27","0.26515151515151514","811.5","3000","1845","[""down"",""right""]","{""num_key_presses"":8,""num_perfect"":4,""num_errors"":0,""num_randdir"":4,""num_randdir_good_moves"":3,""num_whilered"":0,""num_whileblue"":0,""num_blue"":3,""num_good_moves"":7}","[297.22232142857143,297.12857142857143,0.6,297.22232142857143,297.12857142857143,100.7,297.22232142857143,297.12857142857143,203.9,297.22232142857143,297.12857142857143,308.3,297.22232142857143,297.12857142857143,411.7,472.22232142857143,462.12857142857143,515.1,554.2223214285714,562.1285714285714,625.2,558.2223214285714,568.1285714285714,726.8,558.2223214285714,568.1285714285714,835.6,558.2223214285714,568.1285714285714,945,558.2223214285714,568.1285714285714,1045.9,558.2223214285714,568.1285714285714,1152.9,558.2223214285714,567.1285714285714,1275.8,415.22232142857143,447.12857142857143,1381.9,360.22232142857143,413.12857142857143,1490.3,360.22232142857143,413.12857142857143,1593.2,360.22232142857143,413.12857142857143,1696.7,360.22232142857143,413.12857142857143,1797.9,360.22232142857143,413.12857142857143,1931.4,360.22232142857143,413.12857142857143,2046,360.22232142857143,413.12857142857143,2152,360.22232142857143,413.12857142857143,2252,360.22232142857143,413.12857142857143,2358,360.22232142857143,413.12857142857143,2465.6,360.22232142857143,413.12857142857143,2577.1,360.22232142857143,413.12857142857143,2681.8,360.22232142857143,413.12857142857143,2791.2,360.22232142857143,413.12857142857143,2900.9,360.22232142857143,413.12857142857143,3008.1,360.22232142857143,413.12857142857143,3115.6,360.22232142857143,413.12857142857143,3225.1,360.22232142857143,413.12857142857143,3335.4,360.22232142857143,413.12857142857143,3443.9,360.22232142857143,413.12857142857143,3544.9,360.22232142857143,413.12857142857143,3647.8,360.22232142857143,413.12857142857143,3750.7,360.22232142857143,413.12857142857143,3851.4,360.22232142857143,413.12857142857143,3959.7,360.22232142857143,413.12857142857143,4068.3,360.22232142857143,413.12857142857143,4171.2,360.22232142857143,413.12857142857143,4273.7,360.22232142857143,413.12857142857143,4383.8,360.22232142857143,413.12857142857143,4485.1,360.22232142857143,413.12857142857143,4599.5,360.22232142857143,413.12857142857143,4701.9,360.22232142857143,413.12857142857143,4802.5,360.22232142857143,413.12857142857143,4904.4]","[1525.4,1525.4,1000,0,525.4,""smooth"",""down"",""down"",""good_move"",11727.8,10199.6,2130.5,9078.1,519.2,""oops"",""down"",""up"",""bad_move"",15791.3,4061.5,1845.5,11729.8,2216,""smooth"",""down"",""down"",""good_move"",19111.7,3318.2,2668,15793.5,650.2,""oops"",""right"",""right"",""good_move"",26301.7,7189.1,2825.5,22966.3,509.9,""smooth"",""right"",""right"",""good_move"",29221.2,2918.5,2398.3,26303,519.9,""smooth"",""down"",""down"",""good_move"",32484.3,3253.6,2808.5,29230.7,445.1,""oops"",""down"",""down"",""good_move"",35453.3,2968,2470.7,32485.3,497.3,""oops"",""right"",""right"",""good_move""]","",""
"2682","","<div style=""width:500px;"">
  <p>What determined the result of this run?</p>
  </div>","85","html-slider-response","40","511246","0.0-5.0-1.6","173","1","2025-07-23 07:26:50","1f75c3e559b7213887762d5229550c2b","41.116.96.121","Mozilla/5.0 (Windows NT 10.0; Win64; x64) AppleWebKit/537.36 (KHTML, like Gecko) Chrome/138.0.0.0 Safari/537.36","WebKit","Chrome","138.0.0.0","Windows","10.0","https://app.prolific.com/","en-ZA,en-GB;q=0.9,en-US;q=0.8,en;q=0.7","653a6a7224e6c0bfb644ff9b","683dba2a8a9dda3513610c04","68808eadd61b5cde2371ccea","3","0","653a6a7224e6c0bfb644ff9b","3","0","2025-07-23T07:35:23.663Z","","","","","","","","","","","AttribQ","","50","","","","","","","","","","","","","","","","","","","","","","","","","","","","",""
"2621","","<div style=""width:500px;"">
  <p>How much control did you have over the ball?</p>
  </div>","71","html-slider-response","41","513870","0.0-5.0-2.6","173","1","2025-07-23 07:26:50","1f75c3e559b7213887762d5229550c2b","41.116.96.121","Mozilla/5.0 (Windows NT 10.0; Win64; x64) AppleWebKit/537.36 (KHTML, like Gecko) Chrome/138.0.0.0 Safari/537.36","WebKit","Chrome","138.0.0.0","Windows","10.0","https://app.prolific.com/","en-ZA,en-GB;q=0.9,en-US;q=0.8,en;q=0.7","653a6a7224e6c0bfb644ff9b","683dba2a8a9dda3513610c04","68808eadd61b5cde2371ccea","3","0","653a6a7224e6c0bfb644ff9b","3","0","2025-07-23T07:35:26.287Z","","","","","","","","","","","ControlQ","","50","","","","","","","","","","","","","","","","","","","","","","","","","","","","",""
"2438","","<div style=""width:500px;"">
  <p>How would you describe your current emotional state?</p>
  </div>","99","html-slider-response","42","516312","0.0-5.0-3.6","173","1","2025-07-23 07:26:50","1f75c3e559b7213887762d5229550c2b","41.116.96.121","Mozilla/5.0 (Windows NT 10.0; Win64; x64) AppleWebKit/537.36 (KHTML, like Gecko) Chrome/138.0.0.0 Safari/537.36","WebKit","Chrome","138.0.0.0","Windows","10.0","https://app.prolific.com/","en-ZA,en-GB;q=0.9,en-US;q=0.8,en;q=0.7","653a6a7224e6c0bfb644ff9b","683dba2a8a9dda3513610c04","68808eadd61b5cde2371ccea","3","0","653a6a7224e6c0bfb644ff9b","3","0","2025-07-23T07:35:28.728Z","","","","","","","","","","","StressQ","","50","","","","","","","","","","","","","","","","","","","","","","","","","","","","",""
"2528","","<div style=""width:500px;"">
  <p>What best describes how you currently feel?</p>
  </div>","70","html-slider-response","43","518843","0.0-5.0-4.6","173","1","2025-07-23 07:26:50","1f75c3e559b7213887762d5229550c2b","41.116.96.121","Mozilla/5.0 (Windows NT 10.0; Win64; x64) AppleWebKit/537.36 (KHTML, like Gecko) Chrome/138.0.0.0 Safari/537.36","WebKit","Chrome","138.0.0.0","Windows","10.0","https://app.prolific.com/","en-ZA,en-GB;q=0.9,en-US;q=0.8,en;q=0.7","653a6a7224e6c0bfb644ff9b","683dba2a8a9dda3513610c04","68808eadd61b5cde2371ccea","3","0","653a6a7224e6c0bfb644ff9b","3","0","2025-07-23T07:35:31.260Z","","","","","","","","","","","MotivationQ","","50","","","","","","","","","","","","","","","","","","","","","","","","","","","","",""
"","","","","ctl-task-cpt","44","578609","0.0-5.0-0.7","173","1","2025-07-23 07:26:50","1f75c3e559b7213887762d5229550c2b","41.116.96.121","Mozilla/5.0 (Windows NT 10.0; Win64; x64) AppleWebKit/537.36 (KHTML, like Gecko) Chrome/138.0.0.0 Safari/537.36","WebKit","Chrome","138.0.0.0","Windows","10.0","https://app.prolific.com/","en-ZA,en-GB;q=0.9,en-US;q=0.8,en;q=0.7","653a6a7224e6c0bfb644ff9b","683dba2a8a9dda3513610c04","68808eadd61b5cde2371ccea","3","0","653a6a7224e6c0bfb644ff9b","3","0","2025-07-23T07:36:31.025Z","","","","","","","","","","","","","","win-only","2","g1:SE,g2:NW","0.3","8","0","521974.5","1120.5","6122.6","56720.5","1","4","4","6","2","4","4","39","35","0.29545454545454547","995","3000","1605","[""left"",""up""]","{""num_key_presses"":12,""num_perfect"":4,""num_errors"":0,""num_randdir"":8,""num_randdir_good_moves"":5,""num_whilered"":0,""num_whileblue"":0,""num_blue"":2,""num_good_moves"":9}","[299.22232142857143,298.12857142857143,0.4,299.22232142857143,298.12857142857143,110.6,299.22232142857143,298.12857142857143,227.5,299.22232142857143,298.12857142857143,333.4,302.22232142857143,298.12857142857143,449.6,306.22232142857143,299.12857142857143,567.7,15.222321428571426,83.12857142857143,673.9,9.222321428571426,72.12857142857143,791.4,23.222321428571426,60.128571428571426,899.2,45.222321428571426,61.128571428571426,1022.6,45.222321428571426,61.128571428571426,1123,45.222321428571426,61.128571428571426,1234.8,78.22232142857143,112.12857142857143,1345.1,165.22232142857143,195.12857142857143,1451.1,178.22232142857143,212.12857142857143,1551.9,182.22232142857143,219.12857142857143,1669.6,182.22232142857143,219.12857142857143,1783.5,182.22232142857143,219.12857142857143,1902.5,182.22232142857143,219.12857142857143,2018.4,182.22232142857143,219.12857142857143,2126.7,182.22232142857143,219.12857142857143,2234.1,182.22232142857143,219.12857142857143,2356.2,182.22232142857143,219.12857142857143,2468.6,182.22232142857143,219.12857142857143,2581.3,182.22232142857143,219.12857142857143,2696.6,182.22232142857143,219.12857142857143,2814.3,182.22232142857143,219.12857142857143,2928.2,182.22232142857143,219.12857142857143,3043.6,182.22232142857143,219.12857142857143,3145.6,182.22232142857143,219.12857142857143,3259.4,182.22232142857143,219.12857142857143,3359.5,182.22232142857143,219.12857142857143,3471.4,182.22232142857143,219.12857142857143,3584.8,182.22232142857143,219.12857142857143,3697,182.22232142857143,219.12857142857143,3811,182.22232142857143,219.12857142857143,3924.6,182.22232142857143,219.12857142857143,4034.2,182.22232142857143,219.12857142857143,4149.6,182.22232142857143,219.12857142857143,4264.8,182.22232142857143,219.12857142857143,4379.7,182.22232142857143,219.12857142857143,4497.5,182.22232142857143,219.12857142857143,4610.7,182.22232142857143,219.12857142857143,4723,182.22232142857143,219.12857142857143,4835.5,182.22232142857143,219.12857142857143,4951.3]","[1554.9,1555,1000,0,555,""oops"",""up"",""up"",""good_move"",6589.6,5033.3,2084,1556.3,2949.4,""oops"",""left"",""down"",""bad_move"",9521.1,2930.6,2376.8,6590.5,553.8,""smooth"",""up"",""up"",""good_move"",16973.9,7452.1,3149,13264.8,560.1,""oops"",""left"",""right"",""bad_move"",19636.8,2662.2,2108.5,16974.6,553.7,""oops"",""up"",""up"",""good_move"",22909.2,3271.7,2861.8,19637.5,409.9,""smooth"",""left"",""left"",""good_move"",26420,3509.9,2659.2,22910.1,850.7,""oops"",""left"",""up"",""good_move"",29861,3440.3,2083.1,26420.7,1357.2,""oops"",""left"",""left"",""good_move"",33691,3829.1,2527.6,29861.9,1301.5,""oops"",""left"",""down"",""bad_move"",39708,6015.9,2739.8,36476,492.3,""smooth"",""left"",""left"",""good_move"",45322.6,5614.2,2488.9,39708.4,3125.3,""oops"",""up"",""left"",""good_move"",50256.2,4933.3,2813.6,45322.9,2119.7,""smooth"",""up"",""up"",""good_move""]","",""
"2831","","<div style=""width:500px;"">
  <p>What determined the result of this run?</p>
  </div>","85","html-slider-response","45","581444","0.0-5.0-1.7","173","1","2025-07-23 07:26:50","1f75c3e559b7213887762d5229550c2b","41.116.96.121","Mozilla/5.0 (Windows NT 10.0; Win64; x64) AppleWebKit/537.36 (KHTML, like Gecko) Chrome/138.0.0.0 Safari/537.36","WebKit","Chrome","138.0.0.0","Windows","10.0","https://app.prolific.com/","en-ZA,en-GB;q=0.9,en-US;q=0.8,en;q=0.7","653a6a7224e6c0bfb644ff9b","683dba2a8a9dda3513610c04","68808eadd61b5cde2371ccea","3","0","653a6a7224e6c0bfb644ff9b","3","0","2025-07-23T07:36:33.861Z","","","","","","","","","","","AttribQ","","50","","","","","","","","","","","","","","","","","","","","","","","","","","","","",""
"4460","","<div style=""width:500px;"">
  <p>How much control did you have over the ball?</p>
  </div>","66","html-slider-response","46","585908","0.0-5.0-2.7","173","1","2025-07-23 07:26:50","1f75c3e559b7213887762d5229550c2b","41.116.96.121","Mozilla/5.0 (Windows NT 10.0; Win64; x64) AppleWebKit/537.36 (KHTML, like Gecko) Chrome/138.0.0.0 Safari/537.36","WebKit","Chrome","138.0.0.0","Windows","10.0","https://app.prolific.com/","en-ZA,en-GB;q=0.9,en-US;q=0.8,en;q=0.7","653a6a7224e6c0bfb644ff9b","683dba2a8a9dda3513610c04","68808eadd61b5cde2371ccea","3","0","653a6a7224e6c0bfb644ff9b","3","0","2025-07-23T07:36:38.325Z","","","","","","","","","","","ControlQ","","50","","","","","","","","","","","","","","","","","","","","","","","","","","","","",""
"3847","","<div style=""width:500px;"">
  <p>How would you describe your current emotional state?</p>
  </div>","86","html-slider-response","47","589759","0.0-5.0-3.7","173","1","2025-07-23 07:26:50","1f75c3e559b7213887762d5229550c2b","41.116.96.121","Mozilla/5.0 (Windows NT 10.0; Win64; x64) AppleWebKit/537.36 (KHTML, like Gecko) Chrome/138.0.0.0 Safari/537.36","WebKit","Chrome","138.0.0.0","Windows","10.0","https://app.prolific.com/","en-ZA,en-GB;q=0.9,en-US;q=0.8,en;q=0.7","653a6a7224e6c0bfb644ff9b","683dba2a8a9dda3513610c04","68808eadd61b5cde2371ccea","3","0","653a6a7224e6c0bfb644ff9b","3","0","2025-07-23T07:36:42.176Z","","","","","","","","","","","StressQ","","50","","","","","","","","","","","","","","","","","","","","","","","","","","","","",""
"3733","","<div style=""width:500px;"">
  <p>What best describes how you currently feel?</p>
  </div>","67","html-slider-response","48","593496","0.0-5.0-4.7","173","1","2025-07-23 07:26:50","1f75c3e559b7213887762d5229550c2b","41.116.96.121","Mozilla/5.0 (Windows NT 10.0; Win64; x64) AppleWebKit/537.36 (KHTML, like Gecko) Chrome/138.0.0.0 Safari/537.36","WebKit","Chrome","138.0.0.0","Windows","10.0","https://app.prolific.com/","en-ZA,en-GB;q=0.9,en-US;q=0.8,en;q=0.7","653a6a7224e6c0bfb644ff9b","683dba2a8a9dda3513610c04","68808eadd61b5cde2371ccea","3","0","653a6a7224e6c0bfb644ff9b","3","0","2025-07-23T07:36:45.912Z","","","","","","","","","","","MotivationQ","","50","","","","","","","","","","","","","","","","","","","","","","","","","","","","",""
"","","","","ctl-task-cpt","49","759250","0.0-5.0-0.8","173","1","2025-07-23 07:26:50","1f75c3e559b7213887762d5229550c2b","41.116.96.121","Mozilla/5.0 (Windows NT 10.0; Win64; x64) AppleWebKit/537.36 (KHTML, like Gecko) Chrome/138.0.0.0 Safari/537.36","WebKit","Chrome","138.0.0.0","Windows","10.0","https://app.prolific.com/","en-ZA,en-GB;q=0.9,en-US;q=0.8,en;q=0.7","653a6a7224e6c0bfb644ff9b","683dba2a8a9dda3513610c04","68808eadd61b5cde2371ccea","3","0","653a6a7224e6c0bfb644ff9b","3","0","2025-07-23T07:39:31.666Z","","","","","","","","","","","","","","win-only","2","g1:SE,g2:NW","0.2","9","0","596626.9","3440.4","8446.6","162674.7","1","4","8","6","2","-8","-8","31","39","0.23484848484848486","1035.3","3000","-700","[""left"",""up""]","{""num_key_presses"":30,""num_perfect"":6,""num_errors"":0,""num_randdir"":24,""num_randdir_good_moves"":10,""num_whilered"":0,""num_whileblue"":0,""num_blue"":9,""num_good_moves"":16}","[296.22232142857143,297.12857142857143,0.4,296.22232142857143,297.12857142857143,192.1,296.22232142857143,297.12857142857143,293.8,296.22232142857143,297.12857142857143,402.6,296.22232142857143,297.12857142857143,505,128.22232142857143,126.12857142857143,685.5,108.22232142857143,102.12857142857143,786.3,84.22232142857143,77.12857142857143,938.3,77.22232142857143,72.12857142857143,1051.2,77.22232142857143,72.12857142857143,1151.5,82.22232142857143,83.12857142857143,1354.3,126.22232142857143,114.12857142857143,1469.5,140.22232142857143,129.12857142857143,1658.6,140.22232142857143,129.12857142857143,1766.6,140.22232142857143,129.12857142857143,1875.4,140.22232142857143,129.12857142857143,2071.4,140.22232142857143,129.12857142857143,2179.1,140.22232142857143,129.12857142857143,2291.2,140.22232142857143,129.12857142857143,2420.1,140.22232142857143,129.12857142857143,2521.7,140.22232142857143,129.12857142857143,2632.9,140.22232142857143,129.12857142857143,2747.5,140.22232142857143,129.12857142857143,2857.2,140.22232142857143,129.12857142857143,3008.1,140.22232142857143,129.12857142857143,3108.4,140.22232142857143,129.12857142857143,3209,140.22232142857143,129.12857142857143,3316.1,140.22232142857143,129.12857142857143,3417.1,140.22232142857143,129.12857142857143,3517.9,140.22232142857143,129.12857142857143,3654.7,140.22232142857143,129.12857142857143,3761.5,140.22232142857143,129.12857142857143,3867.7,140.22232142857143,129.12857142857143,3973.6,140.22232142857143,129.12857142857143,4087.9,140.22232142857143,129.12857142857143,4190,140.22232142857143,129.12857142857143,4383.3,140.22232142857143,129.12857142857143,4484.2,140.22232142857143,129.12857142857143,4590.5,140.22232142857143,129.12857142857143,4698.7,140.22232142857143,129.12857142857143,4814.9,140.22232142857143,129.12857142857143,4935.1]","[1561.1,1561.1,1000,0,561.1,""smooth"",""left"",""left"",""good_move"",14765.5,13203.4,1807.6,12412.3,545.6,""smooth"",""left"",""left"",""good_move"",20074.2,5308.2,2108.5,14766,3199.7,""oops"",""left"",""left"",""good_move"",23213.4,3138.6,2178.2,20074.8,960.4,""oops"",""up"",""up"",""good_move"",26355.3,3141.3,2635.3,23214,506,""oops"",""up"",""down"",""bad_move"",29062.5,2706.2,2191.7,26356.3,514.6,""oops"",""up"",""down"",""bad_move"",32192.6,3128.9,2598.5,29063.7,530.4,""oops"",""up"",""down"",""bad_move"",34726.9,2533.5,2123.5,32193.5,410,""oops"",""up"",""left"",""good_move"",38617.9,3890.4,2328.6,34727.5,1561.8,""oops"",""up"",""up"",""good_move"",46465.6,7846.5,2602.9,43314.6,548.2,""oops"",""up"",""down"",""bad_move"",53084.9,6618.8,2741.3,49867.2,476.4,""oops"",""right"",""up"",""good_move"",62209.2,9120.6,2112.7,59435.3,661.2,""oops"",""right"",""right"",""bad_move"",64911.8,2702,1966.4,62209.8,735.6,""oops"",""up"",""up"",""good_move"",73708,8795.3,1892.6,71312.1,503.3,""oops"",""up"",""down"",""bad_move"",77062.5,3354.1,2695.6,73708.4,658.5,""oops"",""up"",""up"",""good_move"",85632.1,8568.7,1936.7,77063.4,6632,""smooth"",""up"",""up"",""good_move"",95175.1,9542.4,2247.5,85632.7,7294.9,""oops"",""up"",""right"",""bad_move"",98725.7,3550.2,2975.6,95175.5,574.6,""oops"",""up"",""down"",""bad_move"",101757.7,3031.2,2347.4,98726.5,683.8,""smooth"",""up"",""up"",""good_move"",106552.8,4794.3,2387.2,101758.5,2407.2,""oops"",""up"",""up"",""good_move"",110947.5,4393.7,2146.8,106553.9,2246.8,""oops"",""left"",""left"",""good_move"",115931.8,4983.5,2252,110948.3,2731.5,""oops"",""up"",""down"",""bad_move"",118897.8,2964.7,2508.8,115933.3,455.9,""oops"",""up"",""up"",""good_move"",123163.1,4259.9,3222.5,118903.2,1037.4,""oops"",""up"",""down"",""bad_move"",131979,8815.1,1764.4,129743.5,471.1,""oops"",""up"",""down"",""bad_move"",135157.7,3178.3,2606.1,131979.4,572.2,""oops"",""up"",""right"",""bad_move"",138040.3,2881.5,2356.4,135159,524.9,""oops"",""up"",""right"",""bad_move"",141022.4,2981.3,2512.8,138041.1,468.5,""smooth"",""up"",""up"",""good_move"",146900.2,5876.2,2774.4,141024,3101.8,""oops"",""up"",""right"",""bad_move"",150356,3455.1,2963.7,146900.9,491.4,""smooth"",""up"",""up"",""good_move""]","",""
"3369","","<div style=""width:500px;"">
  <p>What determined the result of this run?</p>
  </div>","1","html-slider-response","50","762622","0.0-5.0-1.8","173","1","2025-07-23 07:26:50","1f75c3e559b7213887762d5229550c2b","41.116.96.121","Mozilla/5.0 (Windows NT 10.0; Win64; x64) AppleWebKit/537.36 (KHTML, like Gecko) Chrome/138.0.0.0 Safari/537.36","WebKit","Chrome","138.0.0.0","Windows","10.0","https://app.prolific.com/","en-ZA,en-GB;q=0.9,en-US;q=0.8,en;q=0.7","653a6a7224e6c0bfb644ff9b","683dba2a8a9dda3513610c04","68808eadd61b5cde2371ccea","3","0","653a6a7224e6c0bfb644ff9b","3","0","2025-07-23T07:39:35.038Z","","","","","","","","","","","AttribQ","","50","","","","","","","","","","","","","","","","","","","","","","","","","","","","",""
"4041","","<div style=""width:500px;"">
  <p>How much control did you have over the ball?</p>
  </div>","3","html-slider-response","51","766667","0.0-5.0-2.8","173","1","2025-07-23 07:26:50","1f75c3e559b7213887762d5229550c2b","41.116.96.121","Mozilla/5.0 (Windows NT 10.0; Win64; x64) AppleWebKit/537.36 (KHTML, like Gecko) Chrome/138.0.0.0 Safari/537.36","WebKit","Chrome","138.0.0.0","Windows","10.0","https://app.prolific.com/","en-ZA,en-GB;q=0.9,en-US;q=0.8,en;q=0.7","653a6a7224e6c0bfb644ff9b","683dba2a8a9dda3513610c04","68808eadd61b5cde2371ccea","3","0","653a6a7224e6c0bfb644ff9b","3","0","2025-07-23T07:39:39.083Z","","","","","","","","","","","ControlQ","","50","","","","","","","","","","","","","","","","","","","","","","","","","","","","",""
"3063","","<div style=""width:500px;"">
  <p>How would you describe your current emotional state?</p>
  </div>","100","html-slider-response","52","769734","0.0-5.0-3.8","173","1","2025-07-23 07:26:50","1f75c3e559b7213887762d5229550c2b","41.116.96.121","Mozilla/5.0 (Windows NT 10.0; Win64; x64) AppleWebKit/537.36 (KHTML, like Gecko) Chrome/138.0.0.0 Safari/537.36","WebKit","Chrome","138.0.0.0","Windows","10.0","https://app.prolific.com/","en-ZA,en-GB;q=0.9,en-US;q=0.8,en;q=0.7","653a6a7224e6c0bfb644ff9b","683dba2a8a9dda3513610c04","68808eadd61b5cde2371ccea","3","0","653a6a7224e6c0bfb644ff9b","3","0","2025-07-23T07:39:42.150Z","","","","","","","","","","","StressQ","","50","","","","","","","","","","","","","","","","","","","","","","","","","","","","",""
"2695","","<div style=""width:500px;"">
  <p>What best describes how you currently feel?</p>
  </div>","61","html-slider-response","53","772434","0.0-5.0-4.8","173","1","2025-07-23 07:26:50","1f75c3e559b7213887762d5229550c2b","41.116.96.121","Mozilla/5.0 (Windows NT 10.0; Win64; x64) AppleWebKit/537.36 (KHTML, like Gecko) Chrome/138.0.0.0 Safari/537.36","WebKit","Chrome","138.0.0.0","Windows","10.0","https://app.prolific.com/","en-ZA,en-GB;q=0.9,en-US;q=0.8,en;q=0.7","653a6a7224e6c0bfb644ff9b","683dba2a8a9dda3513610c04","68808eadd61b5cde2371ccea","3","0","653a6a7224e6c0bfb644ff9b","3","0","2025-07-23T07:39:44.850Z","","","","","","","","","","","MotivationQ","","50","","","","","","","","","","","","","","","","","","","","","","","","","","","","",""
"","","","","ctl-task-cpt","54","833025","0.0-5.0-0.9","173","1","2025-07-23 07:26:50","1f75c3e559b7213887762d5229550c2b","41.116.96.121","Mozilla/5.0 (Windows NT 10.0; Win64; x64) AppleWebKit/537.36 (KHTML, like Gecko) Chrome/138.0.0.0 Safari/537.36","WebKit","Chrome","138.0.0.0","Windows","10.0","https://app.prolific.com/","en-ZA,en-GB;q=0.9,en-US;q=0.8,en;q=0.7","653a6a7224e6c0bfb644ff9b","683dba2a8a9dda3513610c04","68808eadd61b5cde2371ccea","3","0","653a6a7224e6c0bfb644ff9b","3","0","2025-07-23T07:40:45.442Z","","","","","","","","","","","","","","win-only","1","g1:NE,g2:SW","0.4","10","0","775566.1","1155","6186.1","57557.4","1","4","4","6","2","4","3","34","31","0.25757575757575757","857.8","3000","1905","[""down"",""left""]","{""num_key_presses"":10,""num_perfect"":3,""num_errors"":1,""num_randdir"":6,""num_randdir_good_moves"":4,""num_whilered"":0,""num_whileblue"":1,""num_blue"":3,""num_good_moves"":8}","[291.22232142857143,290.12857142857143,0.9,291.22232142857143,290.12857142857143,109.2,291.22232142857143,290.12857142857143,230.4,291.22232142857143,290.12857142857143,343.6,292.22232142857143,290.12857142857143,461.3,30.222321428571426,535.1285714285714,605.9,27.222321428571426,539.1285714285714,731.3,32.222321428571426,539.1285714285714,868.4,32.222321428571426,539.1285714285714,985.2,32.222321428571426,539.1285714285714,1104.7,32.222321428571426,539.1285714285714,1213.3,35.222321428571426,539.1285714285714,1325.9,35.222321428571426,539.1285714285714,1435.2,38.222321428571426,538.1285714285714,1543.2,42.222321428571426,539.1285714285714,1665.1,42.222321428571426,539.1285714285714,1772.9,42.222321428571426,539.1285714285714,1884.4,42.222321428571426,539.1285714285714,1997,42.222321428571426,539.1285714285714,2112.5,42.222321428571426,539.1285714285714,2225.5,42.222321428571426,539.1285714285714,2338.4,42.222321428571426,539.1285714285714,2446.4,42.222321428571426,539.1285714285714,2571.1,42.222321428571426,539.1285714285714,2689.5,59.222321428571426,564.1285714285714,2818.8,90.22232142857143,610.1285714285714,2943,90.22232142857143,610.1285714285714,3054.9,90.22232142857143,610.1285714285714,3168.9,90.22232142857143,610.1285714285714,3277.7,90.22232142857143,610.1285714285714,3389.6,90.22232142857143,610.1285714285714,3495.1,90.22232142857143,610.1285714285714,3626.4,90.22232142857143,610.1285714285714,3742.4,90.22232142857143,610.1285714285714,3859,90.22232142857143,610.1285714285714,3971.8,90.22232142857143,610.1285714285714,4080,90.22232142857143,610.1285714285714,4195.7,90.22232142857143,610.1285714285714,4308.7,90.22232142857143,610.1285714285714,4427.3,90.22232142857143,610.1285714285714,4544.6,90.22232142857143,610.1285714285714,4654.2,90.22232142857143,610.1285714285714,4764.7,90.22232142857143,610.1285714285714,4881.7,90.22232142857143,610.1285714285714,4990.8]","[5437.8,5437.9,2799.4,2075.7,562.8,""oops"",""down"",""left"",""good_move"",12308.9,6869.2,6389.1,5439.7,480.1,""while_blue"",""down"",""down"",""good_move"",16547.9,4238.1,3104.7,12309.8,1133.4,""oops"",""down"",""left"",""good_move"",27457.1,10908.8,2780.9,24104.4,571.8,""oops"",""down"",""right"",""bad_move"",30512.6,3054.3,2221,27458.4,833.3,""oops"",""down"",""right"",""bad_move"",33859.1,3345.9,2708.2,30513.2,637.7,""oops"",""down"",""left"",""good_move"",38589.9,4729.6,2378.4,33860.3,2351.2,""smooth"",""down"",""down"",""good_move"",41895.5,3305,2534.9,38590.5,770.1,""smooth"",""down"",""down"",""good_move"",44754.4,2857.9,2290.3,41896.5,567.6,""oops"",""left"",""left"",""good_move"",51022.8,6267.8,1571.8,44755,4696,""smooth"",""left"",""left"",""good_move""]","",""
"4421","","<div style=""width:500px;"">
  <p>What determined the result of this run?</p>
  </div>","69","html-slider-response","55","837451","0.0-5.0-1.9","173","1","2025-07-23 07:26:50","1f75c3e559b7213887762d5229550c2b","41.116.96.121","Mozilla/5.0 (Windows NT 10.0; Win64; x64) AppleWebKit/537.36 (KHTML, like Gecko) Chrome/138.0.0.0 Safari/537.36","WebKit","Chrome","138.0.0.0","Windows","10.0","https://app.prolific.com/","en-ZA,en-GB;q=0.9,en-US;q=0.8,en;q=0.7","653a6a7224e6c0bfb644ff9b","683dba2a8a9dda3513610c04","68808eadd61b5cde2371ccea","3","0","653a6a7224e6c0bfb644ff9b","3","0","2025-07-23T07:40:49.867Z","","","","","","","","","","","AttribQ","","50","","","","","","","","","","","","","","","","","","","","","","","","","","","","",""
"5012","","<div style=""width:500px;"">
  <p>How much control did you have over the ball?</p>
  </div>","45","html-slider-response","56","842467","0.0-5.0-2.9","173","1","2025-07-23 07:26:50","1f75c3e559b7213887762d5229550c2b","41.116.96.121","Mozilla/5.0 (Windows NT 10.0; Win64; x64) AppleWebKit/537.36 (KHTML, like Gecko) Chrome/138.0.0.0 Safari/537.36","WebKit","Chrome","138.0.0.0","Windows","10.0","https://app.prolific.com/","en-ZA,en-GB;q=0.9,en-US;q=0.8,en;q=0.7","653a6a7224e6c0bfb644ff9b","683dba2a8a9dda3513610c04","68808eadd61b5cde2371ccea","3","0","653a6a7224e6c0bfb644ff9b","3","0","2025-07-23T07:40:54.883Z","","","","","","","","","","","ControlQ","","50","","","","","","","","","","","","","","","","","","","","","","","","","","","","",""
"2743","","<div style=""width:500px;"">
  <p>How would you describe your current emotional state?</p>
  </div>","100","html-slider-response","57","845213","0.0-5.0-3.9","173","1","2025-07-23 07:26:50","1f75c3e559b7213887762d5229550c2b","41.116.96.121","Mozilla/5.0 (Windows NT 10.0; Win64; x64) AppleWebKit/537.36 (KHTML, like Gecko) Chrome/138.0.0.0 Safari/537.36","WebKit","Chrome","138.0.0.0","Windows","10.0","https://app.prolific.com/","en-ZA,en-GB;q=0.9,en-US;q=0.8,en;q=0.7","653a6a7224e6c0bfb644ff9b","683dba2a8a9dda3513610c04","68808eadd61b5cde2371ccea","3","0","653a6a7224e6c0bfb644ff9b","3","0","2025-07-23T07:40:57.629Z","","","","","","","","","","","StressQ","","50","","","","","","","","","","","","","","","","","","","","","","","","","","","","",""
"5952","","<div style=""width:500px;"">
  <p>What best describes how you currently feel?</p>
  </div>","67","html-slider-response","58","851169","0.0-5.0-4.9","173","1","2025-07-23 07:26:50","1f75c3e559b7213887762d5229550c2b","41.116.96.121","Mozilla/5.0 (Windows NT 10.0; Win64; x64) AppleWebKit/537.36 (KHTML, like Gecko) Chrome/138.0.0.0 Safari/537.36","WebKit","Chrome","138.0.0.0","Windows","10.0","https://app.prolific.com/","en-ZA,en-GB;q=0.9,en-US;q=0.8,en;q=0.7","653a6a7224e6c0bfb644ff9b","683dba2a8a9dda3513610c04","68808eadd61b5cde2371ccea","3","0","653a6a7224e6c0bfb644ff9b","3","0","2025-07-23T07:41:03.585Z","","","","","","","","","","","MotivationQ","","50","","","","","","","","","","","","","","","","","","","","","","","","","","","","",""
"","","","","ctl-task-cpt","59","1038898","0.0-5.0-0.10","173","1","2025-07-23 07:26:50","1f75c3e559b7213887762d5229550c2b","41.116.96.121","Mozilla/5.0 (Windows NT 10.0; Win64; x64) AppleWebKit/537.36 (KHTML, like Gecko) Chrome/138.0.0.0 Safari/537.36","WebKit","Chrome","138.0.0.0","Windows","10.0","https://app.prolific.com/","en-ZA,en-GB;q=0.9,en-US;q=0.8,en;q=0.7","653a6a7224e6c0bfb644ff9b","683dba2a8a9dda3513610c04","68808eadd61b5cde2371ccea","3","0","653a6a7224e6c0bfb644ff9b","3","0","2025-07-23T07:44:11.314Z","","","","","","","","","","","","","","win-only","0","g1:NW,g2:SE","0.5","11","0","854304.7","1309.8","6318.5","184635.5","1","4","8","6","2","8","7","41","34","0.3106060606060606","965.4","3000","1190","[""down"",""right""]","{""num_key_presses"":28,""num_perfect"":14,""num_errors"":1,""num_randdir"":13,""num_randdir_good_moves"":3,""num_whilered"":0,""num_whileblue"":0,""num_blue"":9,""num_good_moves"":17}","[293.22232142857143,288.12857142857143,0.4,293.22232142857143,288.12857142857143,102.4,293.22232142857143,288.12857142857143,220.9,293.22232142857143,288.12857142857143,341,293.22232142857143,288.12857142857143,446.9,565.2223214285714,609.1285714285714,641.1,565.2223214285714,609.1285714285714,754,546.2223214285714,541.1285714285714,933.3,546.2223214285714,540.1285714285714,1041.1,546.2223214285714,540.1285714285714,1234.7,546.2223214285714,540.1285714285714,1343.4,546.2223214285714,540.1285714285714,1528.3,546.2223214285714,540.1285714285714,1630.8,546.2223214285714,540.1285714285714,1746.9,546.2223214285714,540.1285714285714,1902.8,546.2223214285714,540.1285714285714,2013.7,546.2223214285714,540.1285714285714,2115,546.2223214285714,540.1285714285714,2345.1,546.2223214285714,540.1285714285714,2459.3,546.2223214285714,540.1285714285714,2563,546.2223214285714,540.1285714285714,2724.5,546.2223214285714,540.1285714285714,2831.8,546.2223214285714,540.1285714285714,2933.2,546.2223214285714,540.1285714285714,3162.1,546.2223214285714,540.1285714285714,3263.4,546.2223214285714,540.1285714285714,3391.5,546.2223214285714,540.1285714285714,3505.7,546.2223214285714,540.1285714285714,3615.2,546.2223214285714,540.1285714285714,3721.3,546.2223214285714,540.1285714285714,3933.4,546.2223214285714,540.1285714285714,4043.4,546.2223214285714,540.1285714285714,4155.7,546.2223214285714,540.1285714285714,4273.6,546.2223214285714,540.1285714285714,4495.2,546.2223214285714,540.1285714285714,4606.6,546.2223214285714,540.1285714285714,4709.5,546.2223214285714,540.1285714285714,4825.2,546.2223214285714,540.1285714285714,4930.2]","[1586.3,1586.3,1000,0,586.3,""smooth"",""down"",""down"",""good_move"",5002,3415,2806.9,1587,608.1,""smooth"",""down"",""down"",""good_move"",8346.5,3343.2,2493.7,5003.3,849.5,""oops"",""down"",""left"",""bad_move"",13619,5270.9,2241.1,8348.1,3029.8,""oops"",""down"",""up"",""bad_move"",31080.1,17459.8,2114.9,28080.2,885,""oops"",""down"",""up"",""bad_move"",31615.4,534,2154.2,31081.6,-1620.4,""error"",""-"",""-"",""no_move"",37368.9,5752.4,1888,32636.9,2844.1,""smooth"",""down"",""down"",""good_move"",40700.1,3330.1,2619.9,37370,710.2,""smooth"",""down"",""down"",""good_move"",51145.8,10445.1,3158.8,47431,556,""oops"",""down"",""up"",""bad_move"",60567.3,9420.6,3247.5,51146.7,6173.1,""smooth"",""down"",""down"",""good_move"",64549.5,3979.7,2409.7,60569.8,1570,""oops"",""down"",""down"",""good_move"",71674.8,7124.8,2686.6,68425.3,562.9,""oops"",""right"",""left"",""bad_move"",80296.6,8620.4,3097,71676.2,5523.4,""oops"",""right"",""up"",""bad_move"",88938.4,8641.5,2423.6,80297,6217.8,""smooth"",""right"",""right"",""good_move"",92194.1,3253.8,2518,88940.3,735.8,""oops"",""right"",""up"",""bad_move"",103080.1,10885.5,2763.9,92194.6,8121.6,""oops"",""right"",""left"",""bad_move"",114614.9,11533.9,2307.7,103081,9226.2,""smooth"",""down"",""down"",""good_move"",116863.1,2247.7,1557.6,114615.4,690.1,""smooth"",""right"",""right"",""good_move"",120399.5,3535.9,2962.8,116863.6,573.1,""smooth"",""right"",""right"",""good_move"",131118.4,10718.7,2397.9,127955.4,765.1,""oops"",""down"",""left"",""bad_move"",143423.6,12304.6,2897.2,131119,9407.4,""smooth"",""down"",""down"",""good_move"",146813.5,3389.5,2477.8,143424.2,911.6,""oops"",""right"",""right"",""good_move"",151315.5,4501.3,3213,146814.3,1288.3,""smooth"",""right"",""right"",""good_move"",153617.2,2301.3,1592,151315.9,709.3,""smooth"",""right"",""right"",""good_move"",156109.5,2492,2449.5,153617.5,42.5,""oops"",""right"",""left"",""bad_move"",169359.5,13249.6,2095.2,156109.9,11154.4,""smooth"",""right"",""right"",""good_move"",172082.6,2722.4,2042.8,169360.3,679.5,""oops"",""right"",""right"",""good_move"",175365.1,3281.7,2419.1,172083.5,862.5,""smooth"",""right"",""right"",""good_move""]","",""
"4734","","<div style=""width:500px;"">
  <p>What determined the result of this run?</p>
  </div>","37","html-slider-response","60","1043640","0.0-5.0-1.10","173","1","2025-07-23 07:26:50","1f75c3e559b7213887762d5229550c2b","41.116.96.121","Mozilla/5.0 (Windows NT 10.0; Win64; x64) AppleWebKit/537.36 (KHTML, like Gecko) Chrome/138.0.0.0 Safari/537.36","WebKit","Chrome","138.0.0.0","Windows","10.0","https://app.prolific.com/","en-ZA,en-GB;q=0.9,en-US;q=0.8,en;q=0.7","653a6a7224e6c0bfb644ff9b","683dba2a8a9dda3513610c04","68808eadd61b5cde2371ccea","3","0","653a6a7224e6c0bfb644ff9b","3","0","2025-07-23T07:44:16.057Z","","","","","","","","","","","AttribQ","","50","","","","","","","","","","","","","","","","","","","","","","","","","","","","",""
"2914","","<div style=""width:500px;"">
  <p>How much control did you have over the ball?</p>
  </div>","42","html-slider-response","61","1046558","0.0-5.0-2.10","173","1","2025-07-23 07:26:50","1f75c3e559b7213887762d5229550c2b","41.116.96.121","Mozilla/5.0 (Windows NT 10.0; Win64; x64) AppleWebKit/537.36 (KHTML, like Gecko) Chrome/138.0.0.0 Safari/537.36","WebKit","Chrome","138.0.0.0","Windows","10.0","https://app.prolific.com/","en-ZA,en-GB;q=0.9,en-US;q=0.8,en;q=0.7","653a6a7224e6c0bfb644ff9b","683dba2a8a9dda3513610c04","68808eadd61b5cde2371ccea","3","0","653a6a7224e6c0bfb644ff9b","3","0","2025-07-23T07:44:18.974Z","","","","","","","","","","","ControlQ","","50","","","","","","","","","","","","","","","","","","","","","","","","","","","","",""
"2323","","<div style=""width:500px;"">
  <p>How would you describe your current emotional state?</p>
  </div>","100","html-slider-response","62","1048885","0.0-5.0-3.10","173","1","2025-07-23 07:26:50","1f75c3e559b7213887762d5229550c2b","41.116.96.121","Mozilla/5.0 (Windows NT 10.0; Win64; x64) AppleWebKit/537.36 (KHTML, like Gecko) Chrome/138.0.0.0 Safari/537.36","WebKit","Chrome","138.0.0.0","Windows","10.0","https://app.prolific.com/","en-ZA,en-GB;q=0.9,en-US;q=0.8,en;q=0.7","653a6a7224e6c0bfb644ff9b","683dba2a8a9dda3513610c04","68808eadd61b5cde2371ccea","3","0","653a6a7224e6c0bfb644ff9b","3","0","2025-07-23T07:44:21.301Z","","","","","","","","","","","StressQ","","50","","","","","","","","","","","","","","","","","","","","","","","","","","","","",""
"2065","","<div style=""width:500px;"">
  <p>What best describes how you currently feel?</p>
  </div>","59","html-slider-response","63","1050954","0.0-5.0-4.10","173","1","2025-07-23 07:26:50","1f75c3e559b7213887762d5229550c2b","41.116.96.121","Mozilla/5.0 (Windows NT 10.0; Win64; x64) AppleWebKit/537.36 (KHTML, like Gecko) Chrome/138.0.0.0 Safari/537.36","WebKit","Chrome","138.0.0.0","Windows","10.0","https://app.prolific.com/","en-ZA,en-GB;q=0.9,en-US;q=0.8,en;q=0.7","653a6a7224e6c0bfb644ff9b","683dba2a8a9dda3513610c04","68808eadd61b5cde2371ccea","3","0","653a6a7224e6c0bfb644ff9b","3","0","2025-07-23T07:44:23.370Z","","","","","","","","","","","MotivationQ","","50","","","","","","","","","","","","","","","","","","","","","","","","","","","","",""
"","","","","ctl-task-cpt","64","1104523","0.0-5.0-0.11","173","1","2025-07-23 07:26:50","1f75c3e559b7213887762d5229550c2b","41.116.96.121","Mozilla/5.0 (Windows NT 10.0; Win64; x64) AppleWebKit/537.36 (KHTML, like Gecko) Chrome/138.0.0.0 Safari/537.36","WebKit","Chrome","138.0.0.0","Windows","10.0","https://app.prolific.com/","en-ZA,en-GB;q=0.9,en-US;q=0.8,en;q=0.7","653a6a7224e6c0bfb644ff9b","683dba2a8a9dda3513610c04","68808eadd61b5cde2371ccea","3","0","653a6a7224e6c0bfb644ff9b","3","0","2025-07-23T07:45:16.939Z","","","","","","","","","","","","","","win-only","2","g1:SE,g2:NW","0.6","12","0","1054086.7","1716.9","6723.2","50513.9","1","4","4","6","2","4","4","45","41","0.3409090909090909","1250.1","3000","2330","[""left"",""up""]","{""num_key_presses"":8,""num_perfect"":5,""num_errors"":0,""num_randdir"":3,""num_randdir_good_moves"":2,""num_whilered"":0,""num_whileblue"":0,""num_blue"":0,""num_good_moves"":7}","[297.22232142857143,296.12857142857143,3.1,296.22232142857143,296.12857142857143,262.6,296.22232142857143,296.12857142857143,369.1,296.22232142857143,296.12857142857143,469.8,320.22232142857143,315.12857142857143,677.2,162.22232142857143,120.12857142857143,780.3,111.22232142857143,88.12857142857143,890.2,97.22232142857143,80.12857142857143,995.4,83.22232142857143,70.12857142857143,1101.4,80.22232142857143,67.12857142857143,1270.5,80.22232142857143,67.12857142857143,1392.1,88.22232142857143,75.12857142857143,1533,105.22232142857143,98.12857142857143,1652.2,110.22232142857143,107.12857142857143,1768.2,112.22232142857143,111.12857142857143,1892.5,112.22232142857143,111.12857142857143,2011.6,112.22232142857143,111.12857142857143,2135.5,112.22232142857143,111.12857142857143,2247.2,112.22232142857143,111.12857142857143,2359.2,112.22232142857143,111.12857142857143,2559,112.22232142857143,111.12857142857143,2668.5,112.22232142857143,111.12857142857143,2785.4,112.22232142857143,111.12857142857143,2899.9,112.22232142857143,111.12857142857143,3014.5,112.22232142857143,111.12857142857143,3116.7,112.22232142857143,111.12857142857143,3224.3,112.22232142857143,111.12857142857143,3343.1,112.22232142857143,111.12857142857143,3466.3,112.22232142857143,111.12857142857143,3584.2,112.22232142857143,111.12857142857143,3714.3,112.22232142857143,111.12857142857143,3977.5,112.22232142857143,111.12857142857143,4085.1,112.22232142857143,111.12857142857143,4313.9,112.22232142857143,111.12857142857143,4417.8,112.22232142857143,111.12857142857143,4628.7,112.22232142857143,111.12857142857143,4731.4,112.22232142857143,111.12857142857143,4928.8]","[1654.3,1654.3,1000,0,654.3,""smooth"",""up"",""up"",""good_move"",6439.3,4784,2914.9,1655.3,1869.1,""smooth"",""left"",""left"",""good_move"",12123.5,5682.5,2437.2,6441,3245.3,""oops"",""left"",""left"",""good_move"",18183.4,6059.3,2689.3,12124.1,3370,""oops"",""left"",""up"",""good_move"",26036.4,7852.2,2473.2,18184.2,5379,""oops"",""left"",""down"",""bad_move"",29078,3040.6,2262.8,26037.4,777.8,""smooth"",""up"",""up"",""good_move"",36999.9,7918.3,1237.3,29081.7,6680.9,""smooth"",""up"",""up"",""good_move"",43289.6,6289.1,2751.5,37000.5,3537.6,""smooth"",""left"",""left"",""good_move""]","",""
"3163","","<div style=""width:500px;"">
  <p>What determined the result of this run?</p>
  </div>","61","html-slider-response","65","1107691","0.0-5.0-1.11","173","1","2025-07-23 07:26:50","1f75c3e559b7213887762d5229550c2b","41.116.96.121","Mozilla/5.0 (Windows NT 10.0; Win64; x64) AppleWebKit/537.36 (KHTML, like Gecko) Chrome/138.0.0.0 Safari/537.36","WebKit","Chrome","138.0.0.0","Windows","10.0","https://app.prolific.com/","en-ZA,en-GB;q=0.9,en-US;q=0.8,en;q=0.7","653a6a7224e6c0bfb644ff9b","683dba2a8a9dda3513610c04","68808eadd61b5cde2371ccea","3","0","653a6a7224e6c0bfb644ff9b","3","0","2025-07-23T07:45:20.107Z","","","","","","","","","","","AttribQ","","50","","","","","","","","","","","","","","","","","","","","","","","","","","","","",""
"4442","","<div style=""width:500px;"">
  <p>How much control did you have over the ball?</p>
  </div>","57","html-slider-response","66","1112137","0.0-5.0-2.11","173","1","2025-07-23 07:26:50","1f75c3e559b7213887762d5229550c2b","41.116.96.121","Mozilla/5.0 (Windows NT 10.0; Win64; x64) AppleWebKit/537.36 (KHTML, like Gecko) Chrome/138.0.0.0 Safari/537.36","WebKit","Chrome","138.0.0.0","Windows","10.0","https://app.prolific.com/","en-ZA,en-GB;q=0.9,en-US;q=0.8,en;q=0.7","653a6a7224e6c0bfb644ff9b","683dba2a8a9dda3513610c04","68808eadd61b5cde2371ccea","3","0","653a6a7224e6c0bfb644ff9b","3","0","2025-07-23T07:45:24.554Z","","","","","","","","","","","ControlQ","","50","","","","","","","","","","","","","","","","","","","","","","","","","","","","",""
"2927","","<div style=""width:500px;"">
  <p>How would you describe your current emotional state?</p>
  </div>","96","html-slider-response","67","1115070","0.0-5.0-3.11","173","1","2025-07-23 07:26:50","1f75c3e559b7213887762d5229550c2b","41.116.96.121","Mozilla/5.0 (Windows NT 10.0; Win64; x64) AppleWebKit/537.36 (KHTML, like Gecko) Chrome/138.0.0.0 Safari/537.36","WebKit","Chrome","138.0.0.0","Windows","10.0","https://app.prolific.com/","en-ZA,en-GB;q=0.9,en-US;q=0.8,en;q=0.7","653a6a7224e6c0bfb644ff9b","683dba2a8a9dda3513610c04","68808eadd61b5cde2371ccea","3","0","653a6a7224e6c0bfb644ff9b","3","0","2025-07-23T07:45:27.486Z","","","","","","","","","","","StressQ","","50","","","","","","","","","","","","","","","","","","","","","","","","","","","","",""
"2562","","<div style=""width:500px;"">
  <p>What best describes how you currently feel?</p>
  </div>","65","html-slider-response","68","1117637","0.0-5.0-4.11","173","1","2025-07-23 07:26:50","1f75c3e559b7213887762d5229550c2b","41.116.96.121","Mozilla/5.0 (Windows NT 10.0; Win64; x64) AppleWebKit/537.36 (KHTML, like Gecko) Chrome/138.0.0.0 Safari/537.36","WebKit","Chrome","138.0.0.0","Windows","10.0","https://app.prolific.com/","en-ZA,en-GB;q=0.9,en-US;q=0.8,en;q=0.7","653a6a7224e6c0bfb644ff9b","683dba2a8a9dda3513610c04","68808eadd61b5cde2371ccea","3","0","653a6a7224e6c0bfb644ff9b","3","0","2025-07-23T07:45:30.053Z","","","","","","","","","","","MotivationQ","","50","","","","","","","","","","","","","","","","","","","","","","","","","","","","",""
"","","","","ctl-task-cpt","69","1148622","0.0-5.0-0.12","173","1","2025-07-23 07:26:50","1f75c3e559b7213887762d5229550c2b","41.116.96.121","Mozilla/5.0 (Windows NT 10.0; Win64; x64) AppleWebKit/537.36 (KHTML, like Gecko) Chrome/138.0.0.0 Safari/537.36","WebKit","Chrome","138.0.0.0","Windows","10.0","https://app.prolific.com/","en-ZA,en-GB;q=0.9,en-US;q=0.8,en;q=0.7","653a6a7224e6c0bfb644ff9b","683dba2a8a9dda3513610c04","68808eadd61b5cde2371ccea","3","0","653a6a7224e6c0bfb644ff9b","3","0","2025-07-23T07:46:01.038Z","","","","","","","","","","","","","","win-only","3","g1:SW,g2:NE","0.7","13","0","1120774.9","1834.2","6888.7","27934","1","4","4","6","1","1","1","46","45","0.3484848484848485","5054.5","3000","2675","[""down"",""left""]","{""num_key_presses"":4,""num_perfect"":3,""num_errors"":0,""num_randdir"":1,""num_randdir_good_moves"":1,""num_whilered"":0,""num_whileblue"":0,""num_blue"":0,""num_good_moves"":4}","[296.22232142857143,292.12857142857143,0.3,296.22232142857143,292.12857142857143,115,296.22232142857143,292.12857142857143,227.3,296.22232142857143,292.12857142857143,336,296.22232142857143,292.12857142857143,455.6,296.22232142857143,292.12857142857143,599.4,297.22232142857143,290.12857142857143,735.4,296.22232142857143,297.12857142857143,856.9,290.22232142857143,339.12857142857143,992.5,287.22232142857143,352.12857142857143,1117.3,287.22232142857143,352.12857142857143,1229.5,287.22232142857143,352.12857142857143,1352.5,287.22232142857143,352.12857142857143,1466.6,287.22232142857143,352.12857142857143,1576.5,287.22232142857143,352.12857142857143,1703,287.22232142857143,352.12857142857143,1825.5,287.22232142857143,352.12857142857143,1941.3,287.22232142857143,352.12857142857143,2053,287.22232142857143,352.12857142857143,2170.7,287.22232142857143,352.12857142857143,2286,287.22232142857143,352.12857142857143,2407.8,287.22232142857143,352.12857142857143,2531.6,287.22232142857143,357.12857142857143,2664.8,273.22232142857143,369.12857142857143,2802.2,264.22232142857143,366.12857142857143,2920,264.22232142857143,366.12857142857143,3031.8,264.22232142857143,366.12857142857143,3144.1,264.22232142857143,366.12857142857143,3270.9,264.22232142857143,366.12857142857143,3384,264.22232142857143,366.12857142857143,3502,264.22232142857143,366.12857142857143,3620.1,264.22232142857143,366.12857142857143,3732.2,264.22232142857143,366.12857142857143,3846.2,264.22232142857143,366.12857142857143,3958.4,265.22232142857143,364.12857142857143,4081.7,265.22232142857143,364.12857142857143,4201.1,265.22232142857143,364.12857142857143,4360.6,265.22232142857143,364.12857142857143,4509.2,265.22232142857143,364.12857142857143,4623.1,265.22232142857143,364.12857142857143,4748.7,265.22232142857143,364.12857142857143,4872.1,265.22232142857143,364.12857142857143,4991.4]","[2143.5,2143.5,1000,0,1143.5,""smooth"",""down"",""down"",""good_move"",5098.8,2954.2,2311.6,2144.6,642.6,""smooth"",""left"",""left"",""good_move"",12079.8,6979.3,2589.3,5100.5,4390,""smooth"",""left"",""left"",""good_move"",19946.4,7865.5,2857.9,12080.9,5007.6,""oops"",""down"",""down"",""good_move""]","",""
"2694","","<div style=""width:500px;"">
  <p>What determined the result of this run?</p>
  </div>","67","html-slider-response","70","1151320","0.0-5.0-1.12","173","1","2025-07-23 07:26:50","1f75c3e559b7213887762d5229550c2b","41.116.96.121","Mozilla/5.0 (Windows NT 10.0; Win64; x64) AppleWebKit/537.36 (KHTML, like Gecko) Chrome/138.0.0.0 Safari/537.36","WebKit","Chrome","138.0.0.0","Windows","10.0","https://app.prolific.com/","en-ZA,en-GB;q=0.9,en-US;q=0.8,en;q=0.7","653a6a7224e6c0bfb644ff9b","683dba2a8a9dda3513610c04","68808eadd61b5cde2371ccea","3","0","653a6a7224e6c0bfb644ff9b","3","0","2025-07-23T07:46:03.736Z","","","","","","","","","","","AttribQ","","50","","","","","","","","","","","","","","","","","","","","","","","","","","","","",""
"2550","","<div style=""width:500px;"">
  <p>How much control did you have over the ball?</p>
  </div>","68","html-slider-response","71","1153876","0.0-5.0-2.12","173","1","2025-07-23 07:26:50","1f75c3e559b7213887762d5229550c2b","41.116.96.121","Mozilla/5.0 (Windows NT 10.0; Win64; x64) AppleWebKit/537.36 (KHTML, like Gecko) Chrome/138.0.0.0 Safari/537.36","WebKit","Chrome","138.0.0.0","Windows","10.0","https://app.prolific.com/","en-ZA,en-GB;q=0.9,en-US;q=0.8,en;q=0.7","653a6a7224e6c0bfb644ff9b","683dba2a8a9dda3513610c04","68808eadd61b5cde2371ccea","3","0","653a6a7224e6c0bfb644ff9b","3","0","2025-07-23T07:46:06.292Z","","","","","","","","","","","ControlQ","","50","","","","","","","","","","","","","","","","","","","","","","","","","","","","",""
"3387","","<div style=""width:500px;"">
  <p>How would you describe your current emotional state?</p>
  </div>","65","html-slider-response","72","1157272","0.0-5.0-3.12","173","1","2025-07-23 07:26:50","1f75c3e559b7213887762d5229550c2b","41.116.96.121","Mozilla/5.0 (Windows NT 10.0; Win64; x64) AppleWebKit/537.36 (KHTML, like Gecko) Chrome/138.0.0.0 Safari/537.36","WebKit","Chrome","138.0.0.0","Windows","10.0","https://app.prolific.com/","en-ZA,en-GB;q=0.9,en-US;q=0.8,en;q=0.7","653a6a7224e6c0bfb644ff9b","683dba2a8a9dda3513610c04","68808eadd61b5cde2371ccea","3","0","653a6a7224e6c0bfb644ff9b","3","0","2025-07-23T07:46:09.688Z","","","","","","","","","","","StressQ","","50","","","","","","","","","","","","","","","","","","","","","","","","","","","","",""
"5510","","<div style=""width:500px;"">
  <p>What best describes how you currently feel?</p>
  </div>","62","html-slider-response","73","1162786","0.0-5.0-4.12","173","1","2025-07-23 07:26:50","1f75c3e559b7213887762d5229550c2b","41.116.96.121","Mozilla/5.0 (Windows NT 10.0; Win64; x64) AppleWebKit/537.36 (KHTML, like Gecko) Chrome/138.0.0.0 Safari/537.36","WebKit","Chrome","138.0.0.0","Windows","10.0","https://app.prolific.com/","en-ZA,en-GB;q=0.9,en-US;q=0.8,en;q=0.7","653a6a7224e6c0bfb644ff9b","683dba2a8a9dda3513610c04","68808eadd61b5cde2371ccea","3","0","653a6a7224e6c0bfb644ff9b","3","0","2025-07-23T07:46:15.202Z","","","","","","","","","","","MotivationQ","","50","","","","","","","","","","","","","","","","","","","","","","","","","","","","",""
