"rt","response_timestamp","stimulus","response","trial_type","trial_index","time_elapsed","internal_node_id","run_id","condition","recorded_at","source_code_version","ip","user_agent","device","browser","browser_version","platform","platform_version","referer","accept_language","PROLIFIC_PID","STUDY_ID","SESSION_ID","WEEK","BATCH","prolific_id","week","batch","realtime","success","responses","item_order","radio_event_ids","radio_event_times","key_event_times","mouse_event_times","straightlining","zigzagging","honeypot","eventType","view_history","slider_start","which_type","canvas_config","goals_layout","control_level","trial_number","tutorial_trial_number","trial_start_time","phase1_start_time","phase2_start_time","phase3_start_time","goal_1_value","goal_1_distance","goal_2_value","goal_2_distance","goal_selected","outcome","outcome_total","participant_final_score","participant_initial_score","participant_final_score_prop","goal_choice_rt","allocated_time","allocated_time_remaining","goal_direction","counts","mouse_movements","key_presses","question_order","question_id"
"1271","1753864862190","<p style='font-size:40px;line-height:1.25'><strong>Welcome to the experiment!</strong></p><p style='font-size:1.1em;line-height:1.25'>Thank you for participanting in our experiment again! You will be asked to play the Dysfunctional Ball Game again. We will briefly recap the rules before we start.</p><p style='font-size:1.1em;line-height:1.25'>Press <strong>Next</strong> to continue.</p>","0","custom-html-button-response","0","1274","0.0-0.0","262","1","2025-07-30 08:40:55","1f75c3e559b7213887762d5229550c2b","197.245.162.70","Mozilla/5.0 (Windows NT 10.0; Win64; x64) AppleWebKit/537.36 (KHTML, like Gecko) Chrome/138.0.0.0 Safari/537.36","WebKit","Chrome","138.0.0.0","Windows","10.0","https://app.prolific.com/","en-ZA,en-GB;q=0.9,en-US;q=0.8,en;q=0.7","614e1c414dff2e589169f360","6877631c9844ddd5501205fc","6889d9d90967b70f52723831","3","1","614e1c414dff2e589169f360","3","1","2025-07-30T08:41:02.191Z","","","","","","","","","","","","","","","","","","","","","","","","","","","","","","","","","","","","","","","","","",""
"908","","","","fullscreen","1","3196","0.0-1.0","262","1","2025-07-30 08:40:55","1f75c3e559b7213887762d5229550c2b","197.245.162.70","Mozilla/5.0 (Windows NT 10.0; Win64; x64) AppleWebKit/537.36 (KHTML, like Gecko) Chrome/138.0.0.0 Safari/537.36","WebKit","Chrome","138.0.0.0","Windows","10.0","https://app.prolific.com/","en-ZA,en-GB;q=0.9,en-US;q=0.8,en;q=0.7","614e1c414dff2e589169f360","6877631c9844ddd5501205fc","6889d9d90967b70f52723831","3","1","614e1c414dff2e589169f360","3","1","","true","","","","","","","","","","","","","","","","","","","","","","","","","","","","","","","","","","","","","","","","",""
"3826","1753864867940","<p style='font-size:1.1em;line-height:1.25'>In the following, we will ask you a few questions relating to your feelings in the last 24 hours.<br></p><p style='font-size:1.1em;line-height:1.25'>Press the <strong>Next</strong> button to continue.</p>","0","custom-html-button-response","2","7024","0.0-2.0-0.0","262","1","2025-07-30 08:40:55","1f75c3e559b7213887762d5229550c2b","197.245.162.70","Mozilla/5.0 (Windows NT 10.0; Win64; x64) AppleWebKit/537.36 (KHTML, like Gecko) Chrome/138.0.0.0 Safari/537.36","WebKit","Chrome","138.0.0.0","Windows","10.0","https://app.prolific.com/","en-ZA,en-GB;q=0.9,en-US;q=0.8,en;q=0.7","614e1c414dff2e589169f360","6877631c9844ddd5501205fc","6889d9d90967b70f52723831","3","1","614e1c414dff2e589169f360","3","1","2025-07-30T08:41:07.941Z","","","","","","","","","","","","","","","","","","","","","","","","","","","","","","","","","","","","","","","","","",""
"111046.79999999981","","","","survey-template","3","117640","0.0-2.0-1.0","262","1","2025-07-30 08:40:55","1f75c3e559b7213887762d5229550c2b","197.245.162.70","Mozilla/5.0 (Windows NT 10.0; Win64; x64) AppleWebKit/537.36 (KHTML, like Gecko) Chrome/138.0.0.0 Safari/537.36","WebKit","Chrome","138.0.0.0","Windows","10.0","https://app.prolific.com/","en-ZA,en-GB;q=0.9,en-US;q=0.8,en;q=0.7","614e1c414dff2e589169f360","6877631c9844ddd5501205fc","6889d9d90967b70f52723831","3","1","614e1c414dff2e589169f360","3","1","2025-07-30T08:42:58.557Z","","{""Q01"":""1"",""Q02"":""1"",""Q03"":""1"",""Q04"":""2"",""Q05"":""1"",""Q06"":""2"",""Q07"":""1"",""Q08"":""2"",""Q09"":""1"",""Q10"":""1"",""Q11"":""1"",""Q12"":""2"",""Q13"":""5"",""Q14"":""1"",""Q15"":""1"",""Q16"":""1"",""Q17"":""4"",""Q18"":""1"",""Q19"":""2"",""Q20"":""0"",""Q21"":""0"",""Q22"":""0""}","[0,1,2,3,4,5,6,7,8,9,10,11,12,13,14,15,16,17,18,19,20,21]","[""Q01"",""Q02"",""Q03"",""Q04"",""Q05"",""Q06"",""Q07"",""Q08"",""Q09"",""Q10"",""Q11"",""Q12"",""Q13"",""Q14"",""Q15"",""Q16"",""Q17"",""Q18"",""Q19"",""Q20"",""Q21"",""Q22""]","[5429.200000000186,52389.200000000186,53500.799999999814,54788.90000000037,58268.90000000037,68046.20000000019,69536.70000000019,70949,73005.29999999981,74696.79999999981,77619.79999999981,86780.90000000037,88612.90000000037,91529,92627,94174.29999999981,97734.90000000037,99431,101841.40000000037,105680.90000000037,107308.90000000037,109339.29999999981]","[]","[0.09999999962747097,5429.200000000186,52389.200000000186,53500.799999999814,54788.90000000037,55672.40000000037,56960.59999999963,57596.59999999963,58268.90000000037,68046.20000000019,69536.70000000019,70949,73005.29999999981,74696.79999999981,76723.5,77619.79999999981,86780.90000000037,88612.90000000037,91529,92627,94174.29999999981,97734.90000000037,99431,101841.40000000037,104456.5,105680.90000000037,107308.90000000037,109339.29999999981,111039.09999999963]","0.5454545454545454","0.38095238095238093","0","drsp","","","","","","","","","","","","","","","","","","","","","","","","","","","","","","",""
"52711.60000000056","","","","survey-template","4","170354","0.0-2.0-2.0","262","1","2025-07-30 08:40:55","1f75c3e559b7213887762d5229550c2b","197.245.162.70","Mozilla/5.0 (Windows NT 10.0; Win64; x64) AppleWebKit/537.36 (KHTML, like Gecko) Chrome/138.0.0.0 Safari/537.36","WebKit","Chrome","138.0.0.0","Windows","10.0","https://app.prolific.com/","en-ZA,en-GB;q=0.9,en-US;q=0.8,en;q=0.7","614e1c414dff2e589169f360","6877631c9844ddd5501205fc","6889d9d90967b70f52723831","3","1","614e1c414dff2e589169f360","3","1","2025-07-30T08:43:51.271Z","","{""Q01"":""2"",""Q02"":""3"",""Q03"":""0""}","[0,1,2]","[""Q01"",""Q02"",""Q03"",""Q03""]","[44284.299999999814,46254.40000000037,48314.799999999814,51014.799999999814]","[]","[44284.299999999814,46254.40000000037,48314.799999999814,51014.799999999814,52710.60000000056]","0.6666666666666666","0","0","stress","","","","","","","","","","","","","","","","","","","","","","","","","","","","","","",""
"3104","","","","instructions","5","173459","0.0-3.0-0.0","262","1","2025-07-30 08:40:55","1f75c3e559b7213887762d5229550c2b","197.245.162.70","Mozilla/5.0 (Windows NT 10.0; Win64; x64) AppleWebKit/537.36 (KHTML, like Gecko) Chrome/138.0.0.0 Safari/537.36","WebKit","Chrome","138.0.0.0","Windows","10.0","https://app.prolific.com/","en-ZA,en-GB;q=0.9,en-US;q=0.8,en;q=0.7","614e1c414dff2e589169f360","6877631c9844ddd5501205fc","6889d9d90967b70f52723831","3","1","614e1c414dff2e589169f360","3","1","","","","","","","","","","","","","[{""page_index"":0,""viewing_time"":3103}]","","","","","","","","","","","","","","","","","","","","","","","","","","","","","",""
"2587","","<p>Before you start with this game please answer the following three questions yourself. </p>
  <p>Through this game, we measure several aspects of your cognitive performance, such as reaction times, multi-tasking capabilities </p>
  <p>and the ability to assess the situation you are in.</p>
  <p></p>
  <p><b>How good do you usually are in such tasks?</b></p>","60","html-slider-response","6","176051","0.0-4.0-0.0","262","1","2025-07-30 08:40:55","1f75c3e559b7213887762d5229550c2b","197.245.162.70","Mozilla/5.0 (Windows NT 10.0; Win64; x64) AppleWebKit/537.36 (KHTML, like Gecko) Chrome/138.0.0.0 Safari/537.36","WebKit","Chrome","138.0.0.0","Windows","10.0","https://app.prolific.com/","en-ZA,en-GB;q=0.9,en-US;q=0.8,en;q=0.7","614e1c414dff2e589169f360","6877631c9844ddd5501205fc","6889d9d90967b70f52723831","3","1","614e1c414dff2e589169f360","3","1","2025-07-30T08:43:56.969Z","","","","","","","","","","","PreSkillQ","","50","","","","","","","","","","","","","","","","","","","","","","","","","","","","",""
"2599","","<div style=""width:500px;"">
  <p>How well do you think you will perform in this task compared to other participants?</p>
  </div>","58","html-slider-response","7","177825","0.0-4.0-1.0","262","1","2025-07-30 08:40:55","1f75c3e559b7213887762d5229550c2b","197.245.162.70","Mozilla/5.0 (Windows NT 10.0; Win64; x64) AppleWebKit/537.36 (KHTML, like Gecko) Chrome/138.0.0.0 Safari/537.36","WebKit","Chrome","138.0.0.0","Windows","10.0","https://app.prolific.com/","en-ZA,en-GB;q=0.9,en-US;q=0.8,en;q=0.7","614e1c414dff2e589169f360","6877631c9844ddd5501205fc","6889d9d90967b70f52723831","3","1","614e1c414dff2e589169f360","3","1","2025-07-30T08:43:58.742Z","","","","","","","","","","","PrePerfQ","","50","","","","","","","","","","","","","","","","","","","","","","","","","","","","",""
"3193","","<div style=""width:500px;"">
  <p>What best describes how you currently feel?</p>
  </div>","61","html-slider-response","8","181020","0.0-4.0-2.0","262","1","2025-07-30 08:40:55","1f75c3e559b7213887762d5229550c2b","197.245.162.70","Mozilla/5.0 (Windows NT 10.0; Win64; x64) AppleWebKit/537.36 (KHTML, like Gecko) Chrome/138.0.0.0 Safari/537.36","WebKit","Chrome","138.0.0.0","Windows","10.0","https://app.prolific.com/","en-ZA,en-GB;q=0.9,en-US;q=0.8,en;q=0.7","614e1c414dff2e589169f360","6877631c9844ddd5501205fc","6889d9d90967b70f52723831","3","1","614e1c414dff2e589169f360","3","1","2025-07-30T08:44:01.937Z","","","","","","","","","","","PreMotivationQ","","50","","","","","","","","","","","","","","","","","","","","","","","","","","","","",""
"","","","","ctl-task-cpt","9","212990","0.0-5.0-0.0","262","1","2025-07-30 08:40:55","1f75c3e559b7213887762d5229550c2b","197.245.162.70","Mozilla/5.0 (Windows NT 10.0; Win64; x64) AppleWebKit/537.36 (KHTML, like Gecko) Chrome/138.0.0.0 Safari/537.36","WebKit","Chrome","138.0.0.0","Windows","10.0","https://app.prolific.com/","en-ZA,en-GB;q=0.9,en-US;q=0.8,en;q=0.7","614e1c414dff2e589169f360","6877631c9844ddd5501205fc","6889d9d90967b70f52723831","3","1","614e1c414dff2e589169f360","3","1","2025-07-30T08:44:33.907Z","","","","","","","","","","","","","","win-only","2","g1:SE,g2:NW","1","1","0","184785","1550.1","6552.4","28963.3","1","4","4","6","2","4","3","3","0","0.022727272727272728","1273.8","3000","450","[""left"",""up""]","{""num_key_presses"":8,""num_perfect"":7,""num_errors"":1,""num_randdir"":0,""num_randdir_good_moves"":0,""num_whilered"":0,""num_whileblue"":1,""num_blue"":1,""num_good_moves"":7}","[341.14285714285717,344.04910714285717,0.3,342.14285714285717,344.04910714285717,101.2,347.14285714285717,350.04910714285717,207.1,347.14285714285717,351.04910714285717,316.2,347.14285714285717,351.04910714285717,417.1,347.14285714285717,351.04910714285717,521.5,347.14285714285717,351.04910714285717,625.7,347.14285714285717,351.04910714285717,726.3,342.14285714285717,342.04910714285717,826.8,93.14285714285714,94.04910714285714,937.2,77.14285714285714,78.04910714285714,1041.2,59.142857142857146,68.04910714285714,1141.4,58.142857142857146,62.049107142857146,1241.4,58.142857142857146,62.049107142857146,1346,60.142857142857146,65.04910714285714,1451,211.14285714285714,91.04910714285714,1551.5,471.14285714285717,175.04910714285714,1655.7,501.14285714285717,187.04910714285714,1761.1,502.14285714285717,191.04910714285714,1868.2,502.14285714285717,192.04910714285714,1970.9,502.14285714285717,192.04910714285714,2076.4,502.14285714285717,192.04910714285714,2176.8,502.14285714285717,192.04910714285714,2284.4,502.14285714285717,192.04910714285714,2384.7,502.14285714285717,192.04910714285714,2486.6,502.14285714285717,192.04910714285714,2592,502.14285714285717,192.04910714285714,2700.6,502.14285714285717,192.04910714285714,2800.7,502.14285714285717,192.04910714285714,2900.9,502.14285714285717,192.04910714285714,3001.1,502.14285714285717,192.04910714285714,3105.8,502.14285714285717,192.04910714285714,3206.1,502.14285714285717,192.04910714285714,3311.7,502.14285714285717,192.04910714285714,3418,502.14285714285717,192.04910714285714,3520.4,502.14285714285717,192.04910714285714,3621.5,502.14285714285717,192.04910714285714,3727,502.14285714285717,192.04910714285714,3834.7,502.14285714285717,192.04910714285714,3935.6,502.14285714285717,192.04910714285714,4040.2,502.14285714285717,192.04910714285714,4140.7,502.14285714285717,192.04910714285714,4250.9,502.14285714285717,192.04910714285714,4355.6,502.14285714285717,192.04910714285714,4455.8,502.14285714285717,192.04910714285714,4556.4,502.14285714285717,192.04910714285714,4660.4,502.14285714285717,192.04910714285714,4760.5,502.14285714285717,192.04910714285714,4861,502.14285714285717,192.04910714285714,4969.2]","[1433,1433,1000,0,433,""smooth"",""up"",""up"",""good_move"",4424.4,2991.1,2627.3,1433.3,363.8,""smooth"",""up"",""up"",""good_move"",8296.4,3871.8,3535.1,4424.6,336.7,""smooth"",""up"",""up"",""good_move"",11391.9,3095.2,2725.1,8296.7,370.1,""smooth"",""left"",""left"",""good_move"",13211.7,1819.5,1377.4,11392.3,442.1,""smooth"",""left"",""left"",""good_move"",16553.1,3341.1,2951.8,13212,389.3,""while_blue"",""left"",""down"",""bad_move"",19594.9,3040.2,2662.2,16554.7,378,""smooth"",""left"",""left"",""good_move"",22319.6,2724.6,2322,19595.1,402.6,""smooth"",""up"",""up"",""good_move""]","",""
"10214","","<div style=""width:500px;"">
  <p>What determined the result of this run?</p>
  </div>","37","html-slider-response","10","223204","0.0-5.0-1.0","262","1","2025-07-30 08:40:55","1f75c3e559b7213887762d5229550c2b","197.245.162.70","Mozilla/5.0 (Windows NT 10.0; Win64; x64) AppleWebKit/537.36 (KHTML, like Gecko) Chrome/138.0.0.0 Safari/537.36","WebKit","Chrome","138.0.0.0","Windows","10.0","https://app.prolific.com/","en-ZA,en-GB;q=0.9,en-US;q=0.8,en;q=0.7","614e1c414dff2e589169f360","6877631c9844ddd5501205fc","6889d9d90967b70f52723831","3","1","614e1c414dff2e589169f360","3","1","2025-07-30T08:44:44.122Z","","","","","","","","","","","AttribQ","","50","","","","","","","","","","","","","","","","","","","","","","","","","","","","",""
"13138","","<div style=""width:500px;"">
  <p>How much control did you have over the ball?</p>
  </div>","41","html-slider-response","11","236344","0.0-5.0-2.0","262","1","2025-07-30 08:40:55","1f75c3e559b7213887762d5229550c2b","197.245.162.70","Mozilla/5.0 (Windows NT 10.0; Win64; x64) AppleWebKit/537.36 (KHTML, like Gecko) Chrome/138.0.0.0 Safari/537.36","WebKit","Chrome","138.0.0.0","Windows","10.0","https://app.prolific.com/","en-ZA,en-GB;q=0.9,en-US;q=0.8,en;q=0.7","614e1c414dff2e589169f360","6877631c9844ddd5501205fc","6889d9d90967b70f52723831","3","1","614e1c414dff2e589169f360","3","1","2025-07-30T08:44:57.261Z","","","","","","","","","","","ControlQ","","50","","","","","","","","","","","","","","","","","","","","","","","","","","","","",""
"16090","","<div style=""width:500px;"">
  <p>How would you describe your current emotional state?</p>
  </div>","32","html-slider-response","12","251609","0.0-5.0-3.0","262","1","2025-07-30 08:40:55","1f75c3e559b7213887762d5229550c2b","197.245.162.70","Mozilla/5.0 (Windows NT 10.0; Win64; x64) AppleWebKit/537.36 (KHTML, like Gecko) Chrome/138.0.0.0 Safari/537.36","WebKit","Chrome","138.0.0.0","Windows","10.0","https://app.prolific.com/","en-ZA,en-GB;q=0.9,en-US;q=0.8,en;q=0.7","614e1c414dff2e589169f360","6877631c9844ddd5501205fc","6889d9d90967b70f52723831","3","1","614e1c414dff2e589169f360","3","1","2025-07-30T08:45:12.527Z","","","","","","","","","","","StressQ","","50","","","","","","","","","","","","","","","","","","","","","","","","","","","","",""
"15411","","<div style=""width:500px;"">
  <p>What best describes how you currently feel?</p>
  </div>","58","html-slider-response","13","267022","0.0-5.0-4.0","262","1","2025-07-30 08:40:55","1f75c3e559b7213887762d5229550c2b","197.245.162.70","Mozilla/5.0 (Windows NT 10.0; Win64; x64) AppleWebKit/537.36 (KHTML, like Gecko) Chrome/138.0.0.0 Safari/537.36","WebKit","Chrome","138.0.0.0","Windows","10.0","https://app.prolific.com/","en-ZA,en-GB;q=0.9,en-US;q=0.8,en;q=0.7","614e1c414dff2e589169f360","6877631c9844ddd5501205fc","6889d9d90967b70f52723831","3","1","614e1c414dff2e589169f360","3","1","2025-07-30T08:45:27.939Z","","","","","","","","","","","MotivationQ","","50","","","","","","","","","","","","","","","","","","","","","","","","","","","","",""
"","","","","ctl-task-cpt","14","297464","0.0-5.0-0.1","262","1","2025-07-30 08:40:55","1f75c3e559b7213887762d5229550c2b","197.245.162.70","Mozilla/5.0 (Windows NT 10.0; Win64; x64) AppleWebKit/537.36 (KHTML, like Gecko) Chrome/138.0.0.0 Safari/537.36","WebKit","Chrome","138.0.0.0","Windows","10.0","https://app.prolific.com/","en-ZA,en-GB;q=0.9,en-US;q=0.8,en;q=0.7","614e1c414dff2e589169f360","6877631c9844ddd5501205fc","6889d9d90967b70f52723831","3","1","614e1c414dff2e589169f360","3","1","2025-07-30T08:45:58.381Z","","","","","","","","","","","","","","win-only","2","g1:SE,g2:NW","0.9","2","0","271612.5","1498.7","6500.8","28241.1","1","4","8","6","2","8","8","11","3","0.08333333333333333","1092.4","3000","710","[""left"",""up""]","{""num_key_presses"":6,""num_perfect"":6,""num_errors"":0,""num_randdir"":0,""num_randdir_good_moves"":0,""num_whilered"":0,""num_whileblue"":0,""num_blue"":2,""num_good_moves"":6}","[350.14285714285717,350.04910714285717,0.5,350.14285714285717,350.04910714285717,102.3,350.14285714285717,350.04910714285717,202.6,350.14285714285717,350.04910714285717,303,350.14285714285717,351.04910714285717,403.5,336.14285714285717,357.04910714285717,503.5,336.14285714285717,351.04910714285717,604.2,130.14285714285714,193.04910714285714,707.1,67.14285714285714,120.04910714285714,807.5,89.14285714285714,90.04910714285714,912.1,87.14285714285714,68.04910714285714,1013.9,80.14285714285714,62.049107142857146,1118.1,79.14285714285714,62.049107142857146,1222.5,155.14285714285714,114.04910714285714,1328,876.1428571428571,394.04910714285717,1432.6,913.1428571428571,402.04910714285717,1537,913.1428571428571,406.04910714285717,1637.7,913.1428571428571,406.04910714285717,1737.9,913.1428571428571,406.04910714285717,1842,913.1428571428571,406.04910714285717,1947.1,913.1428571428571,406.04910714285717,2053.6,913.1428571428571,406.04910714285717,2153.9,913.1428571428571,406.04910714285717,2254,913.1428571428571,406.04910714285717,2357.5,913.1428571428571,406.04910714285717,2461.9,913.1428571428571,406.04910714285717,2563.5,913.1428571428571,406.04910714285717,2667.2,913.1428571428571,406.04910714285717,2772.1,913.1428571428571,406.04910714285717,2872.2,913.1428571428571,406.04910714285717,2972.5,913.1428571428571,406.04910714285717,3077.6,913.1428571428571,406.04910714285717,3182.1,913.1428571428571,406.04910714285717,3287.6,913.1428571428571,406.04910714285717,3392.3,913.1428571428571,406.04910714285717,3497.5,913.1428571428571,406.04910714285717,3597.6,913.1428571428571,406.04910714285717,3697.7,913.1428571428571,406.04910714285717,3804.6,913.1428571428571,406.04910714285717,3907.3,913.1428571428571,406.04910714285717,4007.4,913.1428571428571,406.04910714285717,4107.6,913.1428571428571,406.04910714285717,4212,913.1428571428571,406.04910714285717,4313.2,913.1428571428571,406.04910714285717,4417.5,913.1428571428571,406.04910714285717,4517.7,913.1428571428571,406.04910714285717,4617.8,913.1428571428571,406.04910714285717,4721.9,913.1428571428571,406.04910714285717,4826.7,913.1428571428571,406.04910714285717,4932.5]","[4397.5,4397.5,1922.1,2006.5,468.9,""smooth"",""left"",""left"",""good_move"",10045.3,5647.6,1961.3,7600.6,483.4,""smooth"",""left"",""left"",""good_move"",12910.3,2864.7,2456.3,10045.6,408.4,""smooth"",""left"",""left"",""good_move"",16012.2,3101.5,2691.2,12910.7,410.3,""smooth"",""up"",""up"",""good_move"",18780.8,2767.9,2303,16012.9,464.9,""smooth"",""up"",""up"",""good_move"",21635.7,2854.7,2441.8,18781.1,412.8,""smooth"",""up"",""up"",""good_move""]","",""
"4677","","<div style=""width:500px;"">
  <p>What determined the result of this run?</p>
  </div>","76","html-slider-response","15","302143","0.0-5.0-1.1","262","1","2025-07-30 08:40:55","1f75c3e559b7213887762d5229550c2b","197.245.162.70","Mozilla/5.0 (Windows NT 10.0; Win64; x64) AppleWebKit/537.36 (KHTML, like Gecko) Chrome/138.0.0.0 Safari/537.36","WebKit","Chrome","138.0.0.0","Windows","10.0","https://app.prolific.com/","en-ZA,en-GB;q=0.9,en-US;q=0.8,en;q=0.7","614e1c414dff2e589169f360","6877631c9844ddd5501205fc","6889d9d90967b70f52723831","3","1","614e1c414dff2e589169f360","3","1","2025-07-30T08:46:03.060Z","","","","","","","","","","","AttribQ","","50","","","","","","","","","","","","","","","","","","","","","","","","","","","","",""
"3295","","<div style=""width:500px;"">
  <p>How much control did you have over the ball?</p>
  </div>","71","html-slider-response","16","305440","0.0-5.0-2.1","262","1","2025-07-30 08:40:55","1f75c3e559b7213887762d5229550c2b","197.245.162.70","Mozilla/5.0 (Windows NT 10.0; Win64; x64) AppleWebKit/537.36 (KHTML, like Gecko) Chrome/138.0.0.0 Safari/537.36","WebKit","Chrome","138.0.0.0","Windows","10.0","https://app.prolific.com/","en-ZA,en-GB;q=0.9,en-US;q=0.8,en;q=0.7","614e1c414dff2e589169f360","6877631c9844ddd5501205fc","6889d9d90967b70f52723831","3","1","614e1c414dff2e589169f360","3","1","2025-07-30T08:46:06.357Z","","","","","","","","","","","ControlQ","","50","","","","","","","","","","","","","","","","","","","","","","","","","","","","",""
"4763","","<div style=""width:500px;"">
  <p>How would you describe your current emotional state?</p>
  </div>","22","html-slider-response","17","310204","0.0-5.0-3.1","262","1","2025-07-30 08:40:55","1f75c3e559b7213887762d5229550c2b","197.245.162.70","Mozilla/5.0 (Windows NT 10.0; Win64; x64) AppleWebKit/537.36 (KHTML, like Gecko) Chrome/138.0.0.0 Safari/537.36","WebKit","Chrome","138.0.0.0","Windows","10.0","https://app.prolific.com/","en-ZA,en-GB;q=0.9,en-US;q=0.8,en;q=0.7","614e1c414dff2e589169f360","6877631c9844ddd5501205fc","6889d9d90967b70f52723831","3","1","614e1c414dff2e589169f360","3","1","2025-07-30T08:46:11.122Z","","","","","","","","","","","StressQ","","50","","","","","","","","","","","","","","","","","","","","","","","","","","","","",""
"2664","","<div style=""width:500px;"">
  <p>What best describes how you currently feel?</p>
  </div>","77","html-slider-response","18","312870","0.0-5.0-4.1","262","1","2025-07-30 08:40:55","1f75c3e559b7213887762d5229550c2b","197.245.162.70","Mozilla/5.0 (Windows NT 10.0; Win64; x64) AppleWebKit/537.36 (KHTML, like Gecko) Chrome/138.0.0.0 Safari/537.36","WebKit","Chrome","138.0.0.0","Windows","10.0","https://app.prolific.com/","en-ZA,en-GB;q=0.9,en-US;q=0.8,en;q=0.7","614e1c414dff2e589169f360","6877631c9844ddd5501205fc","6889d9d90967b70f52723831","3","1","614e1c414dff2e589169f360","3","1","2025-07-30T08:46:13.787Z","","","","","","","","","","","MotivationQ","","50","","","","","","","","","","","","","","","","","","","","","","","","","","","","",""
"","","","","ctl-task-cpt","19","344489","0.0-5.0-0.2","262","1","2025-07-30 08:40:55","1f75c3e559b7213887762d5229550c2b","197.245.162.70","Mozilla/5.0 (Windows NT 10.0; Win64; x64) AppleWebKit/537.36 (KHTML, like Gecko) Chrome/138.0.0.0 Safari/537.36","WebKit","Chrome","138.0.0.0","Windows","10.0","https://app.prolific.com/","en-ZA,en-GB;q=0.9,en-US;q=0.8,en;q=0.7","614e1c414dff2e589169f360","6877631c9844ddd5501205fc","6889d9d90967b70f52723831","3","1","614e1c414dff2e589169f360","3","1","2025-07-30T08:46:45.406Z","","","","","","","","","","","","","","win-only","1","g1:NE,g2:SW","0.8","3","0","318287.2","1299.9","6300.9","28601.1","1","4","4","6","2","4","3","14","11","0.10606060606060606","1518.2","3000","530","[""down"",""left""]","{""num_key_presses"":8,""num_perfect"":7,""num_errors"":1,""num_randdir"":0,""num_randdir_good_moves"":0,""num_whilered"":0,""num_whileblue"":1,""num_blue"":1,""num_good_moves"":7}","[346.14285714285717,346.04910714285717,0.1,345.14285714285717,345.04910714285717,100.8,345.14285714285717,347.04910714285717,206.9,401.14285714285717,395.04910714285717,315.3,411.14285714285717,403.04910714285717,415.7,412.14285714285717,404.04910714285717,517.9,412.14285714285717,404.04910714285717,620.6,412.14285714285717,404.04910714285717,727.3,412.14285714285717,404.04910714285717,831.1,412.14285714285717,404.04910714285717,936.8,-43.857142857142854,447.04910714285717,1040.7,-45.857142857142854,660.0491071428571,1143.1,-29.857142857142854,707.0491071428571,1250.6,20.142857142857146,668.0491071428571,1351,59.142857142857146,643.0491071428571,1456.2,62.142857142857146,638.0491071428571,1556.6,63.142857142857146,638.0491071428571,1660.9,230.14285714285714,683.0491071428571,1766.7,324.14285714285717,700.0491071428571,1870.9,312.14285714285717,680.0491071428571,1970.9,312.14285714285717,680.0491071428571,2076.7,312.14285714285717,680.0491071428571,2181.9,312.14285714285717,680.0491071428571,2282.1,312.14285714285717,680.0491071428571,2385.4,312.14285714285717,680.0491071428571,2486.2,312.14285714285717,680.0491071428571,2586.8,312.14285714285717,680.0491071428571,2690.4,312.14285714285717,680.0491071428571,2790.9,312.14285714285717,680.0491071428571,2895.7,312.14285714285717,680.0491071428571,3000.1,312.14285714285717,680.0491071428571,3102.2,312.14285714285717,680.0491071428571,3206,312.14285714285717,680.0491071428571,3306.4,312.14285714285717,680.0491071428571,3407.4,312.14285714285717,680.0491071428571,3517.2,312.14285714285717,680.0491071428571,3618.8,312.14285714285717,680.0491071428571,3720.8,312.14285714285717,680.0491071428571,3820.9,312.14285714285717,680.0491071428571,3921.3,312.14285714285717,680.0491071428571,4029.5,312.14285714285717,680.0491071428571,4135.9,312.14285714285717,680.0491071428571,4240.7,312.14285714285717,680.0491071428571,4341.6,312.14285714285717,680.0491071428571,4442,312.14285714285717,680.0491071428571,4546.9,312.14285714285717,680.0491071428571,4647.2,312.14285714285717,680.0491071428571,4751.9,312.14285714285717,680.0491071428571,4852.4,312.14285714285717,680.0491071428571,4955.7]","[1481.3,1481.2,1000,0.1,481.2,""smooth"",""down"",""down"",""good_move"",3839.7,2357.8,1962.7,1481.9,395.1,""smooth"",""down"",""down"",""good_move"",6951.4,3111.5,2743.8,3840,367.6,""while_blue"",""down"",""right"",""bad_move"",10340.3,3388.4,2862.7,6952,525.6,""smooth"",""down"",""down"",""good_move"",13551.4,3211,2832.3,10340.4,378.7,""smooth"",""left"",""left"",""good_move"",16579.1,3026.8,2515.3,13552.3,511.5,""smooth"",""left"",""left"",""good_move"",19265.1,2685.8,2270.3,16579.3,415.5,""smooth"",""left"",""left"",""good_move"",22197.6,2932.3,2527.3,19265.3,405,""smooth"",""left"",""left"",""good_move""]","",""
"5676","","<div style=""width:500px;"">
  <p>What determined the result of this run?</p>
  </div>","9","html-slider-response","20","350167","0.0-5.0-1.2","262","1","2025-07-30 08:40:55","1f75c3e559b7213887762d5229550c2b","197.245.162.70","Mozilla/5.0 (Windows NT 10.0; Win64; x64) AppleWebKit/537.36 (KHTML, like Gecko) Chrome/138.0.0.0 Safari/537.36","WebKit","Chrome","138.0.0.0","Windows","10.0","https://app.prolific.com/","en-ZA,en-GB;q=0.9,en-US;q=0.8,en;q=0.7","614e1c414dff2e589169f360","6877631c9844ddd5501205fc","6889d9d90967b70f52723831","3","1","614e1c414dff2e589169f360","3","1","2025-07-30T08:46:51.084Z","","","","","","","","","","","AttribQ","","50","","","","","","","","","","","","","","","","","","","","","","","","","","","","",""
"3458","","<div style=""width:500px;"">
  <p>How much control did you have over the ball?</p>
  </div>","70","html-slider-response","21","353626","0.0-5.0-2.2","262","1","2025-07-30 08:40:55","1f75c3e559b7213887762d5229550c2b","197.245.162.70","Mozilla/5.0 (Windows NT 10.0; Win64; x64) AppleWebKit/537.36 (KHTML, like Gecko) Chrome/138.0.0.0 Safari/537.36","WebKit","Chrome","138.0.0.0","Windows","10.0","https://app.prolific.com/","en-ZA,en-GB;q=0.9,en-US;q=0.8,en;q=0.7","614e1c414dff2e589169f360","6877631c9844ddd5501205fc","6889d9d90967b70f52723831","3","1","614e1c414dff2e589169f360","3","1","2025-07-30T08:46:54.544Z","","","","","","","","","","","ControlQ","","50","","","","","","","","","","","","","","","","","","","","","","","","","","","","",""
"2253","","<div style=""width:500px;"">
  <p>How would you describe your current emotional state?</p>
  </div>","33","html-slider-response","22","355053","0.0-5.0-3.2","262","1","2025-07-30 08:40:55","1f75c3e559b7213887762d5229550c2b","197.245.162.70","Mozilla/5.0 (Windows NT 10.0; Win64; x64) AppleWebKit/537.36 (KHTML, like Gecko) Chrome/138.0.0.0 Safari/537.36","WebKit","Chrome","138.0.0.0","Windows","10.0","https://app.prolific.com/","en-ZA,en-GB;q=0.9,en-US;q=0.8,en;q=0.7","614e1c414dff2e589169f360","6877631c9844ddd5501205fc","6889d9d90967b70f52723831","3","1","614e1c414dff2e589169f360","3","1","2025-07-30T08:46:55.970Z","","","","","","","","","","","StressQ","","50","","","","","","","","","","","","","","","","","","","","","","","","","","","","",""
"2776","","<div style=""width:500px;"">
  <p>What best describes how you currently feel?</p>
  </div>","62","html-slider-response","23","357831","0.0-5.0-4.2","262","1","2025-07-30 08:40:55","1f75c3e559b7213887762d5229550c2b","197.245.162.70","Mozilla/5.0 (Windows NT 10.0; Win64; x64) AppleWebKit/537.36 (KHTML, like Gecko) Chrome/138.0.0.0 Safari/537.36","WebKit","Chrome","138.0.0.0","Windows","10.0","https://app.prolific.com/","en-ZA,en-GB;q=0.9,en-US;q=0.8,en;q=0.7","614e1c414dff2e589169f360","6877631c9844ddd5501205fc","6889d9d90967b70f52723831","3","1","614e1c414dff2e589169f360","3","1","2025-07-30T08:46:58.748Z","","","","","","","","","","","MotivationQ","","50","","","","","","","","","","","","","","","","","","","","","","","","","","","","",""
"","","","","ctl-task-cpt","24","405969","0.0-5.0-0.3","262","1","2025-07-30 08:40:55","1f75c3e559b7213887762d5229550c2b","197.245.162.70","Mozilla/5.0 (Windows NT 10.0; Win64; x64) AppleWebKit/537.36 (KHTML, like Gecko) Chrome/138.0.0.0 Safari/537.36","WebKit","Chrome","138.0.0.0","Windows","10.0","https://app.prolific.com/","en-ZA,en-GB;q=0.9,en-US;q=0.8,en;q=0.7","614e1c414dff2e589169f360","6877631c9844ddd5501205fc","6889d9d90967b70f52723831","3","1","614e1c414dff2e589169f360","3","1","2025-07-30T08:47:46.886Z","","","","","","","","","","","","","","win-only","2","g1:SE,g2:NW","0.7","4","0","364075","14606","19612.5","45114","1","4","8","6","2","-8","-9","5","14","0.03787878787878788","1135.4","3000","-2655","[""left"",""up""]","{""num_key_presses"":8,""num_perfect"":5,""num_errors"":1,""num_randdir"":2,""num_randdir_good_moves"":1,""num_whilered"":0,""num_whileblue"":1,""num_blue"":1,""num_good_moves"":6}","[353.14285714285717,348.04910714285717,0.3,353.14285714285717,348.04910714285717,100.1,357.14285714285717,347.04910714285717,200.6,358.14285714285717,357.04910714285717,301.2,358.14285714285717,379.04910714285717,401.3,361.14285714285717,394.04910714285717,505.5,359.14285714285717,404.04910714285717,609.5,221.14285714285714,270.04910714285717,713.8,184.14285714285714,146.04910714285714,814.4,145.14285714285714,99.04910714285714,915.3,112.14285714285714,91.04910714285714,1015.5,84.14285714285714,85.04910714285714,1120.6,84.14285714285714,85.04910714285714,1221.8,109.14285714285714,100.04910714285714,1326,578.1428571428571,323.04910714285717,1426.4,953.1428571428571,510.04910714285717,1535.4,971.1428571428571,537.0491071428571,1635.4,971.1428571428571,537.0491071428571,1739.9,971.1428571428571,537.0491071428571,1845.1,971.1428571428571,537.0491071428571,1950.6,971.1428571428571,537.0491071428571,2056.4,971.1428571428571,537.0491071428571,2161,971.1428571428571,537.0491071428571,2271.3,971.1428571428571,537.0491071428571,2371.3,971.1428571428571,537.0491071428571,2475,971.1428571428571,537.0491071428571,2575.1,971.1428571428571,537.0491071428571,2679.6,971.1428571428571,537.0491071428571,2779.8,971.1428571428571,537.0491071428571,2882.8,971.1428571428571,537.0491071428571,2985.3,971.1428571428571,537.0491071428571,3085.3,971.1428571428571,537.0491071428571,3189.6,971.1428571428571,537.0491071428571,3290,971.1428571428571,537.0491071428571,3398.2,971.1428571428571,537.0491071428571,3501.6,971.1428571428571,537.0491071428571,3605.9,971.1428571428571,537.0491071428571,3706.5,971.1428571428571,537.0491071428571,3810.9,971.1428571428571,537.0491071428571,3916.6,971.1428571428571,537.0491071428571,4016.8,971.1428571428571,537.0491071428571,4117.9,971.1428571428571,537.0491071428571,4218.9,971.1428571428571,537.0491071428571,4320.3,971.1428571428571,537.0491071428571,4425,971.1428571428571,537.0491071428571,4525.9,971.1428571428571,537.0491071428571,4630.8,971.1428571428571,537.0491071428571,4733.1,971.1428571428571,537.0491071428571,4835.8,971.1428571428571,537.0491071428571,4941.3]","[1524,1524,1000,0,524,""smooth"",""up"",""up"",""good_move"",4978.2,3453.6,3011.4,1524.6,442.2,""smooth"",""up"",""up"",""good_move"",7755.5,2777,2048.5,4978.6,728.4,""oops"",""up"",""right"",""bad_move"",11176.2,3419.5,2707.4,7756.8,712.1,""oops"",""up"",""left"",""good_move"",14197.6,3020.8,2524.3,11176.8,496.5,""smooth"",""up"",""up"",""good_move"",16994.7,2796.8,2421.1,14198,375.6,""smooth"",""left"",""left"",""good_move"",19763.2,2768.3,2408.7,16994.9,359.6,""while_blue"",""left"",""down"",""bad_move"",23599.7,3836.1,3509.5,19763.6,326.6,""smooth"",""left"",""left"",""good_move""]","",""
"4470","","<div style=""width:500px;"">
  <p>What determined the result of this run?</p>
  </div>","24","html-slider-response","25","410444","0.0-5.0-1.3","262","1","2025-07-30 08:40:55","1f75c3e559b7213887762d5229550c2b","197.245.162.70","Mozilla/5.0 (Windows NT 10.0; Win64; x64) AppleWebKit/537.36 (KHTML, like Gecko) Chrome/138.0.0.0 Safari/537.36","WebKit","Chrome","138.0.0.0","Windows","10.0","https://app.prolific.com/","en-ZA,en-GB;q=0.9,en-US;q=0.8,en;q=0.7","614e1c414dff2e589169f360","6877631c9844ddd5501205fc","6889d9d90967b70f52723831","3","1","614e1c414dff2e589169f360","3","1","2025-07-30T08:47:51.362Z","","","","","","","","","","","AttribQ","","50","","","","","","","","","","","","","","","","","","","","","","","","","","","","",""
"3801","","<div style=""width:500px;"">
  <p>How much control did you have over the ball?</p>
  </div>","26","html-slider-response","26","413865","0.0-5.0-2.3","262","1","2025-07-30 08:40:55","1f75c3e559b7213887762d5229550c2b","197.245.162.70","Mozilla/5.0 (Windows NT 10.0; Win64; x64) AppleWebKit/537.36 (KHTML, like Gecko) Chrome/138.0.0.0 Safari/537.36","WebKit","Chrome","138.0.0.0","Windows","10.0","https://app.prolific.com/","en-ZA,en-GB;q=0.9,en-US;q=0.8,en;q=0.7","614e1c414dff2e589169f360","6877631c9844ddd5501205fc","6889d9d90967b70f52723831","3","1","614e1c414dff2e589169f360","3","1","2025-07-30T08:47:54.782Z","","","","","","","","","","","ControlQ","","50","","","","","","","","","","","","","","","","","","","","","","","","","","","","",""
"3363","","<div style=""width:500px;"">
  <p>How would you describe your current emotional state?</p>
  </div>","34","html-slider-response","27","417230","0.0-5.0-3.3","262","1","2025-07-30 08:40:55","1f75c3e559b7213887762d5229550c2b","197.245.162.70","Mozilla/5.0 (Windows NT 10.0; Win64; x64) AppleWebKit/537.36 (KHTML, like Gecko) Chrome/138.0.0.0 Safari/537.36","WebKit","Chrome","138.0.0.0","Windows","10.0","https://app.prolific.com/","en-ZA,en-GB;q=0.9,en-US;q=0.8,en;q=0.7","614e1c414dff2e589169f360","6877631c9844ddd5501205fc","6889d9d90967b70f52723831","3","1","614e1c414dff2e589169f360","3","1","2025-07-30T08:47:58.147Z","","","","","","","","","","","StressQ","","50","","","","","","","","","","","","","","","","","","","","","","","","","","","","",""
"4753","","<div style=""width:500px;"">
  <p>What best describes how you currently feel?</p>
  </div>","69","html-slider-response","28","421984","0.0-5.0-4.3","262","1","2025-07-30 08:40:55","1f75c3e559b7213887762d5229550c2b","197.245.162.70","Mozilla/5.0 (Windows NT 10.0; Win64; x64) AppleWebKit/537.36 (KHTML, like Gecko) Chrome/138.0.0.0 Safari/537.36","WebKit","Chrome","138.0.0.0","Windows","10.0","https://app.prolific.com/","en-ZA,en-GB;q=0.9,en-US;q=0.8,en;q=0.7","614e1c414dff2e589169f360","6877631c9844ddd5501205fc","6889d9d90967b70f52723831","3","1","614e1c414dff2e589169f360","3","1","2025-07-30T08:48:02.901Z","","","","","","","","","","","MotivationQ","","50","","","","","","","","","","","","","","","","","","","","","","","","","","","","",""
"","","","","ctl-task-cpt","29","463405","0.0-5.0-0.4","262","1","2025-07-30 08:40:55","1f75c3e559b7213887762d5229550c2b","197.245.162.70","Mozilla/5.0 (Windows NT 10.0; Win64; x64) AppleWebKit/537.36 (KHTML, like Gecko) Chrome/138.0.0.0 Safari/537.36","WebKit","Chrome","138.0.0.0","Windows","10.0","https://app.prolific.com/","en-ZA,en-GB;q=0.9,en-US;q=0.8,en;q=0.7","614e1c414dff2e589169f360","6877631c9844ddd5501205fc","6889d9d90967b70f52723831","3","1","614e1c414dff2e589169f360","3","1","2025-07-30T08:48:44.322Z","","","","","","","","","","","","","","win-only","1","g1:NE,g2:SW","0.6","5","0","428617","1093.9","6096.8","38411.8","1","4","4","6","2","-4","-4","1","5","0.007575757575757576","3405.5","3000","-2640","[""down"",""left""]","{""num_key_presses"":8,""num_perfect"":5,""num_errors"":0,""num_randdir"":3,""num_randdir_good_moves"":1,""num_whilered"":0,""num_whileblue"":0,""num_blue"":2,""num_good_moves"":6}","[352.14285714285717,352.04910714285717,0.2,352.14285714285717,352.04910714285717,100.1,352.14285714285717,352.04910714285717,202.5,352.14285714285717,353.04910714285717,306.7,353.14285714285717,354.04910714285717,413,355.14285714285717,357.04910714285717,517.2,356.14285714285717,365.04910714285717,618.8,375.14285714285717,375.04910714285717,722.4,386.14285714285717,376.04910714285717,827,386.14285714285717,376.04910714285717,927.4,386.14285714285717,376.04910714285717,1028.7,386.14285714285717,376.04910714285717,1132.9,386.14285714285717,376.04910714285717,1236.7,386.14285714285717,376.04910714285717,1337.1,386.14285714285717,376.04910714285717,1442.7,386.14285714285717,376.04910714285717,1547.9,388.14285714285717,373.04910714285717,1653.5,389.14285714285717,365.04910714285717,1753.7,389.14285714285717,365.04910714285717,1856.4,391.14285714285717,355.04910714285717,1956.5,394.14285714285717,347.04910714285717,2056.5,395.14285714285717,344.04910714285717,2162,395.14285714285717,344.04910714285717,2263.8,395.14285714285717,344.04910714285717,2367.4,395.14285714285717,344.04910714285717,2472.5,390.14285714285717,373.04910714285717,2584.8,386.14285714285717,430.04910714285717,2686.1,469.14285714285717,380.04910714285717,2787.1,460.14285714285717,266.04910714285717,2887.3,65.14285714285714,573.0491071428571,2994.2,54.142857142857146,718.0491071428571,3104.2,71.14285714285714,689.0491071428571,3207.2,81.14285714285714,662.0491071428571,3313.2,83.14285714285714,649.0491071428571,3415.8,83.14285714285714,648.0491071428571,3516.7,87.14285714285714,646.0491071428571,3617.6,391.14285714285717,714.0491071428571,3718.9,551.1428571428571,734.0491071428571,3821.3,568.1428571428571,734.0491071428571,3922.2,568.1428571428571,734.0491071428571,4023.5,568.1428571428571,734.0491071428571,4127.2,568.1428571428571,734.0491071428571,4228.3,568.1428571428571,734.0491071428571,4328.5,568.1428571428571,734.0491071428571,4429.1,568.1428571428571,734.0491071428571,4531.4,568.1428571428571,734.0491071428571,4632.6,568.1428571428571,734.0491071428571,4737.3,568.1428571428571,734.0491071428571,4855.1,568.1428571428571,734.0491071428571,4956.3]","[1493.7,1493.7,1000,0,493.7,""smooth"",""down"",""down"",""good_move"",11569.8,10074.3,2406.1,8695.9,467.8,""oops"",""down"",""right"",""bad_move"",14239.7,2669,2176.8,11570.7,492.2,""oops"",""down"",""right"",""bad_move"",17625.9,3385.9,2932.7,14240,453.2,""oops"",""down"",""down"",""good_move"",20744.6,3118.1,2753,17626.5,365.1,""smooth"",""down"",""down"",""good_move"",23158.2,2413.1,2060.1,20745.1,353,""smooth"",""left"",""left"",""good_move"",26125.6,2967.1,2588.2,23158.7,378.8,""smooth"",""left"",""left"",""good_move"",29461.6,3335.4,2888,26126.2,447.4,""smooth"",""left"",""left"",""good_move""]","",""
"34268","","<div style=""width:500px;"">
  <p>What determined the result of this run?</p>
  </div>","30","html-slider-response","30","497676","0.0-5.0-1.4","262","1","2025-07-30 08:40:55","1f75c3e559b7213887762d5229550c2b","197.245.162.70","Mozilla/5.0 (Windows NT 10.0; Win64; x64) AppleWebKit/537.36 (KHTML, like Gecko) Chrome/138.0.0.0 Safari/537.36","WebKit","Chrome","138.0.0.0","Windows","10.0","https://app.prolific.com/","en-ZA,en-GB;q=0.9,en-US;q=0.8,en;q=0.7","614e1c414dff2e589169f360","6877631c9844ddd5501205fc","6889d9d90967b70f52723831","3","1","614e1c414dff2e589169f360","3","1","2025-07-30T08:49:18.593Z","","","","","","","","","","","AttribQ","","50","","","","","","","","","","","","","","","","","","","","","","","","","","","","",""
"4652","","<div style=""width:500px;"">
  <p>How much control did you have over the ball?</p>
  </div>","26","html-slider-response","31","502334","0.0-5.0-2.4","262","1","2025-07-30 08:40:55","1f75c3e559b7213887762d5229550c2b","197.245.162.70","Mozilla/5.0 (Windows NT 10.0; Win64; x64) AppleWebKit/537.36 (KHTML, like Gecko) Chrome/138.0.0.0 Safari/537.36","WebKit","Chrome","138.0.0.0","Windows","10.0","https://app.prolific.com/","en-ZA,en-GB;q=0.9,en-US;q=0.8,en;q=0.7","614e1c414dff2e589169f360","6877631c9844ddd5501205fc","6889d9d90967b70f52723831","3","1","614e1c414dff2e589169f360","3","1","2025-07-30T08:49:23.252Z","","","","","","","","","","","ControlQ","","50","","","","","","","","","","","","","","","","","","","","","","","","","","","","",""
"4189","","<div style=""width:500px;"">
  <p>How would you describe your current emotional state?</p>
  </div>","33","html-slider-response","32","506540","0.0-5.0-3.4","262","1","2025-07-30 08:40:55","1f75c3e559b7213887762d5229550c2b","197.245.162.70","Mozilla/5.0 (Windows NT 10.0; Win64; x64) AppleWebKit/537.36 (KHTML, like Gecko) Chrome/138.0.0.0 Safari/537.36","WebKit","Chrome","138.0.0.0","Windows","10.0","https://app.prolific.com/","en-ZA,en-GB;q=0.9,en-US;q=0.8,en;q=0.7","614e1c414dff2e589169f360","6877631c9844ddd5501205fc","6889d9d90967b70f52723831","3","1","614e1c414dff2e589169f360","3","1","2025-07-30T08:49:27.458Z","","","","","","","","","","","StressQ","","50","","","","","","","","","","","","","","","","","","","","","","","","","","","","",""
"4742","","<div style=""width:500px;"">
  <p>What best describes how you currently feel?</p>
  </div>","75","html-slider-response","33","511293","0.0-5.0-4.4","262","1","2025-07-30 08:40:55","1f75c3e559b7213887762d5229550c2b","197.245.162.70","Mozilla/5.0 (Windows NT 10.0; Win64; x64) AppleWebKit/537.36 (KHTML, like Gecko) Chrome/138.0.0.0 Safari/537.36","WebKit","Chrome","138.0.0.0","Windows","10.0","https://app.prolific.com/","en-ZA,en-GB;q=0.9,en-US;q=0.8,en;q=0.7","614e1c414dff2e589169f360","6877631c9844ddd5501205fc","6889d9d90967b70f52723831","3","1","614e1c414dff2e589169f360","3","1","2025-07-30T08:49:32.211Z","","","","","","","","","","","MotivationQ","","50","","","","","","","","","","","","","","","","","","","","","","","","","","","","",""
"","","","","ctl-task-cpt","34","545245","0.0-5.0-0.5","262","1","2025-07-30 08:40:55","1f75c3e559b7213887762d5229550c2b","197.245.162.70","Mozilla/5.0 (Windows NT 10.0; Win64; x64) AppleWebKit/537.36 (KHTML, like Gecko) Chrome/138.0.0.0 Safari/537.36","WebKit","Chrome","138.0.0.0","Windows","10.0","https://app.prolific.com/","en-ZA,en-GB;q=0.9,en-US;q=0.8,en;q=0.7","614e1c414dff2e589169f360","6877631c9844ddd5501205fc","6889d9d90967b70f52723831","3","1","614e1c414dff2e589169f360","3","1","2025-07-30T08:50:06.162Z","","","","","","","","","","","","","","win-only","2","g1:SE,g2:NW","0.5","6","0","517926.6","1173.2","6178.1","30922.7","1","4","8","6","2","8","7","8","1","0.06060606060606061","1012.1","3000","765","[""left"",""up""]","{""num_key_presses"":8,""num_perfect"":3,""num_errors"":1,""num_randdir"":4,""num_randdir_good_moves"":3,""num_whilered"":0,""num_whileblue"":1,""num_blue"":2,""num_good_moves"":7}","[347.14285714285717,350.04910714285717,0.2,347.14285714285717,350.04910714285717,106.9,348.14285714285717,350.04910714285717,208.6,348.14285714285717,350.04910714285717,313.5,348.14285714285717,350.04910714285717,418.3,348.14285714285717,349.04910714285717,528.4,348.14285714285717,349.04910714285717,631,302.14285714285717,289.04910714285717,733.3,90.14285714285714,103.04910714285714,837.7,74.14285714285714,42.049107142857146,953,73.14285714285714,39.049107142857146,1063.2,73.14285714285714,39.049107142857146,1165.1,146.14285714285714,92.04910714285714,1266.6,263.14285714285717,152.04910714285714,1367.6,292.14285714285717,166.04910714285714,1481.3,293.14285714285717,181.04910714285714,1582.8,293.14285714285717,182.04910714285714,1683.3,293.14285714285717,182.04910714285714,1783.3,293.14285714285717,182.04910714285714,1884.6,293.14285714285717,182.04910714285714,1987.6,293.14285714285717,182.04910714285714,2087.9,293.14285714285717,182.04910714285714,2199.4,293.14285714285717,182.04910714285714,2303.8,293.14285714285717,182.04910714285714,2408.6,293.14285714285717,182.04910714285714,2513,293.14285714285717,182.04910714285714,2613.4,306.14285714285717,193.04910714285714,2716,322.14285714285717,336.04910714285717,2817.7,305.14285714285717,391.04910714285717,2931.9,305.14285714285717,400.04910714285717,3033,309.14285714285717,418.04910714285717,3133.2,340.14285714285717,435.04910714285717,3237.4,346.14285714285717,435.04910714285717,3346.9,353.14285714285717,430.04910714285717,3451.4,353.14285714285717,425.04910714285717,3561.1,354.14285714285717,425.04910714285717,3664,485.14285714285717,452.04910714285717,3768.9,627.1428571428571,471.04910714285717,3873.1,634.1428571428571,471.04910714285717,3983.8,635.1428571428571,467.04910714285717,4087.5,635.1428571428571,467.04910714285717,4196.3,635.1428571428571,467.04910714285717,4298.3,635.1428571428571,467.04910714285717,4398.3,635.1428571428571,467.04910714285717,4503,635.1428571428571,467.04910714285717,4603.7,635.1428571428571,467.04910714285717,4707.1,635.1428571428571,467.04910714285717,4812.1,635.1428571428571,467.04910714285717,4918]","[1425,1425,1000,0,425,""oops"",""up"",""up"",""good_move"",6664.6,5238.7,1930,4283.7,450.9,""smooth"",""up"",""up"",""good_move"",9645.2,2980.4,2517.6,6664.8,462.9,""oops"",""up"",""down"",""bad_move"",12961.8,3316.3,2932.9,9645.6,383.4,""while_blue"",""left"",""left"",""good_move"",15826.4,2864,2411.5,12962.4,452.5,""smooth"",""left"",""left"",""good_move"",18381.8,2555.3,2181.8,15826.5,373.5,""oops"",""up"",""up"",""good_move"",21073.9,2691.6,2302.1,18382.3,389.5,""oops"",""left"",""up"",""good_move"",24595.2,3521.1,3169.2,21074.2,351.8,""smooth"",""left"",""left"",""good_move""]","",""
"4141","","<div style=""width:500px;"">
  <p>What determined the result of this run?</p>
  </div>","21","html-slider-response","35","549391","0.0-5.0-1.5","262","1","2025-07-30 08:40:55","1f75c3e559b7213887762d5229550c2b","197.245.162.70","Mozilla/5.0 (Windows NT 10.0; Win64; x64) AppleWebKit/537.36 (KHTML, like Gecko) Chrome/138.0.0.0 Safari/537.36","WebKit","Chrome","138.0.0.0","Windows","10.0","https://app.prolific.com/","en-ZA,en-GB;q=0.9,en-US;q=0.8,en;q=0.7","614e1c414dff2e589169f360","6877631c9844ddd5501205fc","6889d9d90967b70f52723831","3","1","614e1c414dff2e589169f360","3","1","2025-07-30T08:50:10.310Z","","","","","","","","","","","AttribQ","","50","","","","","","","","","","","","","","","","","","","","","","","","","","","","",""
"5037","","<div style=""width:500px;"">
  <p>How much control did you have over the ball?</p>
  </div>","26","html-slider-response","36","554437","0.0-5.0-2.5","262","1","2025-07-30 08:40:55","1f75c3e559b7213887762d5229550c2b","197.245.162.70","Mozilla/5.0 (Windows NT 10.0; Win64; x64) AppleWebKit/537.36 (KHTML, like Gecko) Chrome/138.0.0.0 Safari/537.36","WebKit","Chrome","138.0.0.0","Windows","10.0","https://app.prolific.com/","en-ZA,en-GB;q=0.9,en-US;q=0.8,en;q=0.7","614e1c414dff2e589169f360","6877631c9844ddd5501205fc","6889d9d90967b70f52723831","3","1","614e1c414dff2e589169f360","3","1","2025-07-30T08:50:15.355Z","","","","","","","","","","","ControlQ","","50","","","","","","","","","","","","","","","","","","","","","","","","","","","","",""
"3234","","<div style=""width:500px;"">
  <p>How would you describe your current emotional state?</p>
  </div>","23","html-slider-response","37","557681","0.0-5.0-3.5","262","1","2025-07-30 08:40:55","1f75c3e559b7213887762d5229550c2b","197.245.162.70","Mozilla/5.0 (Windows NT 10.0; Win64; x64) AppleWebKit/537.36 (KHTML, like Gecko) Chrome/138.0.0.0 Safari/537.36","WebKit","Chrome","138.0.0.0","Windows","10.0","https://app.prolific.com/","en-ZA,en-GB;q=0.9,en-US;q=0.8,en;q=0.7","614e1c414dff2e589169f360","6877631c9844ddd5501205fc","6889d9d90967b70f52723831","3","1","614e1c414dff2e589169f360","3","1","2025-07-30T08:50:18.599Z","","","","","","","","","","","StressQ","","50","","","","","","","","","","","","","","","","","","","","","","","","","","","","",""
"3618","","<div style=""width:500px;"">
  <p>What best describes how you currently feel?</p>
  </div>","73","html-slider-response","38","561309","0.0-5.0-4.5","262","1","2025-07-30 08:40:55","1f75c3e559b7213887762d5229550c2b","197.245.162.70","Mozilla/5.0 (Windows NT 10.0; Win64; x64) AppleWebKit/537.36 (KHTML, like Gecko) Chrome/138.0.0.0 Safari/537.36","WebKit","Chrome","138.0.0.0","Windows","10.0","https://app.prolific.com/","en-ZA,en-GB;q=0.9,en-US;q=0.8,en;q=0.7","614e1c414dff2e589169f360","6877631c9844ddd5501205fc","6889d9d90967b70f52723831","3","1","614e1c414dff2e589169f360","3","1","2025-07-30T08:50:22.227Z","","","","","","","","","","","MotivationQ","","50","","","","","","","","","","","","","","","","","","","","","","","","","","","","",""
"","","","","ctl-task-cpt","39","616131","0.0-5.0-0.6","262","1","2025-07-30 08:40:55","1f75c3e559b7213887762d5229550c2b","197.245.162.70","Mozilla/5.0 (Windows NT 10.0; Win64; x64) AppleWebKit/537.36 (KHTML, like Gecko) Chrome/138.0.0.0 Safari/537.36","WebKit","Chrome","138.0.0.0","Windows","10.0","https://app.prolific.com/","en-ZA,en-GB;q=0.9,en-US;q=0.8,en;q=0.7","614e1c414dff2e589169f360","6877631c9844ddd5501205fc","6889d9d90967b70f52723831","3","1","614e1c414dff2e589169f360","3","1","2025-07-30T08:51:17.048Z","","","","","","","","","","","","","","win-only","2","g1:SE,g2:NW","0.4","7","0","567955.9","1469.7","6471.8","51788.3","1","4","8","6","2","-8","-12","0","8","0","1197.7","3000","-2335","[""left"",""up""]","{""num_key_presses"":15,""num_perfect"":4,""num_errors"":4,""num_randdir"":7,""num_randdir_good_moves"":2,""num_whilered"":0,""num_whileblue"":2,""num_blue"":3,""num_good_moves"":5}","[344.14285714285717,340.04910714285717,0.2,345.14285714285717,341.04910714285717,104.4,354.14285714285717,350.04910714285717,205.9,370.14285714285717,366.04910714285717,306.2,370.14285714285717,380.04910714285717,406.3,377.14285714285717,430.04910714285717,514.5,354.14285714285717,436.04910714285717,615.7,128.14285714285714,85.04910714285714,721.1,102.14285714285714,0.0491071428571459,821.6,89.14285714285714,5.049107142857146,922.9,43.142857142857146,26.049107142857146,1027.6,39.142857142857146,38.049107142857146,1136,39.142857142857146,38.049107142857146,1237.2,47.142857142857146,50.049107142857146,1340.8,508.14285714285717,246.04910714285714,1449.5,920.1428571428571,393.04910714285717,1551.7,1016.1428571428571,432.04910714285717,1660.8,1015.1428571428571,436.04910714285717,1768.3,1010.1428571428571,437.04910714285717,1868.7,1010.1428571428571,437.04910714285717,1975.3,1010.1428571428571,437.04910714285717,2075.9,1010.1428571428571,437.04910714285717,2184.9,1010.1428571428571,437.04910714285717,2286.1,1010.1428571428571,437.04910714285717,2386.4,1010.1428571428571,437.04910714285717,2488.9,1010.1428571428571,437.04910714285717,2591.9,1010.1428571428571,437.04910714285717,2697,1010.1428571428571,437.04910714285717,2801.9,1010.1428571428571,437.04910714285717,2915,1010.1428571428571,437.04910714285717,3016.8,1010.1428571428571,437.04910714285717,3121.4,1010.1428571428571,437.04910714285717,3222.6,1010.1428571428571,437.04910714285717,3338.7,1010.1428571428571,437.04910714285717,3441.2,1010.1428571428571,437.04910714285717,3541.6,1010.1428571428571,437.04910714285717,3650.6,1010.1428571428571,437.04910714285717,3751.5,1010.1428571428571,437.04910714285717,3865.2,1010.1428571428571,437.04910714285717,3966.7,1010.1428571428571,437.04910714285717,4069.8,1010.1428571428571,437.04910714285717,4171.4,1010.1428571428571,437.04910714285717,4271.8,1010.1428571428571,437.04910714285717,4373,1010.1428571428571,437.04910714285717,4479.4,1010.1428571428571,437.04910714285717,4582.3,1010.1428571428571,437.04910714285717,4686.1,1010.1428571428571,437.04910714285717,4786.1,1010.1428571428571,437.04910714285717,4886.7,1010.1428571428571,437.04910714285717,4987.3]","[1396.2,1396.3,1000,0,396.3,""oops"",""up"",""down"",""bad_move"",4151.6,2754.1,2390.5,1397.5,363.6,""oops"",""left"",""right"",""bad_move"",6634.9,2481.6,2071.2,4153.3,410.4,""smooth"",""right"",""right"",""bad_move"",9305.4,2670.3,2268.6,6635.1,401.7,""smooth"",""up"",""up"",""good_move"",11862.8,2556.9,2222,9305.9,334.9,""smooth"",""up"",""up"",""good_move"",14977.9,3114.7,2818.5,11863.3,296.1,""smooth"",""up"",""up"",""good_move"",18030.5,3052.5,2751,14978.1,301.5,""oops"",""up"",""down"",""bad_move"",21163.2,3131.9,2814.8,18031.3,317.1,""oops"",""left"",""left"",""good_move"",24400.4,3236.8,2902.5,21163.6,334.3,""while_blue"",""up"",""down"",""bad_move"",28159.7,3758.7,3428.3,24401,330.4,""oops"",""left"",""up"",""good_move"",31081.2,2920.5,2611.9,28160.7,308.6,""oops"",""left"",""right"",""bad_move"",33646.6,2564.9,2246.4,31081.7,318.5,""while_blue"",""left"",""down"",""bad_move"",34977.3,1330.7,2529.3,33646.7,-1198.6,""error"",""-"",""-"",""no_move"",36374.6,1397,2381.9,35979.3,-1986.6,""error"",""-"",""-"",""no_move"",39961.4,3586.7,2179,37379.9,402.6,""oops"",""left"",""down"",""bad_move""]","",""
"6223","","<div style=""width:500px;"">
  <p>What determined the result of this run?</p>
  </div>","3","html-slider-response","40","622360","0.0-5.0-1.6","262","1","2025-07-30 08:40:55","1f75c3e559b7213887762d5229550c2b","197.245.162.70","Mozilla/5.0 (Windows NT 10.0; Win64; x64) AppleWebKit/537.36 (KHTML, like Gecko) Chrome/138.0.0.0 Safari/537.36","WebKit","Chrome","138.0.0.0","Windows","10.0","https://app.prolific.com/","en-ZA,en-GB;q=0.9,en-US;q=0.8,en;q=0.7","614e1c414dff2e589169f360","6877631c9844ddd5501205fc","6889d9d90967b70f52723831","3","1","614e1c414dff2e589169f360","3","1","2025-07-30T08:51:23.278Z","","","","","","","","","","","AttribQ","","50","","","","","","","","","","","","","","","","","","","","","","","","","","","","",""
"5532","","<div style=""width:500px;"">
  <p>How much control did you have over the ball?</p>
  </div>","4","html-slider-response","41","627899","0.0-5.0-2.6","262","1","2025-07-30 08:40:55","1f75c3e559b7213887762d5229550c2b","197.245.162.70","Mozilla/5.0 (Windows NT 10.0; Win64; x64) AppleWebKit/537.36 (KHTML, like Gecko) Chrome/138.0.0.0 Safari/537.36","WebKit","Chrome","138.0.0.0","Windows","10.0","https://app.prolific.com/","en-ZA,en-GB;q=0.9,en-US;q=0.8,en;q=0.7","614e1c414dff2e589169f360","6877631c9844ddd5501205fc","6889d9d90967b70f52723831","3","1","614e1c414dff2e589169f360","3","1","2025-07-30T08:51:28.816Z","","","","","","","","","","","ControlQ","","50","","","","","","","","","","","","","","","","","","","","","","","","","","","","",""
"19856","","<div style=""width:500px;"">
  <p>How would you describe your current emotional state?</p>
  </div>","19","html-slider-response","42","647756","0.0-5.0-3.6","262","1","2025-07-30 08:40:55","1f75c3e559b7213887762d5229550c2b","197.245.162.70","Mozilla/5.0 (Windows NT 10.0; Win64; x64) AppleWebKit/537.36 (KHTML, like Gecko) Chrome/138.0.0.0 Safari/537.36","WebKit","Chrome","138.0.0.0","Windows","10.0","https://app.prolific.com/","en-ZA,en-GB;q=0.9,en-US;q=0.8,en;q=0.7","614e1c414dff2e589169f360","6877631c9844ddd5501205fc","6889d9d90967b70f52723831","3","1","614e1c414dff2e589169f360","3","1","2025-07-30T08:51:48.673Z","","","","","","","","","","","StressQ","","50","","","","","","","","","","","","","","","","","","","","","","","","","","","","",""
"5032","","<div style=""width:500px;"">
  <p>What best describes how you currently feel?</p>
  </div>","71","html-slider-response","43","652790","0.0-5.0-4.6","262","1","2025-07-30 08:40:55","1f75c3e559b7213887762d5229550c2b","197.245.162.70","Mozilla/5.0 (Windows NT 10.0; Win64; x64) AppleWebKit/537.36 (KHTML, like Gecko) Chrome/138.0.0.0 Safari/537.36","WebKit","Chrome","138.0.0.0","Windows","10.0","https://app.prolific.com/","en-ZA,en-GB;q=0.9,en-US;q=0.8,en;q=0.7","614e1c414dff2e589169f360","6877631c9844ddd5501205fc","6889d9d90967b70f52723831","3","1","614e1c414dff2e589169f360","3","1","2025-07-30T08:51:53.707Z","","","","","","","","","","","MotivationQ","","50","","","","","","","","","","","","","","","","","","","","","","","","","","","","",""
"","","","","ctl-task-cpt","44","688930","0.0-5.0-0.7","262","1","2025-07-30 08:40:55","1f75c3e559b7213887762d5229550c2b","197.245.162.70","Mozilla/5.0 (Windows NT 10.0; Win64; x64) AppleWebKit/537.36 (KHTML, like Gecko) Chrome/138.0.0.0 Safari/537.36","WebKit","Chrome","138.0.0.0","Windows","10.0","https://app.prolific.com/","en-ZA,en-GB;q=0.9,en-US;q=0.8,en;q=0.7","614e1c414dff2e589169f360","6877631c9844ddd5501205fc","6889d9d90967b70f52723831","3","1","614e1c414dff2e589169f360","3","1","2025-07-30T08:52:29.847Z","","","","","","","","","","","","","","win-only","1","g1:NE,g2:SW","0.3","8","0","659422.4","944.5","5948.5","33122.3","1","4","4","6","2","-4","-4","0","0","0","1726.4","3000","-1955","[""down"",""left""]","{""num_key_presses"":7,""num_perfect"":2,""num_errors"":0,""num_randdir"":5,""num_randdir_good_moves"":3,""num_whilered"":0,""num_whileblue"":0,""num_blue"":2,""num_good_moves"":4}","[349.14285714285717,349.04910714285717,0.1,349.14285714285717,349.04910714285717,105,349.14285714285717,350.04910714285717,206.5,349.14285714285717,351.04910714285717,307.1,350.14285714285717,355.04910714285717,413.7,370.14285714285717,344.04910714285717,514.9,315.14285714285717,399.04910714285717,617.5,175.14285714285714,537.0491071428571,718.8,122.14285714285714,574.0491071428571,823.1,106.14285714285714,578.0491071428571,931.5,90.14285714285714,590.0491071428571,1034.5,89.14285714285714,602.0491071428571,1138.4,81.14285714285714,616.0491071428571,1238.7,80.14285714285714,617.0491071428571,1341.4,81.14285714285714,615.0491071428571,1446.6,81.14285714285714,614.0491071428571,1550.1,81.14285714285714,614.0491071428571,1654.7,81.14285714285714,614.0491071428571,1755.4,81.14285714285714,614.0491071428571,1855.5,84.14285714285714,614.0491071428571,1956.4,92.14285714285714,617.0491071428571,2056.4,126.14285714285714,624.0491071428571,2162.1,205.14285714285714,636.0491071428571,2265.5,216.14285714285714,638.0491071428571,2367.9,216.14285714285714,638.0491071428571,2467.9,226.14285714285714,632.0491071428571,2575.3,298.14285714285717,566.0491071428571,2678.5,339.14285714285717,495.04910714285717,2783.2,357.14285714285717,445.04910714285717,2884.5,373.14285714285717,406.04910714285717,2987.1,377.14285714285717,400.04910714285717,3089.4,377.14285714285717,399.04910714285717,3189.6,380.14285714285717,402.04910714285717,3291.4,380.14285714285717,402.04910714285717,3394.7,380.14285714285717,402.04910714285717,3495.7,380.14285714285717,402.04910714285717,3599.2,380.14285714285717,402.04910714285717,3704.6,380.14285714285717,402.04910714285717,3807.4,380.14285714285717,402.04910714285717,3908.8,380.14285714285717,402.04910714285717,4010.1,392.14285714285717,402.04910714285717,4113.2,532.1428571428571,423.04910714285717,4213.4,604.1428571428571,472.04910714285717,4316.8,604.1428571428571,473.04910714285717,4418.8,604.1428571428571,473.04910714285717,4525,604.1428571428571,473.04910714285717,4627.8,604.1428571428571,473.04910714285717,4734,604.1428571428571,473.04910714285717,4835.4,604.1428571428571,473.04910714285717,4938.3]","[1616.9,1616.9,1000,0.1,616.8,""oops"",""right"",""left"",""good_move"",7561.1,5943.5,2503.8,4572.8,484.5,""oops"",""down"",""up"",""bad_move"",10768.3,3206.6,2416.7,7561.7,789.9,""smooth"",""up"",""up"",""bad_move"",14028.3,3259.7,2648.3,10768.6,611.4,""oops"",""left"",""left"",""good_move"",16901.8,2873.2,2557.4,14028.6,315.8,""oops"",""left"",""left"",""good_move"",19538.9,2636.7,2170.9,16902.3,465.7,""smooth"",""down"",""down"",""good_move"",24572.8,5033.2,2060.9,22059.4,452.5,""oops"",""down"",""right"",""bad_move""]","",""
"3006","","<div style=""width:500px;"">
  <p>What determined the result of this run?</p>
  </div>","22","html-slider-response","45","691937","0.0-5.0-1.7","262","1","2025-07-30 08:40:55","1f75c3e559b7213887762d5229550c2b","197.245.162.70","Mozilla/5.0 (Windows NT 10.0; Win64; x64) AppleWebKit/537.36 (KHTML, like Gecko) Chrome/138.0.0.0 Safari/537.36","WebKit","Chrome","138.0.0.0","Windows","10.0","https://app.prolific.com/","en-ZA,en-GB;q=0.9,en-US;q=0.8,en;q=0.7","614e1c414dff2e589169f360","6877631c9844ddd5501205fc","6889d9d90967b70f52723831","3","1","614e1c414dff2e589169f360","3","1","2025-07-30T08:52:32.854Z","","","","","","","","","","","AttribQ","","50","","","","","","","","","","","","","","","","","","","","","","","","","","","","",""
"2718","","<div style=""width:500px;"">
  <p>How much control did you have over the ball?</p>
  </div>","17","html-slider-response","46","694657","0.0-5.0-2.7","262","1","2025-07-30 08:40:55","1f75c3e559b7213887762d5229550c2b","197.245.162.70","Mozilla/5.0 (Windows NT 10.0; Win64; x64) AppleWebKit/537.36 (KHTML, like Gecko) Chrome/138.0.0.0 Safari/537.36","WebKit","Chrome","138.0.0.0","Windows","10.0","https://app.prolific.com/","en-ZA,en-GB;q=0.9,en-US;q=0.8,en;q=0.7","614e1c414dff2e589169f360","6877631c9844ddd5501205fc","6889d9d90967b70f52723831","3","1","614e1c414dff2e589169f360","3","1","2025-07-30T08:52:35.574Z","","","","","","","","","","","ControlQ","","50","","","","","","","","","","","","","","","","","","","","","","","","","","","","",""
"2533","","<div style=""width:500px;"">
  <p>How would you describe your current emotional state?</p>
  </div>","82","html-slider-response","47","697192","0.0-5.0-3.7","262","1","2025-07-30 08:40:55","1f75c3e559b7213887762d5229550c2b","197.245.162.70","Mozilla/5.0 (Windows NT 10.0; Win64; x64) AppleWebKit/537.36 (KHTML, like Gecko) Chrome/138.0.0.0 Safari/537.36","WebKit","Chrome","138.0.0.0","Windows","10.0","https://app.prolific.com/","en-ZA,en-GB;q=0.9,en-US;q=0.8,en;q=0.7","614e1c414dff2e589169f360","6877631c9844ddd5501205fc","6889d9d90967b70f52723831","3","1","614e1c414dff2e589169f360","3","1","2025-07-30T08:52:38.109Z","","","","","","","","","","","StressQ","","50","","","","","","","","","","","","","","","","","","","","","","","","","","","","",""
"3589","","<div style=""width:500px;"">
  <p>What best describes how you currently feel?</p>
  </div>","70","html-slider-response","48","700781","0.0-5.0-4.7","262","1","2025-07-30 08:40:55","1f75c3e559b7213887762d5229550c2b","197.245.162.70","Mozilla/5.0 (Windows NT 10.0; Win64; x64) AppleWebKit/537.36 (KHTML, like Gecko) Chrome/138.0.0.0 Safari/537.36","WebKit","Chrome","138.0.0.0","Windows","10.0","https://app.prolific.com/","en-ZA,en-GB;q=0.9,en-US;q=0.8,en;q=0.7","614e1c414dff2e589169f360","6877631c9844ddd5501205fc","6889d9d90967b70f52723831","3","1","614e1c414dff2e589169f360","3","1","2025-07-30T08:52:41.699Z","","","","","","","","","","","MotivationQ","","50","","","","","","","","","","","","","","","","","","","","","","","","","","","","",""
"","","","","ctl-task-cpt","49","741427","0.0-5.0-0.8","262","1","2025-07-30 08:40:55","1f75c3e559b7213887762d5229550c2b","197.245.162.70","Mozilla/5.0 (Windows NT 10.0; Win64; x64) AppleWebKit/537.36 (KHTML, like Gecko) Chrome/138.0.0.0 Safari/537.36","WebKit","Chrome","138.0.0.0","Windows","10.0","https://app.prolific.com/","en-ZA,en-GB;q=0.9,en-US;q=0.8,en;q=0.7","614e1c414dff2e589169f360","6877631c9844ddd5501205fc","6889d9d90967b70f52723831","3","1","614e1c414dff2e589169f360","3","1","2025-07-30T08:53:22.344Z","","","","","","","","","","","","","","win-only","3","g1:SW,g2:NE","0.2","9","0","707414.8","3300.1","8301.7","37626.5","1","4","8","6","2","-8","-8","0","0","0","956.5","3000","-2750","[""up"",""right""]","{""num_key_presses"":7,""num_perfect"":2,""num_errors"":0,""num_randdir"":5,""num_randdir_good_moves"":4,""num_whilered"":0,""num_whileblue"":0,""num_blue"":2,""num_good_moves"":6}","[355.14285714285717,348.04910714285717,0.4,355.14285714285717,348.04910714285717,104.5,359.14285714285717,346.04910714285717,208.8,363.14285714285717,347.04910714285717,310.8,366.14285714285717,349.04910714285717,412.5,399.14285714285717,318.04910714285717,512.6,402.14285714285717,312.04910714285717,613.5,474.14285714285717,250.04910714285714,719.1,586.1428571428571,99.04910714285714,822.6,603.1428571428571,76.04910714285714,930.5,603.1428571428571,76.04910714285714,1031,601.1428571428571,99.04910714285714,1137.2,594.1428571428571,304.04910714285717,1239.6,707.1428571428571,449.04910714285717,1339.6,760.1428571428571,457.04910714285717,1441.9,773.1428571428571,457.04910714285717,1543.3,773.1428571428571,457.04910714285717,1643.4,773.1428571428571,457.04910714285717,1743.8,773.1428571428571,457.04910714285717,1847.7,773.1428571428571,457.04910714285717,1952.9,773.1428571428571,457.04910714285717,2058.5,773.1428571428571,457.04910714285717,2161.3,773.1428571428571,457.04910714285717,2264.1,773.1428571428571,457.04910714285717,2368.2,773.1428571428571,457.04910714285717,2473.5,773.1428571428571,457.04910714285717,2573.8,773.1428571428571,457.04910714285717,2674.1,773.1428571428571,457.04910714285717,2774.7,773.1428571428571,457.04910714285717,2875.3,773.1428571428571,457.04910714285717,2977.3,773.1428571428571,457.04910714285717,3077.5,773.1428571428571,457.04910714285717,3180.5,773.1428571428571,457.04910714285717,3281,773.1428571428571,457.04910714285717,3382.3,773.1428571428571,457.04910714285717,3489.4,773.1428571428571,457.04910714285717,3592.1,773.1428571428571,457.04910714285717,3697.4,773.1428571428571,457.04910714285717,3801.6,773.1428571428571,457.04910714285717,3907.7,773.1428571428571,457.04910714285717,4007.8,773.1428571428571,457.04910714285717,4108.9,773.1428571428571,457.04910714285717,4211.7,773.1428571428571,457.04910714285717,4316.1,773.1428571428571,457.04910714285717,4418.2,773.1428571428571,457.04910714285717,4524.1,773.1428571428571,457.04910714285717,4625.1,773.1428571428571,457.04910714285717,4730.7,773.1428571428571,457.04910714285717,4831.1,773.1428571428571,457.04910714285717,4938.9]","[1636.2,1636.2,1000,0,636.2,""oops"",""up"",""right"",""good_move"",4783.5,3146.7,2708.3,1636.9,438.4,""oops"",""up"",""right"",""good_move"",7855.1,3071.4,2594.8,4783.8,476.5,""smooth"",""right"",""right"",""good_move"",10455.6,2600.3,2162.9,7855.3,437.4,""oops"",""up"",""left"",""bad_move"",13864,3408,3016.3,10456.1,391.6,""oops"",""up"",""right"",""good_move"",20454.4,6589.8,3376.7,16620.2,457.5,""oops"",""up"",""up"",""good_move"",26674.2,6219.5,2940.3,23386.7,347.2,""smooth"",""up"",""up"",""good_move""]","",""
"3690","","<div style=""width:500px;"">
  <p>What determined the result of this run?</p>
  </div>","0","html-slider-response","50","745121","0.0-5.0-1.8","262","1","2025-07-30 08:40:55","1f75c3e559b7213887762d5229550c2b","197.245.162.70","Mozilla/5.0 (Windows NT 10.0; Win64; x64) AppleWebKit/537.36 (KHTML, like Gecko) Chrome/138.0.0.0 Safari/537.36","WebKit","Chrome","138.0.0.0","Windows","10.0","https://app.prolific.com/","en-ZA,en-GB;q=0.9,en-US;q=0.8,en;q=0.7","614e1c414dff2e589169f360","6877631c9844ddd5501205fc","6889d9d90967b70f52723831","3","1","614e1c414dff2e589169f360","3","1","2025-07-30T08:53:26.038Z","","","","","","","","","","","AttribQ","","50","","","","","","","","","","","","","","","","","","","","","","","","","","","","",""
"3064","","<div style=""width:500px;"">
  <p>How much control did you have over the ball?</p>
  </div>","0","html-slider-response","51","748186","0.0-5.0-2.8","262","1","2025-07-30 08:40:55","1f75c3e559b7213887762d5229550c2b","197.245.162.70","Mozilla/5.0 (Windows NT 10.0; Win64; x64) AppleWebKit/537.36 (KHTML, like Gecko) Chrome/138.0.0.0 Safari/537.36","WebKit","Chrome","138.0.0.0","Windows","10.0","https://app.prolific.com/","en-ZA,en-GB;q=0.9,en-US;q=0.8,en;q=0.7","614e1c414dff2e589169f360","6877631c9844ddd5501205fc","6889d9d90967b70f52723831","3","1","614e1c414dff2e589169f360","3","1","2025-07-30T08:53:29.104Z","","","","","","","","","","","ControlQ","","50","","","","","","","","","","","","","","","","","","","","","","","","","","","","",""
"2986","","<div style=""width:500px;"">
  <p>How would you describe your current emotional state?</p>
  </div>","87","html-slider-response","52","751174","0.0-5.0-3.8","262","1","2025-07-30 08:40:55","1f75c3e559b7213887762d5229550c2b","197.245.162.70","Mozilla/5.0 (Windows NT 10.0; Win64; x64) AppleWebKit/537.36 (KHTML, like Gecko) Chrome/138.0.0.0 Safari/537.36","WebKit","Chrome","138.0.0.0","Windows","10.0","https://app.prolific.com/","en-ZA,en-GB;q=0.9,en-US;q=0.8,en;q=0.7","614e1c414dff2e589169f360","6877631c9844ddd5501205fc","6889d9d90967b70f52723831","3","1","614e1c414dff2e589169f360","3","1","2025-07-30T08:53:32.091Z","","","","","","","","","","","StressQ","","50","","","","","","","","","","","","","","","","","","","","","","","","","","","","",""
"2178","","<div style=""width:500px;"">
  <p>What best describes how you currently feel?</p>
  </div>","73","html-slider-response","53","753353","0.0-5.0-4.8","262","1","2025-07-30 08:40:55","1f75c3e559b7213887762d5229550c2b","197.245.162.70","Mozilla/5.0 (Windows NT 10.0; Win64; x64) AppleWebKit/537.36 (KHTML, like Gecko) Chrome/138.0.0.0 Safari/537.36","WebKit","Chrome","138.0.0.0","Windows","10.0","https://app.prolific.com/","en-ZA,en-GB;q=0.9,en-US;q=0.8,en;q=0.7","614e1c414dff2e589169f360","6877631c9844ddd5501205fc","6889d9d90967b70f52723831","3","1","614e1c414dff2e589169f360","3","1","2025-07-30T08:53:34.270Z","","","","","","","","","","","MotivationQ","","50","","","","","","","","","","","","","","","","","","","","","","","","","","","","",""
"","","","","ctl-task-cpt","54","798186","0.0-5.0-0.9","262","1","2025-07-30 08:40:55","1f75c3e559b7213887762d5229550c2b","197.245.162.70","Mozilla/5.0 (Windows NT 10.0; Win64; x64) AppleWebKit/537.36 (KHTML, like Gecko) Chrome/138.0.0.0 Safari/537.36","WebKit","Chrome","138.0.0.0","Windows","10.0","https://app.prolific.com/","en-ZA,en-GB;q=0.9,en-US;q=0.8,en;q=0.7","614e1c414dff2e589169f360","6877631c9844ddd5501205fc","6889d9d90967b70f52723831","3","1","614e1c414dff2e589169f360","3","1","2025-07-30T08:54:19.103Z","","","","","","","","","","","","","","win-only","0","g1:NW,g2:SE","0.4","10","0","759986.6","9388.1","14395.5","41813.3","1","4","4","6","2","-4","-4","0","0","0","1204.3","3000","-2205","[""down"",""right""]","{""num_key_presses"":9,""num_perfect"":3,""num_errors"":0,""num_randdir"":6,""num_randdir_good_moves"":3,""num_whilered"":0,""num_whileblue"":0,""num_blue"":0,""num_good_moves"":6}","[346.14285714285717,344.04910714285717,0.7,346.14285714285717,344.04910714285717,106.9,346.14285714285717,344.04910714285717,209.2,346.14285714285717,344.04910714285717,313,346.14285714285717,344.04910714285717,413.6,345.14285714285717,344.04910714285717,522,226.14285714285714,227.04910714285714,625.1,191.14285714285714,149.04910714285714,727.8,540.1428571428571,580.0491071428571,842.4,692.1428571428571,739.0491071428571,945,672.1428571428571,669.0491071428571,1046.4,662.1428571428571,645.0491071428571,1152.3,662.1428571428571,645.0491071428571,1257.5,662.1428571428571,647.0491071428571,1360.4,622.1428571428571,688.0491071428571,1462.5,790.1428571428571,789.0491071428571,1563,1146.142857142857,800.0491071428571,1663.2,1146.142857142857,796.0491071428571,1772.2,1127.142857142857,773.0491071428571,1877.3,1120.142857142857,766.0491071428571,1982.6,1120.142857142857,766.0491071428571,2087.2,1120.142857142857,766.0491071428571,2187.6,1120.142857142857,766.0491071428571,2291.3,1120.142857142857,766.0491071428571,2392.4,1120.142857142857,766.0491071428571,2496.9,1119.142857142857,767.0491071428571,2599,1119.142857142857,768.0491071428571,2708,1119.142857142857,768.0491071428571,2813.5,1119.142857142857,768.0491071428571,2924.6,1119.142857142857,768.0491071428571,3030.3,1119.142857142857,768.0491071428571,3136.9,1119.142857142857,768.0491071428571,3239.3,1119.142857142857,769.0491071428571,3340.1,1119.142857142857,769.0491071428571,3443.1,1119.142857142857,769.0491071428571,3544.3,1119.142857142857,769.0491071428571,3646.1,1119.142857142857,769.0491071428571,3751.8,1119.142857142857,769.0491071428571,3851.8,1119.142857142857,769.0491071428571,3957,1119.142857142857,769.0491071428571,4057.9,1119.142857142857,769.0491071428571,4165.6,1119.142857142857,769.0491071428571,4268,1119.142857142857,769.0491071428571,4371.3,1119.142857142857,769.0491071428571,4471.7,1119.142857142857,769.0491071428571,4572.6,1119.142857142857,769.0491071428571,4678.1,1119.142857142857,769.0491071428571,4780.4,1119.142857142857,769.0491071428571,4887.7,1119.142857142857,769.0491071428571,4991.3]","[1764,1764,1000,0,764,""oops"",""right"",""right"",""good_move"",3931.9,2167.3,1603.7,1764.6,563.6,""smooth"",""right"",""right"",""good_move"",6648.6,2716.4,2365.5,3932.2,350.9,""smooth"",""right"",""right"",""good_move"",9780.2,3131.5,2776.2,6648.8,355.3,""oops"",""down"",""left"",""bad_move"",12298.1,2517.3,2144.1,9780.8,373.2,""oops"",""down"",""left"",""bad_move"",14942.5,2644.3,2226,12298.2,418.3,""smooth"",""down"",""down"",""good_move"",18332.3,3389.2,3023.1,14943.1,366.1,""oops"",""down"",""up"",""bad_move"",21159.2,2826.6,2408.9,18332.6,417.7,""oops"",""down"",""right"",""good_move"",24445.4,3285.6,2894.5,21159.8,391.1,""oops"",""down"",""down"",""good_move""]","",""
"10055","","<div style=""width:500px;"">
  <p>What determined the result of this run?</p>
  </div>","9","html-slider-response","55","808244","0.0-5.0-1.9","262","1","2025-07-30 08:40:55","1f75c3e559b7213887762d5229550c2b","197.245.162.70","Mozilla/5.0 (Windows NT 10.0; Win64; x64) AppleWebKit/537.36 (KHTML, like Gecko) Chrome/138.0.0.0 Safari/537.36","WebKit","Chrome","138.0.0.0","Windows","10.0","https://app.prolific.com/","en-ZA,en-GB;q=0.9,en-US;q=0.8,en;q=0.7","614e1c414dff2e589169f360","6877631c9844ddd5501205fc","6889d9d90967b70f52723831","3","1","614e1c414dff2e589169f360","3","1","2025-07-30T08:54:29.161Z","","","","","","","","","","","AttribQ","","50","","","","","","","","","","","","","","","","","","","","","","","","","","","","",""
"2536","","<div style=""width:500px;"">
  <p>How much control did you have over the ball?</p>
  </div>","11","html-slider-response","56","810781","0.0-5.0-2.9","262","1","2025-07-30 08:40:55","1f75c3e559b7213887762d5229550c2b","197.245.162.70","Mozilla/5.0 (Windows NT 10.0; Win64; x64) AppleWebKit/537.36 (KHTML, like Gecko) Chrome/138.0.0.0 Safari/537.36","WebKit","Chrome","138.0.0.0","Windows","10.0","https://app.prolific.com/","en-ZA,en-GB;q=0.9,en-US;q=0.8,en;q=0.7","614e1c414dff2e589169f360","6877631c9844ddd5501205fc","6889d9d90967b70f52723831","3","1","614e1c414dff2e589169f360","3","1","2025-07-30T08:54:31.699Z","","","","","","","","","","","ControlQ","","50","","","","","","","","","","","","","","","","","","","","","","","","","","","","",""
"6931","","<div style=""width:500px;"">
  <p>How would you describe your current emotional state?</p>
  </div>","92","html-slider-response","57","817714","0.0-5.0-3.9","262","1","2025-07-30 08:40:55","1f75c3e559b7213887762d5229550c2b","197.245.162.70","Mozilla/5.0 (Windows NT 10.0; Win64; x64) AppleWebKit/537.36 (KHTML, like Gecko) Chrome/138.0.0.0 Safari/537.36","WebKit","Chrome","138.0.0.0","Windows","10.0","https://app.prolific.com/","en-ZA,en-GB;q=0.9,en-US;q=0.8,en;q=0.7","614e1c414dff2e589169f360","6877631c9844ddd5501205fc","6889d9d90967b70f52723831","3","1","614e1c414dff2e589169f360","3","1","2025-07-30T08:54:38.631Z","","","","","","","","","","","StressQ","","50","","","","","","","","","","","","","","","","","","","","","","","","","","","","",""
"3917","","<div style=""width:500px;"">
  <p>What best describes how you currently feel?</p>
  </div>","70","html-slider-response","58","821632","0.0-5.0-4.9","262","1","2025-07-30 08:40:55","1f75c3e559b7213887762d5229550c2b","197.245.162.70","Mozilla/5.0 (Windows NT 10.0; Win64; x64) AppleWebKit/537.36 (KHTML, like Gecko) Chrome/138.0.0.0 Safari/537.36","WebKit","Chrome","138.0.0.0","Windows","10.0","https://app.prolific.com/","en-ZA,en-GB;q=0.9,en-US;q=0.8,en;q=0.7","614e1c414dff2e589169f360","6877631c9844ddd5501205fc","6889d9d90967b70f52723831","3","1","614e1c414dff2e589169f360","3","1","2025-07-30T08:54:42.549Z","","","","","","","","","","","MotivationQ","","50","","","","","","","","","","","","","","","","","","","","","","","","","","","","",""
"","","","","ctl-task-cpt","59","853110","0.0-5.0-0.10","262","1","2025-07-30 08:40:55","1f75c3e559b7213887762d5229550c2b","197.245.162.70","Mozilla/5.0 (Windows NT 10.0; Win64; x64) AppleWebKit/537.36 (KHTML, like Gecko) Chrome/138.0.0.0 Safari/537.36","WebKit","Chrome","138.0.0.0","Windows","10.0","https://app.prolific.com/","en-ZA,en-GB;q=0.9,en-US;q=0.8,en;q=0.7","614e1c414dff2e589169f360","6877631c9844ddd5501205fc","6889d9d90967b70f52723831","3","1","614e1c414dff2e589169f360","3","1","2025-07-30T08:55:14.027Z","","","","","","","","","","","","","","win-only","1","g1:NE,g2:SW","0.5","11","0","828264.8","1330.7","6332","28458.3","1","4","4","6","2","4","3","3","0","0.022727272727272728","1191.7","3000","1225","[""down"",""left""]","{""num_key_presses"":8,""num_perfect"":3,""num_errors"":1,""num_randdir"":4,""num_randdir_good_moves"":3,""num_whilered"":0,""num_whileblue"":1,""num_blue"":1,""num_good_moves"":7}","[351.14285714285717,354.04910714285717,0.3,351.14285714285717,354.04910714285717,101.1,352.14285714285717,353.04910714285717,201.6,357.14285714285717,359.04910714285717,303.2,361.14285714285717,369.04910714285717,410.6,362.14285714285717,370.04910714285717,512,362.14285714285717,370.04910714285717,616.8,259.14285714285717,480.04910714285717,723.5,209.14285714285714,565.0491071428571,827.6,146.14285714285714,595.0491071428571,930.3,94.14285714285714,606.0491071428571,1036.3,64.14285714285714,611.0491071428571,1138.8,64.14285714285714,611.0491071428571,1245.2,63.142857142857146,612.0491071428571,1348.2,95.14285714285714,639.0491071428571,1451.9,292.14285714285717,713.0491071428571,1563.7,405.14285714285717,737.0491071428571,1668,428.14285714285717,740.0491071428571,1772.8,491.14285714285717,765.0491071428571,1876,623.1428571428571,789.0491071428571,1979.4,662.1428571428571,790.0491071428571,2080.3,663.1428571428571,790.0491071428571,2183.9,663.1428571428571,790.0491071428571,2285.3,663.1428571428571,790.0491071428571,2385.5,663.1428571428571,790.0491071428571,2491.8,663.1428571428571,790.0491071428571,2599.7,663.1428571428571,790.0491071428571,2700.3,663.1428571428571,790.0491071428571,2800.3,663.1428571428571,790.0491071428571,2900.8,663.1428571428571,790.0491071428571,3001.7,663.1428571428571,790.0491071428571,3109.2,663.1428571428571,790.0491071428571,3211,664.1428571428571,790.0491071428571,3316.6,664.1428571428571,790.0491071428571,3422.6,664.1428571428571,790.0491071428571,3524.8,664.1428571428571,790.0491071428571,3629.4,664.1428571428571,790.0491071428571,3729.7,665.1428571428571,790.0491071428571,3829.9,665.1428571428571,790.0491071428571,3932.4,665.1428571428571,790.0491071428571,4034.2,665.1428571428571,790.0491071428571,4136.3,665.1428571428571,790.0491071428571,4239.3,665.1428571428571,790.0491071428571,4345.7,665.1428571428571,790.0491071428571,4446.7,665.1428571428571,790.0491071428571,4548.9,665.1428571428571,790.0491071428571,4656.2,666.1428571428571,790.0491071428571,4761.7,666.1428571428571,790.0491071428571,4863.1,666.1428571428571,790.0491071428571,4968.2]","[1543.8,1543.8,1000,0,543.8,""smooth"",""left"",""left"",""good_move"",5081.8,3537.4,3105.2,1544.4,432.2,""smooth"",""left"",""left"",""good_move"",7414.3,2332.2,1935.2,5082.1,397,""oops"",""left"",""left"",""good_move"",9948.8,2534.2,2152.9,7414.6,381.3,""oops"",""down"",""up"",""bad_move"",12959.1,3009.2,2630.8,9949.9,378.4,""oops"",""down"",""down"",""good_move"",16129.1,3169.5,2794.9,12959.7,374.5,""while_blue"",""down"",""down"",""good_move"",18934.6,2805.2,2404.2,16129.4,401,""oops"",""down"",""down"",""good_move"",21982.8,3048,2712.8,18934.8,335.2,""smooth"",""down"",""down"",""good_move""]","",""
"63628","","<div style=""width:500px;"">
  <p>What determined the result of this run?</p>
  </div>","23","html-slider-response","60","916724","0.0-5.0-1.10","262","1","2025-07-30 08:40:55","1f75c3e559b7213887762d5229550c2b","197.245.162.70","Mozilla/5.0 (Windows NT 10.0; Win64; x64) AppleWebKit/537.36 (KHTML, like Gecko) Chrome/138.0.0.0 Safari/537.36","WebKit","Chrome","138.0.0.0","Windows","10.0","https://app.prolific.com/","en-ZA,en-GB;q=0.9,en-US;q=0.8,en;q=0.7","614e1c414dff2e589169f360","6877631c9844ddd5501205fc","6889d9d90967b70f52723831","3","1","614e1c414dff2e589169f360","3","1","2025-07-30T08:56:17.642Z","","","","","","","","","","","AttribQ","","50","","","","","","","","","","","","","","","","","","","","","","","","","","","","",""
"2535","","<div style=""width:500px;"">
  <p>How much control did you have over the ball?</p>
  </div>","4","html-slider-response","61","919261","0.0-5.0-2.10","262","1","2025-07-30 08:40:55","1f75c3e559b7213887762d5229550c2b","197.245.162.70","Mozilla/5.0 (Windows NT 10.0; Win64; x64) AppleWebKit/537.36 (KHTML, like Gecko) Chrome/138.0.0.0 Safari/537.36","WebKit","Chrome","138.0.0.0","Windows","10.0","https://app.prolific.com/","en-ZA,en-GB;q=0.9,en-US;q=0.8,en;q=0.7","614e1c414dff2e589169f360","6877631c9844ddd5501205fc","6889d9d90967b70f52723831","3","1","614e1c414dff2e589169f360","3","1","2025-07-30T08:56:20.178Z","","","","","","","","","","","ControlQ","","50","","","","","","","","","","","","","","","","","","","","","","","","","","","","",""
"2126","","<div style=""width:500px;"">
  <p>How would you describe your current emotional state?</p>
  </div>","50","html-slider-response","62","921389","0.0-5.0-3.10","262","1","2025-07-30 08:40:55","1f75c3e559b7213887762d5229550c2b","197.245.162.70","Mozilla/5.0 (Windows NT 10.0; Win64; x64) AppleWebKit/537.36 (KHTML, like Gecko) Chrome/138.0.0.0 Safari/537.36","WebKit","Chrome","138.0.0.0","Windows","10.0","https://app.prolific.com/","en-ZA,en-GB;q=0.9,en-US;q=0.8,en;q=0.7","614e1c414dff2e589169f360","6877631c9844ddd5501205fc","6889d9d90967b70f52723831","3","1","614e1c414dff2e589169f360","3","1","2025-07-30T08:56:22.306Z","","","","","","","","","","","StressQ","","50","","","","","","","","","","","","","","","","","","","","","","","","","","","","",""
"28910","","<div style=""width:500px;"">
  <p>What best describes how you currently feel?</p>
  </div>","75","html-slider-response","63","950301","0.0-5.0-4.10","262","1","2025-07-30 08:40:55","1f75c3e559b7213887762d5229550c2b","197.245.162.70","Mozilla/5.0 (Windows NT 10.0; Win64; x64) AppleWebKit/537.36 (KHTML, like Gecko) Chrome/138.0.0.0 Safari/537.36","WebKit","Chrome","138.0.0.0","Windows","10.0","https://app.prolific.com/","en-ZA,en-GB;q=0.9,en-US;q=0.8,en;q=0.7","614e1c414dff2e589169f360","6877631c9844ddd5501205fc","6889d9d90967b70f52723831","3","1","614e1c414dff2e589169f360","3","1","2025-07-30T08:56:51.218Z","","","","","","","","","","","MotivationQ","","50","","","","","","","","","","","","","","","","","","","","","","","","","","","","",""
"","","","","ctl-task-cpt","64","994801","0.0-5.0-0.11","262","1","2025-07-30 08:40:55","1f75c3e559b7213887762d5229550c2b","197.245.162.70","Mozilla/5.0 (Windows NT 10.0; Win64; x64) AppleWebKit/537.36 (KHTML, like Gecko) Chrome/138.0.0.0 Safari/537.36","WebKit","Chrome","138.0.0.0","Windows","10.0","https://app.prolific.com/","en-ZA,en-GB;q=0.9,en-US;q=0.8,en;q=0.7","614e1c414dff2e589169f360","6877631c9844ddd5501205fc","6889d9d90967b70f52723831","3","1","614e1c414dff2e589169f360","3","1","2025-07-30T08:57:35.718Z","","","","","","","","","","","","","","win-only","3","g1:SW,g2:NE","0.6","12","0","956952.5","1361.5","6364.9","41483.9","1","4","8","6","2","8","8","11","3","0.08333333333333333","980.3","3000","510","[""up"",""right""]","{""num_key_presses"":10,""num_perfect"":6,""num_errors"":0,""num_randdir"":4,""num_randdir_good_moves"":2,""num_whilered"":0,""num_whileblue"":0,""num_blue"":2,""num_good_moves"":8}","[351.14285714285717,353.04910714285717,0.2,351.14285714285717,353.04910714285717,105.7,351.14285714285717,353.04910714285717,209.4,347.14285714285717,356.04910714285717,313.4,345.14285714285717,359.04910714285717,416.8,345.14285714285717,359.04910714285717,526.4,387.14285714285717,314.04910714285717,631.6,540.1428571428571,101.04910714285714,731.6,595.1428571428571,41.049107142857146,831.7,605.1428571428571,39.049107142857146,940.1,609.1428571428571,38.049107142857146,1042.4,609.1428571428571,38.049107142857146,1147,648.1428571428571,55.049107142857146,1253.6,793.1428571428571,76.04910714285714,1363.8,809.1428571428571,79.04910714285714,1476.7,809.1428571428571,79.04910714285714,1579.5,809.1428571428571,79.04910714285714,1680.4,809.1428571428571,79.04910714285714,1783.1,809.1428571428571,79.04910714285714,1890.8,809.1428571428571,79.04910714285714,1994.7,809.1428571428571,79.04910714285714,2096.2,809.1428571428571,79.04910714285714,2197.3,809.1428571428571,79.04910714285714,2305.7,809.1428571428571,79.04910714285714,2412.8,809.1428571428571,79.04910714285714,2520.9,809.1428571428571,79.04910714285714,2623.4,809.1428571428571,79.04910714285714,2728.3,809.1428571428571,79.04910714285714,2832,809.1428571428571,79.04910714285714,2939,809.1428571428571,79.04910714285714,3046.3,809.1428571428571,79.04910714285714,3148.1,809.1428571428571,79.04910714285714,3248.3,809.1428571428571,79.04910714285714,3359.1,809.1428571428571,79.04910714285714,3460,809.1428571428571,79.04910714285714,3562.5,809.1428571428571,79.04910714285714,3665.8,809.1428571428571,79.04910714285714,3774.2,809.1428571428571,79.04910714285714,3878.3,809.1428571428571,79.04910714285714,3979.8,809.1428571428571,79.04910714285714,4082.1,809.1428571428571,79.04910714285714,4186.6,809.1428571428571,79.04910714285714,4296.4,809.1428571428571,79.04910714285714,4403.5,809.1428571428571,79.04910714285714,4512.8,809.1428571428571,79.04910714285714,4618.7,809.1428571428571,79.04910714285714,4725.1,809.1428571428571,79.04910714285714,4827.6,809.1428571428571,79.04910714285714,4927.6]","[1421.8,1421.8,1000,0,421.8,""smooth"",""right"",""right"",""good_move"",4530.6,3108.2,2686.8,1422.4,421.4,""smooth"",""right"",""right"",""good_move"",11160.7,6629.5,2299.8,8288.9,572,""oops"",""right"",""left"",""bad_move"",14056.9,2896,2386.4,11160.9,509.6,""oops"",""up"",""up"",""good_move"",16573.3,2516,2005.3,14057.3,510.7,""oops"",""up"",""down"",""bad_move"",19309.2,2735.5,2301.3,16573.7,434.3,""smooth"",""right"",""right"",""good_move"",22279,2969.3,2269.9,19309.8,699.3,""oops"",""right"",""right"",""good_move"",25852.4,3573,3187.7,22279.5,385.2,""smooth"",""up"",""up"",""good_move"",29197.3,3344.6,2829.7,25852.7,514.9,""smooth"",""up"",""up"",""good_move"",34947.1,5749.6,2179.8,32334.3,433,""smooth"",""up"",""up"",""good_move""]","",""
"8207","","<div style=""width:500px;"">
  <p>What determined the result of this run?</p>
  </div>","24","html-slider-response","65","1003010","0.0-5.0-1.11","262","1","2025-07-30 08:40:55","1f75c3e559b7213887762d5229550c2b","197.245.162.70","Mozilla/5.0 (Windows NT 10.0; Win64; x64) AppleWebKit/537.36 (KHTML, like Gecko) Chrome/138.0.0.0 Safari/537.36","WebKit","Chrome","138.0.0.0","Windows","10.0","https://app.prolific.com/","en-ZA,en-GB;q=0.9,en-US;q=0.8,en;q=0.7","614e1c414dff2e589169f360","6877631c9844ddd5501205fc","6889d9d90967b70f52723831","3","1","614e1c414dff2e589169f360","3","1","2025-07-30T08:57:43.927Z","","","","","","","","","","","AttribQ","","50","","","","","","","","","","","","","","","","","","","","","","","","","","","","",""
"2415","","<div style=""width:500px;"">
  <p>How much control did you have over the ball?</p>
  </div>","71","html-slider-response","66","1005426","0.0-5.0-2.11","262","1","2025-07-30 08:40:55","1f75c3e559b7213887762d5229550c2b","197.245.162.70","Mozilla/5.0 (Windows NT 10.0; Win64; x64) AppleWebKit/537.36 (KHTML, like Gecko) Chrome/138.0.0.0 Safari/537.36","WebKit","Chrome","138.0.0.0","Windows","10.0","https://app.prolific.com/","en-ZA,en-GB;q=0.9,en-US;q=0.8,en;q=0.7","614e1c414dff2e589169f360","6877631c9844ddd5501205fc","6889d9d90967b70f52723831","3","1","614e1c414dff2e589169f360","3","1","2025-07-30T08:57:46.343Z","","","","","","","","","","","ControlQ","","50","","","","","","","","","","","","","","","","","","","","","","","","","","","","",""
"2422","","<div style=""width:500px;"">
  <p>How would you describe your current emotional state?</p>
  </div>","27","html-slider-response","67","1007850","0.0-5.0-3.11","262","1","2025-07-30 08:40:55","1f75c3e559b7213887762d5229550c2b","197.245.162.70","Mozilla/5.0 (Windows NT 10.0; Win64; x64) AppleWebKit/537.36 (KHTML, like Gecko) Chrome/138.0.0.0 Safari/537.36","WebKit","Chrome","138.0.0.0","Windows","10.0","https://app.prolific.com/","en-ZA,en-GB;q=0.9,en-US;q=0.8,en;q=0.7","614e1c414dff2e589169f360","6877631c9844ddd5501205fc","6889d9d90967b70f52723831","3","1","614e1c414dff2e589169f360","3","1","2025-07-30T08:57:48.767Z","","","","","","","","","","","StressQ","","50","","","","","","","","","","","","","","","","","","","","","","","","","","","","",""
"1779","","<div style=""width:500px;"">
  <p>What best describes how you currently feel?</p>
  </div>","74","html-slider-response","68","1009630","0.0-5.0-4.11","262","1","2025-07-30 08:40:55","1f75c3e559b7213887762d5229550c2b","197.245.162.70","Mozilla/5.0 (Windows NT 10.0; Win64; x64) AppleWebKit/537.36 (KHTML, like Gecko) Chrome/138.0.0.0 Safari/537.36","WebKit","Chrome","138.0.0.0","Windows","10.0","https://app.prolific.com/","en-ZA,en-GB;q=0.9,en-US;q=0.8,en;q=0.7","614e1c414dff2e589169f360","6877631c9844ddd5501205fc","6889d9d90967b70f52723831","3","1","614e1c414dff2e589169f360","3","1","2025-07-30T08:57:50.547Z","","","","","","","","","","","MotivationQ","","50","","","","","","","","","","","","","","","","","","","","","","","","","","","","",""
"","","","","ctl-task-cpt","69","1046797","0.0-5.0-0.12","262","1","2025-07-30 08:40:55","1f75c3e559b7213887762d5229550c2b","197.245.162.70","Mozilla/5.0 (Windows NT 10.0; Win64; x64) AppleWebKit/537.36 (KHTML, like Gecko) Chrome/138.0.0.0 Safari/537.36","WebKit","Chrome","138.0.0.0","Windows","10.0","https://app.prolific.com/","en-ZA,en-GB;q=0.9,en-US;q=0.8,en;q=0.7","614e1c414dff2e589169f360","6877631c9844ddd5501205fc","6889d9d90967b70f52723831","3","1","614e1c414dff2e589169f360","3","1","2025-07-30T08:58:27.715Z","","","","","","","","","","","","","","win-only","1","g1:NE,g2:SW","0.7","13","0","1016293.7","1181.6","6188.7","34164.2","1","4","4","6","2","4","3","14","11","0.10606060606060606","1139.2","3000","665","[""down"",""left""]","{""num_key_presses"":10,""num_perfect"":6,""num_errors"":1,""num_randdir"":3,""num_randdir_good_moves"":1,""num_whilered"":0,""num_whileblue"":1,""num_blue"":1,""num_good_moves"":8}","[345.14285714285717,342.04910714285717,0.3,345.14285714285717,342.04910714285717,105.3,345.14285714285717,342.04910714285717,207.2,345.14285714285717,343.04910714285717,309.9,345.14285714285717,343.04910714285717,412.1,416.14285714285717,317.04910714285717,526.1,376.14285714285717,336.04910714285717,627.3,118.14285714285714,526.0491071428571,735.4,62.142857142857146,573.0491071428571,841.2,62.142857142857146,575.0491071428571,966.2,74.14285714285714,611.0491071428571,1078,74.14285714285714,613.0491071428571,1180.7,83.14285714285714,610.0491071428571,1293.3,334.14285714285717,601.0491071428571,1404.6,975.1428571428571,626.0491071428571,1507.4,1045.142857142857,619.0491071428571,1615.2,1045.142857142857,612.0491071428571,1724.9,1045.142857142857,612.0491071428571,1828.2,1045.142857142857,612.0491071428571,1938.8,1045.142857142857,612.0491071428571,2042.3,1045.142857142857,612.0491071428571,2145.6,1045.142857142857,612.0491071428571,2252.1,1045.142857142857,612.0491071428571,2357.1,1045.142857142857,612.0491071428571,2462.6,1045.142857142857,612.0491071428571,2573,1045.142857142857,612.0491071428571,2676.7,1045.142857142857,612.0491071428571,2788.3,1045.142857142857,612.0491071428571,2897.1,1045.142857142857,612.0491071428571,3009.2,1045.142857142857,612.0491071428571,3113.6,1045.142857142857,612.0491071428571,3224,1045.142857142857,612.0491071428571,3338.2,1045.142857142857,612.0491071428571,3443.5,1045.142857142857,612.0491071428571,3553.6,1045.142857142857,612.0491071428571,3655.8,1045.142857142857,612.0491071428571,3757.6,1045.142857142857,612.0491071428571,3861.2,1045.142857142857,612.0491071428571,3972.9,1045.142857142857,612.0491071428571,4078.7,1045.142857142857,612.0491071428571,4181.5,1045.142857142857,612.0491071428571,4291.6,1045.142857142857,612.0491071428571,4393.7,1045.142857142857,612.0491071428571,4498,1045.142857142857,612.0491071428571,4598.8,1045.142857142857,612.0491071428571,4705.1,1045.142857142857,612.0491071428571,4806.8,1045.142857142857,612.0491071428571,4913]","[1519.1,1519.1,1000,0,519.1,""smooth"",""down"",""down"",""good_move"",4751.6,3232.2,2783.4,1519.4,448.8,""smooth"",""down"",""down"",""good_move"",7455.2,2703.4,2330.8,4751.9,372.5,""while_blue"",""down"",""down"",""good_move"",10413.3,2957.9,2480.4,7455.4,477.5,""oops"",""left"",""right"",""bad_move"",13257.6,2843.9,2306.2,10413.7,537.7,""oops"",""left"",""right"",""bad_move"",16461.8,3203.6,2824.2,13258.2,379.4,""oops"",""left"",""left"",""good_move"",19814.2,3352,2940.2,16462.3,411.7,""smooth"",""left"",""left"",""good_move"",22051.4,2236.5,1769.4,19814.9,467.1,""smooth"",""left"",""left"",""good_move"",25408.2,3356.6,2785.3,22051.6,571.3,""smooth"",""left"",""left"",""good_move"",27788.9,2380.4,1567.8,25408.5,812.6,""smooth"",""left"",""left"",""good_move""]","",""
"6064","","<div style=""width:500px;"">
  <p>What determined the result of this run?</p>
  </div>","74","html-slider-response","70","1052863","0.0-5.0-1.12","262","1","2025-07-30 08:40:55","1f75c3e559b7213887762d5229550c2b","197.245.162.70","Mozilla/5.0 (Windows NT 10.0; Win64; x64) AppleWebKit/537.36 (KHTML, like Gecko) Chrome/138.0.0.0 Safari/537.36","WebKit","Chrome","138.0.0.0","Windows","10.0","https://app.prolific.com/","en-ZA,en-GB;q=0.9,en-US;q=0.8,en;q=0.7","614e1c414dff2e589169f360","6877631c9844ddd5501205fc","6889d9d90967b70f52723831","3","1","614e1c414dff2e589169f360","3","1","2025-07-30T08:58:33.780Z","","","","","","","","","","","AttribQ","","50","","","","","","","","","","","","","","","","","","","","","","","","","","","","",""
"2601","","<div style=""width:500px;"">
  <p>How much control did you have over the ball?</p>
  </div>","47","html-slider-response","71","1055466","0.0-5.0-2.12","262","1","2025-07-30 08:40:55","1f75c3e559b7213887762d5229550c2b","197.245.162.70","Mozilla/5.0 (Windows NT 10.0; Win64; x64) AppleWebKit/537.36 (KHTML, like Gecko) Chrome/138.0.0.0 Safari/537.36","WebKit","Chrome","138.0.0.0","Windows","10.0","https://app.prolific.com/","en-ZA,en-GB;q=0.9,en-US;q=0.8,en;q=0.7","614e1c414dff2e589169f360","6877631c9844ddd5501205fc","6889d9d90967b70f52723831","3","1","614e1c414dff2e589169f360","3","1","2025-07-30T08:58:36.383Z","","","","","","","","","","","ControlQ","","50","","","","","","","","","","","","","","","","","","","","","","","","","","","","",""
"14702","","<div style=""width:500px;"">
  <p>How would you describe your current emotional state?</p>
  </div>","36","html-slider-response","72","1070170","0.0-5.0-3.12","262","1","2025-07-30 08:40:55","1f75c3e559b7213887762d5229550c2b","197.245.162.70","Mozilla/5.0 (Windows NT 10.0; Win64; x64) AppleWebKit/537.36 (KHTML, like Gecko) Chrome/138.0.0.0 Safari/537.36","WebKit","Chrome","138.0.0.0","Windows","10.0","https://app.prolific.com/","en-ZA,en-GB;q=0.9,en-US;q=0.8,en;q=0.7","614e1c414dff2e589169f360","6877631c9844ddd5501205fc","6889d9d90967b70f52723831","3","1","614e1c414dff2e589169f360","3","1","2025-07-30T08:58:51.087Z","","","","","","","","","","","StressQ","","50","","","","","","","","","","","","","","","","","","","","","","","","","","","","",""
"15298","","<div style=""width:500px;"">
  <p>What best describes how you currently feel?</p>
  </div>","69","html-slider-response","73","1085470","0.0-5.0-4.12","262","1","2025-07-30 08:40:55","1f75c3e559b7213887762d5229550c2b","197.245.162.70","Mozilla/5.0 (Windows NT 10.0; Win64; x64) AppleWebKit/537.36 (KHTML, like Gecko) Chrome/138.0.0.0 Safari/537.36","WebKit","Chrome","138.0.0.0","Windows","10.0","https://app.prolific.com/","en-ZA,en-GB;q=0.9,en-US;q=0.8,en;q=0.7","614e1c414dff2e589169f360","6877631c9844ddd5501205fc","6889d9d90967b70f52723831","3","1","614e1c414dff2e589169f360","3","1","2025-07-30T08:59:06.387Z","","","","","","","","","","","MotivationQ","","50","","","","","","","","","","","","","","","","","","","","","","","","","","","","",""
