"rt","response_timestamp","stimulus","response","trial_type","trial_index","time_elapsed","internal_node_id","run_id","condition","recorded_at","source_code_version","ip","user_agent","device","browser","browser_version","platform","platform_version","referer","accept_language","PROLIFIC_PID","STUDY_ID","SESSION_ID","WEEK","BATCH","prolific_id","week","batch","realtime","success","responses","item_order","radio_event_ids","radio_event_times","key_event_times","mouse_event_times","straightlining","zigzagging","honeypot","eventType","view_history","slider_start","which_type","canvas_config","goals_layout","control_level","trial_number","tutorial_trial_number","trial_start_time","phase1_start_time","phase2_start_time","phase3_start_time","goal_1_value","goal_1_distance","goal_2_value","goal_2_distance","goal_selected","outcome","outcome_total","participant_final_score","participant_initial_score","participant_final_score_prop","goal_choice_rt","allocated_time","allocated_time_remaining","goal_direction","counts","mouse_movements","key_presses","question_order","question_id"
"2340","1753252448403","<p style='font-size:40px;line-height:1.25'><strong>Welcome to the experiment!</strong></p><p style='font-size:1.1em;line-height:1.25'>Thank you for participanting in our experiment again! You will be asked to play the Dysfunctional Ball Game again. We will briefly recap the rules before we start.</p><p style='font-size:1.1em;line-height:1.25'>Press <strong>Next</strong> to continue.</p>","0","custom-html-button-response","0","2344","0.0-0.0","152","1","2025-07-23 06:34:03","1f75c3e559b7213887762d5229550c2b","51.36.171.66","Mozilla/5.0 (Windows NT 10.0; Win64; x64) AppleWebKit/537.36 (KHTML, like Gecko) Chrome/138.0.0.0 Safari/537.36","WebKit","Chrome","138.0.0.0","Windows","10.0","https://app.prolific.com/","en-US,en;q=0.9","65f19a1fe38352676f83d5f0","683dba2a8a9dda3513610c04","688082402bfe975062dc988f","3","0","65f19a1fe38352676f83d5f0","3","0","2025-07-23T06:34:08.404Z","","","","","","","","","","","","","","","","","","","","","","","","","","","","","","","","","","","","","","","","","",""
"1308","","","","fullscreen","1","4664","0.0-1.0","152","1","2025-07-23 06:34:03","1f75c3e559b7213887762d5229550c2b","51.36.171.66","Mozilla/5.0 (Windows NT 10.0; Win64; x64) AppleWebKit/537.36 (KHTML, like Gecko) Chrome/138.0.0.0 Safari/537.36","WebKit","Chrome","138.0.0.0","Windows","10.0","https://app.prolific.com/","en-US,en;q=0.9","65f19a1fe38352676f83d5f0","683dba2a8a9dda3513610c04","688082402bfe975062dc988f","3","0","65f19a1fe38352676f83d5f0","3","0","","true","","","","","","","","","","","","","","","","","","","","","","","","","","","","","","","","","","","","","","","","",""
"3116","1753252453841","<p style='font-size:1.1em;line-height:1.25'>In the following, we will ask you a few questions relating to your feelings in the last 24 hours.<br></p><p style='font-size:1.1em;line-height:1.25'>Press the <strong>Next</strong> button to continue.</p>","0","custom-html-button-response","2","7781","0.0-2.0-0.0","152","1","2025-07-23 06:34:03","1f75c3e559b7213887762d5229550c2b","51.36.171.66","Mozilla/5.0 (Windows NT 10.0; Win64; x64) AppleWebKit/537.36 (KHTML, like Gecko) Chrome/138.0.0.0 Safari/537.36","WebKit","Chrome","138.0.0.0","Windows","10.0","https://app.prolific.com/","en-US,en;q=0.9","65f19a1fe38352676f83d5f0","683dba2a8a9dda3513610c04","688082402bfe975062dc988f","3","0","65f19a1fe38352676f83d5f0","3","0","2025-07-23T06:34:13.841Z","","","","","","","","","","","","","","","","","","","","","","","","","","","","","","","","","","","","","","","","","",""
"106060.09999999963","","","","survey-template","3","113847","0.0-2.0-1.0","152","1","2025-07-23 06:34:03","1f75c3e559b7213887762d5229550c2b","51.36.171.66","Mozilla/5.0 (Windows NT 10.0; Win64; x64) AppleWebKit/537.36 (KHTML, like Gecko) Chrome/138.0.0.0 Safari/537.36","WebKit","Chrome","138.0.0.0","Windows","10.0","https://app.prolific.com/","en-US,en;q=0.9","65f19a1fe38352676f83d5f0","683dba2a8a9dda3513610c04","688082402bfe975062dc988f","3","0","65f19a1fe38352676f83d5f0","3","0","2025-07-23T06:35:59.907Z","","{""Q01"":""3"",""Q02"":""4"",""Q03"":""4"",""Q04"":""3"",""Q05"":""2"",""Q06"":""3"",""Q07"":""2"",""Q08"":""2"",""Q09"":""3"",""Q10"":""3"",""Q11"":""2"",""Q12"":""1"",""Q13"":""5"",""Q14"":""1"",""Q15"":""3"",""Q16"":""3"",""Q17"":""3"",""Q18"":""3"",""Q19"":""0"",""Q20"":""3"",""Q21"":""3"",""Q22"":""2""}","[0,1,2,3,4,5,6,7,8,9,10,11,12,13,14,15,16,17,18,19,20,21]","[""Q01"",""Q02"",""Q03"",""Q04"",""Q05"",""Q06"",""Q07"",""Q08"",""Q09"",""Q10"",""Q11"",""Q12"",""Q13"",""Q12"",""Q14"",""Q16"",""Q15"",""Q17"",""Q18"",""Q19"",""Q20"",""Q21"",""Q22""]","[2848.0999999996275,5019.0999999996275,6596.899999999441,8047.399999999441,9698.399999999441,12437.5,14016.399999999441,15419.099999999627,19669,20790.5,60278.59999999963,62254.39999999944,65278.89999999944,66618.5,68035.39999999944,75026.79999999981,75802.79999999981,77926.29999999981,81111.29999999981,82718.59999999963,88276.29999999981,94634.89999999944,99824.20000000019]","[]","[0.20000000018626451,2848.0999999996275,5019.0999999996275,6596.899999999441,8047.399999999441,9698.399999999441,12437.5,14016.399999999441,15419.099999999627,18112.099999999627,19669,20790.5,60278.59999999963,62254.39999999944,65278.89999999944,66618.5,68035.39999999944,72370.59999999963,75026.79999999981,75802.79999999981,77926.29999999981,79835.39999999944,81111.29999999981,82718.59999999963,88276.29999999981,94634.89999999944,98793.39999999944,99824.20000000019,106051.89999999944]","0.5","0.42857142857142855","0","drsp","","","","","","","","","","","","","","","","","","","","","","","","","","","","","","",""
"12362.700000000186","","","","survey-template","4","126211","0.0-2.0-2.0","152","1","2025-07-23 06:34:03","1f75c3e559b7213887762d5229550c2b","51.36.171.66","Mozilla/5.0 (Windows NT 10.0; Win64; x64) AppleWebKit/537.36 (KHTML, like Gecko) Chrome/138.0.0.0 Safari/537.36","WebKit","Chrome","138.0.0.0","Windows","10.0","https://app.prolific.com/","en-US,en;q=0.9","65f19a1fe38352676f83d5f0","683dba2a8a9dda3513610c04","688082402bfe975062dc988f","3","0","65f19a1fe38352676f83d5f0","3","0","2025-07-23T06:36:12.271Z","","{""Q01"":""4"",""Q02"":""5"",""Q03"":""4""}","[0,1,2]","[""Q01"",""Q02"",""Q03""]","[6360.700000000186,7482.700000000186,10173.299999999814]","[]","[6360.700000000186,7482.700000000186,10173.299999999814,12361]","0.6666666666666666","0","0","stress","","","","","","","","","","","","","","","","","","","","","","","","","","","","","","",""
"5283","","","","instructions","5","131495","0.0-3.0-0.0","152","1","2025-07-23 06:34:03","1f75c3e559b7213887762d5229550c2b","51.36.171.66","Mozilla/5.0 (Windows NT 10.0; Win64; x64) AppleWebKit/537.36 (KHTML, like Gecko) Chrome/138.0.0.0 Safari/537.36","WebKit","Chrome","138.0.0.0","Windows","10.0","https://app.prolific.com/","en-US,en;q=0.9","65f19a1fe38352676f83d5f0","683dba2a8a9dda3513610c04","688082402bfe975062dc988f","3","0","65f19a1fe38352676f83d5f0","3","0","","","","","","","","","","","","","[{""page_index"":0,""viewing_time"":5283}]","","","","","","","","","","","","","","","","","","","","","","","","","","","","","",""
"3642","","<p>Before you start with this game please answer the following three questions yourself. </p>
  <p>Through this game, we measure several aspects of your cognitive performance, such as reaction times, multi-tasking capabilities </p>
  <p>and the ability to assess the situation you are in.</p>
  <p></p>
  <p><b>How good do you usually are in such tasks?</b></p>","62","html-slider-response","6","135140","0.0-4.0-0.0","152","1","2025-07-23 06:34:03","1f75c3e559b7213887762d5229550c2b","51.36.171.66","Mozilla/5.0 (Windows NT 10.0; Win64; x64) AppleWebKit/537.36 (KHTML, like Gecko) Chrome/138.0.0.0 Safari/537.36","WebKit","Chrome","138.0.0.0","Windows","10.0","https://app.prolific.com/","en-US,en;q=0.9","65f19a1fe38352676f83d5f0","683dba2a8a9dda3513610c04","688082402bfe975062dc988f","3","0","65f19a1fe38352676f83d5f0","3","0","2025-07-23T06:36:21.200Z","","","","","","","","","","","PreSkillQ","","50","","","","","","","","","","","","","","","","","","","","","","","","","","","","",""
"3002","","<div style=""width:500px;"">
  <p>How well do you think you will perform in this task compared to other participants?</p>
  </div>","52","html-slider-response","7","138144","0.0-4.0-1.0","152","1","2025-07-23 06:34:03","1f75c3e559b7213887762d5229550c2b","51.36.171.66","Mozilla/5.0 (Windows NT 10.0; Win64; x64) AppleWebKit/537.36 (KHTML, like Gecko) Chrome/138.0.0.0 Safari/537.36","WebKit","Chrome","138.0.0.0","Windows","10.0","https://app.prolific.com/","en-US,en;q=0.9","65f19a1fe38352676f83d5f0","683dba2a8a9dda3513610c04","688082402bfe975062dc988f","3","0","65f19a1fe38352676f83d5f0","3","0","2025-07-23T06:36:24.204Z","","","","","","","","","","","PrePerfQ","","50","","","","","","","","","","","","","","","","","","","","","","","","","","","","",""
"3423","","<div style=""width:500px;"">
  <p>What best describes how you currently feel?</p>
  </div>","56","html-slider-response","8","141568","0.0-4.0-2.0","152","1","2025-07-23 06:34:03","1f75c3e559b7213887762d5229550c2b","51.36.171.66","Mozilla/5.0 (Windows NT 10.0; Win64; x64) AppleWebKit/537.36 (KHTML, like Gecko) Chrome/138.0.0.0 Safari/537.36","WebKit","Chrome","138.0.0.0","Windows","10.0","https://app.prolific.com/","en-US,en;q=0.9","65f19a1fe38352676f83d5f0","683dba2a8a9dda3513610c04","688082402bfe975062dc988f","3","0","65f19a1fe38352676f83d5f0","3","0","2025-07-23T06:36:27.628Z","","","","","","","","","","","PreMotivationQ","","50","","","","","","","","","","","","","","","","","","","","","","","","","","","","",""
"","","","","ctl-task-cpt","9","161947","0.0-5.0-0.0","152","1","2025-07-23 06:34:03","1f75c3e559b7213887762d5229550c2b","51.36.171.66","Mozilla/5.0 (Windows NT 10.0; Win64; x64) AppleWebKit/537.36 (KHTML, like Gecko) Chrome/138.0.0.0 Safari/537.36","WebKit","Chrome","138.0.0.0","Windows","10.0","https://app.prolific.com/","en-US,en;q=0.9","65f19a1fe38352676f83d5f0","683dba2a8a9dda3513610c04","688082402bfe975062dc988f","3","0","65f19a1fe38352676f83d5f0","3","0","2025-07-23T06:36:48.007Z","","","","","","","","","","","","","","win-only","3","g1:SW,g2:NE","1","1","0","146249.1","1503.7","6505.7","17373.1","1","4","4","6","1","1","1","1","0","0.007575757575757576","1195","3000","1495","[""down"",""left""]","{""num_key_presses"":4,""num_perfect"":4,""num_errors"":0,""num_randdir"":0,""num_randdir_good_moves"":0,""num_whilered"":0,""num_whileblue"":0,""num_blue"":0,""num_good_moves"":4}","[426.5714133126395,421.57142761775424,0.1,426.5714133126395,421.57142761775424,102.9,426.5714133126395,421.57142761775424,207.3,426.5714133126395,421.57142761775424,307.3,426.5714133126395,421.57142761775424,412.7,426.5714133126395,421.57142761775424,517.5,446.5714133126395,371.57142761775424,622.7,451.5714133126395,357.82142761775424,726.7,131.5714133126395,710.3214276177542,827.2,86.5714133126395,782.8214276177542,933.5,86.5714133126395,781.5714276177542,1037.5,86.5714133126395,781.5714276177542,1142.9,86.5714133126395,781.5714276177542,1247.8,86.5714133126395,781.5714276177542,1347.8,86.5714133126395,781.5714276177542,1452.8,86.5714133126395,781.5714276177542,1557.8,16.571413312639507,750.3214276177542,1661.7,-98.4285866873605,701.5714276177542,1762.6,-98.4285866873605,701.5714276177542,1868.5,-98.4285866873605,701.5714276177542,1973.7,-98.4285866873605,701.5714276177542,2077.2,-98.4285866873605,701.5714276177542,2182.6,-98.4285866873605,701.5714276177542,2283.8,-98.4285866873605,701.5714276177542,2387.8,-98.4285866873605,701.5714276177542,2488.2,-98.4285866873605,701.5714276177542,2591.9,-98.4285866873605,701.5714276177542,2692.2,-98.4285866873605,701.5714276177542,2792.3,-98.4285866873605,701.5714276177542,2897.1,-98.4285866873605,701.5714276177542,3002.8,-98.4285866873605,701.5714276177542,3107.5,-98.4285866873605,701.5714276177542,3211.8,-98.4285866873605,701.5714276177542,3311.8,-98.4285866873605,701.5714276177542,3411.9,-98.4285866873605,701.5714276177542,3512.5,-98.4285866873605,701.5714276177542,3612.7,-98.4285866873605,701.5714276177542,3717.2,-98.4285866873605,701.5714276177542,3822.2,-98.4285866873605,701.5714276177542,3922.2,-98.4285866873605,701.5714276177542,4022.2,-98.4285866873605,701.5714276177542,4127.7,-98.4285866873605,701.5714276177542,4231.8,-98.4285866873605,701.5714276177542,4332.1,-98.4285866873605,701.5714276177542,4438.1,-98.4285866873605,701.5714276177542,4542,-98.4285866873605,701.5714276177542,4648.3,-98.4285866873605,701.5714276177542,4752.9,-98.4285866873605,701.5714276177542,4857.7,-98.4285866873605,701.5714276177542,4962.7]","[1455,1455,1000,0.1,454.9,""smooth"",""left"",""left"",""good_move"",4376,2920.6,2580.8,1455.4,339.8,""smooth"",""left"",""left"",""good_move"",7657.5,3281.3,2931.9,4376.2,349.4,""smooth"",""down"",""down"",""good_move"",10780.1,3122.3,2720.6,7657.8,401.7,""smooth"",""down"",""down"",""good_move""]","",""
"2948","","<div style=""width:500px;"">
  <p>What determined the result of this run?</p>
  </div>","33","html-slider-response","10","164896","0.0-5.0-1.0","152","1","2025-07-23 06:34:03","1f75c3e559b7213887762d5229550c2b","51.36.171.66","Mozilla/5.0 (Windows NT 10.0; Win64; x64) AppleWebKit/537.36 (KHTML, like Gecko) Chrome/138.0.0.0 Safari/537.36","WebKit","Chrome","138.0.0.0","Windows","10.0","https://app.prolific.com/","en-US,en;q=0.9","65f19a1fe38352676f83d5f0","683dba2a8a9dda3513610c04","688082402bfe975062dc988f","3","0","65f19a1fe38352676f83d5f0","3","0","2025-07-23T06:36:50.956Z","","","","","","","","","","","AttribQ","","50","","","","","","","","","","","","","","","","","","","","","","","","","","","","",""
"3694","","<div style=""width:500px;"">
  <p>How much control did you have over the ball?</p>
  </div>","54","html-slider-response","11","168591","0.0-5.0-2.0","152","1","2025-07-23 06:34:03","1f75c3e559b7213887762d5229550c2b","51.36.171.66","Mozilla/5.0 (Windows NT 10.0; Win64; x64) AppleWebKit/537.36 (KHTML, like Gecko) Chrome/138.0.0.0 Safari/537.36","WebKit","Chrome","138.0.0.0","Windows","10.0","https://app.prolific.com/","en-US,en;q=0.9","65f19a1fe38352676f83d5f0","683dba2a8a9dda3513610c04","688082402bfe975062dc988f","3","0","65f19a1fe38352676f83d5f0","3","0","2025-07-23T06:36:54.651Z","","","","","","","","","","","ControlQ","","50","","","","","","","","","","","","","","","","","","","","","","","","","","","","",""
"2442","","<div style=""width:500px;"">
  <p>How would you describe your current emotional state?</p>
  </div>","26","html-slider-response","12","171034","0.0-5.0-3.0","152","1","2025-07-23 06:34:03","1f75c3e559b7213887762d5229550c2b","51.36.171.66","Mozilla/5.0 (Windows NT 10.0; Win64; x64) AppleWebKit/537.36 (KHTML, like Gecko) Chrome/138.0.0.0 Safari/537.36","WebKit","Chrome","138.0.0.0","Windows","10.0","https://app.prolific.com/","en-US,en;q=0.9","65f19a1fe38352676f83d5f0","683dba2a8a9dda3513610c04","688082402bfe975062dc988f","3","0","65f19a1fe38352676f83d5f0","3","0","2025-07-23T06:36:57.094Z","","","","","","","","","","","StressQ","","50","","","","","","","","","","","","","","","","","","","","","","","","","","","","",""
"2700","","<div style=""width:500px;"">
  <p>What best describes how you currently feel?</p>
  </div>","67","html-slider-response","13","173735","0.0-5.0-4.0","152","1","2025-07-23 06:34:03","1f75c3e559b7213887762d5229550c2b","51.36.171.66","Mozilla/5.0 (Windows NT 10.0; Win64; x64) AppleWebKit/537.36 (KHTML, like Gecko) Chrome/138.0.0.0 Safari/537.36","WebKit","Chrome","138.0.0.0","Windows","10.0","https://app.prolific.com/","en-US,en;q=0.9","65f19a1fe38352676f83d5f0","683dba2a8a9dda3513610c04","688082402bfe975062dc988f","3","0","65f19a1fe38352676f83d5f0","3","0","2025-07-23T06:36:59.795Z","","","","","","","","","","","MotivationQ","","50","","","","","","","","","","","","","","","","","","","","","","","","","","","","",""
"","","","","ctl-task-cpt","14","204606","0.0-5.0-0.1","152","1","2025-07-23 06:34:03","1f75c3e559b7213887762d5229550c2b","51.36.171.66","Mozilla/5.0 (Windows NT 10.0; Win64; x64) AppleWebKit/537.36 (KHTML, like Gecko) Chrome/138.0.0.0 Safari/537.36","WebKit","Chrome","138.0.0.0","Windows","10.0","https://app.prolific.com/","en-US,en;q=0.9","65f19a1fe38352676f83d5f0","683dba2a8a9dda3513610c04","688082402bfe975062dc988f","3","0","65f19a1fe38352676f83d5f0","3","0","2025-07-23T06:37:30.666Z","","","","","","","","","","","","","","win-only","1","g1:NE,g2:SW","0.9","2","0","178414.2","862.9","5865.9","27861","1","4","8","6","1","1","0","1","1","0.007575757575757576","1166.1","3000","940","[""up"",""right""]","{""num_key_presses"":6,""num_perfect"":5,""num_errors"":1,""num_randdir"":0,""num_randdir_good_moves"":0,""num_whilered"":0,""num_whileblue"":1,""num_blue"":3,""num_good_moves"":5}","[414.0714133126395,421.57142761775424,0.2,414.0714133126395,421.57142761775424,104.2,414.0714133126395,421.57142761775424,208.3,414.0714133126395,421.57142761775424,313.8,404.0714133126395,426.57142761775424,418.2,119.0714133126395,811.5714276177542,523.1,270.3214133126395,536.5714276177542,623.2,667.8214133126395,194.07142761775424,727.8,734.0714133126395,154.07142761775424,829.1,782.8214133126395,119.07142761775425,932.7,782.8214133126395,85.32142761775425,1033,782.8214133126395,85.32142761775425,1138.1,782.8214133126395,85.32142761775425,1243.1,782.8214133126395,85.32142761775425,1347.8,782.8214133126395,85.32142761775425,1452.8,760.3214133126395,85.32142761775425,1553.1,-237.1785866873605,447.82142761775424,1657.6,-329.6785866873605,506.57142761775424,1757.9,-329.6785866873605,506.57142761775424,1863.4,-329.6785866873605,506.57142761775424,1963.5,-329.6785866873605,506.57142761775424,2068.6,-329.6785866873605,506.57142761775424,2172.7,-329.6785866873605,506.57142761775424,2278,-329.6785866873605,506.57142761775424,2383.6,-329.6785866873605,506.57142761775424,2487.6,-329.6785866873605,506.57142761775424,2587.7,-329.6785866873605,506.57142761775424,2690.3,-329.6785866873605,506.57142761775424,2793.4,-329.6785866873605,506.57142761775424,2898.1,-329.6785866873605,506.57142761775424,3003.6,-329.6785866873605,506.57142761775424,3107.8,-329.6785866873605,506.57142761775424,3213.2,-329.6785866873605,506.57142761775424,3317.4,-329.6785866873605,506.57142761775424,3423,-329.6785866873605,506.57142761775424,3523.1,-329.6785866873605,506.57142761775424,3623.1,-329.6785866873605,506.57142761775424,3729.3,-329.6785866873605,506.57142761775424,3833,-329.6785866873605,506.57142761775424,3937.7,-329.6785866873605,506.57142761775424,4037.8,-329.6785866873605,506.57142761775424,4143.3,-329.6785866873605,506.57142761775424,4248.1,-329.6785866873605,506.57142761775424,4352.5,-329.6785866873605,506.57142761775424,4452.8,-329.6785866873605,506.57142761775424,4557.8,-329.6785866873605,506.57142761775424,4657.9,-329.6785866873605,506.57142761775424,4757.9,-329.6785866873605,506.57142761775424,4859.2,-329.6785866873605,506.57142761775424,4963.1]","[4570.4,4570.4,2135.8,2010.5,424.1,""smooth"",""up"",""up"",""good_move"",7601.8,3031.1,2622.8,4570.7,408.3,""smooth"",""right"",""right"",""good_move"",13219.7,5617.7,2196.4,10649.4,373.9,""smooth"",""right"",""right"",""good_move"",15538.4,2318.5,1921.1,13219.9,397.4,""while_blue"",""up"",""down"",""bad_move"",18732.6,3193.9,2712.1,15538.7,481.8,""smooth"",""up"",""up"",""good_move"",21910.3,3177.6,2768.3,18732.7,409.3,""smooth"",""up"",""up"",""good_move""]","",""
"3225","","<div style=""width:500px;"">
  <p>What determined the result of this run?</p>
  </div>","57","html-slider-response","15","207832","0.0-5.0-1.1","152","1","2025-07-23 06:34:03","1f75c3e559b7213887762d5229550c2b","51.36.171.66","Mozilla/5.0 (Windows NT 10.0; Win64; x64) AppleWebKit/537.36 (KHTML, like Gecko) Chrome/138.0.0.0 Safari/537.36","WebKit","Chrome","138.0.0.0","Windows","10.0","https://app.prolific.com/","en-US,en;q=0.9","65f19a1fe38352676f83d5f0","683dba2a8a9dda3513610c04","688082402bfe975062dc988f","3","0","65f19a1fe38352676f83d5f0","3","0","2025-07-23T06:37:33.892Z","","","","","","","","","","","AttribQ","","50","","","","","","","","","","","","","","","","","","","","","","","","","","","","",""
"2996","","<div style=""width:500px;"">
  <p>How much control did you have over the ball?</p>
  </div>","53","html-slider-response","16","210829","0.0-5.0-2.1","152","1","2025-07-23 06:34:03","1f75c3e559b7213887762d5229550c2b","51.36.171.66","Mozilla/5.0 (Windows NT 10.0; Win64; x64) AppleWebKit/537.36 (KHTML, like Gecko) Chrome/138.0.0.0 Safari/537.36","WebKit","Chrome","138.0.0.0","Windows","10.0","https://app.prolific.com/","en-US,en;q=0.9","65f19a1fe38352676f83d5f0","683dba2a8a9dda3513610c04","688082402bfe975062dc988f","3","0","65f19a1fe38352676f83d5f0","3","0","2025-07-23T06:37:36.890Z","","","","","","","","","","","ControlQ","","50","","","","","","","","","","","","","","","","","","","","","","","","","","","","",""
"2041","","<div style=""width:500px;"">
  <p>How would you describe your current emotional state?</p>
  </div>","39","html-slider-response","17","212872","0.0-5.0-3.1","152","1","2025-07-23 06:34:03","1f75c3e559b7213887762d5229550c2b","51.36.171.66","Mozilla/5.0 (Windows NT 10.0; Win64; x64) AppleWebKit/537.36 (KHTML, like Gecko) Chrome/138.0.0.0 Safari/537.36","WebKit","Chrome","138.0.0.0","Windows","10.0","https://app.prolific.com/","en-US,en;q=0.9","65f19a1fe38352676f83d5f0","683dba2a8a9dda3513610c04","688082402bfe975062dc988f","3","0","65f19a1fe38352676f83d5f0","3","0","2025-07-23T06:37:38.932Z","","","","","","","","","","","StressQ","","50","","","","","","","","","","","","","","","","","","","","","","","","","","","","",""
"2935","","<div style=""width:500px;"">
  <p>What best describes how you currently feel?</p>
  </div>","62","html-slider-response","18","215809","0.0-5.0-4.1","152","1","2025-07-23 06:34:03","1f75c3e559b7213887762d5229550c2b","51.36.171.66","Mozilla/5.0 (Windows NT 10.0; Win64; x64) AppleWebKit/537.36 (KHTML, like Gecko) Chrome/138.0.0.0 Safari/537.36","WebKit","Chrome","138.0.0.0","Windows","10.0","https://app.prolific.com/","en-US,en;q=0.9","65f19a1fe38352676f83d5f0","683dba2a8a9dda3513610c04","688082402bfe975062dc988f","3","0","65f19a1fe38352676f83d5f0","3","0","2025-07-23T06:37:41.869Z","","","","","","","","","","","MotivationQ","","50","","","","","","","","","","","","","","","","","","","","","","","","","","","","",""
"","","","","ctl-task-cpt","19","235897","0.0-5.0-0.2","152","1","2025-07-23 06:34:03","1f75c3e559b7213887762d5229550c2b","51.36.171.66","Mozilla/5.0 (Windows NT 10.0; Win64; x64) AppleWebKit/537.36 (KHTML, like Gecko) Chrome/138.0.0.0 Safari/537.36","WebKit","Chrome","138.0.0.0","Windows","10.0","https://app.prolific.com/","en-US,en;q=0.9","65f19a1fe38352676f83d5f0","683dba2a8a9dda3513610c04","688082402bfe975062dc988f","3","0","65f19a1fe38352676f83d5f0","3","0","2025-07-23T06:38:01.957Z","","","","","","","","","","","","","","win-only","0","g1:NW,g2:SE","0.8","3","0","220488.3","832.6","5836.1","17085.4","1","4","8","6","1","1","1","2","1","0.015151515151515152","865.8","3000","1110","[""left"",""up""]","{""num_key_presses"":4,""num_perfect"":3,""num_errors"":0,""num_randdir"":1,""num_randdir_good_moves"":1,""num_whilered"":0,""num_whileblue"":0,""num_blue"":0,""num_good_moves"":4}","[411.5714133126395,421.57142761775424,0.1,411.5714133126395,421.57142761775424,103.7,411.5714133126395,421.57142761775424,208.1,411.5714133126395,421.57142761775424,312.6,341.5714133126395,356.57142761775424,413,141.5714133126395,137.82142761775424,518.1,131.5714133126395,126.57142761775425,618.9,131.5714133126395,126.57142761775425,723.6,131.5714133126395,126.57142761775425,824,131.5714133126395,126.57142761775425,928.4,131.5714133126395,126.57142761775425,1032.8,131.5714133126395,126.57142761775425,1133.7,131.5714133126395,126.57142761775425,1238.9,-144.6785866873605,111.57142761775425,1343.7,-265.9285866873605,136.57142761775424,1447.7,-265.9285866873605,136.57142761775424,1547.7,-265.9285866873605,136.57142761775424,1648.7,-265.9285866873605,136.57142761775424,1753.6,-265.9285866873605,136.57142761775424,1858.1,-265.9285866873605,136.57142761775424,1958.5,-265.9285866873605,136.57142761775424,2063.7,-265.9285866873605,136.57142761775424,2163.8,-265.9285866873605,136.57142761775424,2268.4,-265.9285866873605,136.57142761775424,2373.6,-265.9285866873605,136.57142761775424,2474.3,-265.9285866873605,136.57142761775424,2578.3,-265.9285866873605,136.57142761775424,2678.4,-265.9285866873605,136.57142761775424,2778.6,-265.9285866873605,136.57142761775424,2878.9,-265.9285866873605,136.57142761775424,2982.8,-265.9285866873605,136.57142761775424,3083.4,-265.9285866873605,136.57142761775424,3183.7,-265.9285866873605,136.57142761775424,3288.2,-265.9285866873605,136.57142761775424,3388.6,-265.9285866873605,136.57142761775424,3492.8,-265.9285866873605,136.57142761775424,3593,-265.9285866873605,136.57142761775424,3693.8,-265.9285866873605,136.57142761775424,3798.8,-265.9285866873605,136.57142761775424,3905.1,-265.9285866873605,136.57142761775424,4008,-265.9285866873605,136.57142761775424,4113.6,-265.9285866873605,136.57142761775424,4218.5,-265.9285866873605,136.57142761775424,4318.7,-265.9285866873605,136.57142761775424,4419.2,-265.9285866873605,136.57142761775424,4522.8,-265.9285866873605,136.57142761775424,4623.8,-265.9285866873605,136.57142761775424,4728.8,-265.9285866873605,136.57142761775424,4833.4,-265.9285866873605,136.57142761775424,4933.7]","[1519.7,1519.7,1000,0,519.7,""smooth"",""left"",""left"",""good_move"",4456.4,2936.4,2555,1520,381.4,""oops"",""left"",""left"",""good_move"",7906.2,3449.6,2884.9,4456.6,564.7,""smooth"",""up"",""up"",""good_move"",11152.5,3246,2785.4,7906.5,460.6,""smooth"",""up"",""up"",""good_move""]","",""
"4296","","<div style=""width:500px;"">
  <p>What determined the result of this run?</p>
  </div>","46","html-slider-response","20","240195","0.0-5.0-1.2","152","1","2025-07-23 06:34:03","1f75c3e559b7213887762d5229550c2b","51.36.171.66","Mozilla/5.0 (Windows NT 10.0; Win64; x64) AppleWebKit/537.36 (KHTML, like Gecko) Chrome/138.0.0.0 Safari/537.36","WebKit","Chrome","138.0.0.0","Windows","10.0","https://app.prolific.com/","en-US,en;q=0.9","65f19a1fe38352676f83d5f0","683dba2a8a9dda3513610c04","688082402bfe975062dc988f","3","0","65f19a1fe38352676f83d5f0","3","0","2025-07-23T06:38:06.255Z","","","","","","","","","","","AttribQ","","50","","","","","","","","","","","","","","","","","","","","","","","","","","","","",""
"3188","","<div style=""width:500px;"">
  <p>How much control did you have over the ball?</p>
  </div>","55","html-slider-response","21","243384","0.0-5.0-2.2","152","1","2025-07-23 06:34:03","1f75c3e559b7213887762d5229550c2b","51.36.171.66","Mozilla/5.0 (Windows NT 10.0; Win64; x64) AppleWebKit/537.36 (KHTML, like Gecko) Chrome/138.0.0.0 Safari/537.36","WebKit","Chrome","138.0.0.0","Windows","10.0","https://app.prolific.com/","en-US,en;q=0.9","65f19a1fe38352676f83d5f0","683dba2a8a9dda3513610c04","688082402bfe975062dc988f","3","0","65f19a1fe38352676f83d5f0","3","0","2025-07-23T06:38:09.444Z","","","","","","","","","","","ControlQ","","50","","","","","","","","","","","","","","","","","","","","","","","","","","","","",""
"2652","","<div style=""width:500px;"">
  <p>How would you describe your current emotional state?</p>
  </div>","36","html-slider-response","22","246037","0.0-5.0-3.2","152","1","2025-07-23 06:34:03","1f75c3e559b7213887762d5229550c2b","51.36.171.66","Mozilla/5.0 (Windows NT 10.0; Win64; x64) AppleWebKit/537.36 (KHTML, like Gecko) Chrome/138.0.0.0 Safari/537.36","WebKit","Chrome","138.0.0.0","Windows","10.0","https://app.prolific.com/","en-US,en;q=0.9","65f19a1fe38352676f83d5f0","683dba2a8a9dda3513610c04","688082402bfe975062dc988f","3","0","65f19a1fe38352676f83d5f0","3","0","2025-07-23T06:38:12.097Z","","","","","","","","","","","StressQ","","50","","","","","","","","","","","","","","","","","","","","","","","","","","","","",""
"2704","","<div style=""width:500px;"">
  <p>What best describes how you currently feel?</p>
  </div>","61","html-slider-response","23","248742","0.0-5.0-4.2","152","1","2025-07-23 06:34:03","1f75c3e559b7213887762d5229550c2b","51.36.171.66","Mozilla/5.0 (Windows NT 10.0; Win64; x64) AppleWebKit/537.36 (KHTML, like Gecko) Chrome/138.0.0.0 Safari/537.36","WebKit","Chrome","138.0.0.0","Windows","10.0","https://app.prolific.com/","en-US,en;q=0.9","65f19a1fe38352676f83d5f0","683dba2a8a9dda3513610c04","688082402bfe975062dc988f","3","0","65f19a1fe38352676f83d5f0","3","0","2025-07-23T06:38:14.802Z","","","","","","","","","","","MotivationQ","","50","","","","","","","","","","","","","","","","","","","","","","","","","","","","",""
"","","","","ctl-task-cpt","24","282841","0.0-5.0-0.3","152","1","2025-07-23 06:34:03","1f75c3e559b7213887762d5229550c2b","51.36.171.66","Mozilla/5.0 (Windows NT 10.0; Win64; x64) AppleWebKit/537.36 (KHTML, like Gecko) Chrome/138.0.0.0 Safari/537.36","WebKit","Chrome","138.0.0.0","Windows","10.0","https://app.prolific.com/","en-US,en;q=0.9","65f19a1fe38352676f83d5f0","683dba2a8a9dda3513610c04","688082402bfe975062dc988f","3","0","65f19a1fe38352676f83d5f0","3","0","2025-07-23T06:38:48.901Z","","","","","","","","","","","","","","win-only","3","g1:SW,g2:NE","0.7","4","0","253422.1","730","5731.4","31083.2","1","4","4","6","1","-1","-1","1","2","0.007575757575757576","1097.3","3000","-3005","[""down"",""left""]","{""num_key_presses"":5,""num_perfect"":3,""num_errors"":0,""num_randdir"":2,""num_randdir_good_moves"":0,""num_whilered"":0,""num_whileblue"":0,""num_blue"":2,""num_good_moves"":3}","[411.5714133126395,416.57142761775424,0.1,411.5714133126395,416.57142761775424,100.7,411.5714133126395,416.57142761775424,201.5,411.5714133126395,416.57142761775424,306.4,429.0714133126395,390.32142761775424,410.7,561.5714133126395,251.57142761775424,511.1,201.5714133126395,530.3214276177542,615.7,79.0714133126395,705.3214276177542,721.1,79.0714133126395,706.5714276177542,826.3,72.8214133126395,749.0714276177542,930.3,72.8214133126395,760.3214276177542,1030.7,72.8214133126395,760.3214276177542,1131.3,72.8214133126395,760.3214276177542,1232.2,72.8214133126395,760.3214276177542,1336.2,72.8214133126395,760.3214276177542,1436.6,-225.9285866873605,686.5714276177542,1540.5,-289.6785866873605,666.5714276177542,1640.6,-289.6785866873605,666.5714276177542,1740.7,-289.6785866873605,666.5714276177542,1841,-289.6785866873605,666.5714276177542,1945.7,-289.6785866873605,666.5714276177542,2052.5,-289.6785866873605,666.5714276177542,2156.2,-289.6785866873605,666.5714276177542,2256.6,-289.6785866873605,666.5714276177542,2360.4,-289.6785866873605,666.5714276177542,2460.6,-289.6785866873605,666.5714276177542,2565.7,-289.6785866873605,666.5714276177542,2666.2,-289.6785866873605,666.5714276177542,2766.4,-289.6785866873605,666.5714276177542,2871.4,-289.6785866873605,666.5714276177542,2975.3,-289.6785866873605,666.5714276177542,3075.6,-289.6785866873605,666.5714276177542,3180.8,-289.6785866873605,666.5714276177542,3281.4,-289.6785866873605,666.5714276177542,3386.5,-289.6785866873605,666.5714276177542,3491.3,-289.6785866873605,666.5714276177542,3595.3,-289.6785866873605,666.5714276177542,3695.5,-289.6785866873605,666.5714276177542,3795.7,-289.6785866873605,666.5714276177542,3896.1,-289.6785866873605,666.5714276177542,4000.8,-289.6785866873605,666.5714276177542,4105.6,-289.6785866873605,666.5714276177542,4205.8,-289.6785866873605,666.5714276177542,4310.4,-289.6785866873605,666.5714276177542,4411.1,-289.6785866873605,666.5714276177542,4511.2,-289.6785866873605,666.5714276177542,4611.3,-289.6785866873605,666.5714276177542,4716.2,-289.6785866873605,666.5714276177542,4821.4,-289.6785866873605,666.5714276177542,4926.1]","[1825.4,1825.4,1000,0,825.4,""oops"",""down"",""right"",""bad_move"",4752.9,2927.1,2343.8,1825.8,583.3,""smooth"",""down"",""down"",""good_move"",11411.6,6658.5,2567.8,8425.3,418.5,""smooth"",""down"",""down"",""good_move"",15104.5,3692.8,3260.3,11411.7,432.5,""oops"",""left"",""right"",""bad_move"",18905.9,3801.3,3399.8,15104.6,401.5,""smooth"",""left"",""left"",""good_move""]","",""
"6483","","<div style=""width:500px;"">
  <p>What determined the result of this run?</p>
  </div>","33","html-slider-response","25","289325","0.0-5.0-1.3","152","1","2025-07-23 06:34:03","1f75c3e559b7213887762d5229550c2b","51.36.171.66","Mozilla/5.0 (Windows NT 10.0; Win64; x64) AppleWebKit/537.36 (KHTML, like Gecko) Chrome/138.0.0.0 Safari/537.36","WebKit","Chrome","138.0.0.0","Windows","10.0","https://app.prolific.com/","en-US,en;q=0.9","65f19a1fe38352676f83d5f0","683dba2a8a9dda3513610c04","688082402bfe975062dc988f","3","0","65f19a1fe38352676f83d5f0","3","0","2025-07-23T06:38:55.385Z","","","","","","","","","","","AttribQ","","50","","","","","","","","","","","","","","","","","","","","","","","","","","","","",""
"3000","","<div style=""width:500px;"">
  <p>How much control did you have over the ball?</p>
  </div>","41","html-slider-response","26","292326","0.0-5.0-2.3","152","1","2025-07-23 06:34:03","1f75c3e559b7213887762d5229550c2b","51.36.171.66","Mozilla/5.0 (Windows NT 10.0; Win64; x64) AppleWebKit/537.36 (KHTML, like Gecko) Chrome/138.0.0.0 Safari/537.36","WebKit","Chrome","138.0.0.0","Windows","10.0","https://app.prolific.com/","en-US,en;q=0.9","65f19a1fe38352676f83d5f0","683dba2a8a9dda3513610c04","688082402bfe975062dc988f","3","0","65f19a1fe38352676f83d5f0","3","0","2025-07-23T06:38:58.386Z","","","","","","","","","","","ControlQ","","50","","","","","","","","","","","","","","","","","","","","","","","","","","","","",""
"2437","","<div style=""width:500px;"">
  <p>How would you describe your current emotional state?</p>
  </div>","40","html-slider-response","27","294764","0.0-5.0-3.3","152","1","2025-07-23 06:34:03","1f75c3e559b7213887762d5229550c2b","51.36.171.66","Mozilla/5.0 (Windows NT 10.0; Win64; x64) AppleWebKit/537.36 (KHTML, like Gecko) Chrome/138.0.0.0 Safari/537.36","WebKit","Chrome","138.0.0.0","Windows","10.0","https://app.prolific.com/","en-US,en;q=0.9","65f19a1fe38352676f83d5f0","683dba2a8a9dda3513610c04","688082402bfe975062dc988f","3","0","65f19a1fe38352676f83d5f0","3","0","2025-07-23T06:39:00.824Z","","","","","","","","","","","StressQ","","50","","","","","","","","","","","","","","","","","","","","","","","","","","","","",""
"2586","","<div style=""width:500px;"">
  <p>What best describes how you currently feel?</p>
  </div>","65","html-slider-response","28","297351","0.0-5.0-4.3","152","1","2025-07-23 06:34:03","1f75c3e559b7213887762d5229550c2b","51.36.171.66","Mozilla/5.0 (Windows NT 10.0; Win64; x64) AppleWebKit/537.36 (KHTML, like Gecko) Chrome/138.0.0.0 Safari/537.36","WebKit","Chrome","138.0.0.0","Windows","10.0","https://app.prolific.com/","en-US,en;q=0.9","65f19a1fe38352676f83d5f0","683dba2a8a9dda3513610c04","688082402bfe975062dc988f","3","0","65f19a1fe38352676f83d5f0","3","0","2025-07-23T06:39:03.411Z","","","","","","","","","","","MotivationQ","","50","","","","","","","","","","","","","","","","","","","","","","","","","","","","",""
"","","","","ctl-task-cpt","29","326048","0.0-5.0-0.4","152","1","2025-07-23 06:34:03","1f75c3e559b7213887762d5229550c2b","51.36.171.66","Mozilla/5.0 (Windows NT 10.0; Win64; x64) AppleWebKit/537.36 (KHTML, like Gecko) Chrome/138.0.0.0 Safari/537.36","WebKit","Chrome","138.0.0.0","Windows","10.0","https://app.prolific.com/","en-US,en;q=0.9","65f19a1fe38352676f83d5f0","683dba2a8a9dda3513610c04","688082402bfe975062dc988f","3","0","65f19a1fe38352676f83d5f0","3","0","2025-07-23T06:39:32.108Z","","","","","","","","","","","","","","win-only","0","g1:NW,g2:SE","0.6","5","0","302030","705","5705.7","25681","1","4","8","6","1","-1","-1","0","1","0","1054.5","3000","-3015","[""left"",""up""]","{""num_key_presses"":7,""num_perfect"":3,""num_errors"":0,""num_randdir"":4,""num_randdir_good_moves"":1,""num_whilered"":0,""num_whileblue"":0,""num_blue"":0,""num_good_moves"":4}","[411.5714133126395,422.82142761775424,0.1,411.5714133126395,422.82142761775424,100.3,411.5714133126395,422.82142761775424,200.4,411.5714133126395,422.82142761775424,301.5,411.5714133126395,422.82142761775424,401.6,136.5714133126395,216.57142761775424,506,80.3214133126395,152.82142761775424,615.4,80.3214133126395,152.82142761775424,715.4,80.3214133126395,152.82142761775424,815.7,82.8214133126395,77.82142761775425,920.2,82.8214133126395,77.82142761775425,1021.6,82.8214133126395,77.82142761775425,1125.7,82.8214133126395,77.82142761775425,1230.6,82.8214133126395,77.82142761775425,1330.8,-217.1785866873605,145.32142761775424,1435.7,-345.9285866873605,201.57142761775424,1535.8,-345.9285866873605,201.57142761775424,1640.2,-345.9285866873605,201.57142761775424,1741,-345.9285866873605,201.57142761775424,1841.2,-345.9285866873605,201.57142761775424,1946.4,-345.9285866873605,201.57142761775424,2051.6,-345.9285866873605,201.57142761775424,2156,-345.9285866873605,201.57142761775424,2260.4,-345.9285866873605,201.57142761775424,2361,-345.9285866873605,201.57142761775424,2465.4,-345.9285866873605,201.57142761775424,2571.7,-345.9285866873605,201.57142761775424,2677.1,-345.9285866873605,201.57142761775424,2780.4,-345.9285866873605,201.57142761775424,2880.7,-345.9285866873605,201.57142761775424,2981.2,-345.9285866873605,201.57142761775424,3081.4,-345.9285866873605,201.57142761775424,3185.4,-345.9285866873605,201.57142761775424,3290.7,-345.9285866873605,201.57142761775424,3391,-345.9285866873605,201.57142761775424,3495.9,-345.9285866873605,201.57142761775424,3595.9,-345.9285866873605,201.57142761775424,3701.2,-345.9285866873605,201.57142761775424,3806,-345.9285866873605,201.57142761775424,3912.6,-345.9285866873605,201.57142761775424,4015.2,-345.9285866873605,201.57142761775424,4115.7,-345.9285866873605,201.57142761775424,4220.5,-345.9285866873605,201.57142761775424,4320.9,-345.9285866873605,201.57142761775424,4426.8,-345.9285866873605,201.57142761775424,4530.7,-345.9285866873605,201.57142761775424,4630.8,-345.9285866873605,201.57142761775424,4735.3,-345.9285866873605,201.57142761775424,4835.8,-345.9285866873605,201.57142761775424,4940.2]","[1580.7,1580.7,1000,0,580.7,""oops"",""left"",""right"",""bad_move"",4332.9,2752,2336.7,1580.9,415.3,""smooth"",""left"",""left"",""good_move"",7041.1,2707.9,2312.4,4333.2,395.5,""oops"",""left"",""left"",""good_move"",10134.6,3093.4,2716.4,7041.2,377,""smooth"",""left"",""left"",""good_move"",12938.3,2803.6,2417.8,10134.7,385.8,""oops"",""up"",""down"",""bad_move"",14943.6,2005.1,1559.2,12938.5,445.9,""smooth"",""up"",""up"",""good_move"",17673.9,2730.1,2380.1,14943.8,350,""oops"",""up"",""down"",""bad_move""]","",""
"2693","","<div style=""width:500px;"">
  <p>What determined the result of this run?</p>
  </div>","42","html-slider-response","30","328741","0.0-5.0-1.4","152","1","2025-07-23 06:34:03","1f75c3e559b7213887762d5229550c2b","51.36.171.66","Mozilla/5.0 (Windows NT 10.0; Win64; x64) AppleWebKit/537.36 (KHTML, like Gecko) Chrome/138.0.0.0 Safari/537.36","WebKit","Chrome","138.0.0.0","Windows","10.0","https://app.prolific.com/","en-US,en;q=0.9","65f19a1fe38352676f83d5f0","683dba2a8a9dda3513610c04","688082402bfe975062dc988f","3","0","65f19a1fe38352676f83d5f0","3","0","2025-07-23T06:39:34.801Z","","","","","","","","","","","AttribQ","","50","","","","","","","","","","","","","","","","","","","","","","","","","","","","",""
"6111","","<div style=""width:500px;"">
  <p>How much control did you have over the ball?</p>
  </div>","38","html-slider-response","31","334853","0.0-5.0-2.4","152","1","2025-07-23 06:34:03","1f75c3e559b7213887762d5229550c2b","51.36.171.66","Mozilla/5.0 (Windows NT 10.0; Win64; x64) AppleWebKit/537.36 (KHTML, like Gecko) Chrome/138.0.0.0 Safari/537.36","WebKit","Chrome","138.0.0.0","Windows","10.0","https://app.prolific.com/","en-US,en;q=0.9","65f19a1fe38352676f83d5f0","683dba2a8a9dda3513610c04","688082402bfe975062dc988f","3","0","65f19a1fe38352676f83d5f0","3","0","2025-07-23T06:39:40.914Z","","","","","","","","","","","ControlQ","","50","","","","","","","","","","","","","","","","","","","","","","","","","","","","",""
"2466","","<div style=""width:500px;"">
  <p>How would you describe your current emotional state?</p>
  </div>","42","html-slider-response","32","337320","0.0-5.0-3.4","152","1","2025-07-23 06:34:03","1f75c3e559b7213887762d5229550c2b","51.36.171.66","Mozilla/5.0 (Windows NT 10.0; Win64; x64) AppleWebKit/537.36 (KHTML, like Gecko) Chrome/138.0.0.0 Safari/537.36","WebKit","Chrome","138.0.0.0","Windows","10.0","https://app.prolific.com/","en-US,en;q=0.9","65f19a1fe38352676f83d5f0","683dba2a8a9dda3513610c04","688082402bfe975062dc988f","3","0","65f19a1fe38352676f83d5f0","3","0","2025-07-23T06:39:43.380Z","","","","","","","","","","","StressQ","","50","","","","","","","","","","","","","","","","","","","","","","","","","","","","",""
"3835","","<div style=""width:500px;"">
  <p>What best describes how you currently feel?</p>
  </div>","58","html-slider-response","33","341156","0.0-5.0-4.4","152","1","2025-07-23 06:34:03","1f75c3e559b7213887762d5229550c2b","51.36.171.66","Mozilla/5.0 (Windows NT 10.0; Win64; x64) AppleWebKit/537.36 (KHTML, like Gecko) Chrome/138.0.0.0 Safari/537.36","WebKit","Chrome","138.0.0.0","Windows","10.0","https://app.prolific.com/","en-US,en;q=0.9","65f19a1fe38352676f83d5f0","683dba2a8a9dda3513610c04","688082402bfe975062dc988f","3","0","65f19a1fe38352676f83d5f0","3","0","2025-07-23T06:39:47.216Z","","","","","","","","","","","MotivationQ","","50","","","","","","","","","","","","","","","","","","","","","","","","","","","","",""
"","","","","ctl-task-cpt","34","367993","0.0-5.0-0.5","152","1","2025-07-23 06:34:03","1f75c3e559b7213887762d5229550c2b","51.36.171.66","Mozilla/5.0 (Windows NT 10.0; Win64; x64) AppleWebKit/537.36 (KHTML, like Gecko) Chrome/138.0.0.0 Safari/537.36","WebKit","Chrome","138.0.0.0","Windows","10.0","https://app.prolific.com/","en-US,en;q=0.9","65f19a1fe38352676f83d5f0","683dba2a8a9dda3513610c04","688082402bfe975062dc988f","3","0","65f19a1fe38352676f83d5f0","3","0","2025-07-23T06:40:14.053Z","","","","","","","","","","","","","","win-only","1","g1:NE,g2:SW","0.5","6","0","345834.8","1060.9","6065.5","23820.5","1","4","4","6","1","-1","-1","0","0","0","838.3","3000","-3005","[""up"",""right""]","{""num_key_presses"":5,""num_perfect"":0,""num_errors"":0,""num_randdir"":5,""num_randdir_good_moves"":2,""num_whilered"":0,""num_whileblue"":0,""num_blue"":0,""num_good_moves"":2}","[417.8214133126395,421.57142761775424,0.2,417.8214133126395,421.57142761775424,100.3,417.8214133126395,421.57142761775424,204.8,417.8214133126395,421.57142761775424,309.3,417.8214133126395,421.57142761775424,409.5,595.3214133126395,171.57142761775424,509.7,779.0714133126395,20.321427617754253,618.5,789.0714133126395,19.071427617754253,720.6,789.0714133126395,19.071427617754253,825.4,789.0714133126395,19.071427617754253,929.9,789.0714133126395,19.071427617754253,1031,789.0714133126395,19.071427617754253,1131.7,471.5714133126395,77.82142761775425,1234.8,-212.1785866873605,296.57142761775424,1335,-223.4285866873605,297.82142761775424,1440,-223.4285866873605,297.82142761775424,1544.5,-223.4285866873605,297.82142761775424,1644.7,-223.4285866873605,297.82142761775424,1745.1,-223.4285866873605,297.82142761775424,1850.4,-223.4285866873605,297.82142761775424,1954.6,-223.4285866873605,297.82142761775424,2054.8,-223.4285866873605,297.82142761775424,2159.6,-223.4285866873605,297.82142761775424,2261.1,-223.4285866873605,297.82142761775424,2364.6,-223.4285866873605,297.82142761775424,2470.2,-223.4285866873605,297.82142761775424,2570.2,-223.4285866873605,297.82142761775424,2670.4,-223.4285866873605,297.82142761775424,2774.7,-223.4285866873605,297.82142761775424,2874.8,-223.4285866873605,297.82142761775424,2974.8,-223.4285866873605,297.82142761775424,3075,-223.4285866873605,297.82142761775424,3175.2,-223.4285866873605,297.82142761775424,3280.6,-223.4285866873605,297.82142761775424,3382.5,-223.4285866873605,297.82142761775424,3485.1,-223.4285866873605,297.82142761775424,3585.1,-223.4285866873605,297.82142761775424,3689.6,-223.4285866873605,297.82142761775424,3789.7,-223.4285866873605,297.82142761775424,3889.9,-223.4285866873605,297.82142761775424,3994.9,-223.4285866873605,297.82142761775424,4100.4,-223.4285866873605,297.82142761775424,4204.5,-223.4285866873605,297.82142761775424,4310.1,-223.4285866873605,297.82142761775424,4415,-223.4285866873605,297.82142761775424,4515.1,-223.4285866873605,297.82142761775424,4620.2,-223.4285866873605,297.82142761775424,4720.7,-223.4285866873605,297.82142761775424,4825.1,-223.4285866873605,297.82142761775424,4929.6]","[1542.4,1542.4,1000,0,542.4,""oops"",""up"",""right"",""good_move"",4079.8,2537.2,1832.7,1542.7,704.5,""oops"",""up"",""right"",""good_move"",7486.8,3406.8,2952.5,4080,454.3,""oops"",""up"",""down"",""bad_move"",10686.9,3199.8,2720.8,7487.1,479,""oops"",""up"",""left"",""bad_move"",14137.4,3450.2,2949.3,10687.2,500.9,""oops"",""up"",""left"",""bad_move""]","",""
"2993","","<div style=""width:500px;"">
  <p>What determined the result of this run?</p>
  </div>","20","html-slider-response","35","370987","0.0-5.0-1.5","152","1","2025-07-23 06:34:03","1f75c3e559b7213887762d5229550c2b","51.36.171.66","Mozilla/5.0 (Windows NT 10.0; Win64; x64) AppleWebKit/537.36 (KHTML, like Gecko) Chrome/138.0.0.0 Safari/537.36","WebKit","Chrome","138.0.0.0","Windows","10.0","https://app.prolific.com/","en-US,en;q=0.9","65f19a1fe38352676f83d5f0","683dba2a8a9dda3513610c04","688082402bfe975062dc988f","3","0","65f19a1fe38352676f83d5f0","3","0","2025-07-23T06:40:17.047Z","","","","","","","","","","","AttribQ","","50","","","","","","","","","","","","","","","","","","","","","","","","","","","","",""
"2517","","<div style=""width:500px;"">
  <p>How much control did you have over the ball?</p>
  </div>","25","html-slider-response","36","373505","0.0-5.0-2.5","152","1","2025-07-23 06:34:03","1f75c3e559b7213887762d5229550c2b","51.36.171.66","Mozilla/5.0 (Windows NT 10.0; Win64; x64) AppleWebKit/537.36 (KHTML, like Gecko) Chrome/138.0.0.0 Safari/537.36","WebKit","Chrome","138.0.0.0","Windows","10.0","https://app.prolific.com/","en-US,en;q=0.9","65f19a1fe38352676f83d5f0","683dba2a8a9dda3513610c04","688082402bfe975062dc988f","3","0","65f19a1fe38352676f83d5f0","3","0","2025-07-23T06:40:19.565Z","","","","","","","","","","","ControlQ","","50","","","","","","","","","","","","","","","","","","","","","","","","","","","","",""
"5549","","<div style=""width:500px;"">
  <p>How would you describe your current emotional state?</p>
  </div>","47","html-slider-response","37","379055","0.0-5.0-3.5","152","1","2025-07-23 06:34:03","1f75c3e559b7213887762d5229550c2b","51.36.171.66","Mozilla/5.0 (Windows NT 10.0; Win64; x64) AppleWebKit/537.36 (KHTML, like Gecko) Chrome/138.0.0.0 Safari/537.36","WebKit","Chrome","138.0.0.0","Windows","10.0","https://app.prolific.com/","en-US,en;q=0.9","65f19a1fe38352676f83d5f0","683dba2a8a9dda3513610c04","688082402bfe975062dc988f","3","0","65f19a1fe38352676f83d5f0","3","0","2025-07-23T06:40:25.115Z","","","","","","","","","","","StressQ","","50","","","","","","","","","","","","","","","","","","","","","","","","","","","","",""
"3751","","<div style=""width:500px;"">
  <p>What best describes how you currently feel?</p>
  </div>","52","html-slider-response","38","382807","0.0-5.0-4.5","152","1","2025-07-23 06:34:03","1f75c3e559b7213887762d5229550c2b","51.36.171.66","Mozilla/5.0 (Windows NT 10.0; Win64; x64) AppleWebKit/537.36 (KHTML, like Gecko) Chrome/138.0.0.0 Safari/537.36","WebKit","Chrome","138.0.0.0","Windows","10.0","https://app.prolific.com/","en-US,en;q=0.9","65f19a1fe38352676f83d5f0","683dba2a8a9dda3513610c04","688082402bfe975062dc988f","3","0","65f19a1fe38352676f83d5f0","3","0","2025-07-23T06:40:28.867Z","","","","","","","","","","","MotivationQ","","50","","","","","","","","","","","","","","","","","","","","","","","","","","","","",""
"","","","","ctl-task-cpt","39","417963","0.0-5.0-0.6","152","1","2025-07-23 06:34:03","1f75c3e559b7213887762d5229550c2b","51.36.171.66","Mozilla/5.0 (Windows NT 10.0; Win64; x64) AppleWebKit/537.36 (KHTML, like Gecko) Chrome/138.0.0.0 Safari/537.36","WebKit","Chrome","138.0.0.0","Windows","10.0","https://app.prolific.com/","en-US,en;q=0.9","65f19a1fe38352676f83d5f0","683dba2a8a9dda3513610c04","688082402bfe975062dc988f","3","0","65f19a1fe38352676f83d5f0","3","0","2025-07-23T06:41:04.023Z","","","","","","","","","","","","","","win-only","2","g1:SE,g2:NW","0.4","7","0","387486.2","1084.6","6087.7","32135.9","1","4","4","6","1","-1","-1","0","0","0","1064.3","3000","-2995","[""down"",""right""]","{""num_key_presses"":7,""num_perfect"":2,""num_errors"":0,""num_randdir"":5,""num_randdir_good_moves"":3,""num_whilered"":0,""num_whileblue"":0,""num_blue"":1,""num_good_moves"":5}","[415.3214133126395,420.32142761775424,0.2,415.3214133126395,420.32142761775424,102.2,415.3214133126395,420.32142761775424,202.7,415.3214133126395,420.32142761775424,307.3,415.3214133126395,420.32142761775424,411.5,329.0714133126395,332.82142761775424,517.5,356.5714133126395,351.57142761775424,620.8,732.8214133126395,711.5714276177542,721.5,779.0714133126395,759.0714276177542,825.7,781.5714133126395,760.3214276177542,930.8,781.5714133126395,760.3214276177542,1032.4,781.5714133126395,760.3214276177542,1138.7,781.5714133126395,760.3214276177542,1241.1,781.5714133126395,760.3214276177542,1341.1,534.0714133126395,677.8214276177542,1445.6,94.0714133126395,576.5714276177542,1545.7,74.0714133126395,571.5714276177542,1652.6,74.0714133126395,571.5714276177542,1756.5,74.0714133126395,571.5714276177542,1860.9,74.0714133126395,571.5714276177542,1961.2,74.0714133126395,571.5714276177542,2065.9,-27.178586687360493,555.3214276177542,2167.4,-132.1785866873605,526.5714276177542,2270.8,-132.1785866873605,526.5714276177542,2370.9,-132.1785866873605,526.5714276177542,2470.9,-132.1785866873605,526.5714276177542,2571.6,-132.1785866873605,526.5714276177542,2675.9,-132.1785866873605,526.5714276177542,2776.5,-132.1785866873605,526.5714276177542,2881.3,-132.1785866873605,526.5714276177542,2985.9,-132.1785866873605,526.5714276177542,3088.1,-132.1785866873605,526.5714276177542,3191.2,-132.1785866873605,526.5714276177542,3291.4,-132.1785866873605,526.5714276177542,3395.8,-132.1785866873605,526.5714276177542,3501.1,-132.1785866873605,526.5714276177542,3602.3,-132.1785866873605,526.5714276177542,3703.8,-132.1785866873605,526.5714276177542,3806,-132.1785866873605,526.5714276177542,3911,-132.1785866873605,526.5714276177542,4011.4,-132.1785866873605,526.5714276177542,4115.7,-132.1785866873605,526.5714276177542,4216.1,-132.1785866873605,526.5714276177542,4316.1,-132.1785866873605,526.5714276177542,4422.7,-132.1785866873605,526.5714276177542,4525.6,-132.1785866873605,526.5714276177542,4626.1,-132.1785866873605,526.5714276177542,4730.7,-132.1785866873605,526.5714276177542,4831.3,-132.1785866873605,526.5714276177542,4935.8]","[1578.6,1578.6,1000,0,578.6,""oops"",""down"",""left"",""bad_move"",4243.1,2664.2,2266.1,1578.9,398.1,""oops"",""down"",""up"",""bad_move"",7308,3064.7,2622.7,4243.3,442,""smooth"",""down"",""down"",""good_move"",9910.6,2602.3,2177.4,7308.3,424.9,""smooth"",""down"",""down"",""good_move"",13078.6,3167.9,2855.9,9910.8,311.9,""oops"",""down"",""right"",""good_move"",20092.1,7013.3,2951.5,16718.2,422.4,""oops"",""down"",""down"",""good_move"",22775.4,2683.1,2330.3,20092.3,352.8,""oops"",""right"",""right"",""good_move""]","",""
"4116","","<div style=""width:500px;"">
  <p>What determined the result of this run?</p>
  </div>","33","html-slider-response","40","422080","0.0-5.0-1.6","152","1","2025-07-23 06:34:03","1f75c3e559b7213887762d5229550c2b","51.36.171.66","Mozilla/5.0 (Windows NT 10.0; Win64; x64) AppleWebKit/537.36 (KHTML, like Gecko) Chrome/138.0.0.0 Safari/537.36","WebKit","Chrome","138.0.0.0","Windows","10.0","https://app.prolific.com/","en-US,en;q=0.9","65f19a1fe38352676f83d5f0","683dba2a8a9dda3513610c04","688082402bfe975062dc988f","3","0","65f19a1fe38352676f83d5f0","3","0","2025-07-23T06:41:08.140Z","","","","","","","","","","","AttribQ","","50","","","","","","","","","","","","","","","","","","","","","","","","","","","","",""
"3165","","<div style=""width:500px;"">
  <p>How much control did you have over the ball?</p>
  </div>","33","html-slider-response","41","425246","0.0-5.0-2.6","152","1","2025-07-23 06:34:03","1f75c3e559b7213887762d5229550c2b","51.36.171.66","Mozilla/5.0 (Windows NT 10.0; Win64; x64) AppleWebKit/537.36 (KHTML, like Gecko) Chrome/138.0.0.0 Safari/537.36","WebKit","Chrome","138.0.0.0","Windows","10.0","https://app.prolific.com/","en-US,en;q=0.9","65f19a1fe38352676f83d5f0","683dba2a8a9dda3513610c04","688082402bfe975062dc988f","3","0","65f19a1fe38352676f83d5f0","3","0","2025-07-23T06:41:11.306Z","","","","","","","","","","","ControlQ","","50","","","","","","","","","","","","","","","","","","","","","","","","","","","","",""
"3731","","<div style=""width:500px;"">
  <p>How would you describe your current emotional state?</p>
  </div>","52","html-slider-response","42","428977","0.0-5.0-3.6","152","1","2025-07-23 06:34:03","1f75c3e559b7213887762d5229550c2b","51.36.171.66","Mozilla/5.0 (Windows NT 10.0; Win64; x64) AppleWebKit/537.36 (KHTML, like Gecko) Chrome/138.0.0.0 Safari/537.36","WebKit","Chrome","138.0.0.0","Windows","10.0","https://app.prolific.com/","en-US,en;q=0.9","65f19a1fe38352676f83d5f0","683dba2a8a9dda3513610c04","688082402bfe975062dc988f","3","0","65f19a1fe38352676f83d5f0","3","0","2025-07-23T06:41:15.037Z","","","","","","","","","","","StressQ","","50","","","","","","","","","","","","","","","","","","","","","","","","","","","","",""
"2120","","<div style=""width:500px;"">
  <p>What best describes how you currently feel?</p>
  </div>","48","html-slider-response","43","431098","0.0-5.0-4.6","152","1","2025-07-23 06:34:03","1f75c3e559b7213887762d5229550c2b","51.36.171.66","Mozilla/5.0 (Windows NT 10.0; Win64; x64) AppleWebKit/537.36 (KHTML, like Gecko) Chrome/138.0.0.0 Safari/537.36","WebKit","Chrome","138.0.0.0","Windows","10.0","https://app.prolific.com/","en-US,en;q=0.9","65f19a1fe38352676f83d5f0","683dba2a8a9dda3513610c04","688082402bfe975062dc988f","3","0","65f19a1fe38352676f83d5f0","3","0","2025-07-23T06:41:17.158Z","","","","","","","","","","","MotivationQ","","50","","","","","","","","","","","","","","","","","","","","","","","","","","","","",""
"","","","","ctl-task-cpt","44","456262","0.0-5.0-0.7","152","1","2025-07-23 06:34:03","1f75c3e559b7213887762d5229550c2b","51.36.171.66","Mozilla/5.0 (Windows NT 10.0; Win64; x64) AppleWebKit/537.36 (KHTML, like Gecko) Chrome/138.0.0.0 Safari/537.36","WebKit","Chrome","138.0.0.0","Windows","10.0","https://app.prolific.com/","en-US,en;q=0.9","65f19a1fe38352676f83d5f0","683dba2a8a9dda3513610c04","688082402bfe975062dc988f","3","0","65f19a1fe38352676f83d5f0","3","0","2025-07-23T06:41:42.322Z","","","","","","","","","","","","","","win-only","1","g1:NE,g2:SW","0.3","8","0","435777.5","854.5","5855.9","22145.9","1","4","8","6","1","-1","-1","0","0","0","787.2","3000","-2995","[""up"",""right""]","{""num_key_presses"":5,""num_perfect"":1,""num_errors"":0,""num_randdir"":4,""num_randdir_good_moves"":1,""num_whilered"":0,""num_whileblue"":0,""num_blue"":0,""num_good_moves"":2}","[416.5714133126395,421.57142761775424,0.2,416.5714133126395,421.57142761775424,101.1,416.5714133126395,421.57142761775424,202.5,416.5714133126395,421.57142761775424,310.3,441.5714133126395,371.57142761775424,410.9,651.5714133126395,150.32142761775424,511.5,742.8214133126395,82.82142761775425,616.9,747.8214133126395,76.57142761775425,716.9,747.8214133126395,76.57142761775425,821.2,747.8214133126395,76.57142761775425,922.9,747.8214133126395,76.57142761775425,1024.7,747.8214133126395,76.57142761775425,1126,1.571413312639507,191.57142761775424,1226,-140.9285866873605,227.82142761775424,1326.2,-140.9285866873605,227.82142761775424,1430.8,-140.9285866873605,227.82142761775424,1531.5,-140.9285866873605,227.82142761775424,1631.6,-140.9285866873605,227.82142761775424,1736.8,-140.9285866873605,227.82142761775424,1838.4,-140.9285866873605,227.82142761775424,1941.2,-140.9285866873605,227.82142761775424,2041.4,-140.9285866873605,227.82142761775424,2141.6,-140.9285866873605,227.82142761775424,2245.8,-140.9285866873605,227.82142761775424,2346.9,-140.9285866873605,227.82142761775424,2452.7,-140.9285866873605,227.82142761775424,2556.4,-140.9285866873605,227.82142761775424,2656.6,-140.9285866873605,227.82142761775424,2761.2,-140.9285866873605,227.82142761775424,2867.5,-140.9285866873605,227.82142761775424,2973.4,-140.9285866873605,227.82142761775424,3076.7,-140.9285866873605,227.82142761775424,3181.9,-140.9285866873605,227.82142761775424,3281.9,-140.9285866873605,227.82142761775424,3387.1,-140.9285866873605,227.82142761775424,3491.3,-140.9285866873605,227.82142761775424,3591.9,-140.9285866873605,227.82142761775424,3696,-140.9285866873605,227.82142761775424,3801,-140.9285866873605,227.82142761775424,3901.1,-140.9285866873605,227.82142761775424,4004.9,-140.9285866873605,227.82142761775424,4106.3,-140.9285866873605,227.82142761775424,4210.7,-140.9285866873605,227.82142761775424,4310.8,-140.9285866873605,227.82142761775424,4411.3,-140.9285866873605,227.82142761775424,4516.8,-140.9285866873605,227.82142761775424,4621.3,-140.9285866873605,227.82142761775424,4721.4,-140.9285866873605,227.82142761775424,4826.6,-140.9285866873605,227.82142761775424,4926.9]","[2060.6,2060.6,1000,0,1060.6,""oops"",""up"",""left"",""bad_move"",5097.2,3036.3,2576.1,2060.9,460.2,""oops"",""up"",""left"",""bad_move"",7944.3,2846.9,2389.8,5097.4,457.1,""smooth"",""up"",""up"",""good_move"",10466,2521.4,2122.8,7944.6,398.6,""oops"",""up"",""left"",""bad_move"",13715.8,3249.7,2806.6,10466.1,443.1,""oops"",""up"",""right"",""good_move""]","",""
"3369","","<div style=""width:500px;"">
  <p>What determined the result of this run?</p>
  </div>","15","html-slider-response","45","459632","0.0-5.0-1.7","152","1","2025-07-23 06:34:03","1f75c3e559b7213887762d5229550c2b","51.36.171.66","Mozilla/5.0 (Windows NT 10.0; Win64; x64) AppleWebKit/537.36 (KHTML, like Gecko) Chrome/138.0.0.0 Safari/537.36","WebKit","Chrome","138.0.0.0","Windows","10.0","https://app.prolific.com/","en-US,en;q=0.9","65f19a1fe38352676f83d5f0","683dba2a8a9dda3513610c04","688082402bfe975062dc988f","3","0","65f19a1fe38352676f83d5f0","3","0","2025-07-23T06:41:45.692Z","","","","","","","","","","","AttribQ","","50","","","","","","","","","","","","","","","","","","","","","","","","","","","","",""
"3773","","<div style=""width:500px;"">
  <p>How much control did you have over the ball?</p>
  </div>","25","html-slider-response","46","463406","0.0-5.0-2.7","152","1","2025-07-23 06:34:03","1f75c3e559b7213887762d5229550c2b","51.36.171.66","Mozilla/5.0 (Windows NT 10.0; Win64; x64) AppleWebKit/537.36 (KHTML, like Gecko) Chrome/138.0.0.0 Safari/537.36","WebKit","Chrome","138.0.0.0","Windows","10.0","https://app.prolific.com/","en-US,en;q=0.9","65f19a1fe38352676f83d5f0","683dba2a8a9dda3513610c04","688082402bfe975062dc988f","3","0","65f19a1fe38352676f83d5f0","3","0","2025-07-23T06:41:49.466Z","","","","","","","","","","","ControlQ","","50","","","","","","","","","","","","","","","","","","","","","","","","","","","","",""
"3469","","<div style=""width:500px;"">
  <p>How would you describe your current emotional state?</p>
  </div>","53","html-slider-response","47","466876","0.0-5.0-3.7","152","1","2025-07-23 06:34:03","1f75c3e559b7213887762d5229550c2b","51.36.171.66","Mozilla/5.0 (Windows NT 10.0; Win64; x64) AppleWebKit/537.36 (KHTML, like Gecko) Chrome/138.0.0.0 Safari/537.36","WebKit","Chrome","138.0.0.0","Windows","10.0","https://app.prolific.com/","en-US,en;q=0.9","65f19a1fe38352676f83d5f0","683dba2a8a9dda3513610c04","688082402bfe975062dc988f","3","0","65f19a1fe38352676f83d5f0","3","0","2025-07-23T06:41:52.936Z","","","","","","","","","","","StressQ","","50","","","","","","","","","","","","","","","","","","","","","","","","","","","","",""
"1800","","<div style=""width:500px;"">
  <p>What best describes how you currently feel?</p>
  </div>","47","html-slider-response","48","468677","0.0-5.0-4.7","152","1","2025-07-23 06:34:03","1f75c3e559b7213887762d5229550c2b","51.36.171.66","Mozilla/5.0 (Windows NT 10.0; Win64; x64) AppleWebKit/537.36 (KHTML, like Gecko) Chrome/138.0.0.0 Safari/537.36","WebKit","Chrome","138.0.0.0","Windows","10.0","https://app.prolific.com/","en-US,en;q=0.9","65f19a1fe38352676f83d5f0","683dba2a8a9dda3513610c04","688082402bfe975062dc988f","3","0","65f19a1fe38352676f83d5f0","3","0","2025-07-23T06:41:54.737Z","","","","","","","","","","","MotivationQ","","50","","","","","","","","","","","","","","","","","","","","","","","","","","","","",""
"","","","","ctl-task-cpt","49","498866","0.0-5.0-0.8","152","1","2025-07-23 06:34:03","1f75c3e559b7213887762d5229550c2b","51.36.171.66","Mozilla/5.0 (Windows NT 10.0; Win64; x64) AppleWebKit/537.36 (KHTML, like Gecko) Chrome/138.0.0.0 Safari/537.36","WebKit","Chrome","138.0.0.0","Windows","10.0","https://app.prolific.com/","en-US,en;q=0.9","65f19a1fe38352676f83d5f0","683dba2a8a9dda3513610c04","688082402bfe975062dc988f","3","0","65f19a1fe38352676f83d5f0","3","0","2025-07-23T06:42:24.926Z","","","","","","","","","","","","","","win-only","3","g1:SW,g2:NE","0.2","9","0","473357.3","1106.4","6112.1","27170.2","1","4","8","6","1","-1","-1","0","0","0","1041.6","3000","-2965","[""down"",""left""]","{""num_key_presses"":6,""num_perfect"":0,""num_errors"":0,""num_randdir"":6,""num_randdir_good_moves"":0,""num_whilered"":0,""num_whileblue"":0,""num_blue"":0,""num_good_moves"":0}","[412.8214133126395,406.57142761775424,0.1,412.8214133126395,406.57142761775424,104.7,412.8214133126395,406.57142761775424,209.6,412.8214133126395,406.57142761775424,314.2,412.8214133126395,406.57142761775424,420.1,421.5714133126395,397.82142761775424,520.6,437.8214133126395,379.07142761775424,626.7,116.5714133126395,704.0714276177542,729.3,61.57141331263951,771.5714276177542,829.6,61.57141331263951,771.5714276177542,934,61.57141331263951,771.5714276177542,1034.5,61.57141331263951,771.5714276177542,1141.4,61.57141331263951,771.5714276177542,1244.7,61.57141331263951,771.5714276177542,1349.4,-122.1785866873605,721.5714276177542,1449.8,-132.1785866873605,715.3214276177542,1554.6,-132.1785866873605,715.3214276177542,1656.6,-132.1785866873605,715.3214276177542,1758.7,-132.1785866873605,715.3214276177542,1858.8,-132.1785866873605,715.3214276177542,1959.2,-132.1785866873605,715.3214276177542,2060.2,-132.1785866873605,715.3214276177542,2163.9,-132.1785866873605,715.3214276177542,2269.4,-132.1785866873605,715.3214276177542,2374.6,-132.1785866873605,715.3214276177542,2474.9,-132.1785866873605,715.3214276177542,2579,-132.1785866873605,715.3214276177542,2679,-132.1785866873605,715.3214276177542,2779.2,-132.1785866873605,715.3214276177542,2884.1,-132.1785866873605,715.3214276177542,2987.7,-132.1785866873605,715.3214276177542,3090.5,-132.1785866873605,715.3214276177542,3194.6,-132.1785866873605,715.3214276177542,3299.4,-132.1785866873605,715.3214276177542,3399.5,-132.1785866873605,715.3214276177542,3507.1,-132.1785866873605,715.3214276177542,3608.8,-132.1785866873605,715.3214276177542,3710.3,-132.1785866873605,715.3214276177542,3814.2,-132.1785866873605,715.3214276177542,3914.8,-132.1785866873605,715.3214276177542,4019.8,-132.1785866873605,715.3214276177542,4120.2,-132.1785866873605,715.3214276177542,4220.4,-132.1785866873605,715.3214276177542,4324.7,-132.1785866873605,715.3214276177542,4429.1,-132.1785866873605,715.3214276177542,4529.1,-132.1785866873605,715.3214276177542,4633.9,-132.1785866873605,715.3214276177542,4738.8,-132.1785866873605,715.3214276177542,4839.1,-132.1785866873605,715.3214276177542,4939.7]","[1550.8,1550.8,1000,0,550.8,""oops"",""down"",""right"",""bad_move"",4554.4,3003.3,2537.8,1551.1,465.5,""oops"",""down"",""right"",""bad_move"",7721,3166.4,2797.6,4554.6,368.8,""oops"",""down"",""up"",""bad_move"",10948.6,3227.3,2714.7,7721.3,512.6,""oops"",""down"",""up"",""bad_move"",14611.3,3662.5,3250.1,10948.8,412.4,""oops"",""down"",""right"",""bad_move"",17760,3148.4,2748.1,14611.6,400.3,""oops"",""down"",""up"",""bad_move""]","",""
"2964","","<div style=""width:500px;"">
  <p>What determined the result of this run?</p>
  </div>","21","html-slider-response","50","501831","0.0-5.0-1.8","152","1","2025-07-23 06:34:03","1f75c3e559b7213887762d5229550c2b","51.36.171.66","Mozilla/5.0 (Windows NT 10.0; Win64; x64) AppleWebKit/537.36 (KHTML, like Gecko) Chrome/138.0.0.0 Safari/537.36","WebKit","Chrome","138.0.0.0","Windows","10.0","https://app.prolific.com/","en-US,en;q=0.9","65f19a1fe38352676f83d5f0","683dba2a8a9dda3513610c04","688082402bfe975062dc988f","3","0","65f19a1fe38352676f83d5f0","3","0","2025-07-23T06:42:27.891Z","","","","","","","","","","","AttribQ","","50","","","","","","","","","","","","","","","","","","","","","","","","","","","","",""
"2792","","<div style=""width:500px;"">
  <p>How much control did you have over the ball?</p>
  </div>","31","html-slider-response","51","504623","0.0-5.0-2.8","152","1","2025-07-23 06:34:03","1f75c3e559b7213887762d5229550c2b","51.36.171.66","Mozilla/5.0 (Windows NT 10.0; Win64; x64) AppleWebKit/537.36 (KHTML, like Gecko) Chrome/138.0.0.0 Safari/537.36","WebKit","Chrome","138.0.0.0","Windows","10.0","https://app.prolific.com/","en-US,en;q=0.9","65f19a1fe38352676f83d5f0","683dba2a8a9dda3513610c04","688082402bfe975062dc988f","3","0","65f19a1fe38352676f83d5f0","3","0","2025-07-23T06:42:30.683Z","","","","","","","","","","","ControlQ","","50","","","","","","","","","","","","","","","","","","","","","","","","","","","","",""
"3143","","<div style=""width:500px;"">
  <p>How would you describe your current emotional state?</p>
  </div>","55","html-slider-response","52","507767","0.0-5.0-3.8","152","1","2025-07-23 06:34:03","1f75c3e559b7213887762d5229550c2b","51.36.171.66","Mozilla/5.0 (Windows NT 10.0; Win64; x64) AppleWebKit/537.36 (KHTML, like Gecko) Chrome/138.0.0.0 Safari/537.36","WebKit","Chrome","138.0.0.0","Windows","10.0","https://app.prolific.com/","en-US,en;q=0.9","65f19a1fe38352676f83d5f0","683dba2a8a9dda3513610c04","688082402bfe975062dc988f","3","0","65f19a1fe38352676f83d5f0","3","0","2025-07-23T06:42:33.827Z","","","","","","","","","","","StressQ","","50","","","","","","","","","","","","","","","","","","","","","","","","","","","","",""
"1800","","<div style=""width:500px;"">
  <p>What best describes how you currently feel?</p>
  </div>","42","html-slider-response","53","509568","0.0-5.0-4.8","152","1","2025-07-23 06:34:03","1f75c3e559b7213887762d5229550c2b","51.36.171.66","Mozilla/5.0 (Windows NT 10.0; Win64; x64) AppleWebKit/537.36 (KHTML, like Gecko) Chrome/138.0.0.0 Safari/537.36","WebKit","Chrome","138.0.0.0","Windows","10.0","https://app.prolific.com/","en-US,en;q=0.9","65f19a1fe38352676f83d5f0","683dba2a8a9dda3513610c04","688082402bfe975062dc988f","3","0","65f19a1fe38352676f83d5f0","3","0","2025-07-23T06:42:35.628Z","","","","","","","","","","","MotivationQ","","50","","","","","","","","","","","","","","","","","","","","","","","","","","","","",""
"","","","","ctl-task-cpt","54","549759","0.0-5.0-0.9","152","1","2025-07-23 06:34:03","1f75c3e559b7213887762d5229550c2b","51.36.171.66","Mozilla/5.0 (Windows NT 10.0; Win64; x64) AppleWebKit/537.36 (KHTML, like Gecko) Chrome/138.0.0.0 Safari/537.36","WebKit","Chrome","138.0.0.0","Windows","10.0","https://app.prolific.com/","en-US,en;q=0.9","65f19a1fe38352676f83d5f0","683dba2a8a9dda3513610c04","688082402bfe975062dc988f","3","0","65f19a1fe38352676f83d5f0","3","0","2025-07-23T06:43:15.819Z","","","","","","","","","","","","","","win-only","0","g1:NW,g2:SE","0.4","10","0","514247.2","1292.4","6296.7","37172.5","1","4","4","6","1","-1","-1","0","0","0","886.1","3000","-2985","[""left"",""up""]","{""num_key_presses"":6,""num_perfect"":3,""num_errors"":0,""num_randdir"":3,""num_randdir_good_moves"":1,""num_whilered"":0,""num_whileblue"":0,""num_blue"":4,""num_good_moves"":4}","[416.5714133126395,407.82142761775424,0.2,416.5714133126395,407.82142761775424,103.5,416.5714133126395,407.82142761775424,203.5,416.5714133126395,407.82142761775424,308.4,406.5714133126395,400.32142761775424,411,81.5714133126395,131.57142761775424,513.7,42.82141331263951,96.57142761775425,614.2,61.57141331263951,81.57142761775425,715.7,61.57141331263951,81.57142761775425,817.3,61.57141331263951,81.57142761775425,918.8,61.57141331263951,81.57142761775425,1023.7,61.57141331263951,81.57142761775425,1123.7,61.57141331263951,81.57142761775425,1223.8,-244.6785866873605,91.57142761775425,1329.8,-244.6785866873605,91.57142761775425,1432,-244.6785866873605,91.57142761775425,1533.8,-244.6785866873605,91.57142761775425,1638.9,-244.6785866873605,91.57142761775425,1743.8,-244.6785866873605,91.57142761775425,1846.3,-244.6785866873605,91.57142761775425,1949.6,-244.6785866873605,91.57142761775425,2053.3,-244.6785866873605,91.57142761775425,2159.7,-244.6785866873605,91.57142761775425,2264.3,-244.6785866873605,91.57142761775425,2368.9,-244.6785866873605,91.57142761775425,2475.5,-244.6785866873605,91.57142761775425,2582.7,-244.6785866873605,91.57142761775425,2683.4,-244.6785866873605,91.57142761775425,2789,-244.6785866873605,91.57142761775425,2890.3,-244.6785866873605,91.57142761775425,2994.5,-244.6785866873605,91.57142761775425,3098.3,-244.6785866873605,91.57142761775425,3199,-244.6785866873605,91.57142761775425,3303,-244.6785866873605,91.57142761775425,3403.5,-244.6785866873605,91.57142761775425,3503.9,-244.6785866873605,91.57142761775425,3612.5,-244.6785866873605,91.57142761775425,3713.4,-244.6785866873605,91.57142761775425,3813.7,-244.6785866873605,91.57142761775425,3918.1,-244.6785866873605,91.57142761775425,4018.7,-244.6785866873605,91.57142761775425,4124.3,-244.6785866873605,91.57142761775425,4231.9,-244.6785866873605,91.57142761775425,4332.8,-244.6785866873605,91.57142761775425,4433.8,-244.6785866873605,91.57142761775425,4538.1,-244.6785866873605,91.57142761775425,4638.1,-244.6785866873605,91.57142761775425,4739.2,-244.6785866873605,91.57142761775425,4844,-244.6785866873605,91.57142761775425,4944.1]","[1486.6,1486.6,1000,0,486.6,""smooth"",""left"",""left"",""good_move"",4226.1,2739,2299.4,1487.1,439.6,""smooth"",""left"",""left"",""good_move"",6479.7,2253.5,1861.8,4226.2,391.7,""oops"",""up"",""right"",""bad_move"",15764.4,9284.3,3076.8,12088.7,598.9,""oops"",""up"",""down"",""bad_move"",22418.2,6653.6,2308.4,19498.9,610.9,""smooth"",""up"",""up"",""good_move"",28683.2,6264.8,2736.7,25494.3,452.2,""oops"",""up"",""left"",""good_move""]","",""
"2605","","<div style=""width:500px;"">
  <p>What determined the result of this run?</p>
  </div>","26","html-slider-response","55","552365","0.0-5.0-1.9","152","1","2025-07-23 06:34:03","1f75c3e559b7213887762d5229550c2b","51.36.171.66","Mozilla/5.0 (Windows NT 10.0; Win64; x64) AppleWebKit/537.36 (KHTML, like Gecko) Chrome/138.0.0.0 Safari/537.36","WebKit","Chrome","138.0.0.0","Windows","10.0","https://app.prolific.com/","en-US,en;q=0.9","65f19a1fe38352676f83d5f0","683dba2a8a9dda3513610c04","688082402bfe975062dc988f","3","0","65f19a1fe38352676f83d5f0","3","0","2025-07-23T06:43:18.425Z","","","","","","","","","","","AttribQ","","50","","","","","","","","","","","","","","","","","","","","","","","","","","","","",""
"2544","","<div style=""width:500px;"">
  <p>How much control did you have over the ball?</p>
  </div>","22","html-slider-response","56","554910","0.0-5.0-2.9","152","1","2025-07-23 06:34:03","1f75c3e559b7213887762d5229550c2b","51.36.171.66","Mozilla/5.0 (Windows NT 10.0; Win64; x64) AppleWebKit/537.36 (KHTML, like Gecko) Chrome/138.0.0.0 Safari/537.36","WebKit","Chrome","138.0.0.0","Windows","10.0","https://app.prolific.com/","en-US,en;q=0.9","65f19a1fe38352676f83d5f0","683dba2a8a9dda3513610c04","688082402bfe975062dc988f","3","0","65f19a1fe38352676f83d5f0","3","0","2025-07-23T06:43:20.970Z","","","","","","","","","","","ControlQ","","50","","","","","","","","","","","","","","","","","","","","","","","","","","","","",""
"2609","","<div style=""width:500px;"">
  <p>How would you describe your current emotional state?</p>
  </div>","53","html-slider-response","57","557520","0.0-5.0-3.9","152","1","2025-07-23 06:34:03","1f75c3e559b7213887762d5229550c2b","51.36.171.66","Mozilla/5.0 (Windows NT 10.0; Win64; x64) AppleWebKit/537.36 (KHTML, like Gecko) Chrome/138.0.0.0 Safari/537.36","WebKit","Chrome","138.0.0.0","Windows","10.0","https://app.prolific.com/","en-US,en;q=0.9","65f19a1fe38352676f83d5f0","683dba2a8a9dda3513610c04","688082402bfe975062dc988f","3","0","65f19a1fe38352676f83d5f0","3","0","2025-07-23T06:43:23.580Z","","","","","","","","","","","StressQ","","50","","","","","","","","","","","","","","","","","","","","","","","","","","","","",""
"3221","","<div style=""width:500px;"">
  <p>What best describes how you currently feel?</p>
  </div>","37","html-slider-response","58","560741","0.0-5.0-4.9","152","1","2025-07-23 06:34:03","1f75c3e559b7213887762d5229550c2b","51.36.171.66","Mozilla/5.0 (Windows NT 10.0; Win64; x64) AppleWebKit/537.36 (KHTML, like Gecko) Chrome/138.0.0.0 Safari/537.36","WebKit","Chrome","138.0.0.0","Windows","10.0","https://app.prolific.com/","en-US,en;q=0.9","65f19a1fe38352676f83d5f0","683dba2a8a9dda3513610c04","688082402bfe975062dc988f","3","0","65f19a1fe38352676f83d5f0","3","0","2025-07-23T06:43:26.801Z","","","","","","","","","","","MotivationQ","","50","","","","","","","","","","","","","","","","","","","","","","","","","","","","",""
"","","","","ctl-task-cpt","59","587689","0.0-5.0-0.10","152","1","2025-07-23 06:34:03","1f75c3e559b7213887762d5229550c2b","51.36.171.66","Mozilla/5.0 (Windows NT 10.0; Win64; x64) AppleWebKit/537.36 (KHTML, like Gecko) Chrome/138.0.0.0 Safari/537.36","WebKit","Chrome","138.0.0.0","Windows","10.0","https://app.prolific.com/","en-US,en;q=0.9","65f19a1fe38352676f83d5f0","683dba2a8a9dda3513610c04","688082402bfe975062dc988f","3","0","65f19a1fe38352676f83d5f0","3","0","2025-07-23T06:43:53.749Z","","","","","","","","","","","","","","win-only","0","g1:NW,g2:SE","0.5","11","0","565420.3","1062.5","6066.6","23930.1","1","4","8","6","1","1","1","1","0","0.007575757575757576","838.8","3000","1195","[""left"",""up""]","{""num_key_presses"":4,""num_perfect"":3,""num_errors"":0,""num_randdir"":1,""num_randdir_good_moves"":1,""num_whilered"":0,""num_whileblue"":0,""num_blue"":2,""num_good_moves"":4}","[416.5714133126395,422.82142761775424,0.2,416.5714133126395,422.82142761775424,100.5,416.5714133126395,422.82142761775424,204.1,416.5714133126395,422.82142761775424,309.7,416.5714133126395,422.82142761775424,416.3,206.5714133126395,271.57142761775424,517.7,117.8214133126395,125.32142761775425,618,112.8214133126395,101.57142761775425,718,112.8214133126395,101.57142761775425,823.8,112.8214133126395,101.57142761775425,924.1,112.8214133126395,101.57142761775425,1029,112.8214133126395,101.57142761775425,1129.3,-222.1785866873605,137.82142761775424,1234.2,-337.1785866873605,190.32142761775424,1338.2,-337.1785866873605,190.32142761775424,1440.1,-337.1785866873605,190.32142761775424,1543.6,-337.1785866873605,190.32142761775424,1648.8,-337.1785866873605,190.32142761775424,1753.4,-337.1785866873605,190.32142761775424,1854.6,-337.1785866873605,190.32142761775424,1958.1,-337.1785866873605,190.32142761775424,2063.7,-337.1785866873605,190.32142761775424,2164.4,-337.1785866873605,190.32142761775424,2269,-337.1785866873605,190.32142761775424,2372.8,-337.1785866873605,190.32142761775424,2473.5,-337.1785866873605,190.32142761775424,2578.9,-337.1785866873605,190.32142761775424,2683.1,-337.1785866873605,190.32142761775424,2783.8,-337.1785866873605,190.32142761775424,2887.8,-337.1785866873605,190.32142761775424,2988.2,-337.1785866873605,190.32142761775424,3092.9,-337.1785866873605,190.32142761775424,3198.7,-337.1785866873605,190.32142761775424,3303.6,-337.1785866873605,190.32142761775424,3404.5,-337.1785866873605,190.32142761775424,3509.4,-337.1785866873605,190.32142761775424,3613.7,-337.1785866873605,190.32142761775424,3718,-337.1785866873605,190.32142761775424,3818.4,-337.1785866873605,190.32142761775424,3923,-337.1785866873605,190.32142761775424,4024,-337.1785866873605,190.32142761775424,4133.2,-337.1785866873605,190.32142761775424,4238.1,-337.1785866873605,190.32142761775424,4339,-337.1785866873605,190.32142761775424,4443,-337.1785866873605,190.32142761775424,4543.9,-337.1785866873605,190.32142761775424,4646.2,-337.1785866873605,190.32142761775424,4748.6,-337.1785866873605,190.32142761775424,4853.7,-337.1785866873605,190.32142761775424,4960.3]","[4626.6,4626.6,2005.9,2008.9,611.8,""smooth"",""left"",""left"",""good_move"",7698.5,3071.6,2541.2,4626.9,530.4,""smooth"",""left"",""left"",""good_move"",11190.9,3492.3,3106.5,7698.6,385.8,""oops"",""up"",""up"",""good_move"",17769.4,6578.2,2404.7,14969.9,394.8,""smooth"",""up"",""up"",""good_move""]","",""
"2878","","<div style=""width:500px;"">
  <p>What determined the result of this run?</p>
  </div>","32","html-slider-response","60","590568","0.0-5.0-1.10","152","1","2025-07-23 06:34:03","1f75c3e559b7213887762d5229550c2b","51.36.171.66","Mozilla/5.0 (Windows NT 10.0; Win64; x64) AppleWebKit/537.36 (KHTML, like Gecko) Chrome/138.0.0.0 Safari/537.36","WebKit","Chrome","138.0.0.0","Windows","10.0","https://app.prolific.com/","en-US,en;q=0.9","65f19a1fe38352676f83d5f0","683dba2a8a9dda3513610c04","688082402bfe975062dc988f","3","0","65f19a1fe38352676f83d5f0","3","0","2025-07-23T06:43:56.628Z","","","","","","","","","","","AttribQ","","50","","","","","","","","","","","","","","","","","","","","","","","","","","","","",""
"2422","","<div style=""width:500px;"">
  <p>How much control did you have over the ball?</p>
  </div>","32","html-slider-response","61","592992","0.0-5.0-2.10","152","1","2025-07-23 06:34:03","1f75c3e559b7213887762d5229550c2b","51.36.171.66","Mozilla/5.0 (Windows NT 10.0; Win64; x64) AppleWebKit/537.36 (KHTML, like Gecko) Chrome/138.0.0.0 Safari/537.36","WebKit","Chrome","138.0.0.0","Windows","10.0","https://app.prolific.com/","en-US,en;q=0.9","65f19a1fe38352676f83d5f0","683dba2a8a9dda3513610c04","688082402bfe975062dc988f","3","0","65f19a1fe38352676f83d5f0","3","0","2025-07-23T06:43:59.052Z","","","","","","","","","","","ControlQ","","50","","","","","","","","","","","","","","","","","","","","","","","","","","","","",""
"3397","","<div style=""width:500px;"">
  <p>How would you describe your current emotional state?</p>
  </div>","54","html-slider-response","62","596389","0.0-5.0-3.10","152","1","2025-07-23 06:34:03","1f75c3e559b7213887762d5229550c2b","51.36.171.66","Mozilla/5.0 (Windows NT 10.0; Win64; x64) AppleWebKit/537.36 (KHTML, like Gecko) Chrome/138.0.0.0 Safari/537.36","WebKit","Chrome","138.0.0.0","Windows","10.0","https://app.prolific.com/","en-US,en;q=0.9","65f19a1fe38352676f83d5f0","683dba2a8a9dda3513610c04","688082402bfe975062dc988f","3","0","65f19a1fe38352676f83d5f0","3","0","2025-07-23T06:44:02.449Z","","","","","","","","","","","StressQ","","50","","","","","","","","","","","","","","","","","","","","","","","","","","","","",""
"2103","","<div style=""width:500px;"">
  <p>What best describes how you currently feel?</p>
  </div>","46","html-slider-response","63","598492","0.0-5.0-4.10","152","1","2025-07-23 06:34:03","1f75c3e559b7213887762d5229550c2b","51.36.171.66","Mozilla/5.0 (Windows NT 10.0; Win64; x64) AppleWebKit/537.36 (KHTML, like Gecko) Chrome/138.0.0.0 Safari/537.36","WebKit","Chrome","138.0.0.0","Windows","10.0","https://app.prolific.com/","en-US,en;q=0.9","65f19a1fe38352676f83d5f0","683dba2a8a9dda3513610c04","688082402bfe975062dc988f","3","0","65f19a1fe38352676f83d5f0","3","0","2025-07-23T06:44:04.553Z","","","","","","","","","","","MotivationQ","","50","","","","","","","","","","","","","","","","","","","","","","","","","","","","",""
"","","","","ctl-task-cpt","64","628159","0.0-5.0-0.11","152","1","2025-07-23 06:34:03","1f75c3e559b7213887762d5229550c2b","51.36.171.66","Mozilla/5.0 (Windows NT 10.0; Win64; x64) AppleWebKit/537.36 (KHTML, like Gecko) Chrome/138.0.0.0 Safari/537.36","WebKit","Chrome","138.0.0.0","Windows","10.0","https://app.prolific.com/","en-US,en;q=0.9","65f19a1fe38352676f83d5f0","683dba2a8a9dda3513610c04","688082402bfe975062dc988f","3","0","65f19a1fe38352676f83d5f0","3","0","2025-07-23T06:44:34.219Z","","","","","","","","","","","","","","win-only","3","g1:SW,g2:NE","0.6","12","0","603172","905.8","5906.6","26640.6","1","4","4","6","1","-1","-1","0","1","0","1601.6","3000","-2925","[""down"",""left""]","{""num_key_presses"":5,""num_perfect"":2,""num_errors"":0,""num_randdir"":3,""num_randdir_good_moves"":0,""num_whilered"":0,""num_whileblue"":0,""num_blue"":1,""num_good_moves"":2}","[412.8214133126395,412.82142761775424,0.2,412.8214133126395,412.82142761775424,104.9,412.8214133126395,412.82142761775424,210.2,412.8214133126395,412.82142761775424,310.3,412.8214133126395,412.82142761775424,414.4,500.3214133126395,329.07142761775424,514.7,256.5714133126395,556.5714276177542,624.4,74.0714133126395,799.0714276177542,725.4,34.07141331263951,834.0714276177542,830.6,27.821413312639507,836.5714276177542,938.1,27.821413312639507,836.5714276177542,1040,27.821413312639507,836.5714276177542,1140.2,27.821413312639507,836.5714276177542,1245.2,27.821413312639507,836.5714276177542,1349.4,65.3214133126395,796.5714276177542,1450.5,65.3214133126395,796.5714276177542,1554.7,65.3214133126395,796.5714276177542,1659.8,65.3214133126395,796.5714276177542,1760.4,65.3214133126395,796.5714276177542,1861.3,-37.17858668736049,766.5714276177542,1965.7,-209.6785866873605,726.5714276177542,2070.1,-209.6785866873605,726.5714276177542,2171.6,-209.6785866873605,726.5714276177542,2274.6,-209.6785866873605,726.5714276177542,2375.4,-209.6785866873605,726.5714276177542,2484.1,-209.6785866873605,726.5714276177542,2584.4,-209.6785866873605,726.5714276177542,2685.7,-209.6785866873605,726.5714276177542,2789.3,-209.6785866873605,726.5714276177542,2889.8,-209.6785866873605,726.5714276177542,2990.5,-209.6785866873605,726.5714276177542,3090.5,-209.6785866873605,726.5714276177542,3194.7,-209.6785866873605,726.5714276177542,3295.2,-209.6785866873605,726.5714276177542,3399.5,-209.6785866873605,726.5714276177542,3500.3,-209.6785866873605,726.5714276177542,3604.6,-209.6785866873605,726.5714276177542,3704.9,-209.6785866873605,726.5714276177542,3805.3,-209.6785866873605,726.5714276177542,3905.5,-209.6785866873605,726.5714276177542,4010,-209.6785866873605,726.5714276177542,4114.3,-209.6785866873605,726.5714276177542,4215.5,-209.6785866873605,726.5714276177542,4319.7,-209.6785866873605,726.5714276177542,4424.6,-209.6785866873605,726.5714276177542,4524.8,-209.6785866873605,726.5714276177542,4624.9,-209.6785866873605,726.5714276177542,4725.2,-209.6785866873605,726.5714276177542,4829.8,-209.6785866873605,726.5714276177542,4930.4]","[4741.9,4741.9,2141.8,2009.1,591,""oops"",""down"",""up"",""bad_move"",7687.4,2945.3,2300.2,4742.2,645.1,""smooth"",""down"",""down"",""good_move"",10242.5,2554.8,2067.6,7687.8,487.1,""oops"",""down"",""up"",""bad_move"",13761.9,3518.9,3009.2,10243,509.7,""oops"",""down"",""right"",""bad_move"",17227.7,3465.4,2901,13762.3,564.4,""smooth"",""down"",""down"",""good_move""]","",""
"3098","","<div style=""width:500px;"">
  <p>What determined the result of this run?</p>
  </div>","31","html-slider-response","65","631258","0.0-5.0-1.11","152","1","2025-07-23 06:34:03","1f75c3e559b7213887762d5229550c2b","51.36.171.66","Mozilla/5.0 (Windows NT 10.0; Win64; x64) AppleWebKit/537.36 (KHTML, like Gecko) Chrome/138.0.0.0 Safari/537.36","WebKit","Chrome","138.0.0.0","Windows","10.0","https://app.prolific.com/","en-US,en;q=0.9","65f19a1fe38352676f83d5f0","683dba2a8a9dda3513610c04","688082402bfe975062dc988f","3","0","65f19a1fe38352676f83d5f0","3","0","2025-07-23T06:44:37.318Z","","","","","","","","","","","AttribQ","","50","","","","","","","","","","","","","","","","","","","","","","","","","","","","",""
"3730","","<div style=""width:500px;"">
  <p>How much control did you have over the ball?</p>
  </div>","22","html-slider-response","66","634989","0.0-5.0-2.11","152","1","2025-07-23 06:34:03","1f75c3e559b7213887762d5229550c2b","51.36.171.66","Mozilla/5.0 (Windows NT 10.0; Win64; x64) AppleWebKit/537.36 (KHTML, like Gecko) Chrome/138.0.0.0 Safari/537.36","WebKit","Chrome","138.0.0.0","Windows","10.0","https://app.prolific.com/","en-US,en;q=0.9","65f19a1fe38352676f83d5f0","683dba2a8a9dda3513610c04","688082402bfe975062dc988f","3","0","65f19a1fe38352676f83d5f0","3","0","2025-07-23T06:44:41.049Z","","","","","","","","","","","ControlQ","","50","","","","","","","","","","","","","","","","","","","","","","","","","","","","",""
"2887","","<div style=""width:500px;"">
  <p>How would you describe your current emotional state?</p>
  </div>","53","html-slider-response","67","637876","0.0-5.0-3.11","152","1","2025-07-23 06:34:03","1f75c3e559b7213887762d5229550c2b","51.36.171.66","Mozilla/5.0 (Windows NT 10.0; Win64; x64) AppleWebKit/537.36 (KHTML, like Gecko) Chrome/138.0.0.0 Safari/537.36","WebKit","Chrome","138.0.0.0","Windows","10.0","https://app.prolific.com/","en-US,en;q=0.9","65f19a1fe38352676f83d5f0","683dba2a8a9dda3513610c04","688082402bfe975062dc988f","3","0","65f19a1fe38352676f83d5f0","3","0","2025-07-23T06:44:43.936Z","","","","","","","","","","","StressQ","","50","","","","","","","","","","","","","","","","","","","","","","","","","","","","",""
"3864","","<div style=""width:500px;"">
  <p>What best describes how you currently feel?</p>
  </div>","48","html-slider-response","68","641741","0.0-5.0-4.11","152","1","2025-07-23 06:34:03","1f75c3e559b7213887762d5229550c2b","51.36.171.66","Mozilla/5.0 (Windows NT 10.0; Win64; x64) AppleWebKit/537.36 (KHTML, like Gecko) Chrome/138.0.0.0 Safari/537.36","WebKit","Chrome","138.0.0.0","Windows","10.0","https://app.prolific.com/","en-US,en;q=0.9","65f19a1fe38352676f83d5f0","683dba2a8a9dda3513610c04","688082402bfe975062dc988f","3","0","65f19a1fe38352676f83d5f0","3","0","2025-07-23T06:44:47.801Z","","","","","","","","","","","MotivationQ","","50","","","","","","","","","","","","","","","","","","","","","","","","","","","","",""
"","","","","ctl-task-cpt","69","671900","0.0-5.0-0.12","152","1","2025-07-23 06:34:03","1f75c3e559b7213887762d5229550c2b","51.36.171.66","Mozilla/5.0 (Windows NT 10.0; Win64; x64) AppleWebKit/537.36 (KHTML, like Gecko) Chrome/138.0.0.0 Safari/537.36","WebKit","Chrome","138.0.0.0","Windows","10.0","https://app.prolific.com/","en-US,en;q=0.9","65f19a1fe38352676f83d5f0","683dba2a8a9dda3513610c04","688082402bfe975062dc988f","3","0","65f19a1fe38352676f83d5f0","3","0","2025-07-23T06:45:17.960Z","","","","","","","","","","","","","","win-only","3","g1:SW,g2:NE","0.7","13","0","646421","1329.2","6330.9","27140.1","1","4","8","6","1","1","1","1","0","0.007575757575757576","1033.1","3000","795","[""down"",""left""]","{""num_key_presses"":6,""num_perfect"":4,""num_errors"":0,""num_randdir"":2,""num_randdir_good_moves"":1,""num_whilered"":0,""num_whileblue"":0,""num_blue"":1,""num_good_moves"":5}","[421.5714133126395,415.32142761775424,0.2,421.5714133126395,415.32142761775424,102,421.5714133126395,415.32142761775424,202,421.5714133126395,415.32142761775424,311.3,426.5714133126395,409.07142761775424,411.3,576.5714133126395,256.57142761775424,512.4,549.0714133126395,261.57142761775424,617.6,91.5714133126395,741.5714276177542,722.1,54.07141331263951,796.5714276177542,822.7,54.07141331263951,796.5714276177542,926.5,54.07141331263951,796.5714276177542,1030.6,54.07141331263951,796.5714276177542,1131.7,54.07141331263951,796.5714276177542,1233,54.07141331263951,796.5714276177542,1336.9,-104.6785866873605,761.5714276177542,1441.6,-118.4285866873605,757.8214276177542,1545.3,-118.4285866873605,757.8214276177542,1646.2,-118.4285866873605,757.8214276177542,1746.6,-118.4285866873605,757.8214276177542,1851.9,-118.4285866873605,757.8214276177542,1952,-118.4285866873605,757.8214276177542,2060.9,-118.4285866873605,757.8214276177542,2161.3,-118.4285866873605,757.8214276177542,2261.7,-118.4285866873605,757.8214276177542,2362.2,-118.4285866873605,757.8214276177542,2462.5,-118.4285866873605,757.8214276177542,2567.3,-118.4285866873605,757.8214276177542,2668,-118.4285866873605,757.8214276177542,2772.1,-118.4285866873605,757.8214276177542,2879.3,-118.4285866873605,757.8214276177542,2981.2,-118.4285866873605,757.8214276177542,3081.6,-118.4285866873605,757.8214276177542,3182.3,-118.4285866873605,757.8214276177542,3286.8,-118.4285866873605,757.8214276177542,3391.2,-118.4285866873605,757.8214276177542,3492.8,-118.4285866873605,757.8214276177542,3596,-118.4285866873605,757.8214276177542,3696.2,-118.4285866873605,757.8214276177542,3801.5,-118.4285866873605,757.8214276177542,3906.1,-118.4285866873605,757.8214276177542,4012,-118.4285866873605,757.8214276177542,4112.1,-118.4285866873605,757.8214276177542,4216.7,-118.4285866873605,757.8214276177542,4317.3,-118.4285866873605,757.8214276177542,4421.3,-118.4285866873605,757.8214276177542,4521.8,-118.4285866873605,757.8214276177542,4627.2,-118.4285866873605,757.8214276177542,4731.6,-118.4285866873605,757.8214276177542,4831.6,-118.4285866873605,757.8214276177542,4936.4]","[5949.5,5949.5,3519.1,2012.6,417.8,""smooth"",""down"",""down"",""good_move"",9131,3181.2,2786.4,5949.8,394.8,""smooth"",""down"",""down"",""good_move"",11677.7,2546.4,2143.4,9131.3,403,""oops"",""left"",""right"",""bad_move"",14906.4,3228.5,2842.9,11677.9,385.6,""smooth"",""left"",""left"",""good_move"",17861.3,2954.7,2578,14906.6,376.7,""oops"",""left"",""left"",""good_move"",20721.4,2859.9,2494.4,17861.5,365.5,""smooth"",""left"",""left"",""good_move""]","",""
"3604","","<div style=""width:500px;"">
  <p>What determined the result of this run?</p>
  </div>","26","html-slider-response","70","675505","0.0-5.0-1.12","152","1","2025-07-23 06:34:03","1f75c3e559b7213887762d5229550c2b","51.36.171.66","Mozilla/5.0 (Windows NT 10.0; Win64; x64) AppleWebKit/537.36 (KHTML, like Gecko) Chrome/138.0.0.0 Safari/537.36","WebKit","Chrome","138.0.0.0","Windows","10.0","https://app.prolific.com/","en-US,en;q=0.9","65f19a1fe38352676f83d5f0","683dba2a8a9dda3513610c04","688082402bfe975062dc988f","3","0","65f19a1fe38352676f83d5f0","3","0","2025-07-23T06:45:21.565Z","","","","","","","","","","","AttribQ","","50","","","","","","","","","","","","","","","","","","","","","","","","","","","","",""
"2977","","<div style=""width:500px;"">
  <p>How much control did you have over the ball?</p>
  </div>","26","html-slider-response","71","678483","0.0-5.0-2.12","152","1","2025-07-23 06:34:03","1f75c3e559b7213887762d5229550c2b","51.36.171.66","Mozilla/5.0 (Windows NT 10.0; Win64; x64) AppleWebKit/537.36 (KHTML, like Gecko) Chrome/138.0.0.0 Safari/537.36","WebKit","Chrome","138.0.0.0","Windows","10.0","https://app.prolific.com/","en-US,en;q=0.9","65f19a1fe38352676f83d5f0","683dba2a8a9dda3513610c04","688082402bfe975062dc988f","3","0","65f19a1fe38352676f83d5f0","3","0","2025-07-23T06:45:24.543Z","","","","","","","","","","","ControlQ","","50","","","","","","","","","","","","","","","","","","","","","","","","","","","","",""
"2479","","<div style=""width:500px;"">
  <p>How would you describe your current emotional state?</p>
  </div>","54","html-slider-response","72","680962","0.0-5.0-3.12","152","1","2025-07-23 06:34:03","1f75c3e559b7213887762d5229550c2b","51.36.171.66","Mozilla/5.0 (Windows NT 10.0; Win64; x64) AppleWebKit/537.36 (KHTML, like Gecko) Chrome/138.0.0.0 Safari/537.36","WebKit","Chrome","138.0.0.0","Windows","10.0","https://app.prolific.com/","en-US,en;q=0.9","65f19a1fe38352676f83d5f0","683dba2a8a9dda3513610c04","688082402bfe975062dc988f","3","0","65f19a1fe38352676f83d5f0","3","0","2025-07-23T06:45:27.022Z","","","","","","","","","","","StressQ","","50","","","","","","","","","","","","","","","","","","","","","","","","","","","","",""
"2022","","<div style=""width:500px;"">
  <p>What best describes how you currently feel?</p>
  </div>","46","html-slider-response","73","682986","0.0-5.0-4.12","152","1","2025-07-23 06:34:03","1f75c3e559b7213887762d5229550c2b","51.36.171.66","Mozilla/5.0 (Windows NT 10.0; Win64; x64) AppleWebKit/537.36 (KHTML, like Gecko) Chrome/138.0.0.0 Safari/537.36","WebKit","Chrome","138.0.0.0","Windows","10.0","https://app.prolific.com/","en-US,en;q=0.9","65f19a1fe38352676f83d5f0","683dba2a8a9dda3513610c04","688082402bfe975062dc988f","3","0","65f19a1fe38352676f83d5f0","3","0","2025-07-23T06:45:29.046Z","","","","","","","","","","","MotivationQ","","50","","","","","","","","","","","","","","","","","","","","","","","","","","","","",""
"","","","","ctl-task-cpt","74","702176","0.0-5.0-0.13","152","1","2025-07-23 06:34:03","1f75c3e559b7213887762d5229550c2b","51.36.171.66","Mozilla/5.0 (Windows NT 10.0; Win64; x64) AppleWebKit/537.36 (KHTML, like Gecko) Chrome/138.0.0.0 Safari/537.36","WebKit","Chrome","138.0.0.0","Windows","10.0","https://app.prolific.com/","en-US,en;q=0.9","65f19a1fe38352676f83d5f0","683dba2a8a9dda3513610c04","688082402bfe975062dc988f","3","0","65f19a1fe38352676f83d5f0","3","0","2025-07-23T06:45:48.236Z","","","","","","","","","","","","","","win-only","3","g1:SW,g2:NE","0.8","14","0","687665.5","886.8","5891.5","16165.3","1","4","4","6","1","1","1","2","1","0.015151515151515152","928.9","3000","1180","[""down"",""left""]","{""num_key_presses"":4,""num_perfect"":4,""num_errors"":0,""num_randdir"":0,""num_randdir_good_moves"":0,""num_whilered"":0,""num_whileblue"":0,""num_blue"":0,""num_good_moves"":4}","[419.0714133126395,424.07142761775424,0.4,419.0714133126395,424.07142761775424,103.7,419.0714133126395,424.07142761775424,208.9,419.0714133126395,424.07142761775424,310,419.0714133126395,424.07142761775424,413.8,419.0714133126395,424.07142761775424,518.9,264.0714133126395,556.5714276177542,624.5,85.3214133126395,721.5714276177542,727.7,81.5714133126395,722.8214276177542,828.7,81.5714133126395,722.8214276177542,936.6,81.5714133126395,722.8214276177542,1043.6,81.5714133126395,722.8214276177542,1144,81.5714133126395,722.8214276177542,1244.4,-88.4285866873605,681.5714276177542,1344.7,-183.4285866873605,652.8214276177542,1448.4,-183.4285866873605,652.8214276177542,1549.3,-183.4285866873605,652.8214276177542,1653.4,-183.4285866873605,652.8214276177542,1753.5,-183.4285866873605,652.8214276177542,1858.5,-183.4285866873605,652.8214276177542,1958.6,-183.4285866873605,652.8214276177542,2059.5,-183.4285866873605,652.8214276177542,2164.6,-183.4285866873605,652.8214276177542,2269.1,-183.4285866873605,652.8214276177542,2371,-183.4285866873605,652.8214276177542,2473.9,-183.4285866873605,652.8214276177542,2574.4,-183.4285866873605,652.8214276177542,2675,-183.4285866873605,652.8214276177542,2779.5,-183.4285866873605,652.8214276177542,2884.3,-183.4285866873605,652.8214276177542,2984.5,-183.4285866873605,652.8214276177542,3084.7,-183.4285866873605,652.8214276177542,3185.5,-183.4285866873605,652.8214276177542,3289.2,-183.4285866873605,652.8214276177542,3394.7,-183.4285866873605,652.8214276177542,3498.9,-183.4285866873605,652.8214276177542,3603.9,-183.4285866873605,652.8214276177542,3709.1,-183.4285866873605,652.8214276177542,3814.1,-183.4285866873605,652.8214276177542,3914.7,-183.4285866873605,652.8214276177542,4023.5,-183.4285866873605,652.8214276177542,4124.5,-183.4285866873605,652.8214276177542,4228.5,-183.4285866873605,652.8214276177542,4328.5,-183.4285866873605,652.8214276177542,4433.5,-183.4285866873605,652.8214276177542,4533.6,-183.4285866873605,652.8214276177542,4635.6,-183.4285866873605,652.8214276177542,4738.7,-183.4285866873605,652.8214276177542,4838.9,-183.4285866873605,652.8214276177542,4939.2]","[1457.8,1457.8,1000,0,457.8,""smooth"",""down"",""down"",""good_move"",4686.2,3228.2,2629.3,1458,598.9,""smooth"",""down"",""down"",""good_move"",7176.1,2489.7,1908.3,4686.5,581.3,""smooth"",""left"",""left"",""good_move"",10166.3,2989.9,2635,7176.4,354.9,""smooth"",""left"",""left"",""good_move""]","",""
"2847","","<div style=""width:500px;"">
  <p>What determined the result of this run?</p>
  </div>","31","html-slider-response","75","705023","0.0-5.0-1.13","152","1","2025-07-23 06:34:03","1f75c3e559b7213887762d5229550c2b","51.36.171.66","Mozilla/5.0 (Windows NT 10.0; Win64; x64) AppleWebKit/537.36 (KHTML, like Gecko) Chrome/138.0.0.0 Safari/537.36","WebKit","Chrome","138.0.0.0","Windows","10.0","https://app.prolific.com/","en-US,en;q=0.9","65f19a1fe38352676f83d5f0","683dba2a8a9dda3513610c04","688082402bfe975062dc988f","3","0","65f19a1fe38352676f83d5f0","3","0","2025-07-23T06:45:51.083Z","","","","","","","","","","","AttribQ","","50","","","","","","","","","","","","","","","","","","","","","","","","","","","","",""
"3127","","<div style=""width:500px;"">
  <p>How much control did you have over the ball?</p>
  </div>","31","html-slider-response","76","708152","0.0-5.0-2.13","152","1","2025-07-23 06:34:03","1f75c3e559b7213887762d5229550c2b","51.36.171.66","Mozilla/5.0 (Windows NT 10.0; Win64; x64) AppleWebKit/537.36 (KHTML, like Gecko) Chrome/138.0.0.0 Safari/537.36","WebKit","Chrome","138.0.0.0","Windows","10.0","https://app.prolific.com/","en-US,en;q=0.9","65f19a1fe38352676f83d5f0","683dba2a8a9dda3513610c04","688082402bfe975062dc988f","3","0","65f19a1fe38352676f83d5f0","3","0","2025-07-23T06:45:54.212Z","","","","","","","","","","","ControlQ","","50","","","","","","","","","","","","","","","","","","","","","","","","","","","","",""
"2468","","<div style=""width:500px;"">
  <p>How would you describe your current emotional state?</p>
  </div>","53","html-slider-response","77","710621","0.0-5.0-3.13","152","1","2025-07-23 06:34:03","1f75c3e559b7213887762d5229550c2b","51.36.171.66","Mozilla/5.0 (Windows NT 10.0; Win64; x64) AppleWebKit/537.36 (KHTML, like Gecko) Chrome/138.0.0.0 Safari/537.36","WebKit","Chrome","138.0.0.0","Windows","10.0","https://app.prolific.com/","en-US,en;q=0.9","65f19a1fe38352676f83d5f0","683dba2a8a9dda3513610c04","688082402bfe975062dc988f","3","0","65f19a1fe38352676f83d5f0","3","0","2025-07-23T06:45:56.681Z","","","","","","","","","","","StressQ","","50","","","","","","","","","","","","","","","","","","","","","","","","","","","","",""
"2707","","<div style=""width:500px;"">
  <p>What best describes how you currently feel?</p>
  </div>","46","html-slider-response","78","713328","0.0-5.0-4.13","152","1","2025-07-23 06:34:03","1f75c3e559b7213887762d5229550c2b","51.36.171.66","Mozilla/5.0 (Windows NT 10.0; Win64; x64) AppleWebKit/537.36 (KHTML, like Gecko) Chrome/138.0.0.0 Safari/537.36","WebKit","Chrome","138.0.0.0","Windows","10.0","https://app.prolific.com/","en-US,en;q=0.9","65f19a1fe38352676f83d5f0","683dba2a8a9dda3513610c04","688082402bfe975062dc988f","3","0","65f19a1fe38352676f83d5f0","3","0","2025-07-23T06:45:59.389Z","","","","","","","","","","","MotivationQ","","50","","","","","","","","","","","","","","","","","","","","","","","","","","","","",""
