"rt","response_timestamp","stimulus","response","trial_type","trial_index","time_elapsed","internal_node_id","run_id","condition","recorded_at","source_code_version","ip","user_agent","device","browser","browser_version","platform","platform_version","referer","accept_language","PROLIFIC_PID","STUDY_ID","SESSION_ID","WEEK","BATCH","prolific_id","week","batch","realtime","success","responses","item_order","radio_event_ids","radio_event_times","key_event_times","mouse_event_times","straightlining","zigzagging","honeypot","eventType","view_history","slider_start","which_type","canvas_config","goals_layout","control_level","trial_number","tutorial_trial_number","trial_start_time","phase1_start_time","phase2_start_time","phase3_start_time","goal_1_value","goal_1_distance","goal_2_value","goal_2_distance","goal_selected","outcome","outcome_total","participant_final_score","participant_initial_score","participant_final_score_prop","goal_choice_rt","allocated_time","allocated_time_remaining","goal_direction","counts","mouse_movements","key_presses","question_order","question_id"
"16803","1753887661097","<p style='font-size:40px;line-height:1.25'><strong>Welcome to the experiment!</strong></p><p style='font-size:1.1em;line-height:1.25'>Thank you for participanting in our experiment again! You will be asked to play the Dysfunctional Ball Game again. We will briefly recap the rules before we start.</p><p style='font-size:1.1em;line-height:1.25'>Press <strong>Next</strong> to continue.</p>","0","custom-html-button-response","0","16809","0.0-0.0","293","1","2025-07-30 15:00:47","1f75c3e559b7213887762d5229550c2b","41.116.43.245","Mozilla/5.0 (Windows NT 10.0; Win64; x64) AppleWebKit/537.36 (KHTML, like Gecko) Chrome/138.0.0.0 Safari/537.36","WebKit","Chrome","138.0.0.0","Windows","10.0","https://app.prolific.com/","en-GB,en-US;q=0.9,en;q=0.8","6744814c173b9afac78cf039","6877631c9844ddd5501205fc","688a3368d4c0c545d38cdc2d","3","1","6744814c173b9afac78cf039","3","1","2025-07-30T15:01:01.102Z","","","","","","","","","","","","","","","","","","","","","","","","","","","","","","","","","","","","","","","","","",""
"16570","","","","fullscreen","1","34396","0.0-1.0","293","1","2025-07-30 15:00:47","1f75c3e559b7213887762d5229550c2b","41.116.43.245","Mozilla/5.0 (Windows NT 10.0; Win64; x64) AppleWebKit/537.36 (KHTML, like Gecko) Chrome/138.0.0.0 Safari/537.36","WebKit","Chrome","138.0.0.0","Windows","10.0","https://app.prolific.com/","en-GB,en-US;q=0.9,en;q=0.8","6744814c173b9afac78cf039","6877631c9844ddd5501205fc","688a3368d4c0c545d38cdc2d","3","1","6744814c173b9afac78cf039","3","1","","true","","","","","","","","","","","","","","","","","","","","","","","","","","","","","","","","","","","","","","","","",""
"13041","1753887691734","<p style='font-size:1.1em;line-height:1.25'>In the following, we will ask you a few questions relating to your feelings in the last 24 hours.<br></p><p style='font-size:1.1em;line-height:1.25'>Press the <strong>Next</strong> button to continue.</p>","0","custom-html-button-response","2","47444","0.0-2.0-0.0","293","1","2025-07-30 15:00:47","1f75c3e559b7213887762d5229550c2b","41.116.43.245","Mozilla/5.0 (Windows NT 10.0; Win64; x64) AppleWebKit/537.36 (KHTML, like Gecko) Chrome/138.0.0.0 Safari/537.36","WebKit","Chrome","138.0.0.0","Windows","10.0","https://app.prolific.com/","en-GB,en-US;q=0.9,en;q=0.8","6744814c173b9afac78cf039","6877631c9844ddd5501205fc","688a3368d4c0c545d38cdc2d","3","1","6744814c173b9afac78cf039","3","1","2025-07-30T15:01:31.737Z","","","","","","","","","","","","","","","","","","","","","","","","","","","","","","","","","","","","","","","","","",""
"123162.69999998808","","","","survey-template","3","170625","0.0-2.0-1.0","293","1","2025-07-30 15:00:47","1f75c3e559b7213887762d5229550c2b","41.116.43.245","Mozilla/5.0 (Windows NT 10.0; Win64; x64) AppleWebKit/537.36 (KHTML, like Gecko) Chrome/138.0.0.0 Safari/537.36","WebKit","Chrome","138.0.0.0","Windows","10.0","https://app.prolific.com/","en-GB,en-US;q=0.9,en;q=0.8","6744814c173b9afac78cf039","6877631c9844ddd5501205fc","688a3368d4c0c545d38cdc2d","3","1","6744814c173b9afac78cf039","3","1","2025-07-30T15:03:34.917Z","","{""Q01"":""4"",""Q02"":""3"",""Q03"":""4"",""Q04"":""3"",""Q05"":""2"",""Q06"":""3"",""Q07"":""2"",""Q08"":""2"",""Q09"":""3"",""Q10"":""2"",""Q11"":""2"",""Q12"":""1"",""Q13"":""5"",""Q14"":""2"",""Q15"":""3"",""Q16"":""2"",""Q17"":""3"",""Q18"":""2"",""Q19"":""2"",""Q20"":""3"",""Q21"":""2"",""Q22"":""2""}","[0,1,2,3,4,5,6,7,8,9,10,11,12,13,14,15,16,17,18,19,20,21]","[""Q01"",""Q02"",""Q03"",""Q04"",""Q13"",""Q05"",""Q06"",""Q07"",""Q08"",""Q09"",""Q10"",""Q11"",""Q12"",""Q14"",""Q15"",""Q16"",""Q17"",""Q18"",""Q19"",""Q20"",""Q21"",""Q22""]","[36566,37837.59999999404,41251.40000000596,42991.30000001192,51046.59999999404,56248.19999998808,58328.80000001192,60074.19999998808,61290.09999999404,62831.19999998808,64908.80000001192,66214.30000001192,70815.90000000596,75669.59999999404,88708.5,90311.69999998808,94687.30000001192,96239.40000000596,98704.69999998808,101077.5,103749.5,106408.30000001192]","[]","[0.30000001192092896,34228.59999999404,36566,37837.59999999404,41251.40000000596,42991.30000001192,44241.90000000596,51046.59999999404,54684.69999998808,56248.19999998808,58328.80000001192,60074.19999998808,61290.09999999404,62831.19999998808,64908.80000001192,66214.30000001192,70815.90000000596,75669.59999999404,88708.5,90311.69999998808,92507.09999999404,94687.30000001192,96239.40000000596,97571.30000001192,98704.69999998808,101077.5,103749.5,106408.30000001192,123134.09999999404]","0.5","0.7142857142857143","0","drsp","","","","","","","","","","","","","","","","","","","","","","","","","","","","","","",""
"19766.600000023842","","","","survey-template","4","190395","0.0-2.0-2.0","293","1","2025-07-30 15:00:47","1f75c3e559b7213887762d5229550c2b","41.116.43.245","Mozilla/5.0 (Windows NT 10.0; Win64; x64) AppleWebKit/537.36 (KHTML, like Gecko) Chrome/138.0.0.0 Safari/537.36","WebKit","Chrome","138.0.0.0","Windows","10.0","https://app.prolific.com/","en-GB,en-US;q=0.9,en;q=0.8","6744814c173b9afac78cf039","6877631c9844ddd5501205fc","688a3368d4c0c545d38cdc2d","3","1","6744814c173b9afac78cf039","3","1","2025-07-30T15:03:54.687Z","","{""Q01"":""2"",""Q02"":""1"",""Q03"":""3""}","[0,1,2]","[""Q01"",""Q02"",""Q03""]","[9464.100000023842,12572.800000011921,16327.300000011921]","[]","[9464.100000023842,12572.800000011921,16327.300000011921,19765.100000023842]","0.3333333333333333","0.5","0","stress","","","","","","","","","","","","","","","","","","","","","","","","","","","","","","",""
"4430","","","","instructions","5","194826","0.0-3.0-0.0","293","1","2025-07-30 15:00:47","1f75c3e559b7213887762d5229550c2b","41.116.43.245","Mozilla/5.0 (Windows NT 10.0; Win64; x64) AppleWebKit/537.36 (KHTML, like Gecko) Chrome/138.0.0.0 Safari/537.36","WebKit","Chrome","138.0.0.0","Windows","10.0","https://app.prolific.com/","en-GB,en-US;q=0.9,en;q=0.8","6744814c173b9afac78cf039","6877631c9844ddd5501205fc","688a3368d4c0c545d38cdc2d","3","1","6744814c173b9afac78cf039","3","1","","","","","","","","","","","","","[{""page_index"":0,""viewing_time"":4428}]","","","","","","","","","","","","","","","","","","","","","","","","","","","","","",""
"7806","","<p>Before you start with this game please answer the following three questions yourself. </p>
  <p>Through this game, we measure several aspects of your cognitive performance, such as reaction times, multi-tasking capabilities </p>
  <p>and the ability to assess the situation you are in.</p>
  <p></p>
  <p><b>How good do you usually are in such tasks?</b></p>","89","html-slider-response","6","202638","0.0-4.0-0.0","293","1","2025-07-30 15:00:47","1f75c3e559b7213887762d5229550c2b","41.116.43.245","Mozilla/5.0 (Windows NT 10.0; Win64; x64) AppleWebKit/537.36 (KHTML, like Gecko) Chrome/138.0.0.0 Safari/537.36","WebKit","Chrome","138.0.0.0","Windows","10.0","https://app.prolific.com/","en-GB,en-US;q=0.9,en;q=0.8","6744814c173b9afac78cf039","6877631c9844ddd5501205fc","688a3368d4c0c545d38cdc2d","3","1","6744814c173b9afac78cf039","3","1","2025-07-30T15:04:06.930Z","","","","","","","","","","","PreSkillQ","","50","","","","","","","","","","","","","","","","","","","","","","","","","","","","",""
"11833","","<div style=""width:500px;"">
  <p>How well do you think you will perform in this task compared to other participants?</p>
  </div>","70","html-slider-response","7","214475","0.0-4.0-1.0","293","1","2025-07-30 15:00:47","1f75c3e559b7213887762d5229550c2b","41.116.43.245","Mozilla/5.0 (Windows NT 10.0; Win64; x64) AppleWebKit/537.36 (KHTML, like Gecko) Chrome/138.0.0.0 Safari/537.36","WebKit","Chrome","138.0.0.0","Windows","10.0","https://app.prolific.com/","en-GB,en-US;q=0.9,en;q=0.8","6744814c173b9afac78cf039","6877631c9844ddd5501205fc","688a3368d4c0c545d38cdc2d","3","1","6744814c173b9afac78cf039","3","1","2025-07-30T15:04:18.768Z","","","","","","","","","","","PrePerfQ","","50","","","","","","","","","","","","","","","","","","","","","","","","","","","","",""
"5819","","<div style=""width:500px;"">
  <p>What best describes how you currently feel?</p>
  </div>","76","html-slider-response","8","220299","0.0-4.0-2.0","293","1","2025-07-30 15:00:47","1f75c3e559b7213887762d5229550c2b","41.116.43.245","Mozilla/5.0 (Windows NT 10.0; Win64; x64) AppleWebKit/537.36 (KHTML, like Gecko) Chrome/138.0.0.0 Safari/537.36","WebKit","Chrome","138.0.0.0","Windows","10.0","https://app.prolific.com/","en-GB,en-US;q=0.9,en;q=0.8","6744814c173b9afac78cf039","6877631c9844ddd5501205fc","688a3368d4c0c545d38cdc2d","3","1","6744814c173b9afac78cf039","3","1","2025-07-30T15:04:24.591Z","","","","","","","","","","","PreMotivationQ","","50","","","","","","","","","","","","","","","","","","","","","","","","","","","","",""
"","","","","ctl-task-cpt","9","247677","0.0-5.0-0.0","293","1","2025-07-30 15:00:47","1f75c3e559b7213887762d5229550c2b","41.116.43.245","Mozilla/5.0 (Windows NT 10.0; Win64; x64) AppleWebKit/537.36 (KHTML, like Gecko) Chrome/138.0.0.0 Safari/537.36","WebKit","Chrome","138.0.0.0","Windows","10.0","https://app.prolific.com/","en-GB,en-US;q=0.9,en;q=0.8","6744814c173b9afac78cf039","6877631c9844ddd5501205fc","688a3368d4c0c545d38cdc2d","3","1","6744814c173b9afac78cf039","3","1","2025-07-30T15:04:51.969Z","","","","","","","","","","","","","","win-only","0","g1:NW,g2:SE","1","1","0","225551.6","1952.7","6957.3","24360.7","1","4","4","6","2","4","4","4","0","0.030303030303030304","5004.6","3000","1475","[""down"",""right""]","{""num_key_presses"":6,""num_perfect"":6,""num_errors"":0,""num_randdir"":0,""num_randdir_good_moves"":0,""num_whilered"":0,""num_whileblue"":0,""num_blue"":1,""num_good_moves"":6}","[298.22232142857143,296.12857142857143,0.5,298.22232142857143,296.12857142857143,104.3,298.22232142857143,296.12857142857143,207.9,298.22232142857143,296.12857142857143,312.6,298.22232142857143,296.12857142857143,418.8,298.22232142857143,296.12857142857143,522.7,298.22232142857143,296.12857142857143,624.6,298.22232142857143,296.12857142857143,733.9,298.22232142857143,296.12857142857143,841.7,298.22232142857143,296.12857142857143,943.4,298.22232142857143,296.12857142857143,1053.8,298.22232142857143,296.12857142857143,1153.9,298.22232142857143,296.12857142857143,1263.3,298.22232142857143,296.12857142857143,1373.9,298.22232142857143,296.12857142857143,1483.7,298.22232142857143,296.12857142857143,1583.8,298.22232142857143,296.12857142857143,1692.5,298.22232142857143,296.12857142857143,1792.7,298.22232142857143,296.12857142857143,1892.7,298.22232142857143,296.12857142857143,1992.9,298.22232142857143,296.12857142857143,2093.1,298.22232142857143,296.12857142857143,2194.9,298.22232142857143,296.12857142857143,2303.1,298.22232142857143,296.12857142857143,2403.8,298.22232142857143,296.12857142857143,2509.6,298.22232142857143,296.12857142857143,2614.4,298.22232142857143,296.12857142857143,2723.5,298.22232142857143,296.12857142857143,2824.5,298.22232142857143,296.12857142857143,2933.2,298.22232142857143,296.12857142857143,3036.4,298.22232142857143,296.12857142857143,3142.8,298.22232142857143,296.12857142857143,3254.3,298.22232142857143,296.12857142857143,3359.6,298.22232142857143,296.12857142857143,3459.7,298.22232142857143,296.12857142857143,3559.9,298.22232142857143,296.12857142857143,3660.5,298.22232142857143,296.12857142857143,3763.7,298.22232142857143,296.12857142857143,3873.6,298.22232142857143,296.12857142857143,3980.9,298.22232142857143,296.12857142857143,4080.9,298.22232142857143,296.12857142857143,4181.6,298.22232142857143,296.12857142857143,4293.4,298.22232142857143,296.12857142857143,4398.4,298.22232142857143,296.12857142857143,4503.5,298.22232142857143,296.12857142857143,4603.5,298.22232142857143,296.12857142857143,4703.8,298.22232142857143,296.12857142857143,4810,298.22232142857143,296.12857142857143,4910]","[1509.2,1509.1,1000,0.1,509.1,""smooth"",""right"",""right"",""good_move"",3754.9,2244.2,1871.1,1510.8,373,""smooth"",""right"",""right"",""good_move"",6596.4,2840.8,2520.5,3755.6,320.3,""smooth"",""right"",""right"",""good_move"",8838.4,2241.1,1721.1,6597.4,519.9,""smooth"",""down"",""down"",""good_move"",15057.2,6217.5,2631.2,11998.9,427.1,""smooth"",""down"",""down"",""good_move"",17272.9,2215.2,1788.1,15057.9,426.9,""smooth"",""down"",""down"",""good_move""]","",""
"4842","","<div style=""width:500px;"">
  <p>What determined the result of this run?</p>
  </div>","89","html-slider-response","10","252522","0.0-5.0-1.0","293","1","2025-07-30 15:00:47","1f75c3e559b7213887762d5229550c2b","41.116.43.245","Mozilla/5.0 (Windows NT 10.0; Win64; x64) AppleWebKit/537.36 (KHTML, like Gecko) Chrome/138.0.0.0 Safari/537.36","WebKit","Chrome","138.0.0.0","Windows","10.0","https://app.prolific.com/","en-GB,en-US;q=0.9,en;q=0.8","6744814c173b9afac78cf039","6877631c9844ddd5501205fc","688a3368d4c0c545d38cdc2d","3","1","6744814c173b9afac78cf039","3","1","2025-07-30T15:04:56.814Z","","","","","","","","","","","AttribQ","","50","","","","","","","","","","","","","","","","","","","","","","","","","","","","",""
"2672","","<div style=""width:500px;"">
  <p>How much control did you have over the ball?</p>
  </div>","77","html-slider-response","11","255197","0.0-5.0-2.0","293","1","2025-07-30 15:00:47","1f75c3e559b7213887762d5229550c2b","41.116.43.245","Mozilla/5.0 (Windows NT 10.0; Win64; x64) AppleWebKit/537.36 (KHTML, like Gecko) Chrome/138.0.0.0 Safari/537.36","WebKit","Chrome","138.0.0.0","Windows","10.0","https://app.prolific.com/","en-GB,en-US;q=0.9,en;q=0.8","6744814c173b9afac78cf039","6877631c9844ddd5501205fc","688a3368d4c0c545d38cdc2d","3","1","6744814c173b9afac78cf039","3","1","2025-07-30T15:04:59.490Z","","","","","","","","","","","ControlQ","","50","","","","","","","","","","","","","","","","","","","","","","","","","","","","",""
"3275","","<div style=""width:500px;"">
  <p>How would you describe your current emotional state?</p>
  </div>","44","html-slider-response","12","258476","0.0-5.0-3.0","293","1","2025-07-30 15:00:47","1f75c3e559b7213887762d5229550c2b","41.116.43.245","Mozilla/5.0 (Windows NT 10.0; Win64; x64) AppleWebKit/537.36 (KHTML, like Gecko) Chrome/138.0.0.0 Safari/537.36","WebKit","Chrome","138.0.0.0","Windows","10.0","https://app.prolific.com/","en-GB,en-US;q=0.9,en;q=0.8","6744814c173b9afac78cf039","6877631c9844ddd5501205fc","688a3368d4c0c545d38cdc2d","3","1","6744814c173b9afac78cf039","3","1","2025-07-30T15:05:02.769Z","","","","","","","","","","","StressQ","","50","","","","","","","","","","","","","","","","","","","","","","","","","","","","",""
"4414","","<div style=""width:500px;"">
  <p>What best describes how you currently feel?</p>
  </div>","70","html-slider-response","13","262894","0.0-5.0-4.0","293","1","2025-07-30 15:00:47","1f75c3e559b7213887762d5229550c2b","41.116.43.245","Mozilla/5.0 (Windows NT 10.0; Win64; x64) AppleWebKit/537.36 (KHTML, like Gecko) Chrome/138.0.0.0 Safari/537.36","WebKit","Chrome","138.0.0.0","Windows","10.0","https://app.prolific.com/","en-GB,en-US;q=0.9,en;q=0.8","6744814c173b9afac78cf039","6877631c9844ddd5501205fc","688a3368d4c0c545d38cdc2d","3","1","6744814c173b9afac78cf039","3","1","2025-07-30T15:05:07.187Z","","","","","","","","","","","MotivationQ","","50","","","","","","","","","","","","","","","","","","","","","","","","","","","","",""
"","","","","ctl-task-cpt","14","286246","0.0-5.0-0.1","293","1","2025-07-30 15:00:47","1f75c3e559b7213887762d5229550c2b","41.116.43.245","Mozilla/5.0 (Windows NT 10.0; Win64; x64) AppleWebKit/537.36 (KHTML, like Gecko) Chrome/138.0.0.0 Safari/537.36","WebKit","Chrome","138.0.0.0","Windows","10.0","https://app.prolific.com/","en-GB,en-US;q=0.9,en;q=0.8","6744814c173b9afac78cf039","6877631c9844ddd5501205fc","688a3368d4c0c545d38cdc2d","3","1","6744814c173b9afac78cf039","3","1","2025-07-30T15:05:30.538Z","","","","","","","","","","","","","","win-only","3","g1:SW,g2:NE","0.9","2","0","268139.4","1454.8","6458.3","20328.8","1","4","8","6","1","1","1","5","4","0.03787878787878788","5003.5","3000","1880","[""down"",""left""]","{""num_key_presses"":4,""num_perfect"":4,""num_errors"":0,""num_randdir"":0,""num_randdir_good_moves"":0,""num_whilered"":0,""num_whileblue"":0,""num_blue"":1,""num_good_moves"":4}","[297.22232142857143,297.12857142857143,0.7,297.22232142857143,297.12857142857143,103.6,297.22232142857143,297.12857142857143,207.8,297.22232142857143,297.12857142857143,312.9,297.22232142857143,297.12857142857143,413,297.22232142857143,297.12857142857143,521.4,297.22232142857143,297.12857142857143,627,297.22232142857143,297.12857142857143,733.1,297.22232142857143,297.12857142857143,833.3,297.22232142857143,297.12857142857143,938,297.22232142857143,297.12857142857143,1043.1,297.22232142857143,297.12857142857143,1152.9,297.22232142857143,297.12857142857143,1253.5,297.22232142857143,297.12857142857143,1358.9,297.22232142857143,297.12857142857143,1463.7,297.22232142857143,297.12857142857143,1571.7,297.22232142857143,297.12857142857143,1682.4,297.22232142857143,297.12857142857143,1783.3,297.22232142857143,297.12857142857143,1887.9,297.22232142857143,297.12857142857143,1988,297.22232142857143,297.12857142857143,2088,297.22232142857143,297.12857142857143,2188.7,297.22232142857143,297.12857142857143,2292.8,297.22232142857143,297.12857142857143,2402.3,297.22232142857143,297.12857142857143,2505.9,297.22232142857143,297.12857142857143,2609.3,297.22232142857143,297.12857142857143,2709.3,297.22232142857143,297.12857142857143,2811,297.22232142857143,297.12857142857143,2911.4,297.22232142857143,297.12857142857143,3023.7,297.22232142857143,297.12857142857143,3132.9,297.22232142857143,297.12857142857143,3238.4,297.22232142857143,297.12857142857143,3338.4,297.22232142857143,297.12857142857143,3438.6,297.22232142857143,297.12857142857143,3538.6,297.22232142857143,297.12857142857143,3638.8,297.22232142857143,297.12857142857143,3742.9,297.22232142857143,297.12857142857143,3853.7,297.22232142857143,297.12857142857143,3959.5,297.22232142857143,297.12857142857143,4064.1,297.22232142857143,297.12857142857143,4172.2,297.22232142857143,297.12857142857143,4272.6,296.22232142857143,297.12857142857143,4372.7,296.22232142857143,297.12857142857143,4482.4,296.22232142857143,297.12857142857143,4583.4,296.22232142857143,297.12857142857143,4689,296.22232142857143,297.12857142857143,4789.1,296.22232142857143,297.12857142857143,4889.2,296.22232142857143,297.12857142857143,4991.1]","[1375.3,1375.3,1000,0,375.3,""smooth"",""left"",""left"",""good_move"",4127.1,2750.7,2369.5,1376.4,381.2,""smooth"",""left"",""left"",""good_move"",7165.2,3037.3,2656.3,4127.9,381,""smooth"",""down"",""down"",""good_move"",13715.8,6549.3,2600.5,10502.7,612.6,""smooth"",""down"",""down"",""good_move""]","",""
"3991","","<div style=""width:500px;"">
  <p>What determined the result of this run?</p>
  </div>","82","html-slider-response","15","290240","0.0-5.0-1.1","293","1","2025-07-30 15:00:47","1f75c3e559b7213887762d5229550c2b","41.116.43.245","Mozilla/5.0 (Windows NT 10.0; Win64; x64) AppleWebKit/537.36 (KHTML, like Gecko) Chrome/138.0.0.0 Safari/537.36","WebKit","Chrome","138.0.0.0","Windows","10.0","https://app.prolific.com/","en-GB,en-US;q=0.9,en;q=0.8","6744814c173b9afac78cf039","6877631c9844ddd5501205fc","688a3368d4c0c545d38cdc2d","3","1","6744814c173b9afac78cf039","3","1","2025-07-30T15:05:34.532Z","","","","","","","","","","","AttribQ","","50","","","","","","","","","","","","","","","","","","","","","","","","","","","","",""
"6329","","<div style=""width:500px;"">
  <p>How much control did you have over the ball?</p>
  </div>","78","html-slider-response","16","296573","0.0-5.0-2.1","293","1","2025-07-30 15:00:47","1f75c3e559b7213887762d5229550c2b","41.116.43.245","Mozilla/5.0 (Windows NT 10.0; Win64; x64) AppleWebKit/537.36 (KHTML, like Gecko) Chrome/138.0.0.0 Safari/537.36","WebKit","Chrome","138.0.0.0","Windows","10.0","https://app.prolific.com/","en-GB,en-US;q=0.9,en;q=0.8","6744814c173b9afac78cf039","6877631c9844ddd5501205fc","688a3368d4c0c545d38cdc2d","3","1","6744814c173b9afac78cf039","3","1","2025-07-30T15:05:40.865Z","","","","","","","","","","","ControlQ","","50","","","","","","","","","","","","","","","","","","","","","","","","","","","","",""
"4363","","<div style=""width:500px;"">
  <p>How would you describe your current emotional state?</p>
  </div>","30","html-slider-response","17","300938","0.0-5.0-3.1","293","1","2025-07-30 15:00:47","1f75c3e559b7213887762d5229550c2b","41.116.43.245","Mozilla/5.0 (Windows NT 10.0; Win64; x64) AppleWebKit/537.36 (KHTML, like Gecko) Chrome/138.0.0.0 Safari/537.36","WebKit","Chrome","138.0.0.0","Windows","10.0","https://app.prolific.com/","en-GB,en-US;q=0.9,en;q=0.8","6744814c173b9afac78cf039","6877631c9844ddd5501205fc","688a3368d4c0c545d38cdc2d","3","1","6744814c173b9afac78cf039","3","1","2025-07-30T15:05:45.230Z","","","","","","","","","","","StressQ","","50","","","","","","","","","","","","","","","","","","","","","","","","","","","","",""
"3894","","<div style=""width:500px;"">
  <p>What best describes how you currently feel?</p>
  </div>","80","html-slider-response","18","304835","0.0-5.0-4.1","293","1","2025-07-30 15:00:47","1f75c3e559b7213887762d5229550c2b","41.116.43.245","Mozilla/5.0 (Windows NT 10.0; Win64; x64) AppleWebKit/537.36 (KHTML, like Gecko) Chrome/138.0.0.0 Safari/537.36","WebKit","Chrome","138.0.0.0","Windows","10.0","https://app.prolific.com/","en-GB,en-US;q=0.9,en;q=0.8","6744814c173b9afac78cf039","6877631c9844ddd5501205fc","688a3368d4c0c545d38cdc2d","3","1","6744814c173b9afac78cf039","3","1","2025-07-30T15:05:49.127Z","","","","","","","","","","","MotivationQ","","50","","","","","","","","","","","","","","","","","","","","","","","","","","","","",""
"","","","","ctl-task-cpt","19","337459","0.0-5.0-0.2","293","1","2025-07-30 15:00:47","1f75c3e559b7213887762d5229550c2b","41.116.43.245","Mozilla/5.0 (Windows NT 10.0; Win64; x64) AppleWebKit/537.36 (KHTML, like Gecko) Chrome/138.0.0.0 Safari/537.36","WebKit","Chrome","138.0.0.0","Windows","10.0","https://app.prolific.com/","en-GB,en-US;q=0.9,en;q=0.8","6744814c173b9afac78cf039","6877631c9844ddd5501205fc","688a3368d4c0c545d38cdc2d","3","1","6744814c173b9afac78cf039","3","1","2025-07-30T15:06:21.751Z","","","","","","","","","","","","","","win-only","0","g1:NW,g2:SE","0.8","3","0","310080.2","1364.7","6373.8","29607.4","1","4","4","6","1","1","1","6","5","0.045454545454545456","5009.1","3000","1360","[""left"",""up""]","{""num_key_presses"":6,""num_perfect"":5,""num_errors"":0,""num_randdir"":1,""num_randdir_good_moves"":0,""num_whilered"":0,""num_whileblue"":0,""num_blue"":2,""num_good_moves"":5}","[299.22232142857143,305.12857142857143,0.9,299.22232142857143,305.12857142857143,106.2,299.22232142857143,305.12857142857143,224.4,299.22232142857143,305.12857142857143,326.8,299.22232142857143,305.12857142857143,437,299.22232142857143,305.12857142857143,538.3,299.22232142857143,305.12857142857143,641.1,299.22232142857143,305.12857142857143,741.2,299.22232142857143,305.12857142857143,844.4,299.22232142857143,305.12857142857143,945.7,299.22232142857143,305.12857142857143,1046,299.22232142857143,305.12857142857143,1156.5,299.22232142857143,305.12857142857143,1257.7,299.22232142857143,305.12857142857143,1358,299.22232142857143,305.12857142857143,1468.5,299.22232142857143,305.12857142857143,1573.6,299.22232142857143,305.12857142857143,1675.4,299.22232142857143,305.12857142857143,1787.1,299.22232142857143,305.12857142857143,1888.1,299.22232142857143,305.12857142857143,1994.6,299.22232142857143,305.12857142857143,2098.1,299.22232142857143,305.12857142857143,2198.3,299.22232142857143,305.12857142857143,2309,299.22232142857143,305.12857142857143,2417,299.22232142857143,305.12857142857143,2518.4,299.22232142857143,305.12857142857143,2638.2,299.22232142857143,305.12857142857143,2738.4,299.22232142857143,305.12857142857143,2847.7,299.22232142857143,305.12857142857143,2957.4,299.22232142857143,305.12857142857143,3065.1,299.22232142857143,305.12857142857143,3168.6,299.22232142857143,305.12857142857143,3274.9,299.22232142857143,305.12857142857143,3376.3,299.22232142857143,305.12857142857143,3485.4,299.22232142857143,305.12857142857143,3586.1,299.22232142857143,305.12857142857143,3687.2,299.22232142857143,305.12857142857143,3787.4,299.22232142857143,305.12857142857143,3888.5,299.22232142857143,305.12857142857143,3991.6,299.22232142857143,305.12857142857143,4098.2,299.22232142857143,305.12857142857143,4208.2,299.22232142857143,305.12857142857143,4317.3,299.22232142857143,305.12857142857143,4425.2,299.22232142857143,305.12857142857143,4535.4,299.22232142857143,305.12857142857143,4637,299.22232142857143,305.12857142857143,4739.4,299.22232142857143,305.12857142857143,4841.9,299.22232142857143,305.12857142857143,4947.7]","[1410.6,1410.6,1000,0,410.6,""smooth"",""left"",""left"",""good_move"",4355.4,2943.9,2583.2,1411.5,360.7,""smooth"",""left"",""left"",""good_move"",10676.8,6319.2,2086.6,8137.8,452.4,""oops"",""up"",""right"",""bad_move"",17217.1,6539.5,2873.4,13738.4,605.3,""smooth"",""up"",""up"",""good_move"",20196.9,2979.1,2569.3,17217.8,409.8,""smooth"",""up"",""up"",""good_move"",23083.3,2885,2528.7,20198.3,356.3,""smooth"",""left"",""left"",""good_move""]","",""
"3501","","<div style=""width:500px;"">
  <p>What determined the result of this run?</p>
  </div>","78","html-slider-response","20","340963","0.0-5.0-1.2","293","1","2025-07-30 15:00:47","1f75c3e559b7213887762d5229550c2b","41.116.43.245","Mozilla/5.0 (Windows NT 10.0; Win64; x64) AppleWebKit/537.36 (KHTML, like Gecko) Chrome/138.0.0.0 Safari/537.36","WebKit","Chrome","138.0.0.0","Windows","10.0","https://app.prolific.com/","en-GB,en-US;q=0.9,en;q=0.8","6744814c173b9afac78cf039","6877631c9844ddd5501205fc","688a3368d4c0c545d38cdc2d","3","1","6744814c173b9afac78cf039","3","1","2025-07-30T15:06:25.255Z","","","","","","","","","","","AttribQ","","50","","","","","","","","","","","","","","","","","","","","","","","","","","","","",""
"3048","","<div style=""width:500px;"">
  <p>How much control did you have over the ball?</p>
  </div>","77","html-slider-response","21","344013","0.0-5.0-2.2","293","1","2025-07-30 15:00:47","1f75c3e559b7213887762d5229550c2b","41.116.43.245","Mozilla/5.0 (Windows NT 10.0; Win64; x64) AppleWebKit/537.36 (KHTML, like Gecko) Chrome/138.0.0.0 Safari/537.36","WebKit","Chrome","138.0.0.0","Windows","10.0","https://app.prolific.com/","en-GB,en-US;q=0.9,en;q=0.8","6744814c173b9afac78cf039","6877631c9844ddd5501205fc","688a3368d4c0c545d38cdc2d","3","1","6744814c173b9afac78cf039","3","1","2025-07-30T15:06:28.305Z","","","","","","","","","","","ControlQ","","50","","","","","","","","","","","","","","","","","","","","","","","","","","","","",""
"5030","","<div style=""width:500px;"">
  <p>How would you describe your current emotional state?</p>
  </div>","33","html-slider-response","22","349045","0.0-5.0-3.2","293","1","2025-07-30 15:00:47","1f75c3e559b7213887762d5229550c2b","41.116.43.245","Mozilla/5.0 (Windows NT 10.0; Win64; x64) AppleWebKit/537.36 (KHTML, like Gecko) Chrome/138.0.0.0 Safari/537.36","WebKit","Chrome","138.0.0.0","Windows","10.0","https://app.prolific.com/","en-GB,en-US;q=0.9,en;q=0.8","6744814c173b9afac78cf039","6877631c9844ddd5501205fc","688a3368d4c0c545d38cdc2d","3","1","6744814c173b9afac78cf039","3","1","2025-07-30T15:06:33.337Z","","","","","","","","","","","StressQ","","50","","","","","","","","","","","","","","","","","","","","","","","","","","","","",""
"5885","","<div style=""width:500px;"">
  <p>What best describes how you currently feel?</p>
  </div>","67","html-slider-response","23","354932","0.0-5.0-4.2","293","1","2025-07-30 15:00:47","1f75c3e559b7213887762d5229550c2b","41.116.43.245","Mozilla/5.0 (Windows NT 10.0; Win64; x64) AppleWebKit/537.36 (KHTML, like Gecko) Chrome/138.0.0.0 Safari/537.36","WebKit","Chrome","138.0.0.0","Windows","10.0","https://app.prolific.com/","en-GB,en-US;q=0.9,en;q=0.8","6744814c173b9afac78cf039","6877631c9844ddd5501205fc","688a3368d4c0c545d38cdc2d","3","1","6744814c173b9afac78cf039","3","1","2025-07-30T15:06:39.224Z","","","","","","","","","","","MotivationQ","","50","","","","","","","","","","","","","","","","","","","","","","","","","","","","",""
"","","","","ctl-task-cpt","24","392526","0.0-5.0-0.3","293","1","2025-07-30 15:00:47","1f75c3e559b7213887762d5229550c2b","41.116.43.245","Mozilla/5.0 (Windows NT 10.0; Win64; x64) AppleWebKit/537.36 (KHTML, like Gecko) Chrome/138.0.0.0 Safari/537.36","WebKit","Chrome","138.0.0.0","Windows","10.0","https://app.prolific.com/","en-GB,en-US;q=0.9,en;q=0.8","6744814c173b9afac78cf039","6877631c9844ddd5501205fc","688a3368d4c0c545d38cdc2d","3","1","6744814c173b9afac78cf039","3","1","2025-07-30T15:07:16.818Z","","","","","","","","","","","","","","win-only","2","g1:SE,g2:NW","0.7","4","0","360177","1772.9","6783.8","34583","1","4","8","6","2","8","8","14","6","0.10606060606060606","5010.8","3000","1615","[""left"",""up""]","{""num_key_presses"":6,""num_perfect"":5,""num_errors"":0,""num_randdir"":1,""num_randdir_good_moves"":1,""num_whilered"":0,""num_whileblue"":0,""num_blue"":3,""num_good_moves"":6}","[295.22232142857143,301.12857142857143,1.1,295.22232142857143,301.12857142857143,112.8,295.22232142857143,301.12857142857143,225.8,295.22232142857143,301.12857142857143,329.1,295.22232142857143,301.12857142857143,438.5,295.22232142857143,301.12857142857143,541.1,295.22232142857143,301.12857142857143,643.1,295.22232142857143,301.12857142857143,757,295.22232142857143,301.12857142857143,860,295.22232142857143,301.12857142857143,969.5,295.22232142857143,301.12857142857143,1077,295.22232142857143,301.12857142857143,1193.5,295.22232142857143,301.12857142857143,1294.4,295.22232142857143,301.12857142857143,1399.7,295.22232142857143,301.12857142857143,1510.6,295.22232142857143,301.12857142857143,1612.7,295.22232142857143,301.12857142857143,1712.8,295.22232142857143,301.12857142857143,1813,295.22232142857143,301.12857142857143,1913.6,295.22232142857143,301.12857142857143,2014,295.22232142857143,301.12857142857143,2118.8,295.22232142857143,301.12857142857143,2219.8,295.22232142857143,301.12857142857143,2326,295.22232142857143,301.12857142857143,2429.4,295.22232142857143,301.12857142857143,2539.4,295.22232142857143,301.12857142857143,2639.9,295.22232142857143,301.12857142857143,2745.9,295.22232142857143,301.12857142857143,2864.4,295.22232142857143,301.12857142857143,2977.9,295.22232142857143,301.12857142857143,3078.5,295.22232142857143,301.12857142857143,3179.5,295.22232142857143,301.12857142857143,3289.5,295.22232142857143,301.12857142857143,3404.3,295.22232142857143,301.12857142857143,3505.1,295.22232142857143,301.12857142857143,3609.4,295.22232142857143,301.12857142857143,3716.6,295.22232142857143,301.12857142857143,3823.3,295.22232142857143,301.12857142857143,3929,295.22232142857143,301.12857142857143,4034.7,295.22232142857143,301.12857142857143,4139.5,295.22232142857143,301.12857142857143,4243.5,295.22232142857143,301.12857142857143,4356.8,295.22232142857143,301.12857142857143,4459.8,295.22232142857143,301.12857142857143,4563.5,295.22232142857143,301.12857142857143,4668.5,295.22232142857143,301.12857142857143,4769.3,295.22232142857143,301.12857142857143,4869.8,295.22232142857143,301.12857142857143,4975.9]","[4995.7,4995.7,2583.5,2022.3,389.9,""oops"",""left"",""left"",""good_move"",11142.2,6144.5,2877.1,7837,428.1,""smooth"",""left"",""left"",""good_move"",14293.7,3150.9,2660.2,11142.8,490.7,""smooth"",""left"",""left"",""good_move"",21679.5,7385,2519.8,18677.6,482.1,""smooth"",""up"",""up"",""good_move"",24707.1,3026.8,2523,21680.3,503.8,""smooth"",""up"",""up"",""good_move"",27599,2890.2,2571,24708.8,319.2,""smooth"",""up"",""up"",""good_move""]","",""
"4650","","<div style=""width:500px;"">
  <p>What determined the result of this run?</p>
  </div>","86","html-slider-response","25","397178","0.0-5.0-1.3","293","1","2025-07-30 15:00:47","1f75c3e559b7213887762d5229550c2b","41.116.43.245","Mozilla/5.0 (Windows NT 10.0; Win64; x64) AppleWebKit/537.36 (KHTML, like Gecko) Chrome/138.0.0.0 Safari/537.36","WebKit","Chrome","138.0.0.0","Windows","10.0","https://app.prolific.com/","en-GB,en-US;q=0.9,en;q=0.8","6744814c173b9afac78cf039","6877631c9844ddd5501205fc","688a3368d4c0c545d38cdc2d","3","1","6744814c173b9afac78cf039","3","1","2025-07-30T15:07:21.470Z","","","","","","","","","","","AttribQ","","50","","","","","","","","","","","","","","","","","","","","","","","","","","","","",""
"3417","","<div style=""width:500px;"">
  <p>How much control did you have over the ball?</p>
  </div>","73","html-slider-response","26","400597","0.0-5.0-2.3","293","1","2025-07-30 15:00:47","1f75c3e559b7213887762d5229550c2b","41.116.43.245","Mozilla/5.0 (Windows NT 10.0; Win64; x64) AppleWebKit/537.36 (KHTML, like Gecko) Chrome/138.0.0.0 Safari/537.36","WebKit","Chrome","138.0.0.0","Windows","10.0","https://app.prolific.com/","en-GB,en-US;q=0.9,en;q=0.8","6744814c173b9afac78cf039","6877631c9844ddd5501205fc","688a3368d4c0c545d38cdc2d","3","1","6744814c173b9afac78cf039","3","1","2025-07-30T15:07:24.889Z","","","","","","","","","","","ControlQ","","50","","","","","","","","","","","","","","","","","","","","","","","","","","","","",""
"3329","","<div style=""width:500px;"">
  <p>How would you describe your current emotional state?</p>
  </div>","31","html-slider-response","27","403928","0.0-5.0-3.3","293","1","2025-07-30 15:00:47","1f75c3e559b7213887762d5229550c2b","41.116.43.245","Mozilla/5.0 (Windows NT 10.0; Win64; x64) AppleWebKit/537.36 (KHTML, like Gecko) Chrome/138.0.0.0 Safari/537.36","WebKit","Chrome","138.0.0.0","Windows","10.0","https://app.prolific.com/","en-GB,en-US;q=0.9,en;q=0.8","6744814c173b9afac78cf039","6877631c9844ddd5501205fc","688a3368d4c0c545d38cdc2d","3","1","6744814c173b9afac78cf039","3","1","2025-07-30T15:07:28.220Z","","","","","","","","","","","StressQ","","50","","","","","","","","","","","","","","","","","","","","","","","","","","","","",""
"3806","","<div style=""width:500px;"">
  <p>What best describes how you currently feel?</p>
  </div>","69","html-slider-response","28","407736","0.0-5.0-4.3","293","1","2025-07-30 15:00:47","1f75c3e559b7213887762d5229550c2b","41.116.43.245","Mozilla/5.0 (Windows NT 10.0; Win64; x64) AppleWebKit/537.36 (KHTML, like Gecko) Chrome/138.0.0.0 Safari/537.36","WebKit","Chrome","138.0.0.0","Windows","10.0","https://app.prolific.com/","en-GB,en-US;q=0.9,en;q=0.8","6744814c173b9afac78cf039","6877631c9844ddd5501205fc","688a3368d4c0c545d38cdc2d","3","1","6744814c173b9afac78cf039","3","1","2025-07-30T15:07:32.028Z","","","","","","","","","","","MotivationQ","","50","","","","","","","","","","","","","","","","","","","","","","","","","","","","",""
"","","","","ctl-task-cpt","29","449992","0.0-5.0-0.4","293","1","2025-07-30 15:00:47","1f75c3e559b7213887762d5229550c2b","41.116.43.245","Mozilla/5.0 (Windows NT 10.0; Win64; x64) AppleWebKit/537.36 (KHTML, like Gecko) Chrome/138.0.0.0 Safari/537.36","WebKit","Chrome","138.0.0.0","Windows","10.0","https://app.prolific.com/","en-GB,en-US;q=0.9,en;q=0.8","6744814c173b9afac78cf039","6877631c9844ddd5501205fc","688a3368d4c0c545d38cdc2d","3","1","6744814c173b9afac78cf039","3","1","2025-07-30T15:08:14.284Z","","","","","","","","","","","","","","win-only","2","g1:SE,g2:NW","0.6","5","0","412981.8","1489.7","6511.4","39217.7","1","4","8","6","2","8","8","22","14","0.16666666666666666","5021.7","3000","690","[""left"",""up""]","{""num_key_presses"":8,""num_perfect"":5,""num_errors"":0,""num_randdir"":3,""num_randdir_good_moves"":2,""num_whilered"":0,""num_whileblue"":0,""num_blue"":3,""num_good_moves"":7}","[295.22232142857143,287.12857142857143,0.7,295.22232142857143,287.12857142857143,101.5,295.22232142857143,287.12857142857143,210,295.22232142857143,287.12857142857143,312,295.22232142857143,287.12857142857143,418.1,295.22232142857143,287.12857142857143,518.1,295.22232142857143,287.12857142857143,620.1,295.22232142857143,287.12857142857143,721.2,295.22232142857143,287.12857142857143,826.3,295.22232142857143,287.12857142857143,932.4,295.22232142857143,287.12857142857143,1033.3,295.22232142857143,287.12857142857143,1135.8,295.22232142857143,287.12857142857143,1255,295.22232142857143,287.12857142857143,1362,295.22232142857143,287.12857142857143,1470.8,295.22232142857143,287.12857142857143,1582,295.22232142857143,287.12857142857143,1697.4,295.22232142857143,287.12857142857143,1801.7,295.22232142857143,287.12857142857143,1902.5,295.22232142857143,287.12857142857143,2014.5,295.22232142857143,287.12857142857143,2127.2,295.22232142857143,287.12857142857143,2231.2,295.22232142857143,287.12857142857143,2331.6,295.22232142857143,287.12857142857143,2441.1,295.22232142857143,287.12857142857143,2541.2,295.22232142857143,287.12857142857143,2647.1,295.22232142857143,287.12857142857143,2759.9,295.22232142857143,287.12857142857143,2882.1,295.22232142857143,287.12857142857143,2995.6,295.22232142857143,287.12857142857143,3096.5,295.22232142857143,287.12857142857143,3216.5,295.22232142857143,287.12857142857143,3320.6,295.22232142857143,287.12857142857143,3431,295.22232142857143,287.12857142857143,3540.1,295.22232142857143,287.12857142857143,3640.1,295.22232142857143,287.12857142857143,3744.9,295.22232142857143,287.12857142857143,3868.4,295.22232142857143,287.12857142857143,3972.5,295.22232142857143,287.12857142857143,4072.7,295.22232142857143,287.12857142857143,4180.5,295.22232142857143,287.12857142857143,4282.3,295.22232142857143,287.12857142857143,4391.4,295.22232142857143,287.12857142857143,4532,295.22232142857143,287.12857142857143,4634.5,295.22232142857143,287.12857142857143,4734.5,295.22232142857143,287.12857142857143,4840.2,295.22232142857143,287.12857142857143,4945.6]","[4694.3,4694.3,2215,2009.4,469.9,""smooth"",""left"",""left"",""good_move"",10831.2,6135.6,2765.1,7516.4,549.7,""oops"",""left"",""up"",""good_move"",13576.6,2744.5,2271.7,10832.1,472.8,""smooth"",""left"",""left"",""good_move"",20274.4,6695.6,2718.9,17157.2,398.4,""smooth"",""left"",""left"",""good_move"",23437.2,3162.1,2610.9,20275.1,551.2,""oops"",""up"",""down"",""bad_move"",26479,3037.7,2253.6,23441.3,784.1,""oops"",""up"",""up"",""good_move"",29949.9,3468.9,2850.9,26481.1,617.9,""smooth"",""up"",""up"",""good_move"",32542.8,2592.1,1923,29950.7,669.1,""smooth"",""up"",""up"",""good_move""]","",""
"13248","","<div style=""width:500px;"">
  <p>What determined the result of this run?</p>
  </div>","85","html-slider-response","30","463242","0.0-5.0-1.4","293","1","2025-07-30 15:00:47","1f75c3e559b7213887762d5229550c2b","41.116.43.245","Mozilla/5.0 (Windows NT 10.0; Win64; x64) AppleWebKit/537.36 (KHTML, like Gecko) Chrome/138.0.0.0 Safari/537.36","WebKit","Chrome","138.0.0.0","Windows","10.0","https://app.prolific.com/","en-GB,en-US;q=0.9,en;q=0.8","6744814c173b9afac78cf039","6877631c9844ddd5501205fc","688a3368d4c0c545d38cdc2d","3","1","6744814c173b9afac78cf039","3","1","2025-07-30T15:08:27.534Z","","","","","","","","","","","AttribQ","","50","","","","","","","","","","","","","","","","","","","","","","","","","","","","",""
"7449","","<div style=""width:500px;"">
  <p>How much control did you have over the ball?</p>
  </div>","70","html-slider-response","31","470693","0.0-5.0-2.4","293","1","2025-07-30 15:00:47","1f75c3e559b7213887762d5229550c2b","41.116.43.245","Mozilla/5.0 (Windows NT 10.0; Win64; x64) AppleWebKit/537.36 (KHTML, like Gecko) Chrome/138.0.0.0 Safari/537.36","WebKit","Chrome","138.0.0.0","Windows","10.0","https://app.prolific.com/","en-GB,en-US;q=0.9,en;q=0.8","6744814c173b9afac78cf039","6877631c9844ddd5501205fc","688a3368d4c0c545d38cdc2d","3","1","6744814c173b9afac78cf039","3","1","2025-07-30T15:08:34.986Z","","","","","","","","","","","ControlQ","","50","","","","","","","","","","","","","","","","","","","","","","","","","","","","",""
"6702","","<div style=""width:500px;"">
  <p>How would you describe your current emotional state?</p>
  </div>","25","html-slider-response","32","477398","0.0-5.0-3.4","293","1","2025-07-30 15:00:47","1f75c3e559b7213887762d5229550c2b","41.116.43.245","Mozilla/5.0 (Windows NT 10.0; Win64; x64) AppleWebKit/537.36 (KHTML, like Gecko) Chrome/138.0.0.0 Safari/537.36","WebKit","Chrome","138.0.0.0","Windows","10.0","https://app.prolific.com/","en-GB,en-US;q=0.9,en;q=0.8","6744814c173b9afac78cf039","6877631c9844ddd5501205fc","688a3368d4c0c545d38cdc2d","3","1","6744814c173b9afac78cf039","3","1","2025-07-30T15:08:41.690Z","","","","","","","","","","","StressQ","","50","","","","","","","","","","","","","","","","","","","","","","","","","","","","",""
"7355","","<div style=""width:500px;"">
  <p>What best describes how you currently feel?</p>
  </div>","75","html-slider-response","33","484756","0.0-5.0-4.4","293","1","2025-07-30 15:00:47","1f75c3e559b7213887762d5229550c2b","41.116.43.245","Mozilla/5.0 (Windows NT 10.0; Win64; x64) AppleWebKit/537.36 (KHTML, like Gecko) Chrome/138.0.0.0 Safari/537.36","WebKit","Chrome","138.0.0.0","Windows","10.0","https://app.prolific.com/","en-GB,en-US;q=0.9,en;q=0.8","6744814c173b9afac78cf039","6877631c9844ddd5501205fc","688a3368d4c0c545d38cdc2d","3","1","6744814c173b9afac78cf039","3","1","2025-07-30T15:08:49.048Z","","","","","","","","","","","MotivationQ","","50","","","","","","","","","","","","","","","","","","","","","","","","","","","","",""
"","","","","ctl-task-cpt","34","518960","0.0-5.0-0.5","293","1","2025-07-30 15:00:47","1f75c3e559b7213887762d5229550c2b","41.116.43.245","Mozilla/5.0 (Windows NT 10.0; Win64; x64) AppleWebKit/537.36 (KHTML, like Gecko) Chrome/138.0.0.0 Safari/537.36","WebKit","Chrome","138.0.0.0","Windows","10.0","https://app.prolific.com/","en-GB,en-US;q=0.9,en;q=0.8","6744814c173b9afac78cf039","6877631c9844ddd5501205fc","688a3368d4c0c545d38cdc2d","3","1","6744814c173b9afac78cf039","3","1","2025-07-30T15:09:23.252Z","","","","","","","","","","","","","","win-only","0","g1:NW,g2:SE","0.5","6","0","490000.6","1508.9","6520.5","31191.6","1","4","4","6","2","4","4","26","22","0.19696969696969696","5011.6","3000","1430","[""down"",""right""]","{""num_key_presses"":6,""num_perfect"":3,""num_errors"":0,""num_randdir"":3,""num_randdir_good_moves"":3,""num_whilered"":0,""num_whileblue"":0,""num_blue"":2,""num_good_moves"":6}","[297.22232142857143,293.12857142857143,0.8,297.22232142857143,293.12857142857143,136,297.22232142857143,293.12857142857143,244,297.22232142857143,293.12857142857143,368.4,297.22232142857143,293.12857142857143,469.5,297.22232142857143,293.12857142857143,574.5,297.22232142857143,293.12857142857143,676.1,297.22232142857143,293.12857142857143,778.7,297.22232142857143,293.12857142857143,886.9,297.22232142857143,293.12857142857143,997.1,297.22232142857143,293.12857142857143,1099.8,297.22232142857143,293.12857142857143,1202.8,297.22232142857143,293.12857142857143,1304.4,297.22232142857143,293.12857142857143,1410.9,297.22232142857143,293.12857142857143,1511.7,297.22232142857143,293.12857142857143,1613.1,297.22232142857143,293.12857142857143,1729.8,297.22232142857143,293.12857142857143,1841.1,297.22232142857143,293.12857142857143,1943.8,297.22232142857143,293.12857142857143,2053,297.22232142857143,293.12857142857143,2157.5,297.22232142857143,293.12857142857143,2267.1,297.22232142857143,293.12857142857143,2373.1,297.22232142857143,293.12857142857143,2486.6,297.22232142857143,293.12857142857143,2602.8,297.22232142857143,293.12857142857143,2712.5,297.22232142857143,293.12857142857143,2819,297.22232142857143,293.12857142857143,2924.1,297.22232142857143,293.12857142857143,3026.2,297.22232142857143,293.12857142857143,3127.3,297.22232142857143,293.12857142857143,3233.1,297.22232142857143,293.12857142857143,3359.7,297.22232142857143,293.12857142857143,3479.4,297.22232142857143,293.12857142857143,3579.6,297.22232142857143,293.12857142857143,3683.7,297.22232142857143,293.12857142857143,3784,297.22232142857143,293.12857142857143,3886.2,297.22232142857143,293.12857142857143,3992.5,297.22232142857143,293.12857142857143,4110.3,297.22232142857143,293.12857142857143,4243.2,297.22232142857143,293.12857142857143,4343.4,297.22232142857143,293.12857142857143,4447.7,297.22232142857143,293.12857142857143,4553.5,297.22232142857143,293.12857142857143,4658.7,297.22232142857143,293.12857142857143,4761.2,297.22232142857143,293.12857142857143,4862.9,297.22232142857143,293.12857142857143,4968.2]","[5234.2,5234.3,2491.4,2026.3,716.6,""smooth"",""right"",""right"",""good_move"",8313.7,3078.4,2476.5,5235.3,601.9,""smooth"",""right"",""right"",""good_move"",11513,3198.4,2784.9,8314.7,413.4,""oops"",""right"",""down"",""good_move"",18138.9,6624.8,2510.7,15187.8,440.4,""smooth"",""right"",""right"",""good_move"",21465.6,3322.9,2656.8,18142.7,666.1,""oops"",""down"",""down"",""good_move"",24498.3,3031.7,2474.5,21466.6,557.2,""oops"",""down"",""down"",""good_move""]","",""
"6310","","<div style=""width:500px;"">
  <p>What determined the result of this run?</p>
  </div>","86","html-slider-response","35","525272","0.0-5.0-1.5","293","1","2025-07-30 15:00:47","1f75c3e559b7213887762d5229550c2b","41.116.43.245","Mozilla/5.0 (Windows NT 10.0; Win64; x64) AppleWebKit/537.36 (KHTML, like Gecko) Chrome/138.0.0.0 Safari/537.36","WebKit","Chrome","138.0.0.0","Windows","10.0","https://app.prolific.com/","en-GB,en-US;q=0.9,en;q=0.8","6744814c173b9afac78cf039","6877631c9844ddd5501205fc","688a3368d4c0c545d38cdc2d","3","1","6744814c173b9afac78cf039","3","1","2025-07-30T15:09:29.565Z","","","","","","","","","","","AttribQ","","50","","","","","","","","","","","","","","","","","","","","","","","","","","","","",""
"3025","","<div style=""width:500px;"">
  <p>How much control did you have over the ball?</p>
  </div>","73","html-slider-response","36","528300","0.0-5.0-2.5","293","1","2025-07-30 15:00:47","1f75c3e559b7213887762d5229550c2b","41.116.43.245","Mozilla/5.0 (Windows NT 10.0; Win64; x64) AppleWebKit/537.36 (KHTML, like Gecko) Chrome/138.0.0.0 Safari/537.36","WebKit","Chrome","138.0.0.0","Windows","10.0","https://app.prolific.com/","en-GB,en-US;q=0.9,en;q=0.8","6744814c173b9afac78cf039","6877631c9844ddd5501205fc","688a3368d4c0c545d38cdc2d","3","1","6744814c173b9afac78cf039","3","1","2025-07-30T15:09:32.593Z","","","","","","","","","","","ControlQ","","50","","","","","","","","","","","","","","","","","","","","","","","","","","","","",""
"5291","","<div style=""width:500px;"">
  <p>How would you describe your current emotional state?</p>
  </div>","22","html-slider-response","37","533595","0.0-5.0-3.5","293","1","2025-07-30 15:00:47","1f75c3e559b7213887762d5229550c2b","41.116.43.245","Mozilla/5.0 (Windows NT 10.0; Win64; x64) AppleWebKit/537.36 (KHTML, like Gecko) Chrome/138.0.0.0 Safari/537.36","WebKit","Chrome","138.0.0.0","Windows","10.0","https://app.prolific.com/","en-GB,en-US;q=0.9,en;q=0.8","6744814c173b9afac78cf039","6877631c9844ddd5501205fc","688a3368d4c0c545d38cdc2d","3","1","6744814c173b9afac78cf039","3","1","2025-07-30T15:09:37.888Z","","","","","","","","","","","StressQ","","50","","","","","","","","","","","","","","","","","","","","","","","","","","","","",""
"9311","","<div style=""width:500px;"">
  <p>What best describes how you currently feel?</p>
  </div>","79","html-slider-response","38","542909","0.0-5.0-4.5","293","1","2025-07-30 15:00:47","1f75c3e559b7213887762d5229550c2b","41.116.43.245","Mozilla/5.0 (Windows NT 10.0; Win64; x64) AppleWebKit/537.36 (KHTML, like Gecko) Chrome/138.0.0.0 Safari/537.36","WebKit","Chrome","138.0.0.0","Windows","10.0","https://app.prolific.com/","en-GB,en-US;q=0.9,en;q=0.8","6744814c173b9afac78cf039","6877631c9844ddd5501205fc","688a3368d4c0c545d38cdc2d","3","1","6744814c173b9afac78cf039","3","1","2025-07-30T15:09:47.202Z","","","","","","","","","","","MotivationQ","","50","","","","","","","","","","","","","","","","","","","","","","","","","","","","",""
"","","","","ctl-task-cpt","39","570490","0.0-5.0-0.6","293","1","2025-07-30 15:00:47","1f75c3e559b7213887762d5229550c2b","41.116.43.245","Mozilla/5.0 (Windows NT 10.0; Win64; x64) AppleWebKit/537.36 (KHTML, like Gecko) Chrome/138.0.0.0 Safari/537.36","WebKit","Chrome","138.0.0.0","Windows","10.0","https://app.prolific.com/","en-GB,en-US;q=0.9,en;q=0.8","6744814c173b9afac78cf039","6877631c9844ddd5501205fc","688a3368d4c0c545d38cdc2d","3","1","6744814c173b9afac78cf039","3","1","2025-07-30T15:10:14.782Z","","","","","","","","","","","","","","win-only","0","g1:NW,g2:SE","0.4","7","0","548155.1","2262.1","7270.3","24566.5","1","4","4","6","1","1","1","27","26","0.20454545454545456","5008.2","3000","1990","[""left"",""up""]","{""num_key_presses"":4,""num_perfect"":2,""num_errors"":0,""num_randdir"":2,""num_randdir_good_moves"":2,""num_whilered"":0,""num_whileblue"":0,""num_blue"":2,""num_good_moves"":4}","[291.22232142857143,297.12857142857143,0.7,291.22232142857143,297.12857142857143,123.5,291.22232142857143,297.12857142857143,225.2,291.22232142857143,297.12857142857143,334,291.22232142857143,297.12857142857143,443.8,291.22232142857143,297.12857142857143,547.5,291.22232142857143,297.12857142857143,656.3,291.22232142857143,297.12857142857143,796.3,291.22232142857143,297.12857142857143,897.5,291.22232142857143,297.12857142857143,1000.6,291.22232142857143,297.12857142857143,1108.1,291.22232142857143,297.12857142857143,1209.7,291.22232142857143,297.12857142857143,1339.3,291.22232142857143,297.12857142857143,1443.9,291.22232142857143,297.12857142857143,1569.1,291.22232142857143,297.12857142857143,1688.1,291.22232142857143,297.12857142857143,1810.7,291.22232142857143,297.12857142857143,1914.7,300.22232142857143,276.12857142857143,2028.2,304.22232142857143,277.12857142857143,2129.8,304.22232142857143,277.12857142857143,2242.4,304.22232142857143,277.12857142857143,2362.2,304.22232142857143,277.12857142857143,2471.8,304.22232142857143,277.12857142857143,2598.6,304.22232142857143,277.12857142857143,2701.9,304.22232142857143,277.12857142857143,2809.5,304.22232142857143,277.12857142857143,2912,304.22232142857143,277.12857142857143,3015.8,304.22232142857143,277.12857142857143,3126.1,304.22232142857143,277.12857142857143,3229.1,304.22232142857143,277.12857142857143,3330,304.22232142857143,277.12857142857143,3448.4,304.22232142857143,277.12857142857143,3569.1,304.22232142857143,277.12857142857143,3693.4,304.22232142857143,277.12857142857143,3794.1,304.22232142857143,277.12857142857143,3913.9,304.22232142857143,277.12857142857143,4035.5,304.22232142857143,277.12857142857143,4160.2,304.22232142857143,277.12857142857143,4261,304.22232142857143,277.12857142857143,4368.8,304.22232142857143,277.12857142857143,4497.1,304.22232142857143,277.12857142857143,4613.7,304.22232142857143,277.12857142857143,4714.8,304.22232142857143,277.12857142857143,4818.3,304.22232142857143,277.12857142857143,4919.7]","[7878.7,7878.7,2532.8,4620.3,725.6,""smooth"",""left"",""left"",""good_move"",10360,2480.1,1944.2,7879.9,535.9,""oops"",""left"",""up"",""good_move"",13327.9,2966.3,2461.7,10361.6,504.6,""oops"",""left"",""left"",""good_move"",17069.8,3738.8,3030.3,13331,708.5,""smooth"",""up"",""up"",""good_move""]","",""
"7346","","<div style=""width:500px;"">
  <p>What determined the result of this run?</p>
  </div>","86","html-slider-response","40","577839","0.0-5.0-1.6","293","1","2025-07-30 15:00:47","1f75c3e559b7213887762d5229550c2b","41.116.43.245","Mozilla/5.0 (Windows NT 10.0; Win64; x64) AppleWebKit/537.36 (KHTML, like Gecko) Chrome/138.0.0.0 Safari/537.36","WebKit","Chrome","138.0.0.0","Windows","10.0","https://app.prolific.com/","en-GB,en-US;q=0.9,en;q=0.8","6744814c173b9afac78cf039","6877631c9844ddd5501205fc","688a3368d4c0c545d38cdc2d","3","1","6744814c173b9afac78cf039","3","1","2025-07-30T15:10:22.131Z","","","","","","","","","","","AttribQ","","50","","","","","","","","","","","","","","","","","","","","","","","","","","","","",""
"6123","","<div style=""width:500px;"">
  <p>How much control did you have over the ball?</p>
  </div>","78","html-slider-response","41","583964","0.0-5.0-2.6","293","1","2025-07-30 15:00:47","1f75c3e559b7213887762d5229550c2b","41.116.43.245","Mozilla/5.0 (Windows NT 10.0; Win64; x64) AppleWebKit/537.36 (KHTML, like Gecko) Chrome/138.0.0.0 Safari/537.36","WebKit","Chrome","138.0.0.0","Windows","10.0","https://app.prolific.com/","en-GB,en-US;q=0.9,en;q=0.8","6744814c173b9afac78cf039","6877631c9844ddd5501205fc","688a3368d4c0c545d38cdc2d","3","1","6744814c173b9afac78cf039","3","1","2025-07-30T15:10:28.256Z","","","","","","","","","","","ControlQ","","50","","","","","","","","","","","","","","","","","","","","","","","","","","","","",""
"4709","","<div style=""width:500px;"">
  <p>How would you describe your current emotional state?</p>
  </div>","21","html-slider-response","42","588675","0.0-5.0-3.6","293","1","2025-07-30 15:00:47","1f75c3e559b7213887762d5229550c2b","41.116.43.245","Mozilla/5.0 (Windows NT 10.0; Win64; x64) AppleWebKit/537.36 (KHTML, like Gecko) Chrome/138.0.0.0 Safari/537.36","WebKit","Chrome","138.0.0.0","Windows","10.0","https://app.prolific.com/","en-GB,en-US;q=0.9,en;q=0.8","6744814c173b9afac78cf039","6877631c9844ddd5501205fc","688a3368d4c0c545d38cdc2d","3","1","6744814c173b9afac78cf039","3","1","2025-07-30T15:10:32.967Z","","","","","","","","","","","StressQ","","50","","","","","","","","","","","","","","","","","","","","","","","","","","","","",""
"5166","","<div style=""width:500px;"">
  <p>What best describes how you currently feel?</p>
  </div>","75","html-slider-response","43","593844","0.0-5.0-4.6","293","1","2025-07-30 15:00:47","1f75c3e559b7213887762d5229550c2b","41.116.43.245","Mozilla/5.0 (Windows NT 10.0; Win64; x64) AppleWebKit/537.36 (KHTML, like Gecko) Chrome/138.0.0.0 Safari/537.36","WebKit","Chrome","138.0.0.0","Windows","10.0","https://app.prolific.com/","en-GB,en-US;q=0.9,en;q=0.8","6744814c173b9afac78cf039","6877631c9844ddd5501205fc","688a3368d4c0c545d38cdc2d","3","1","6744814c173b9afac78cf039","3","1","2025-07-30T15:10:38.136Z","","","","","","","","","","","MotivationQ","","50","","","","","","","","","","","","","","","","","","","","","","","","","","","","",""
"","","","","ctl-task-cpt","44","640451","0.0-5.0-0.7","293","1","2025-07-30 15:00:47","1f75c3e559b7213887762d5229550c2b","41.116.43.245","Mozilla/5.0 (Windows NT 10.0; Win64; x64) AppleWebKit/537.36 (KHTML, like Gecko) Chrome/138.0.0.0 Safari/537.36","WebKit","Chrome","138.0.0.0","Windows","10.0","https://app.prolific.com/","en-GB,en-US;q=0.9,en;q=0.8","6744814c173b9afac78cf039","6877631c9844ddd5501205fc","688a3368d4c0c545d38cdc2d","3","1","6744814c173b9afac78cf039","3","1","2025-07-30T15:11:24.743Z","","","","","","","","","","","","","","win-only","3","g1:SW,g2:NE","0.3","8","0","599089.2","8108.9","13111.1","43594.7","1","4","8","6","1","-1","-1","26","27","0.19696969696969696","5002.2","3000","-1040","[""down"",""left""]","{""num_key_presses"":6,""num_perfect"":2,""num_errors"":0,""num_randdir"":4,""num_randdir_good_moves"":0,""num_whilered"":0,""num_whileblue"":0,""num_blue"":1,""num_good_moves"":2}","[292.22232142857143,292.12857142857143,0.9,292.22232142857143,292.12857142857143,101.9,292.22232142857143,292.12857142857143,204.4,292.22232142857143,292.12857142857143,321.6,292.22232142857143,292.12857142857143,423.7,292.22232142857143,292.12857142857143,561.9,292.22232142857143,292.12857142857143,698.7,292.22232142857143,292.12857142857143,814.7,292.22232142857143,292.12857142857143,916.5,292.22232142857143,292.12857142857143,1054.1,292.22232142857143,292.12857142857143,1155.7,292.22232142857143,292.12857142857143,1263.5,292.22232142857143,292.12857142857143,1367.9,292.22232142857143,292.12857142857143,1480.1,292.22232142857143,292.12857142857143,1589.6,292.22232142857143,292.12857142857143,1697.2,292.22232142857143,292.12857142857143,1799.3,292.22232142857143,292.12857142857143,1935.5,292.22232142857143,292.12857142857143,2039.1,292.22232142857143,292.12857142857143,2142,292.22232142857143,292.12857142857143,2242.4,292.22232142857143,292.12857142857143,2367,292.22232142857143,292.12857142857143,2497.8,292.22232142857143,292.12857142857143,2608.7,292.22232142857143,292.12857142857143,2718.5,292.22232142857143,292.12857142857143,2820.5,292.22232142857143,292.12857142857143,2921,292.22232142857143,292.12857142857143,3034.2,292.22232142857143,292.12857142857143,3147.4,292.22232142857143,292.12857142857143,3258.3,292.22232142857143,292.12857142857143,3393.6,292.22232142857143,292.12857142857143,3509.2,292.22232142857143,292.12857142857143,3624.7,292.22232142857143,292.12857142857143,3747.4,292.22232142857143,292.12857142857143,3880.6,292.22232142857143,292.12857142857143,4026.5,292.22232142857143,292.12857142857143,4127.5,292.22232142857143,292.12857142857143,4229.8,292.22232142857143,292.12857142857143,4359.3,292.22232142857143,292.12857142857143,4490.7,292.22232142857143,292.12857142857143,4618.5,292.22232142857143,292.12857142857143,4744,292.22232142857143,292.12857142857143,4908.3]","[1503.2,1503.2,1000,0,503.2,""smooth"",""left"",""left"",""good_move"",5138.6,3634.3,3205.5,1504.3,428.8,""smooth"",""left"",""left"",""good_move"",13122.6,7981.7,2492,8781.2,1849.4,""oops"",""down"",""right"",""bad_move"",17746.2,4622.8,2866.1,13123.5,1756.7,""oops"",""down"",""right"",""bad_move"",20978.4,3231.1,2678.4,17747.3,552.7,""oops"",""left"",""right"",""bad_move"",25207.2,4227.6,3403.3,20979.6,824.3,""oops"",""down"",""right"",""bad_move""]","",""
"5288","","<div style=""width:500px;"">
  <p>What determined the result of this run?</p>
  </div>","79","html-slider-response","45","645742","0.0-5.0-1.7","293","1","2025-07-30 15:00:47","1f75c3e559b7213887762d5229550c2b","41.116.43.245","Mozilla/5.0 (Windows NT 10.0; Win64; x64) AppleWebKit/537.36 (KHTML, like Gecko) Chrome/138.0.0.0 Safari/537.36","WebKit","Chrome","138.0.0.0","Windows","10.0","https://app.prolific.com/","en-GB,en-US;q=0.9,en;q=0.8","6744814c173b9afac78cf039","6877631c9844ddd5501205fc","688a3368d4c0c545d38cdc2d","3","1","6744814c173b9afac78cf039","3","1","2025-07-30T15:11:30.034Z","","","","","","","","","","","AttribQ","","50","","","","","","","","","","","","","","","","","","","","","","","","","","","","",""
"5480","","<div style=""width:500px;"">
  <p>How much control did you have over the ball?</p>
  </div>","79","html-slider-response","46","651224","0.0-5.0-2.7","293","1","2025-07-30 15:00:47","1f75c3e559b7213887762d5229550c2b","41.116.43.245","Mozilla/5.0 (Windows NT 10.0; Win64; x64) AppleWebKit/537.36 (KHTML, like Gecko) Chrome/138.0.0.0 Safari/537.36","WebKit","Chrome","138.0.0.0","Windows","10.0","https://app.prolific.com/","en-GB,en-US;q=0.9,en;q=0.8","6744814c173b9afac78cf039","6877631c9844ddd5501205fc","688a3368d4c0c545d38cdc2d","3","1","6744814c173b9afac78cf039","3","1","2025-07-30T15:11:35.516Z","","","","","","","","","","","ControlQ","","50","","","","","","","","","","","","","","","","","","","","","","","","","","","","",""
"4957","","<div style=""width:500px;"">
  <p>How would you describe your current emotional state?</p>
  </div>","35","html-slider-response","47","656184","0.0-5.0-3.7","293","1","2025-07-30 15:00:47","1f75c3e559b7213887762d5229550c2b","41.116.43.245","Mozilla/5.0 (Windows NT 10.0; Win64; x64) AppleWebKit/537.36 (KHTML, like Gecko) Chrome/138.0.0.0 Safari/537.36","WebKit","Chrome","138.0.0.0","Windows","10.0","https://app.prolific.com/","en-GB,en-US;q=0.9,en;q=0.8","6744814c173b9afac78cf039","6877631c9844ddd5501205fc","688a3368d4c0c545d38cdc2d","3","1","6744814c173b9afac78cf039","3","1","2025-07-30T15:11:40.476Z","","","","","","","","","","","StressQ","","50","","","","","","","","","","","","","","","","","","","","","","","","","","","","",""
"5775","","<div style=""width:500px;"">
  <p>What best describes how you currently feel?</p>
  </div>","53","html-slider-response","48","661961","0.0-5.0-4.7","293","1","2025-07-30 15:00:47","1f75c3e559b7213887762d5229550c2b","41.116.43.245","Mozilla/5.0 (Windows NT 10.0; Win64; x64) AppleWebKit/537.36 (KHTML, like Gecko) Chrome/138.0.0.0 Safari/537.36","WebKit","Chrome","138.0.0.0","Windows","10.0","https://app.prolific.com/","en-GB,en-US;q=0.9,en;q=0.8","6744814c173b9afac78cf039","6877631c9844ddd5501205fc","688a3368d4c0c545d38cdc2d","3","1","6744814c173b9afac78cf039","3","1","2025-07-30T15:11:46.253Z","","","","","","","","","","","MotivationQ","","50","","","","","","","","","","","","","","","","","","","","","","","","","","","","",""
"","","","","ctl-task-cpt","49","755294","0.0-5.0-0.8","293","1","2025-07-30 15:00:47","1f75c3e559b7213887762d5229550c2b","41.116.43.245","Mozilla/5.0 (Windows NT 10.0; Win64; x64) AppleWebKit/537.36 (KHTML, like Gecko) Chrome/138.0.0.0 Safari/537.36","WebKit","Chrome","138.0.0.0","Windows","10.0","https://app.prolific.com/","en-GB,en-US;q=0.9,en;q=0.8","6744814c173b9afac78cf039","6877631c9844ddd5501205fc","688a3368d4c0c545d38cdc2d","3","1","6744814c173b9afac78cf039","3","1","2025-07-30T15:13:19.586Z","","","","","","","","","","","","","","win-only","2","g1:SE,g2:NW","0.2","9","0","667206","13396.3","18410.1","90307.9","1","4","8","6","1","-1","-1","25","26","0.1893939393939394","5013.8","3000","-945","[""down"",""right""]","{""num_key_presses"":18,""num_perfect"":4,""num_errors"":0,""num_randdir"":14,""num_randdir_good_moves"":5,""num_whilered"":0,""num_whileblue"":0,""num_blue"":3,""num_good_moves"":9}","[301.22232142857143,292.12857142857143,0.8,301.22232142857143,292.12857142857143,107.1,301.22232142857143,292.12857142857143,209.5,301.22232142857143,292.12857142857143,366.4,301.22232142857143,292.12857142857143,473.9,301.22232142857143,292.12857142857143,576.8,301.22232142857143,292.12857142857143,731.3,301.22232142857143,292.12857142857143,835.3,301.22232142857143,292.12857142857143,937.9,301.22232142857143,292.12857142857143,1038.4,301.22232142857143,292.12857142857143,1161.2,301.22232142857143,292.12857142857143,1275.8,301.22232142857143,292.12857142857143,1380,301.22232142857143,292.12857142857143,1509.9,301.22232142857143,292.12857142857143,1611.5,301.22232142857143,292.12857142857143,1715.6,301.22232142857143,292.12857142857143,1822.8,301.22232142857143,292.12857142857143,1942.7,301.22232142857143,292.12857142857143,2057.4,301.22232142857143,292.12857142857143,2157.5,301.22232142857143,292.12857142857143,2258,301.22232142857143,292.12857142857143,2360.6,301.22232142857143,292.12857142857143,2467.8,301.22232142857143,292.12857142857143,2571.1,301.22232142857143,292.12857142857143,2690.2,301.22232142857143,292.12857142857143,2806,301.22232142857143,292.12857142857143,2913.1,301.22232142857143,292.12857142857143,3017.3,301.22232142857143,292.12857142857143,3134.3,301.22232142857143,292.12857142857143,3250.4,301.22232142857143,292.12857142857143,3368.3,301.22232142857143,292.12857142857143,3479.4,301.22232142857143,292.12857142857143,3586.4,301.22232142857143,292.12857142857143,3711.1,301.22232142857143,292.12857142857143,3837.6,301.22232142857143,292.12857142857143,3940.6,301.22232142857143,292.12857142857143,4042.1,301.22232142857143,292.12857142857143,4146.3,301.22232142857143,292.12857142857143,4249.6,301.22232142857143,292.12857142857143,4352.8,301.22232142857143,292.12857142857143,4463.5,301.22232142857143,292.12857142857143,4566.5,301.22232142857143,292.12857142857143,4671,301.22232142857143,292.12857142857143,4788.5,301.22232142857143,292.12857142857143,4891.6]","[1574.8,1574.8,1000,0,574.8,""oops"",""right"",""up"",""bad_move"",4844.9,3268.9,2816.9,1576.1,451.9,""oops"",""right"",""left"",""bad_move"",8037.4,3191.3,2883.3,4846.1,308,""oops"",""right"",""up"",""bad_move"",11742.5,3700,3271.8,8042.5,428.2,""smooth"",""right"",""right"",""good_move"",14885.1,3141.4,2548.6,11743.7,592.8,""oops"",""right"",""down"",""good_move"",18325.7,3439.3,2723.1,14886.4,716.2,""smooth"",""right"",""right"",""good_move"",25822.6,7494.6,3137.6,22069.9,615.1,""oops"",""right"",""up"",""bad_move"",29198,3374.8,2609.2,25823.2,765.6,""oops"",""right"",""up"",""bad_move"",32763,3562.9,3020,29200.1,542.9,""oops"",""right"",""left"",""bad_move"",39243.4,6479.3,2730.3,35958.7,554.4,""oops"",""right"",""down"",""good_move"",42143.7,2899.3,2347.4,39244.4,551.9,""oops"",""right"",""up"",""bad_move"",45899.6,3754.8,2467,42144.8,1287.8,""oops"",""right"",""right"",""good_move"",48361.9,2461.2,1987.7,45900.8,473.4,""oops"",""right"",""right"",""good_move"",51355.4,2992.4,2615.2,48363,377.2,""oops"",""down"",""left"",""bad_move"",54719.6,3362.9,2019.9,51356.8,1342.9,""oops"",""down"",""left"",""bad_move"",58607.3,3886.7,2843.5,54720.6,1043.2,""oops"",""down"",""down"",""good_move"",62301.4,3684.5,2790.3,58616.9,894.3,""smooth"",""down"",""down"",""good_move"",65008.1,2705.8,2355.4,62302.4,350.3,""smooth"",""down"",""down"",""good_move""]","",""
"4067","","<div style=""width:500px;"">
  <p>What determined the result of this run?</p>
  </div>","84","html-slider-response","50","759365","0.0-5.0-1.8","293","1","2025-07-30 15:00:47","1f75c3e559b7213887762d5229550c2b","41.116.43.245","Mozilla/5.0 (Windows NT 10.0; Win64; x64) AppleWebKit/537.36 (KHTML, like Gecko) Chrome/138.0.0.0 Safari/537.36","WebKit","Chrome","138.0.0.0","Windows","10.0","https://app.prolific.com/","en-GB,en-US;q=0.9,en;q=0.8","6744814c173b9afac78cf039","6877631c9844ddd5501205fc","688a3368d4c0c545d38cdc2d","3","1","6744814c173b9afac78cf039","3","1","2025-07-30T15:13:23.657Z","","","","","","","","","","","AttribQ","","50","","","","","","","","","","","","","","","","","","","","","","","","","","","","",""
"7242","","<div style=""width:500px;"">
  <p>How much control did you have over the ball?</p>
  </div>","0","html-slider-response","51","766610","0.0-5.0-2.8","293","1","2025-07-30 15:00:47","1f75c3e559b7213887762d5229550c2b","41.116.43.245","Mozilla/5.0 (Windows NT 10.0; Win64; x64) AppleWebKit/537.36 (KHTML, like Gecko) Chrome/138.0.0.0 Safari/537.36","WebKit","Chrome","138.0.0.0","Windows","10.0","https://app.prolific.com/","en-GB,en-US;q=0.9,en;q=0.8","6744814c173b9afac78cf039","6877631c9844ddd5501205fc","688a3368d4c0c545d38cdc2d","3","1","6744814c173b9afac78cf039","3","1","2025-07-30T15:13:30.902Z","","","","","","","","","","","ControlQ","","50","","","","","","","","","","","","","","","","","","","","","","","","","","","","",""
"7331","","<div style=""width:500px;"">
  <p>How would you describe your current emotional state?</p>
  </div>","14","html-slider-response","52","773945","0.0-5.0-3.8","293","1","2025-07-30 15:00:47","1f75c3e559b7213887762d5229550c2b","41.116.43.245","Mozilla/5.0 (Windows NT 10.0; Win64; x64) AppleWebKit/537.36 (KHTML, like Gecko) Chrome/138.0.0.0 Safari/537.36","WebKit","Chrome","138.0.0.0","Windows","10.0","https://app.prolific.com/","en-GB,en-US;q=0.9,en;q=0.8","6744814c173b9afac78cf039","6877631c9844ddd5501205fc","688a3368d4c0c545d38cdc2d","3","1","6744814c173b9afac78cf039","3","1","2025-07-30T15:13:38.237Z","","","","","","","","","","","StressQ","","50","","","","","","","","","","","","","","","","","","","","","","","","","","","","",""
"17148","","<div style=""width:500px;"">
  <p>What best describes how you currently feel?</p>
  </div>","74","html-slider-response","53","791097","0.0-5.0-4.8","293","1","2025-07-30 15:00:47","1f75c3e559b7213887762d5229550c2b","41.116.43.245","Mozilla/5.0 (Windows NT 10.0; Win64; x64) AppleWebKit/537.36 (KHTML, like Gecko) Chrome/138.0.0.0 Safari/537.36","WebKit","Chrome","138.0.0.0","Windows","10.0","https://app.prolific.com/","en-GB,en-US;q=0.9,en;q=0.8","6744814c173b9afac78cf039","6877631c9844ddd5501205fc","688a3368d4c0c545d38cdc2d","3","1","6744814c173b9afac78cf039","3","1","2025-07-30T15:13:55.390Z","","","","","","","","","","","MotivationQ","","50","","","","","","","","","","","","","","","","","","","","","","","","","","","","",""
"","","","","ctl-task-cpt","54","840677","0.0-5.0-0.9","293","1","2025-07-30 15:00:47","1f75c3e559b7213887762d5229550c2b","41.116.43.245","Mozilla/5.0 (Windows NT 10.0; Win64; x64) AppleWebKit/537.36 (KHTML, like Gecko) Chrome/138.0.0.0 Safari/537.36","WebKit","Chrome","138.0.0.0","Windows","10.0","https://app.prolific.com/","en-GB,en-US;q=0.9,en;q=0.8","6744814c173b9afac78cf039","6877631c9844ddd5501205fc","688a3368d4c0c545d38cdc2d","3","1","6744814c173b9afac78cf039","3","1","2025-07-30T15:14:44.969Z","","","","","","","","","","","","","","win-only","2","g1:SE,g2:NW","0.4","10","0","796344.1","10231.1","15244.3","46537","1","4","4","6","1","1","1","26","25","0.19696969696969696","5013.2","3000","1745","[""down"",""right""]","{""num_key_presses"":8,""num_perfect"":4,""num_errors"":0,""num_randdir"":4,""num_randdir_good_moves"":2,""num_whilered"":0,""num_whileblue"":0,""num_blue"":1,""num_good_moves"":6}","[289.22232142857143,293.12857142857143,2.2,289.22232142857143,293.12857142857143,152.8,289.22232142857143,293.12857142857143,255.1,289.22232142857143,293.12857142857143,356.1,289.22232142857143,293.12857142857143,475.2,289.22232142857143,293.12857142857143,575.8,289.22232142857143,293.12857142857143,676.6,289.22232142857143,293.12857142857143,779.7,289.22232142857143,293.12857142857143,880.9,289.22232142857143,293.12857142857143,999,289.22232142857143,293.12857142857143,1130.2,289.22232142857143,293.12857142857143,1270.7,289.22232142857143,293.12857142857143,1377.9,289.22232142857143,293.12857142857143,1477.9,289.22232142857143,293.12857142857143,1585.9,289.22232142857143,293.12857142857143,1690.7,289.22232142857143,293.12857142857143,1793.6,289.22232142857143,293.12857142857143,1932.8,289.22232142857143,293.12857142857143,2036.1,289.22232142857143,293.12857142857143,2200.7,289.22232142857143,293.12857142857143,2306.4,289.22232142857143,293.12857142857143,2487.9,289.22232142857143,293.12857142857143,2588.3,289.22232142857143,293.12857142857143,2690.8,289.22232142857143,293.12857142857143,2801.4,289.22232142857143,293.12857142857143,2905.2,289.22232142857143,293.12857142857143,3112.9,289.22232142857143,293.12857142857143,3221.6,289.22232142857143,293.12857142857143,3325.2,289.22232142857143,293.12857142857143,3445.5,289.22232142857143,293.12857142857143,3550,289.22232142857143,293.12857142857143,3653.7,289.22232142857143,293.12857142857143,3791.4,289.22232142857143,293.12857142857143,3896.4,289.22232142857143,293.12857142857143,4056.4,289.22232142857143,293.12857142857143,4163.8,289.22232142857143,293.12857142857143,4268.8,289.22232142857143,293.12857142857143,4429.6,289.22232142857143,293.12857142857143,4534.1,289.22232142857143,293.12857142857143,4636,289.22232142857143,293.12857142857143,4806.1,289.22232142857143,293.12857142857143,4907.9]","[5457.7,5457.7,2962.6,2032.6,462.5,""smooth"",""right"",""right"",""good_move"",9159.5,3700.5,3042.7,5459,657.8,""smooth"",""right"",""right"",""good_move"",12161.7,3000.5,2293.4,9161.3,707.1,""oops"",""down"",""left"",""bad_move"",18876.9,6713.9,2634.1,12163.1,4079.7,""oops"",""down"",""left"",""bad_move"",22367.2,3489.5,2126.5,18877.7,1363,""oops"",""right"",""right"",""good_move"",25590.6,3221.7,2535.5,22368.9,686.2,""smooth"",""right"",""right"",""good_move"",28238.4,2644.8,2231.2,25593.6,413.6,""smooth"",""down"",""down"",""good_move"",30956.3,2716.6,2299.4,28239.8,417.1,""oops"",""down"",""down"",""good_move""]","",""
"3500","","<div style=""width:500px;"">
  <p>What determined the result of this run?</p>
  </div>","88","html-slider-response","55","844180","0.0-5.0-1.9","293","1","2025-07-30 15:00:47","1f75c3e559b7213887762d5229550c2b","41.116.43.245","Mozilla/5.0 (Windows NT 10.0; Win64; x64) AppleWebKit/537.36 (KHTML, like Gecko) Chrome/138.0.0.0 Safari/537.36","WebKit","Chrome","138.0.0.0","Windows","10.0","https://app.prolific.com/","en-GB,en-US;q=0.9,en;q=0.8","6744814c173b9afac78cf039","6877631c9844ddd5501205fc","688a3368d4c0c545d38cdc2d","3","1","6744814c173b9afac78cf039","3","1","2025-07-30T15:14:48.472Z","","","","","","","","","","","AttribQ","","50","","","","","","","","","","","","","","","","","","","","","","","","","","","","",""
"4378","","<div style=""width:500px;"">
  <p>How much control did you have over the ball?</p>
  </div>","54","html-slider-response","56","848562","0.0-5.0-2.9","293","1","2025-07-30 15:00:47","1f75c3e559b7213887762d5229550c2b","41.116.43.245","Mozilla/5.0 (Windows NT 10.0; Win64; x64) AppleWebKit/537.36 (KHTML, like Gecko) Chrome/138.0.0.0 Safari/537.36","WebKit","Chrome","138.0.0.0","Windows","10.0","https://app.prolific.com/","en-GB,en-US;q=0.9,en;q=0.8","6744814c173b9afac78cf039","6877631c9844ddd5501205fc","688a3368d4c0c545d38cdc2d","3","1","6744814c173b9afac78cf039","3","1","2025-07-30T15:14:52.855Z","","","","","","","","","","","ControlQ","","50","","","","","","","","","","","","","","","","","","","","","","","","","","","","",""
"12377","","<div style=""width:500px;"">
  <p>How would you describe your current emotional state?</p>
  </div>","26","html-slider-response","57","860944","0.0-5.0-3.9","293","1","2025-07-30 15:00:47","1f75c3e559b7213887762d5229550c2b","41.116.43.245","Mozilla/5.0 (Windows NT 10.0; Win64; x64) AppleWebKit/537.36 (KHTML, like Gecko) Chrome/138.0.0.0 Safari/537.36","WebKit","Chrome","138.0.0.0","Windows","10.0","https://app.prolific.com/","en-GB,en-US;q=0.9,en;q=0.8","6744814c173b9afac78cf039","6877631c9844ddd5501205fc","688a3368d4c0c545d38cdc2d","3","1","6744814c173b9afac78cf039","3","1","2025-07-30T15:15:05.236Z","","","","","","","","","","","StressQ","","50","","","","","","","","","","","","","","","","","","","","","","","","","","","","",""
"5423","","<div style=""width:500px;"">
  <p>What best describes how you currently feel?</p>
  </div>","72","html-slider-response","58","866369","0.0-5.0-4.9","293","1","2025-07-30 15:00:47","1f75c3e559b7213887762d5229550c2b","41.116.43.245","Mozilla/5.0 (Windows NT 10.0; Win64; x64) AppleWebKit/537.36 (KHTML, like Gecko) Chrome/138.0.0.0 Safari/537.36","WebKit","Chrome","138.0.0.0","Windows","10.0","https://app.prolific.com/","en-GB,en-US;q=0.9,en;q=0.8","6744814c173b9afac78cf039","6877631c9844ddd5501205fc","688a3368d4c0c545d38cdc2d","3","1","6744814c173b9afac78cf039","3","1","2025-07-30T15:15:10.661Z","","","","","","","","","","","MotivationQ","","50","","","","","","","","","","","","","","","","","","","","","","","","","","","","",""
"","","","","ctl-task-cpt","59","991855","0.0-5.0-0.10","293","1","2025-07-30 15:00:47","1f75c3e559b7213887762d5229550c2b","41.116.43.245","Mozilla/5.0 (Windows NT 10.0; Win64; x64) AppleWebKit/537.36 (KHTML, like Gecko) Chrome/138.0.0.0 Safari/537.36","WebKit","Chrome","138.0.0.0","Windows","10.0","https://app.prolific.com/","en-GB,en-US;q=0.9,en;q=0.8","6744814c173b9afac78cf039","6877631c9844ddd5501205fc","688a3368d4c0c545d38cdc2d","3","1","6744814c173b9afac78cf039","3","1","2025-07-30T15:17:16.147Z","","","","","","","","","","","","","","win-only","2","g1:SE,g2:NW","0.5","11","0","871615.9","13980.8","18990.4","122404.5","1","4","4","6","1","1","0","26","26","0.19696969696969696","5009.6","3000","735","[""down"",""right""]","{""num_key_presses"":16,""num_perfect"":8,""num_errors"":1,""num_randdir"":7,""num_randdir_good_moves"":2,""num_whilered"":0,""num_whileblue"":1,""num_blue"":4,""num_good_moves"":10}","[299.22232142857143,287.12857142857143,1,299.22232142857143,287.12857142857143,123,299.22232142857143,287.12857142857143,233.9,299.22232142857143,287.12857142857143,456.5,299.22232142857143,287.12857142857143,565.4,299.22232142857143,287.12857142857143,787,299.22232142857143,287.12857142857143,888.3,299.22232142857143,287.12857142857143,992.3,299.22232142857143,287.12857142857143,1103.4,299.22232142857143,287.12857142857143,1239.3,299.22232142857143,287.12857142857143,1339.6,299.22232142857143,287.12857142857143,1444,299.22232142857143,287.12857142857143,1663.4,299.22232142857143,287.12857142857143,1767.3,299.22232142857143,287.12857142857143,1867.4,299.22232142857143,287.12857142857143,1984.3,299.22232142857143,287.12857142857143,2086.6,299.22232142857143,287.12857142857143,2188.7,299.22232142857143,287.12857142857143,2386,299.22232142857143,287.12857142857143,2495.4,299.22232142857143,287.12857142857143,2597.8,299.22232142857143,287.12857142857143,2779.2,299.22232142857143,287.12857142857143,2889.1,299.22232142857143,287.12857142857143,2998.9,299.22232142857143,287.12857142857143,3100,299.22232142857143,287.12857142857143,3304.6,299.22232142857143,287.12857142857143,3421,299.22232142857143,287.12857142857143,3536.1,299.22232142857143,287.12857142857143,3649.7,299.22232142857143,287.12857142857143,3761.3,299.22232142857143,287.12857142857143,3959.7,299.22232142857143,287.12857142857143,4082.1,299.22232142857143,287.12857142857143,4192.1,299.22232142857143,287.12857142857143,4340.3,299.22232142857143,287.12857142857143,4460.7,299.22232142857143,287.12857142857143,4562.1,299.22232142857143,287.12857142857143,4664.6,299.22232142857143,287.12857142857143,4765.3,299.22232142857143,287.12857142857143,4879.2,299.22232142857143,287.12857142857143,4991.3]","[1431.9,1431.9,1000,0,431.9,""oops"",""right"",""left"",""bad_move"",5403.3,3970.2,3572.1,1433.1,398.1,""while_blue"",""right"",""up"",""bad_move"",10302.4,4890.9,2316.2,5411.5,2574.7,""oops"",""right"",""left"",""bad_move"",21000,10696.9,3079.3,17227.3,693.4,""smooth"",""right"",""right"",""good_move"",23311.1,2310.2,1453.5,21000.9,856.7,""smooth"",""right"",""right"",""good_move"",27241,3929.1,3288.5,23312.1,640.5,""smooth"",""right"",""right"",""good_move"",30706.9,3465,2440.5,27242,1024.4,""oops"",""right"",""down"",""good_move"",38811.4,8103.4,3308.1,34657.8,845.5,""smooth"",""right"",""right"",""good_move"",42859.8,4047.3,1713,38812.5,2334.3,""smooth"",""down"",""down"",""good_move"",49165.4,6304.5,2047.4,46556.9,561.1,""oops"",""down"",""up"",""bad_move"",59670.9,10504.8,1721,49166.2,8783.7,""oops"",""down"",""left"",""bad_move"",77299.5,17628,3029.7,59671.6,14598.2,""smooth"",""down"",""down"",""good_move"",81770.4,4470.3,2808.8,77300.1,1661.5,""oops"",""down"",""up"",""bad_move"",93337.7,11566.5,2113.4,81771.3,9453.1,""oops"",""right"",""down"",""good_move"",97343.5,4005.1,1740.2,93338.4,2264.9,""smooth"",""right"",""right"",""good_move"",101641.1,4296.6,2781.7,97344.5,1514.9,""smooth"",""down"",""down"",""good_move""]","",""
"5329","","<div style=""width:500px;"">
  <p>What determined the result of this run?</p>
  </div>","77","html-slider-response","60","997191","0.0-5.0-1.10","293","1","2025-07-30 15:00:47","1f75c3e559b7213887762d5229550c2b","41.116.43.245","Mozilla/5.0 (Windows NT 10.0; Win64; x64) AppleWebKit/537.36 (KHTML, like Gecko) Chrome/138.0.0.0 Safari/537.36","WebKit","Chrome","138.0.0.0","Windows","10.0","https://app.prolific.com/","en-GB,en-US;q=0.9,en;q=0.8","6744814c173b9afac78cf039","6877631c9844ddd5501205fc","688a3368d4c0c545d38cdc2d","3","1","6744814c173b9afac78cf039","3","1","2025-07-30T15:17:21.484Z","","","","","","","","","","","AttribQ","","50","","","","","","","","","","","","","","","","","","","","","","","","","","","","",""
"26766","","<div style=""width:500px;"">
  <p>How much control did you have over the ball?</p>
  </div>","2","html-slider-response","61","1023966","0.0-5.0-2.10","293","1","2025-07-30 15:00:47","1f75c3e559b7213887762d5229550c2b","41.116.43.245","Mozilla/5.0 (Windows NT 10.0; Win64; x64) AppleWebKit/537.36 (KHTML, like Gecko) Chrome/138.0.0.0 Safari/537.36","WebKit","Chrome","138.0.0.0","Windows","10.0","https://app.prolific.com/","en-GB,en-US;q=0.9,en;q=0.8","6744814c173b9afac78cf039","6877631c9844ddd5501205fc","688a3368d4c0c545d38cdc2d","3","1","6744814c173b9afac78cf039","3","1","2025-07-30T15:17:48.259Z","","","","","","","","","","","ControlQ","","50","","","","","","","","","","","","","","","","","","","","","","","","","","","","",""
"6356","","<div style=""width:500px;"">
  <p>How would you describe your current emotional state?</p>
  </div>","38","html-slider-response","62","1030326","0.0-5.0-3.10","293","1","2025-07-30 15:00:47","1f75c3e559b7213887762d5229550c2b","41.116.43.245","Mozilla/5.0 (Windows NT 10.0; Win64; x64) AppleWebKit/537.36 (KHTML, like Gecko) Chrome/138.0.0.0 Safari/537.36","WebKit","Chrome","138.0.0.0","Windows","10.0","https://app.prolific.com/","en-GB,en-US;q=0.9,en;q=0.8","6744814c173b9afac78cf039","6877631c9844ddd5501205fc","688a3368d4c0c545d38cdc2d","3","1","6744814c173b9afac78cf039","3","1","2025-07-30T15:17:54.619Z","","","","","","","","","","","StressQ","","50","","","","","","","","","","","","","","","","","","","","","","","","","","","","",""
"8467","","<div style=""width:500px;"">
  <p>What best describes how you currently feel?</p>
  </div>","64","html-slider-response","63","1038796","0.0-5.0-4.10","293","1","2025-07-30 15:00:47","1f75c3e559b7213887762d5229550c2b","41.116.43.245","Mozilla/5.0 (Windows NT 10.0; Win64; x64) AppleWebKit/537.36 (KHTML, like Gecko) Chrome/138.0.0.0 Safari/537.36","WebKit","Chrome","138.0.0.0","Windows","10.0","https://app.prolific.com/","en-GB,en-US;q=0.9,en;q=0.8","6744814c173b9afac78cf039","6877631c9844ddd5501205fc","688a3368d4c0c545d38cdc2d","3","1","6744814c173b9afac78cf039","3","1","2025-07-30T15:18:03.088Z","","","","","","","","","","","MotivationQ","","50","","","","","","","","","","","","","","","","","","","","","","","","","","","","",""
"","","","","ctl-task-cpt","64","1074853","0.0-5.0-0.11","293","1","2025-07-30 15:00:47","1f75c3e559b7213887762d5229550c2b","41.116.43.245","Mozilla/5.0 (Windows NT 10.0; Win64; x64) AppleWebKit/537.36 (KHTML, like Gecko) Chrome/138.0.0.0 Safari/537.36","WebKit","Chrome","138.0.0.0","Windows","10.0","https://app.prolific.com/","en-GB,en-US;q=0.9,en;q=0.8","6744814c173b9afac78cf039","6877631c9844ddd5501205fc","688a3368d4c0c545d38cdc2d","3","1","6744814c173b9afac78cf039","3","1","2025-07-30T15:18:39.145Z","","","","","","","","","","","","","","win-only","1","g1:NE,g2:SW","0.6","12","0","1044043","9077.5","14087.7","33042.7","1","4","8","6","2","8","8","34","26","0.25757575757575757","5010.2","3000","1970","[""down"",""left""]","{""num_key_presses"":6,""num_perfect"":3,""num_errors"":0,""num_randdir"":3,""num_randdir_good_moves"":3,""num_whilered"":0,""num_whileblue"":0,""num_blue"":0,""num_good_moves"":6}","[300.22232142857143,293.12857142857143,1.7,300.22232142857143,293.12857142857143,121.3,300.22232142857143,293.12857142857143,232.2,300.22232142857143,293.12857142857143,343,300.22232142857143,293.12857142857143,460.5,300.22232142857143,293.12857142857143,568,300.22232142857143,293.12857142857143,674.3,300.22232142857143,293.12857142857143,786.1,300.22232142857143,293.12857142857143,900.1,300.22232142857143,293.12857142857143,1017,300.22232142857143,293.12857142857143,1135.4,300.22232142857143,293.12857142857143,1251.9,300.22232142857143,293.12857142857143,1361.6,300.22232142857143,293.12857142857143,1494.2,300.22232142857143,293.12857142857143,1597,300.22232142857143,293.12857142857143,1698.4,300.22232142857143,293.12857142857143,1803.9,300.22232142857143,293.12857142857143,1908.7,300.22232142857143,293.12857142857143,2038.3,300.22232142857143,293.12857142857143,2142,300.22232142857143,293.12857142857143,2340.6,300.22232142857143,293.12857142857143,2444,300.22232142857143,293.12857142857143,2553.6,300.22232142857143,293.12857142857143,2654.9,300.22232142857143,293.12857142857143,2899.6,300.22232142857143,293.12857142857143,3006.1,300.22232142857143,293.12857142857143,3202.7,300.22232142857143,293.12857142857143,3309.1,300.22232142857143,293.12857142857143,3542.7,300.22232142857143,293.12857142857143,3643.1,300.22232142857143,293.12857142857143,3772.1,300.22232142857143,293.12857142857143,3872.5,300.22232142857143,293.12857142857143,3976.2,300.22232142857143,293.12857142857143,4084,300.22232142857143,293.12857142857143,4197.5,300.22232142857143,293.12857142857143,4304.5,300.22232142857143,293.12857142857143,4486.2,300.22232142857143,293.12857142857143,4591,300.22232142857143,293.12857142857143,4695.4,300.22232142857143,293.12857142857143,4802.4]","[1722.7,1722.7,1000,0,722.7,""oops"",""left"",""down"",""good_move"",4566.1,2840.7,2059.7,1725.4,781,""smooth"",""left"",""left"",""good_move"",8701.8,4132.3,3404.5,4569.5,727.8,""oops"",""left"",""down"",""good_move"",11630,2927.5,2285.2,8702.7,642.2,""smooth"",""left"",""left"",""good_move"",15478.9,3847.7,2509.9,11631.2,1337.8,""smooth"",""left"",""left"",""good_move"",18707.6,3225.6,2057.8,15482.1,1167.7,""oops"",""down"",""down"",""good_move""]","",""
"8108","","<div style=""width:500px;"">
  <p>What determined the result of this run?</p>
  </div>","89","html-slider-response","65","1082964","0.0-5.0-1.11","293","1","2025-07-30 15:00:47","1f75c3e559b7213887762d5229550c2b","41.116.43.245","Mozilla/5.0 (Windows NT 10.0; Win64; x64) AppleWebKit/537.36 (KHTML, like Gecko) Chrome/138.0.0.0 Safari/537.36","WebKit","Chrome","138.0.0.0","Windows","10.0","https://app.prolific.com/","en-GB,en-US;q=0.9,en;q=0.8","6744814c173b9afac78cf039","6877631c9844ddd5501205fc","688a3368d4c0c545d38cdc2d","3","1","6744814c173b9afac78cf039","3","1","2025-07-30T15:18:47.256Z","","","","","","","","","","","AttribQ","","50","","","","","","","","","","","","","","","","","","","","","","","","","","","","",""
"9073","","<div style=""width:500px;"">
  <p>How much control did you have over the ball?</p>
  </div>","15","html-slider-response","66","1092042","0.0-5.0-2.11","293","1","2025-07-30 15:00:47","1f75c3e559b7213887762d5229550c2b","41.116.43.245","Mozilla/5.0 (Windows NT 10.0; Win64; x64) AppleWebKit/537.36 (KHTML, like Gecko) Chrome/138.0.0.0 Safari/537.36","WebKit","Chrome","138.0.0.0","Windows","10.0","https://app.prolific.com/","en-GB,en-US;q=0.9,en;q=0.8","6744814c173b9afac78cf039","6877631c9844ddd5501205fc","688a3368d4c0c545d38cdc2d","3","1","6744814c173b9afac78cf039","3","1","2025-07-30T15:18:56.334Z","","","","","","","","","","","ControlQ","","50","","","","","","","","","","","","","","","","","","","","","","","","","","","","",""
"21144","","<div style=""width:500px;"">
  <p>How would you describe your current emotional state?</p>
  </div>","40","html-slider-response","67","1113189","0.0-5.0-3.11","293","1","2025-07-30 15:00:47","1f75c3e559b7213887762d5229550c2b","41.116.43.245","Mozilla/5.0 (Windows NT 10.0; Win64; x64) AppleWebKit/537.36 (KHTML, like Gecko) Chrome/138.0.0.0 Safari/537.36","WebKit","Chrome","138.0.0.0","Windows","10.0","https://app.prolific.com/","en-GB,en-US;q=0.9,en;q=0.8","6744814c173b9afac78cf039","6877631c9844ddd5501205fc","688a3368d4c0c545d38cdc2d","3","1","6744814c173b9afac78cf039","3","1","2025-07-30T15:19:17.481Z","","","","","","","","","","","StressQ","","50","","","","","","","","","","","","","","","","","","","","","","","","","","","","",""
"10870","","<div style=""width:500px;"">
  <p>What best describes how you currently feel?</p>
  </div>","40","html-slider-response","68","1124064","0.0-5.0-4.11","293","1","2025-07-30 15:00:47","1f75c3e559b7213887762d5229550c2b","41.116.43.245","Mozilla/5.0 (Windows NT 10.0; Win64; x64) AppleWebKit/537.36 (KHTML, like Gecko) Chrome/138.0.0.0 Safari/537.36","WebKit","Chrome","138.0.0.0","Windows","10.0","https://app.prolific.com/","en-GB,en-US;q=0.9,en;q=0.8","6744814c173b9afac78cf039","6877631c9844ddd5501205fc","688a3368d4c0c545d38cdc2d","3","1","6744814c173b9afac78cf039","3","1","2025-07-30T15:19:28.356Z","","","","","","","","","","","MotivationQ","","50","","","","","","","","","","","","","","","","","","","","","","","","","","","","",""
"","","","","ctl-task-cpt","69","1164911","0.0-5.0-0.12","293","1","2025-07-30 15:00:47","1f75c3e559b7213887762d5229550c2b","41.116.43.245","Mozilla/5.0 (Windows NT 10.0; Win64; x64) AppleWebKit/537.36 (KHTML, like Gecko) Chrome/138.0.0.0 Safari/537.36","WebKit","Chrome","138.0.0.0","Windows","10.0","https://app.prolific.com/","en-GB,en-US;q=0.9,en;q=0.8","6744814c173b9afac78cf039","6877631c9844ddd5501205fc","688a3368d4c0c545d38cdc2d","3","1","6744814c173b9afac78cf039","3","1","2025-07-30T15:20:09.203Z","","","","","","","","","","","","","","win-only","2","g1:SE,g2:NW","0.7","13","0","1129309","21614.9","26719.7","37814","1","4","8","6","1","1","1","35","34","0.26515151515151514","5104.8","3000","2340","[""down"",""right""]","{""num_key_presses"":4,""num_perfect"":4,""num_errors"":0,""num_randdir"":0,""num_randdir_good_moves"":0,""num_whilered"":0,""num_whileblue"":0,""num_blue"":0,""num_good_moves"":4}","[293.22232142857143,295.12857142857143,1.6,293.22232142857143,295.12857142857143,122.7,293.22232142857143,295.12857142857143,226.2,293.22232142857143,295.12857142857143,332.2,293.22232142857143,295.12857142857143,448.5,293.22232142857143,295.12857142857143,575.2,293.22232142857143,295.12857142857143,678.2,293.22232142857143,295.12857142857143,787.4,293.22232142857143,295.12857142857143,889.9,293.22232142857143,295.12857142857143,1001.1,293.22232142857143,295.12857142857143,1101.1,293.22232142857143,295.12857142857143,1202.4,293.22232142857143,295.12857142857143,1327.1,293.22232142857143,295.12857142857143,1432.8,293.22232142857143,295.12857142857143,1542.7,293.22232142857143,295.12857142857143,1649.3,293.22232142857143,295.12857142857143,1756.5,293.22232142857143,295.12857142857143,1859.1,293.22232142857143,295.12857142857143,1959.6,293.22232142857143,295.12857142857143,2114.6,293.22232142857143,295.12857142857143,2215.4,293.22232142857143,295.12857142857143,2320.5,293.22232142857143,295.12857142857143,2525.7,293.22232142857143,295.12857142857143,2631.3,293.22232142857143,295.12857142857143,2845.4,293.22232142857143,295.12857142857143,2946.5,293.22232142857143,295.12857142857143,3119.2,293.22232142857143,295.12857142857143,3220.6,293.22232142857143,295.12857142857143,3380.7,293.22232142857143,295.12857142857143,3487.2,293.22232142857143,295.12857142857143,3619.9,293.22232142857143,295.12857142857143,3734.5,293.22232142857143,295.12857142857143,3965.6,293.22232142857143,295.12857142857143,4073.5,293.22232142857143,295.12857142857143,4183.2,293.22232142857143,295.12857142857143,4326.1,293.22232142857143,295.12857142857143,4435.8,293.22232142857143,295.12857142857143,4537.8,293.22232142857143,295.12857142857143,4745.3,293.22232142857143,295.12857142857143,4852.6,293.22232142857143,295.12857142857143,4960.9]","[1789,1789,1000,0,789,""smooth"",""right"",""right"",""good_move"",5356.3,3565.2,3030.7,1791.1,534.5,""smooth"",""right"",""right"",""good_move"",8208.5,2850.9,2338.2,5357.6,512.7,""smooth"",""down"",""down"",""good_move"",10721.6,2510.6,2071.1,8211,439.5,""smooth"",""down"",""down"",""good_move""]","",""
"4886","","<div style=""width:500px;"">
  <p>What determined the result of this run?</p>
  </div>","67","html-slider-response","70","1169801","0.0-5.0-1.12","293","1","2025-07-30 15:00:47","1f75c3e559b7213887762d5229550c2b","41.116.43.245","Mozilla/5.0 (Windows NT 10.0; Win64; x64) AppleWebKit/537.36 (KHTML, like Gecko) Chrome/138.0.0.0 Safari/537.36","WebKit","Chrome","138.0.0.0","Windows","10.0","https://app.prolific.com/","en-GB,en-US;q=0.9,en;q=0.8","6744814c173b9afac78cf039","6877631c9844ddd5501205fc","688a3368d4c0c545d38cdc2d","3","1","6744814c173b9afac78cf039","3","1","2025-07-30T15:20:14.093Z","","","","","","","","","","","AttribQ","","50","","","","","","","","","","","","","","","","","","","","","","","","","","","","",""
"5938","","<div style=""width:500px;"">
  <p>How much control did you have over the ball?</p>
  </div>","69","html-slider-response","71","1175741","0.0-5.0-2.12","293","1","2025-07-30 15:00:47","1f75c3e559b7213887762d5229550c2b","41.116.43.245","Mozilla/5.0 (Windows NT 10.0; Win64; x64) AppleWebKit/537.36 (KHTML, like Gecko) Chrome/138.0.0.0 Safari/537.36","WebKit","Chrome","138.0.0.0","Windows","10.0","https://app.prolific.com/","en-GB,en-US;q=0.9,en;q=0.8","6744814c173b9afac78cf039","6877631c9844ddd5501205fc","688a3368d4c0c545d38cdc2d","3","1","6744814c173b9afac78cf039","3","1","2025-07-30T15:20:20.034Z","","","","","","","","","","","ControlQ","","50","","","","","","","","","","","","","","","","","","","","","","","","","","","","",""
"5599","","<div style=""width:500px;"">
  <p>How would you describe your current emotional state?</p>
  </div>","46","html-slider-response","72","1181345","0.0-5.0-3.12","293","1","2025-07-30 15:00:47","1f75c3e559b7213887762d5229550c2b","41.116.43.245","Mozilla/5.0 (Windows NT 10.0; Win64; x64) AppleWebKit/537.36 (KHTML, like Gecko) Chrome/138.0.0.0 Safari/537.36","WebKit","Chrome","138.0.0.0","Windows","10.0","https://app.prolific.com/","en-GB,en-US;q=0.9,en;q=0.8","6744814c173b9afac78cf039","6877631c9844ddd5501205fc","688a3368d4c0c545d38cdc2d","3","1","6744814c173b9afac78cf039","3","1","2025-07-30T15:20:25.637Z","","","","","","","","","","","StressQ","","50","","","","","","","","","","","","","","","","","","","","","","","","","","","","",""
"10297","","<div style=""width:500px;"">
  <p>What best describes how you currently feel?</p>
  </div>","28","html-slider-response","73","1191646","0.0-5.0-4.12","293","1","2025-07-30 15:00:47","1f75c3e559b7213887762d5229550c2b","41.116.43.245","Mozilla/5.0 (Windows NT 10.0; Win64; x64) AppleWebKit/537.36 (KHTML, like Gecko) Chrome/138.0.0.0 Safari/537.36","WebKit","Chrome","138.0.0.0","Windows","10.0","https://app.prolific.com/","en-GB,en-US;q=0.9,en;q=0.8","6744814c173b9afac78cf039","6877631c9844ddd5501205fc","688a3368d4c0c545d38cdc2d","3","1","6744814c173b9afac78cf039","3","1","2025-07-30T15:20:35.938Z","","","","","","","","","","","MotivationQ","","50","","","","","","","","","","","","","","","","","","","","","","","","","","","","",""
"","","","","ctl-task-cpt","74","1235064","0.0-5.0-0.13","293","1","2025-07-30 15:00:47","1f75c3e559b7213887762d5229550c2b","41.116.43.245","Mozilla/5.0 (Windows NT 10.0; Win64; x64) AppleWebKit/537.36 (KHTML, like Gecko) Chrome/138.0.0.0 Safari/537.36","WebKit","Chrome","138.0.0.0","Windows","10.0","https://app.prolific.com/","en-GB,en-US;q=0.9,en;q=0.8","6744814c173b9afac78cf039","6877631c9844ddd5501205fc","688a3368d4c0c545d38cdc2d","3","1","6744814c173b9afac78cf039","3","1","2025-07-30T15:21:19.356Z","","","","","","","","","","","","","","win-only","0","g1:NW,g2:SE","0.8","14","0","1196893.9","9116.8","14130.1","40354.1","1","4","4","6","2","4","4","39","35","0.29545454545454547","5013.3","3000","1720","[""down"",""right""]","{""num_key_presses"":8,""num_perfect"":7,""num_errors"":0,""num_randdir"":1,""num_randdir_good_moves"":0,""num_whilered"":0,""num_whileblue"":0,""num_blue"":0,""num_good_moves"":7}","[290.22232142857143,301.12857142857143,0.8,290.22232142857143,301.12857142857143,102.8,290.22232142857143,301.12857142857143,220.8,290.22232142857143,301.12857142857143,346.7,290.22232142857143,301.12857142857143,456.2,290.22232142857143,301.12857142857143,558.3,290.22232142857143,301.12857142857143,803.4,290.22232142857143,301.12857142857143,907.4,290.22232142857143,301.12857142857143,1161.3,290.22232142857143,301.12857142857143,1269.2,290.22232142857143,301.12857142857143,1404.3,290.22232142857143,301.12857142857143,1512.7,290.22232142857143,301.12857142857143,1702.5,290.22232142857143,301.12857142857143,1806.2,290.22232142857143,301.12857142857143,2016.4,290.22232142857143,301.12857142857143,2120,290.22232142857143,301.12857142857143,2372.7,290.22232142857143,301.12857142857143,2475.1,290.22232142857143,301.12857142857143,2657,290.22232142857143,301.12857142857143,2761.5,290.22232142857143,301.12857142857143,2968,290.22232142857143,301.12857142857143,3072.4,290.22232142857143,301.12857142857143,3190.8,290.22232142857143,301.12857142857143,3399.1,290.22232142857143,301.12857142857143,3503.2,290.22232142857143,301.12857142857143,3605.1,290.22232142857143,301.12857142857143,3803.8,290.22232142857143,301.12857142857143,3915.3,290.22232142857143,301.12857142857143,4022.6,290.22232142857143,301.12857142857143,4159.5,290.22232142857143,301.12857142857143,4269.7,290.22232142857143,301.12857142857143,4371,290.22232142857143,301.12857142857143,4561.9,290.22232142857143,301.12857142857143,4664.7,290.22232142857143,301.12857142857143,4766.2,290.22232142857143,301.12857142857143,4978.2]","[1528.4,1528.4,1000,0,528.4,""smooth"",""right"",""right"",""good_move"",4885.9,3355.9,2911.1,1530,444.8,""smooth"",""right"",""right"",""good_move"",8273.5,3386.6,2958.9,4886.9,427.7,""smooth"",""right"",""right"",""good_move"",11342.9,3067.7,2081.6,8275.2,986.1,""smooth"",""down"",""down"",""good_move"",14828.6,3484.6,2978.7,11344,505.9,""oops"",""down"",""left"",""bad_move"",19207.7,4377.4,2660.9,14830.3,1716.5,""smooth"",""down"",""down"",""good_move"",22496.3,3285.8,2313,19210.5,972.8,""smooth"",""right"",""right"",""good_move"",25779.2,3281.9,2633.2,22497.3,648.7,""smooth"",""down"",""down"",""good_move""]","",""
"6976","","<div style=""width:500px;"">
  <p>What determined the result of this run?</p>
  </div>","78","html-slider-response","75","1242043","0.0-5.0-1.13","293","1","2025-07-30 15:00:47","1f75c3e559b7213887762d5229550c2b","41.116.43.245","Mozilla/5.0 (Windows NT 10.0; Win64; x64) AppleWebKit/537.36 (KHTML, like Gecko) Chrome/138.0.0.0 Safari/537.36","WebKit","Chrome","138.0.0.0","Windows","10.0","https://app.prolific.com/","en-GB,en-US;q=0.9,en;q=0.8","6744814c173b9afac78cf039","6877631c9844ddd5501205fc","688a3368d4c0c545d38cdc2d","3","1","6744814c173b9afac78cf039","3","1","2025-07-30T15:21:26.335Z","","","","","","","","","","","AttribQ","","50","","","","","","","","","","","","","","","","","","","","","","","","","","","","",""
"45598","","<div style=""width:500px;"">
  <p>How much control did you have over the ball?</p>
  </div>","67","html-slider-response","76","1287646","0.0-5.0-2.13","293","1","2025-07-30 15:00:47","1f75c3e559b7213887762d5229550c2b","41.116.43.245","Mozilla/5.0 (Windows NT 10.0; Win64; x64) AppleWebKit/537.36 (KHTML, like Gecko) Chrome/138.0.0.0 Safari/537.36","WebKit","Chrome","138.0.0.0","Windows","10.0","https://app.prolific.com/","en-GB,en-US;q=0.9,en;q=0.8","6744814c173b9afac78cf039","6877631c9844ddd5501205fc","688a3368d4c0c545d38cdc2d","3","1","6744814c173b9afac78cf039","3","1","2025-07-30T15:22:11.938Z","","","","","","","","","","","ControlQ","","50","","","","","","","","","","","","","","","","","","","","","","","","","","","","",""
"10971","","<div style=""width:500px;"">
  <p>How would you describe your current emotional state?</p>
  </div>","20","html-slider-response","77","1298620","0.0-5.0-3.13","293","1","2025-07-30 15:00:47","1f75c3e559b7213887762d5229550c2b","41.116.43.245","Mozilla/5.0 (Windows NT 10.0; Win64; x64) AppleWebKit/537.36 (KHTML, like Gecko) Chrome/138.0.0.0 Safari/537.36","WebKit","Chrome","138.0.0.0","Windows","10.0","https://app.prolific.com/","en-GB,en-US;q=0.9,en;q=0.8","6744814c173b9afac78cf039","6877631c9844ddd5501205fc","688a3368d4c0c545d38cdc2d","3","1","6744814c173b9afac78cf039","3","1","2025-07-30T15:22:22.912Z","","","","","","","","","","","StressQ","","50","","","","","","","","","","","","","","","","","","","","","","","","","","","","",""
"6653","","<div style=""width:500px;"">
  <p>What best describes how you currently feel?</p>
