"rt","response_timestamp","stimulus","response","trial_type","trial_index","time_elapsed","internal_node_id","run_id","condition","recorded_at","source_code_version","ip","user_agent","device","browser","browser_version","platform","platform_version","referer","accept_language","PROLIFIC_PID","STUDY_ID","SESSION_ID","WEEK","BATCH","prolific_id","week","batch","realtime","success","responses","item_order","radio_event_ids","radio_event_times","key_event_times","mouse_event_times","straightlining","zigzagging","honeypot","eventType","view_history","slider_start","which_type","canvas_config","goals_layout","control_level","trial_number","tutorial_trial_number","trial_start_time","phase1_start_time","phase2_start_time","phase3_start_time","goal_1_value","goal_1_distance","goal_2_value","goal_2_distance","goal_selected","outcome","outcome_total","participant_final_score","participant_initial_score","participant_final_score_prop","goal_choice_rt","allocated_time","allocated_time_remaining","goal_direction","counts","mouse_movements","key_presses","question_order","question_id"
"59742","1752654853233","<p style='font-size:40px;line-height:1.25'><strong>Welcome to the experiment!</strong></p><p style='font-size:1.1em;line-height:1.25'>Thank you for participanting in our experiment again! You will be asked to play the Dysfunctional Ball Game again. We will briefly recap the rules before we start.</p><p style='font-size:1.1em;line-height:1.25'>Press <strong>Next</strong> to continue.</p>","0","custom-html-button-response","0","59745","0.0-0.0","69","1","2025-07-16 08:31:13","1f75c3e559b7213887762d5229550c2b","216.120.189.168","Mozilla/5.0 (Windows NT 10.0; Win64; x64) AppleWebKit/537.36 (KHTML, like Gecko) Chrome/138.0.0.0 Safari/537.36","WebKit","Chrome","138.0.0.0","Windows","10.0","https://app.prolific.com/","en-US,en;q=0.9","674eae0026291e33be89b46f","68764874ac79eee8c1d4cb03","6877633e01fedbf284732742","2","0","674eae0026291e33be89b46f","2","0","2025-07-16T08:34:13.234Z","","","","","","","","","","","","","","","","","","","","","","","","","","","","","","","","","","","","","","","","","",""
"8228","","","","fullscreen","1","69126","0.0-1.0","69","1","2025-07-16 08:31:13","1f75c3e559b7213887762d5229550c2b","216.120.189.168","Mozilla/5.0 (Windows NT 10.0; Win64; x64) AppleWebKit/537.36 (KHTML, like Gecko) Chrome/138.0.0.0 Safari/537.36","WebKit","Chrome","138.0.0.0","Windows","10.0","https://app.prolific.com/","en-US,en;q=0.9","674eae0026291e33be89b46f","68764874ac79eee8c1d4cb03","6877633e01fedbf284732742","2","0","674eae0026291e33be89b46f","2","0","","true","","","","","","","","","","","","","","","","","","","","","","","","","","","","","","","","","","","","","","","","",""
"10421","1752654873037","<p style='font-size:1.1em;line-height:1.25'>In the following, we will ask you a few questions relating to your feelings in the last 24 hours.<br></p><p style='font-size:1.1em;line-height:1.25'>Press the <strong>Next</strong> button to continue.</p>","0","custom-html-button-response","2","79548","0.0-2.0-0.0","69","1","2025-07-16 08:31:13","1f75c3e559b7213887762d5229550c2b","216.120.189.168","Mozilla/5.0 (Windows NT 10.0; Win64; x64) AppleWebKit/537.36 (KHTML, like Gecko) Chrome/138.0.0.0 Safari/537.36","WebKit","Chrome","138.0.0.0","Windows","10.0","https://app.prolific.com/","en-US,en;q=0.9","674eae0026291e33be89b46f","68764874ac79eee8c1d4cb03","6877633e01fedbf284732742","2","0","674eae0026291e33be89b46f","2","0","2025-07-16T08:34:33.037Z","","","","","","","","","","","","","","","","","","","","","","","","","","","","","","","","","","","","","","","","","",""
"74484.8999999999","","","","survey-template","3","154073","0.0-2.0-1.0","69","1","2025-07-16 08:31:13","1f75c3e559b7213887762d5229550c2b","216.120.189.168","Mozilla/5.0 (Windows NT 10.0; Win64; x64) AppleWebKit/537.36 (KHTML, like Gecko) Chrome/138.0.0.0 Safari/537.36","WebKit","Chrome","138.0.0.0","Windows","10.0","https://app.prolific.com/","en-US,en;q=0.9","674eae0026291e33be89b46f","68764874ac79eee8c1d4cb03","6877633e01fedbf284732742","2","0","674eae0026291e33be89b46f","2","0","2025-07-16T08:35:47.562Z","","{""Q01"":""1"",""Q02"":""0"",""Q03"":""0"",""Q04"":""1"",""Q05"":""1"",""Q06"":""1"",""Q07"":""1"",""Q08"":""0"",""Q09"":""1"",""Q10"":""1"",""Q11"":""1"",""Q12"":""1"",""Q13"":""5"",""Q14"":""1"",""Q15"":""0"",""Q16"":""0"",""Q17"":""1"",""Q18"":""0"",""Q19"":""1"",""Q20"":""0"",""Q21"":""0"",""Q22"":""0""}","[0,1,2,3,4,5,6,7,8,9,10,11,12,13,14,15,16,17,18,19,20,21]","[""Q01"",""Q02"",""Q03"",""Q04"",""Q05"",""Q06"",""Q06"",""Q07"",""Q08"",""Q09"",""Q10"",""Q11"",""Q12"",""Q13"",""Q14"",""Q14"",""Q15"",""Q16"",""Q17"",""Q18"",""Q19"",""Q20"",""Q20"",""Q21"",""Q22""]","[3859.2000000001863,5445.700000000186,7185.5,9163.100000000093,11034.899999999907,15114.299999999814,17174.200000000186,19270.100000000093,21037.399999999907,24023.100000000093,28196.200000000186,32219.700000000186,33948.299999999814,37899.39999999991,40382.700000000186,40627.700000000186,44466.200000000186,47515.39999999991,51094.299999999814,52797.700000000186,54400.299999999814,59087.799999999814,61672.5,64786.89999999991,68042.3999999999]","[]","[0.10000000009313226,3859.2000000001863,5445.700000000186,7185.5,9163.100000000093,11034.899999999907,15114.299999999814,17174.200000000186,19270.100000000093,21037.399999999907,24023.100000000093,26409.799999999814,28196.200000000186,32219.700000000186,33948.299999999814,37899.39999999991,40382.700000000186,40627.700000000186,44466.200000000186,46251.5,47515.39999999991,51094.299999999814,52797.700000000186,54400.299999999814,59087.799999999814,60472.60000000009,61672.5,64786.89999999991,68042.3999999999,74481]","0.5454545454545454","0.42857142857142855","0","drsp","","","","","","","","","","","","","","","","","","","","","","","","","","","","","","",""
"13923.299999999814","","","","survey-template","4","168027","0.0-2.0-2.0","69","1","2025-07-16 08:31:13","1f75c3e559b7213887762d5229550c2b","216.120.189.168","Mozilla/5.0 (Windows NT 10.0; Win64; x64) AppleWebKit/537.36 (KHTML, like Gecko) Chrome/138.0.0.0 Safari/537.36","WebKit","Chrome","138.0.0.0","Windows","10.0","https://app.prolific.com/","en-US,en;q=0.9","674eae0026291e33be89b46f","68764874ac79eee8c1d4cb03","6877633e01fedbf284732742","2","0","674eae0026291e33be89b46f","2","0","2025-07-16T08:36:01.516Z","","{""Q01"":""1"",""Q02"":""1"",""Q03"":""0""}","[0,1,2]","[""Q01"",""Q02"",""Q03""]","[2876.7999999998137,8774.600000000093,12342.700000000186]","[]","[2876.7999999998137,8774.600000000093,12342.700000000186,13922.600000000093]","0.3333333333333333","0","0","stress","","","","","","","","","","","","","","","","","","","","","","","","","","","","","","",""
"103954","","","","instructions","5","271982","0.0-3.0-0.0","69","1","2025-07-16 08:31:13","1f75c3e559b7213887762d5229550c2b","216.120.189.168","Mozilla/5.0 (Windows NT 10.0; Win64; x64) AppleWebKit/537.36 (KHTML, like Gecko) Chrome/138.0.0.0 Safari/537.36","WebKit","Chrome","138.0.0.0","Windows","10.0","https://app.prolific.com/","en-US,en;q=0.9","674eae0026291e33be89b46f","68764874ac79eee8c1d4cb03","6877633e01fedbf284732742","2","0","674eae0026291e33be89b46f","2","0","","","","","","","","","","","","","[{""page_index"":0,""viewing_time"":103954}]","","","","","","","","","","","","","","","","","","","","","","","","","","","","","",""
"7808","","<p>Before you start with this game please answer the following three questions yourself. </p>
  <p>Through this game, we measure several aspects of your cognitive performance, such as reaction times, multi-tasking capabilities </p>
  <p>and the ability to assess the situation you are in.</p>
  <p></p>
  <p><b>How good do you usually are in such tasks?</b></p>","67","html-slider-response","6","279800","0.0-4.0-0.0","69","1","2025-07-16 08:31:13","1f75c3e559b7213887762d5229550c2b","216.120.189.168","Mozilla/5.0 (Windows NT 10.0; Win64; x64) AppleWebKit/537.36 (KHTML, like Gecko) Chrome/138.0.0.0 Safari/537.36","WebKit","Chrome","138.0.0.0","Windows","10.0","https://app.prolific.com/","en-US,en;q=0.9","674eae0026291e33be89b46f","68764874ac79eee8c1d4cb03","6877633e01fedbf284732742","2","0","674eae0026291e33be89b46f","2","0","2025-07-16T08:37:53.289Z","","","","","","","","","","","PreSkillQ","","50","","","","","","","","","","","","","","","","","","","","","","","","","","","","",""
"4001","","<div style=""width:500px;"">
  <p>How well do you think you will perform in this task compared to other participants?</p>
  </div>","70","html-slider-response","7","283802","0.0-4.0-1.0","69","1","2025-07-16 08:31:13","1f75c3e559b7213887762d5229550c2b","216.120.189.168","Mozilla/5.0 (Windows NT 10.0; Win64; x64) AppleWebKit/537.36 (KHTML, like Gecko) Chrome/138.0.0.0 Safari/537.36","WebKit","Chrome","138.0.0.0","Windows","10.0","https://app.prolific.com/","en-US,en;q=0.9","674eae0026291e33be89b46f","68764874ac79eee8c1d4cb03","6877633e01fedbf284732742","2","0","674eae0026291e33be89b46f","2","0","2025-07-16T08:37:57.292Z","","","","","","","","","","","PrePerfQ","","50","","","","","","","","","","","","","","","","","","","","","","","","","","","","",""
"3240","","<div style=""width:500px;"">
  <p>What best describes how you currently feel?</p>
  </div>","75","html-slider-response","8","287043","0.0-4.0-2.0","69","1","2025-07-16 08:31:13","1f75c3e559b7213887762d5229550c2b","216.120.189.168","Mozilla/5.0 (Windows NT 10.0; Win64; x64) AppleWebKit/537.36 (KHTML, like Gecko) Chrome/138.0.0.0 Safari/537.36","WebKit","Chrome","138.0.0.0","Windows","10.0","https://app.prolific.com/","en-US,en;q=0.9","674eae0026291e33be89b46f","68764874ac79eee8c1d4cb03","6877633e01fedbf284732742","2","0","674eae0026291e33be89b46f","2","0","2025-07-16T08:38:00.532Z","","","","","","","","","","","PreMotivationQ","","50","","","","","","","","","","","","","","","","","","","","","","","","","","","","",""
"","","","","ctl-task-cpt","9","315393","0.0-5.0-0.0","69","1","2025-07-16 08:31:13","1f75c3e559b7213887762d5229550c2b","216.120.189.168","Mozilla/5.0 (Windows NT 10.0; Win64; x64) AppleWebKit/537.36 (KHTML, like Gecko) Chrome/138.0.0.0 Safari/537.36","WebKit","Chrome","138.0.0.0","Windows","10.0","https://app.prolific.com/","en-US,en;q=0.9","674eae0026291e33be89b46f","68764874ac79eee8c1d4cb03","6877633e01fedbf284732742","2","0","674eae0026291e33be89b46f","2","0","2025-07-16T08:38:28.882Z","","","","","","","","","","","","","","win-only","1","g1:NE,g2:SW","1","1","0","314682.7","6421.1","11421.5","25283","1","4","8","6","1","1","0","0","0","0","2519","3000","1685","[""up"",""right""]","{""num_key_presses"":5,""num_perfect"":4,""num_errors"":1,""num_randdir"":0,""num_randdir_good_moves"":0,""num_whilered"":0,""num_whileblue"":0,""num_blue"":0,""num_good_moves"":4}","[297.22232142857143,299.12857142857143,26.5,297.22232142857143,299.12857142857143,115.1,297.22232142857143,299.12857142857143,219.9,297.22232142857143,299.12857142857143,320.5,297.22232142857143,299.12857142857143,425.1,297.22232142857143,303.12857142857143,531.4,286.22232142857143,340.12857142857143,631.6,185.22232142857143,469.12857142857143,732.1,177.22232142857143,477.12857142857143,835.8,177.22232142857143,477.12857142857143,939.5,158.22232142857143,488.12857142857143,1040.2,137.22232142857143,498.12857142857143,1141,137.22232142857143,498.12857142857143,1248.1,137.22232142857143,498.12857142857143,1348.2,120.22232142857143,508.12857142857143,1450.7,283.22232142857143,312.12857142857143,1554.5,322.22232142857143,275.12857142857143,1654.7,322.22232142857143,275.12857142857143,1754.9,358.22232142857143,225.12857142857143,1855.6,537.2223214285714,45.128571428571426,1965.5,543.2223214285714,44.128571428571426,2067.5,548.2223214285714,47.128571428571426,2170.2,549.2223214285714,47.128571428571426,2270.7,549.2223214285714,47.128571428571426,2375.2,549.2223214285714,47.128571428571426,2481.1,549.2223214285714,47.128571428571426,2585.2,549.2223214285714,47.128571428571426,2690,549.2223214285714,47.128571428571426,2794.5,549.2223214285714,47.128571428571426,2895.4,549.2223214285714,47.128571428571426,3000.6,549.2223214285714,47.128571428571426,3105.3,549.2223214285714,47.128571428571426,3209.6,549.2223214285714,47.128571428571426,3315,549.2223214285714,47.128571428571426,3415.5,549.2223214285714,47.128571428571426,3515.6,549.2223214285714,47.128571428571426,3620,549.2223214285714,47.128571428571426,3724.9,549.2223214285714,47.128571428571426,3825.2,549.2223214285714,47.128571428571426,3930.2,549.2223214285714,47.128571428571426,4034.4,549.2223214285714,47.128571428571426,4134.5,549.2223214285714,47.128571428571426,4234.5,549.2223214285714,47.128571428571426,4362.4,549.2223214285714,47.128571428571426,4465.5,549.2223214285714,47.128571428571426,4569.6,549.2223214285714,47.128571428571426,4675.1,549.2223214285714,47.128571428571426,4780.7,549.2223214285714,47.128571428571426,4884.6,549.2223214285714,47.128571428571426,4984.6]","[576,575.9,1000,0.1,-424.1,""error"",""-"",""-"",""no_move"",5373.2,4797,2539,1580.2,1254,""smooth"",""up"",""up"",""good_move"",8229.5,2856,2433.4,5373.5,422.6,""smooth"",""right"",""right"",""good_move"",10716.5,2463.2,2121.5,8253.3,341.7,""smooth"",""up"",""up"",""good_move"",13766.2,3049.4,2746.2,10716.8,303.2,""smooth"",""right"",""right"",""good_move""]","",""
"3647","","<div style=""width:500px;"">
  <p>What determined the result of this run?</p>
  </div>","79","html-slider-response","10","319041","0.0-5.0-1.0","69","1","2025-07-16 08:31:13","1f75c3e559b7213887762d5229550c2b","216.120.189.168","Mozilla/5.0 (Windows NT 10.0; Win64; x64) AppleWebKit/537.36 (KHTML, like Gecko) Chrome/138.0.0.0 Safari/537.36","WebKit","Chrome","138.0.0.0","Windows","10.0","https://app.prolific.com/","en-US,en;q=0.9","674eae0026291e33be89b46f","68764874ac79eee8c1d4cb03","6877633e01fedbf284732742","2","0","674eae0026291e33be89b46f","2","0","2025-07-16T08:38:32.530Z","","","","","","","","","","","AttribQ","","50","","","","","","","","","","","","","","","","","","","","","","","","","","","","",""
"2308","","<div style=""width:500px;"">
  <p>How much control did you have over the ball?</p>
  </div>","65","html-slider-response","11","321349","0.0-5.0-2.0","69","1","2025-07-16 08:31:13","1f75c3e559b7213887762d5229550c2b","216.120.189.168","Mozilla/5.0 (Windows NT 10.0; Win64; x64) AppleWebKit/537.36 (KHTML, like Gecko) Chrome/138.0.0.0 Safari/537.36","WebKit","Chrome","138.0.0.0","Windows","10.0","https://app.prolific.com/","en-US,en;q=0.9","674eae0026291e33be89b46f","68764874ac79eee8c1d4cb03","6877633e01fedbf284732742","2","0","674eae0026291e33be89b46f","2","0","2025-07-16T08:38:34.838Z","","","","","","","","","","","ControlQ","","50","","","","","","","","","","","","","","","","","","","","","","","","","","","","",""
"2369","","<div style=""width:500px;"">
  <p>How would you describe your current emotional state?</p>
  </div>","67","html-slider-response","12","323718","0.0-5.0-3.0","69","1","2025-07-16 08:31:13","1f75c3e559b7213887762d5229550c2b","216.120.189.168","Mozilla/5.0 (Windows NT 10.0; Win64; x64) AppleWebKit/537.36 (KHTML, like Gecko) Chrome/138.0.0.0 Safari/537.36","WebKit","Chrome","138.0.0.0","Windows","10.0","https://app.prolific.com/","en-US,en;q=0.9","674eae0026291e33be89b46f","68764874ac79eee8c1d4cb03","6877633e01fedbf284732742","2","0","674eae0026291e33be89b46f","2","0","2025-07-16T08:38:37.208Z","","","","","","","","","","","StressQ","","50","","","","","","","","","","","","","","","","","","","","","","","","","","","","",""
"2565","","<div style=""width:500px;"">
  <p>What best describes how you currently feel?</p>
  </div>","65","html-slider-response","13","326284","0.0-5.0-4.0","69","1","2025-07-16 08:31:13","1f75c3e559b7213887762d5229550c2b","216.120.189.168","Mozilla/5.0 (Windows NT 10.0; Win64; x64) AppleWebKit/537.36 (KHTML, like Gecko) Chrome/138.0.0.0 Safari/537.36","WebKit","Chrome","138.0.0.0","Windows","10.0","https://app.prolific.com/","en-US,en;q=0.9","674eae0026291e33be89b46f","68764874ac79eee8c1d4cb03","6877633e01fedbf284732742","2","0","674eae0026291e33be89b46f","2","0","2025-07-16T08:38:39.773Z","","","","","","","","","","","MotivationQ","","50","","","","","","","","","","","","","","","","","","","","","","","","","","","","",""
"","","","","ctl-task-cpt","14","353702","0.0-5.0-0.1","69","1","2025-07-16 08:31:13","1f75c3e559b7213887762d5229550c2b","216.120.189.168","Mozilla/5.0 (Windows NT 10.0; Win64; x64) AppleWebKit/537.36 (KHTML, like Gecko) Chrome/138.0.0.0 Safari/537.36","WebKit","Chrome","138.0.0.0","Windows","10.0","https://app.prolific.com/","en-US,en;q=0.9","674eae0026291e33be89b46f","68764874ac79eee8c1d4cb03","6877633e01fedbf284732742","2","0","674eae0026291e33be89b46f","2","0","2025-07-16T08:39:07.191Z","","","","","","","","","","","","","","win-only","1","g1:NE,g2:SW","0.9","2","0","353861.8","2762.6","7765.7","24401.2","1","4","4","6","1","1","1","1","0","0.007575757575757576","3073.3","3000","1545","[""up"",""right""]","{""num_key_presses"":4,""num_perfect"":4,""num_errors"":0,""num_randdir"":0,""num_randdir_good_moves"":0,""num_whilered"":0,""num_whileblue"":0,""num_blue"":2,""num_good_moves"":4}","[294.22232142857143,294.12857142857143,9.7,294.22232142857143,294.12857142857143,103.3,294.22232142857143,294.12857142857143,207.8,294.22232142857143,294.12857142857143,308.9,294.22232142857143,294.12857142857143,413.2,294.22232142857143,294.12857142857143,518.3,294.22232142857143,294.12857142857143,618.7,294.22232142857143,294.12857142857143,722.8,294.22232142857143,294.12857142857143,822.9,294.22232142857143,294.12857142857143,922.9,294.22232142857143,294.12857142857143,1028.6,294.22232142857143,294.12857142857143,1132.7,294.22232142857143,294.12857142857143,1233.1,294.22232142857143,294.12857142857143,1334.3,294.22232142857143,294.12857142857143,1438.5,294.22232142857143,294.12857142857143,1538.6,294.22232142857143,294.12857142857143,1642.9,294.22232142857143,294.12857142857143,1743,304.22232142857143,284.12857142857143,1843.6,387.22232142857143,211.12857142857143,1948.2,471.22232142857143,160.12857142857143,2053.1,476.22232142857143,155.12857142857143,2153.4,476.22232142857143,155.12857142857143,2258.5,508.22232142857143,90.12857142857143,2363.8,523.2223214285714,70.12857142857143,2463.8,531.2223214285714,66.12857142857143,2564.5,534.2223214285714,66.12857142857143,2668,534.2223214285714,66.12857142857143,2768.3,535.2223214285714,66.12857142857143,2872.9,535.2223214285714,66.12857142857143,2973.6,535.2223214285714,66.12857142857143,3075.5,535.2223214285714,66.12857142857143,3178.7,535.2223214285714,66.12857142857143,3278.7,535.2223214285714,66.12857142857143,3383.2,535.2223214285714,66.12857142857143,3488.7,514.2223214285714,109.12857142857143,3593.5,451.22232142857143,233.12857142857143,3694.2,451.22232142857143,237.12857142857143,3798.7,451.22232142857143,237.12857142857143,3899.1,451.22232142857143,237.12857142857143,4003.9,451.22232142857143,237.12857142857143,4103.9,451.22232142857143,237.12857142857143,4207.7,451.22232142857143,237.12857142857143,4308.3,451.22232142857143,237.12857142857143,4413.1,451.22232142857143,237.12857142857143,4518.1,451.22232142857143,237.12857142857143,4618.4,451.22232142857143,237.12857142857143,4723,451.22232142857143,237.12857142857143,4827.7,451.22232142857143,237.12857142857143,4928.1]","[1367.9,1367.9,1000,0,367.9,""smooth"",""up"",""up"",""good_move"",3884.2,2515.5,2159.4,1368.7,356.1,""smooth"",""right"",""right"",""good_move"",13271.9,9387.5,2097.7,10780.6,393.6,""smooth"",""up"",""up"",""good_move"",16547.7,3275.6,2920.2,13272.1,355.4,""smooth"",""right"",""right"",""good_move""]","",""
"3753","","<div style=""width:500px;"">
  <p>What determined the result of this run?</p>
  </div>","72","html-slider-response","15","357457","0.0-5.0-1.1","69","1","2025-07-16 08:31:13","1f75c3e559b7213887762d5229550c2b","216.120.189.168","Mozilla/5.0 (Windows NT 10.0; Win64; x64) AppleWebKit/537.36 (KHTML, like Gecko) Chrome/138.0.0.0 Safari/537.36","WebKit","Chrome","138.0.0.0","Windows","10.0","https://app.prolific.com/","en-US,en;q=0.9","674eae0026291e33be89b46f","68764874ac79eee8c1d4cb03","6877633e01fedbf284732742","2","0","674eae0026291e33be89b46f","2","0","2025-07-16T08:39:10.946Z","","","","","","","","","","","AttribQ","","50","","","","","","","","","","","","","","","","","","","","","","","","","","","","",""
"142062","","<div style=""width:500px;"">
  <p>How much control did you have over the ball?</p>
  </div>","67","html-slider-response","16","499521","0.0-5.0-2.1","69","1","2025-07-16 08:31:13","1f75c3e559b7213887762d5229550c2b","216.120.189.168","Mozilla/5.0 (Windows NT 10.0; Win64; x64) AppleWebKit/537.36 (KHTML, like Gecko) Chrome/138.0.0.0 Safari/537.36","WebKit","Chrome","138.0.0.0","Windows","10.0","https://app.prolific.com/","en-US,en;q=0.9","674eae0026291e33be89b46f","68764874ac79eee8c1d4cb03","6877633e01fedbf284732742","2","0","674eae0026291e33be89b46f","2","0","2025-07-16T08:41:33.010Z","","","","","","","","","","","ControlQ","","50","","","","","","","","","","","","","","","","","","","","","","","","","","","","",""
"10224","","<div style=""width:500px;"">
  <p>How would you describe your current emotional state?</p>
  </div>","71","html-slider-response","17","509745","0.0-5.0-3.1","69","1","2025-07-16 08:31:13","1f75c3e559b7213887762d5229550c2b","216.120.189.168","Mozilla/5.0 (Windows NT 10.0; Win64; x64) AppleWebKit/537.36 (KHTML, like Gecko) Chrome/138.0.0.0 Safari/537.36","WebKit","Chrome","138.0.0.0","Windows","10.0","https://app.prolific.com/","en-US,en;q=0.9","674eae0026291e33be89b46f","68764874ac79eee8c1d4cb03","6877633e01fedbf284732742","2","0","674eae0026291e33be89b46f","2","0","2025-07-16T08:41:43.235Z","","","","","","","","","","","StressQ","","50","","","","","","","","","","","","","","","","","","","","","","","","","","","","",""
"8896","","<div style=""width:500px;"">
  <p>What best describes how you currently feel?</p>
  </div>","69","html-slider-response","18","518643","0.0-5.0-4.1","69","1","2025-07-16 08:31:13","1f75c3e559b7213887762d5229550c2b","216.120.189.168","Mozilla/5.0 (Windows NT 10.0; Win64; x64) AppleWebKit/537.36 (KHTML, like Gecko) Chrome/138.0.0.0 Safari/537.36","WebKit","Chrome","138.0.0.0","Windows","10.0","https://app.prolific.com/","en-US,en;q=0.9","674eae0026291e33be89b46f","68764874ac79eee8c1d4cb03","6877633e01fedbf284732742","2","0","674eae0026291e33be89b46f","2","0","2025-07-16T08:41:52.132Z","","","","","","","","","","","MotivationQ","","50","","","","","","","","","","","","","","","","","","","","","","","","","","","","",""
"","","","","ctl-task-cpt","19","546812","0.0-5.0-0.2","69","1","2025-07-16 08:31:13","1f75c3e559b7213887762d5229550c2b","216.120.189.168","Mozilla/5.0 (Windows NT 10.0; Win64; x64) AppleWebKit/537.36 (KHTML, like Gecko) Chrome/138.0.0.0 Safari/537.36","WebKit","Chrome","138.0.0.0","Windows","10.0","https://app.prolific.com/","en-US,en;q=0.9","674eae0026291e33be89b46f","68764874ac79eee8c1d4cb03","6877633e01fedbf284732742","2","0","674eae0026291e33be89b46f","2","0","2025-07-16T08:42:20.301Z","","","","","","","","","","","","","","win-only","2","g1:SE,g2:NW","0.8","3","0","546221.3","2013.4","7016.1","25151.4","1","4","8","6","1","1","1","2","1","0.015151515151515152","1947.1","3000","650","[""down"",""right""]","{""num_key_presses"":6,""num_perfect"":5,""num_errors"":0,""num_randdir"":1,""num_randdir_good_moves"":0,""num_whilered"":0,""num_whileblue"":0,""num_blue"":1,""num_good_moves"":5}","[299.22232142857143,296.12857142857143,0.3,299.22232142857143,296.12857142857143,102.5,299.22232142857143,296.12857142857143,208,299.22232142857143,296.12857142857143,312.3,299.22232142857143,296.12857142857143,412.3,299.22232142857143,296.12857142857143,518.2,299.22232142857143,302.12857142857143,622.8,313.22232142857143,328.12857142857143,727.4,346.22232142857143,388.12857142857143,828.3,347.22232142857143,388.12857142857143,932.9,364.22232142857143,393.12857142857143,1034.4,559.2223214285714,603.1285714285714,1137.7,559.2223214285714,603.1285714285714,1237.8,559.2223214285714,603.1285714285714,1338.4,563.2223214285714,599.1285714285714,1442.9,559.2223214285714,574.1285714285714,1543.2,549.2223214285714,561.1285714285714,1647.2,548.2223214285714,561.1285714285714,1747.5,548.2223214285714,561.1285714285714,1853,548.2223214285714,561.1285714285714,1957.2,548.2223214285714,561.1285714285714,2057.4,548.2223214285714,561.1285714285714,2158,548.2223214285714,561.1285714285714,2263.7,548.2223214285714,561.1285714285714,2368.6,548.2223214285714,561.1285714285714,2472.2,548.2223214285714,561.1285714285714,2572.4,548.2223214285714,561.1285714285714,2677.6,548.2223214285714,561.1285714285714,2777.8,548.2223214285714,561.1285714285714,2877.8,548.2223214285714,561.1285714285714,2978.5,548.2223214285714,561.1285714285714,3082.4,548.2223214285714,561.1285714285714,3182.9,548.2223214285714,561.1285714285714,3287.6,548.2223214285714,561.1285714285714,3388,548.2223214285714,561.1285714285714,3493.1,548.2223214285714,561.1285714285714,3597.5,548.2223214285714,561.1285714285714,3697.5,548.2223214285714,561.1285714285714,3798.1,548.2223214285714,561.1285714285714,3902.9,548.2223214285714,561.1285714285714,4003.4,548.2223214285714,561.1285714285714,4107.2,548.2223214285714,561.1285714285714,4212.4,548.2223214285714,561.1285714285714,4317.6,548.2223214285714,561.1285714285714,4417.8,548.2223214285714,561.1285714285714,4520,548.2223214285714,561.1285714285714,4622.6,548.2223214285714,561.1285714285714,4727.8,548.2223214285714,561.1285714285714,4833.3,548.2223214285714,561.1285714285714,4937.6]","[1425.1,1425.1,1000,0,425.1,""smooth"",""down"",""down"",""good_move"",4637.4,3212,2823,1425.4,389,""oops"",""down"",""up"",""bad_move"",9523.9,4886,1612.7,7540.1,371.1,""smooth"",""right"",""right"",""good_move"",12383.3,2859.2,2381.1,9524.1,478.1,""smooth"",""down"",""down"",""good_move"",15347.7,2963.8,2521.2,12384,442.5,""smooth"",""right"",""right"",""good_move"",18042.8,2695,2251.7,15347.8,443.3,""smooth"",""down"",""down"",""good_move""]","",""
"3725","","<div style=""width:500px;"">
  <p>What determined the result of this run?</p>
  </div>","76","html-slider-response","20","550538","0.0-5.0-1.2","69","1","2025-07-16 08:31:13","1f75c3e559b7213887762d5229550c2b","216.120.189.168","Mozilla/5.0 (Windows NT 10.0; Win64; x64) AppleWebKit/537.36 (KHTML, like Gecko) Chrome/138.0.0.0 Safari/537.36","WebKit","Chrome","138.0.0.0","Windows","10.0","https://app.prolific.com/","en-US,en;q=0.9","674eae0026291e33be89b46f","68764874ac79eee8c1d4cb03","6877633e01fedbf284732742","2","0","674eae0026291e33be89b46f","2","0","2025-07-16T08:42:24.027Z","","","","","","","","","","","AttribQ","","50","","","","","","","","","","","","","","","","","","","","","","","","","","","","",""
"2454","","<div style=""width:500px;"">
  <p>How much control did you have over the ball?</p>
  </div>","74","html-slider-response","21","552994","0.0-5.0-2.2","69","1","2025-07-16 08:31:13","1f75c3e559b7213887762d5229550c2b","216.120.189.168","Mozilla/5.0 (Windows NT 10.0; Win64; x64) AppleWebKit/537.36 (KHTML, like Gecko) Chrome/138.0.0.0 Safari/537.36","WebKit","Chrome","138.0.0.0","Windows","10.0","https://app.prolific.com/","en-US,en;q=0.9","674eae0026291e33be89b46f","68764874ac79eee8c1d4cb03","6877633e01fedbf284732742","2","0","674eae0026291e33be89b46f","2","0","2025-07-16T08:42:26.483Z","","","","","","","","","","","ControlQ","","50","","","","","","","","","","","","","","","","","","","","","","","","","","","","",""
"3037","","<div style=""width:500px;"">
  <p>How would you describe your current emotional state?</p>
  </div>","76","html-slider-response","22","556031","0.0-5.0-3.2","69","1","2025-07-16 08:31:13","1f75c3e559b7213887762d5229550c2b","216.120.189.168","Mozilla/5.0 (Windows NT 10.0; Win64; x64) AppleWebKit/537.36 (KHTML, like Gecko) Chrome/138.0.0.0 Safari/537.36","WebKit","Chrome","138.0.0.0","Windows","10.0","https://app.prolific.com/","en-US,en;q=0.9","674eae0026291e33be89b46f","68764874ac79eee8c1d4cb03","6877633e01fedbf284732742","2","0","674eae0026291e33be89b46f","2","0","2025-07-16T08:42:29.520Z","","","","","","","","","","","StressQ","","50","","","","","","","","","","","","","","","","","","","","","","","","","","","","",""
"2495","","<div style=""width:500px;"">
  <p>What best describes how you currently feel?</p>
  </div>","77","html-slider-response","23","558527","0.0-5.0-4.2","69","1","2025-07-16 08:31:13","1f75c3e559b7213887762d5229550c2b","216.120.189.168","Mozilla/5.0 (Windows NT 10.0; Win64; x64) AppleWebKit/537.36 (KHTML, like Gecko) Chrome/138.0.0.0 Safari/537.36","WebKit","Chrome","138.0.0.0","Windows","10.0","https://app.prolific.com/","en-US,en;q=0.9","674eae0026291e33be89b46f","68764874ac79eee8c1d4cb03","6877633e01fedbf284732742","2","0","674eae0026291e33be89b46f","2","0","2025-07-16T08:42:32.016Z","","","","","","","","","","","MotivationQ","","50","","","","","","","","","","","","","","","","","","","","","","","","","","","","",""
"","","","","ctl-task-cpt","24","594390","0.0-5.0-0.3","69","1","2025-07-16 08:31:13","1f75c3e559b7213887762d5229550c2b","216.120.189.168","Mozilla/5.0 (Windows NT 10.0; Win64; x64) AppleWebKit/537.36 (KHTML, like Gecko) Chrome/138.0.0.0 Safari/537.36","WebKit","Chrome","138.0.0.0","Windows","10.0","https://app.prolific.com/","en-US,en;q=0.9","674eae0026291e33be89b46f","68764874ac79eee8c1d4cb03","6877633e01fedbf284732742","2","0","674eae0026291e33be89b46f","2","0","2025-07-16T08:43:07.879Z","","","","","","","","","","","","","","win-only","1","g1:NE,g2:SW","0.7","4","0","586106","1769.7","6770.8","32835.9","1","4","4","6","1","1","1","3","2","0.022727272727272728","1534.1","3000","900","[""up"",""right""]","{""num_key_presses"":6,""num_perfect"":4,""num_errors"":0,""num_randdir"":2,""num_randdir_good_moves"":1,""num_whilered"":0,""num_whileblue"":0,""num_blue"":2,""num_good_moves"":5}","[296.22232142857143,297.12857142857143,0.3,296.22232142857143,297.12857142857143,100.8,296.22232142857143,297.12857142857143,201.2,296.22232142857143,297.12857142857143,309.8,296.22232142857143,297.12857142857143,409.8,296.22232142857143,297.12857142857143,509.9,296.22232142857143,297.12857142857143,611.5,296.22232142857143,297.12857142857143,716.1,340.22232142857143,237.12857142857143,816.1,432.22232142857143,133.12857142857143,925.7,500.22232142857143,72.12857142857143,1026,533.2223214285714,46.128571428571426,1126.6,546.2223214285714,41.128571428571426,1227.3,546.2223214285714,41.128571428571426,1332.7,546.2223214285714,41.128571428571426,1437.2,546.2223214285714,41.128571428571426,1540.5,546.2223214285714,41.128571428571426,1641.2,546.2223214285714,41.128571428571426,1744.5,546.2223214285714,41.128571428571426,1846.2,546.2223214285714,41.128571428571426,1951.3,546.2223214285714,41.128571428571426,2058.9,546.2223214285714,41.128571428571426,2160.5,546.2223214285714,41.128571428571426,2260.8,546.2223214285714,41.128571428571426,2366,546.2223214285714,41.128571428571426,2476.3,546.2223214285714,41.128571428571426,2581,546.2223214285714,41.128571428571426,2687,546.2223214285714,41.128571428571426,2793.7,546.2223214285714,41.128571428571426,2896.2,546.2223214285714,41.128571428571426,3001,546.2223214285714,41.128571428571426,3101.5,546.2223214285714,41.128571428571426,3209.7,546.2223214285714,41.128571428571426,3311,546.2223214285714,41.128571428571426,3411.4,546.2223214285714,41.128571428571426,3515.9,546.2223214285714,41.128571428571426,3616.3,546.2223214285714,41.128571428571426,3717.1,546.2223214285714,41.128571428571426,3826.8,546.2223214285714,41.128571428571426,3932.1,546.2223214285714,41.128571428571426,4036.4,546.2223214285714,41.128571428571426,4137.3,546.2223214285714,41.128571428571426,4243.2,546.2223214285714,41.128571428571426,4346.9,546.2223214285714,41.128571428571426,4452.3,546.2223214285714,41.128571428571426,4558.9,546.2223214285714,41.128571428571426,4659.4,545.2223214285714,43.128571428571426,4759.5,511.22232142857143,92.12857142857143,4859.6,483.22232142857143,130.12857142857143,4960.2]","[1574.6,1574.6,1000,0,574.6,""smooth"",""up"",""up"",""good_move"",4990.2,3415.1,3056.4,1575.1,358.7,""oops"",""right"",""left"",""bad_move"",8723.2,3732.7,3395,4990.6,337.6,""smooth"",""up"",""up"",""good_move"",15073.9,6350.3,2092.2,12614.8,366.9,""oops"",""right"",""right"",""good_move"",18692.6,3618.5,3239.3,15074.2,379.2,""smooth"",""right"",""right"",""good_move"",25971.5,7278.7,3115.4,22473.8,382.3,""smooth"",""right"",""right"",""good_move""]","",""
"2876","","<div style=""width:500px;"">
  <p>What determined the result of this run?</p>
  </div>","79","html-slider-response","25","597267","0.0-5.0-1.3","69","1","2025-07-16 08:31:13","1f75c3e559b7213887762d5229550c2b","216.120.189.168","Mozilla/5.0 (Windows NT 10.0; Win64; x64) AppleWebKit/537.36 (KHTML, like Gecko) Chrome/138.0.0.0 Safari/537.36","WebKit","Chrome","138.0.0.0","Windows","10.0","https://app.prolific.com/","en-US,en;q=0.9","674eae0026291e33be89b46f","68764874ac79eee8c1d4cb03","6877633e01fedbf284732742","2","0","674eae0026291e33be89b46f","2","0","2025-07-16T08:43:10.757Z","","","","","","","","","","","AttribQ","","50","","","","","","","","","","","","","","","","","","","","","","","","","","","","",""
"2323","","<div style=""width:500px;"">
  <p>How much control did you have over the ball?</p>
  </div>","73","html-slider-response","26","599591","0.0-5.0-2.3","69","1","2025-07-16 08:31:13","1f75c3e559b7213887762d5229550c2b","216.120.189.168","Mozilla/5.0 (Windows NT 10.0; Win64; x64) AppleWebKit/537.36 (KHTML, like Gecko) Chrome/138.0.0.0 Safari/537.36","WebKit","Chrome","138.0.0.0","Windows","10.0","https://app.prolific.com/","en-US,en;q=0.9","674eae0026291e33be89b46f","68764874ac79eee8c1d4cb03","6877633e01fedbf284732742","2","0","674eae0026291e33be89b46f","2","0","2025-07-16T08:43:13.081Z","","","","","","","","","","","ControlQ","","50","","","","","","","","","","","","","","","","","","","","","","","","","","","","",""
"2167","","<div style=""width:500px;"">
  <p>How would you describe your current emotional state?</p>
  </div>","68","html-slider-response","27","601760","0.0-5.0-3.3","69","1","2025-07-16 08:31:13","1f75c3e559b7213887762d5229550c2b","216.120.189.168","Mozilla/5.0 (Windows NT 10.0; Win64; x64) AppleWebKit/537.36 (KHTML, like Gecko) Chrome/138.0.0.0 Safari/537.36","WebKit","Chrome","138.0.0.0","Windows","10.0","https://app.prolific.com/","en-US,en;q=0.9","674eae0026291e33be89b46f","68764874ac79eee8c1d4cb03","6877633e01fedbf284732742","2","0","674eae0026291e33be89b46f","2","0","2025-07-16T08:43:15.250Z","","","","","","","","","","","StressQ","","50","","","","","","","","","","","","","","","","","","","","","","","","","","","","",""
"2491","","<div style=""width:500px;"">
  <p>What best describes how you currently feel?</p>
  </div>","74","html-slider-response","28","604254","0.0-5.0-4.3","69","1","2025-07-16 08:31:13","1f75c3e559b7213887762d5229550c2b","216.120.189.168","Mozilla/5.0 (Windows NT 10.0; Win64; x64) AppleWebKit/537.36 (KHTML, like Gecko) Chrome/138.0.0.0 Safari/537.36","WebKit","Chrome","138.0.0.0","Windows","10.0","https://app.prolific.com/","en-US,en;q=0.9","674eae0026291e33be89b46f","68764874ac79eee8c1d4cb03","6877633e01fedbf284732742","2","0","674eae0026291e33be89b46f","2","0","2025-07-16T08:43:17.743Z","","","","","","","","","","","MotivationQ","","50","","","","","","","","","","","","","","","","","","","","","","","","","","","","",""
"","","","","ctl-task-cpt","29","643309","0.0-5.0-0.4","69","1","2025-07-16 08:31:13","1f75c3e559b7213887762d5229550c2b","216.120.189.168","Mozilla/5.0 (Windows NT 10.0; Win64; x64) AppleWebKit/537.36 (KHTML, like Gecko) Chrome/138.0.0.0 Safari/537.36","WebKit","Chrome","138.0.0.0","Windows","10.0","https://app.prolific.com/","en-US,en;q=0.9","674eae0026291e33be89b46f","68764874ac79eee8c1d4cb03","6877633e01fedbf284732742","2","0","674eae0026291e33be89b46f","2","0","2025-07-16T08:43:56.798Z","","","","","","","","","","","","","","win-only","1","g1:NE,g2:SW","0.6","5","0","631832.4","1625.8","6631.7","36032.6","1","4","8","6","2","8","8","11","3","0.08333333333333333","1324.8","3000","110","[""down"",""left""]","{""num_key_presses"":8,""num_perfect"":5,""num_errors"":0,""num_randdir"":3,""num_randdir_good_moves"":2,""num_whilered"":0,""num_whileblue"":0,""num_blue"":2,""num_good_moves"":7}","[291.22232142857143,299.12857142857143,0.2,291.22232142857143,299.12857142857143,105.7,291.22232142857143,299.12857142857143,206.4,291.22232142857143,299.12857142857143,310.2,291.22232142857143,299.12857142857143,410.5,285.22232142857143,302.12857142857143,514.5,158.22232142857143,434.12857142857143,615.1,98.22232142857143,510.12857142857143,715.3,84.22232142857143,529.1285714285714,815.6,71.22232142857143,546.1285714285714,920.9,68.22232142857143,547.1285714285714,1021.4,68.22232142857143,547.1285714285714,1126.5,68.22232142857143,547.1285714285714,1230.8,68.22232142857143,547.1285714285714,1335.1,68.22232142857143,547.1285714285714,1442,68.22232142857143,547.1285714285714,1544.2,68.22232142857143,547.1285714285714,1644.6,68.22232142857143,547.1285714285714,1745.3,68.22232142857143,547.1285714285714,1850.3,68.22232142857143,547.1285714285714,1957.2,68.22232142857143,547.1285714285714,2057.8,68.22232142857143,547.1285714285714,2161.3,68.22232142857143,547.1285714285714,2265,68.22232142857143,547.1285714285714,2370.5,68.22232142857143,547.1285714285714,2470.9,68.22232142857143,547.1285714285714,2571.1,68.22232142857143,547.1285714285714,2676.3,68.22232142857143,547.1285714285714,2778.8,68.22232142857143,547.1285714285714,2880.3,68.22232142857143,547.1285714285714,2984.7,68.22232142857143,547.1285714285714,3093.3,68.22232142857143,547.1285714285714,3196.5,68.22232142857143,547.1285714285714,3300.5,68.22232142857143,547.1285714285714,3404.5,68.22232142857143,547.1285714285714,3504.7,68.22232142857143,547.1285714285714,3607.2,68.22232142857143,547.1285714285714,3710.4,68.22232142857143,547.1285714285714,3814.6,68.22232142857143,547.1285714285714,3920.1,68.22232142857143,547.1285714285714,4020.3,68.22232142857143,547.1285714285714,4121.2,68.22232142857143,547.1285714285714,4226,68.22232142857143,547.1285714285714,4326.3,68.22232142857143,547.1285714285714,4430.4,68.22232142857143,547.1285714285714,4534.7,68.22232142857143,547.1285714285714,4634.8,68.22232142857143,547.1285714285714,4742,68.22232142857143,547.1285714285714,4844.3,68.22232142857143,547.1285714285714,4944.7]","[1458.2,1458.2,1000,0,458.2,""oops"",""down"",""left"",""good_move"",4620.8,3162.2,2776.4,1458.6,385.8,""smooth"",""down"",""down"",""good_move"",8020.3,3399.1,3015.2,4621.2,383.9,""oops"",""down"",""up"",""bad_move"",10817.2,2796.5,2431.2,8020.7,365.3,""smooth"",""down"",""down"",""good_move"",13287,2468.5,2111,10818.5,357.6,""smooth"",""down"",""down"",""good_move"",23852.2,10564.7,3458,19998.9,395.3,""smooth"",""left"",""left"",""good_move"",26953.5,3100.5,2732.5,23853.1,367.9,""smooth"",""down"",""down"",""good_move"",29298.8,2345,2026,26953.8,319,""oops"",""left"",""left"",""good_move""]","",""
"3526","","<div style=""width:500px;"">
  <p>What determined the result of this run?</p>
  </div>","72","html-slider-response","30","646836","0.0-5.0-1.4","69","1","2025-07-16 08:31:13","1f75c3e559b7213887762d5229550c2b","216.120.189.168","Mozilla/5.0 (Windows NT 10.0; Win64; x64) AppleWebKit/537.36 (KHTML, like Gecko) Chrome/138.0.0.0 Safari/537.36","WebKit","Chrome","138.0.0.0","Windows","10.0","https://app.prolific.com/","en-US,en;q=0.9","674eae0026291e33be89b46f","68764874ac79eee8c1d4cb03","6877633e01fedbf284732742","2","0","674eae0026291e33be89b46f","2","0","2025-07-16T08:44:00.325Z","","","","","","","","","","","AttribQ","","50","","","","","","","","","","","","","","","","","","","","","","","","","","","","",""
"53776","","<div style=""width:500px;"">
  <p>How much control did you have over the ball?</p>
  </div>","64","html-slider-response","31","700613","0.0-5.0-2.4","69","1","2025-07-16 08:31:13","1f75c3e559b7213887762d5229550c2b","216.120.189.168","Mozilla/5.0 (Windows NT 10.0; Win64; x64) AppleWebKit/537.36 (KHTML, like Gecko) Chrome/138.0.0.0 Safari/537.36","WebKit","Chrome","138.0.0.0","Windows","10.0","https://app.prolific.com/","en-US,en;q=0.9","674eae0026291e33be89b46f","68764874ac79eee8c1d4cb03","6877633e01fedbf284732742","2","0","674eae0026291e33be89b46f","2","0","2025-07-16T08:44:54.102Z","","","","","","","","","","","ControlQ","","50","","","","","","","","","","","","","","","","","","","","","","","","","","","","",""
"4462","","<div style=""width:500px;"">
  <p>How would you describe your current emotional state?</p>
  </div>","67","html-slider-response","32","705076","0.0-5.0-3.4","69","1","2025-07-16 08:31:13","1f75c3e559b7213887762d5229550c2b","216.120.189.168","Mozilla/5.0 (Windows NT 10.0; Win64; x64) AppleWebKit/537.36 (KHTML, like Gecko) Chrome/138.0.0.0 Safari/537.36","WebKit","Chrome","138.0.0.0","Windows","10.0","https://app.prolific.com/","en-US,en;q=0.9","674eae0026291e33be89b46f","68764874ac79eee8c1d4cb03","6877633e01fedbf284732742","2","0","674eae0026291e33be89b46f","2","0","2025-07-16T08:44:58.565Z","","","","","","","","","","","StressQ","","50","","","","","","","","","","","","","","","","","","","","","","","","","","","","",""
"39539","","<div style=""width:500px;"">
  <p>What best describes how you currently feel?</p>
  </div>","64","html-slider-response","33","744617","0.0-5.0-4.4","69","1","2025-07-16 08:31:13","1f75c3e559b7213887762d5229550c2b","216.120.189.168","Mozilla/5.0 (Windows NT 10.0; Win64; x64) AppleWebKit/537.36 (KHTML, like Gecko) Chrome/138.0.0.0 Safari/537.36","WebKit","Chrome","138.0.0.0","Windows","10.0","https://app.prolific.com/","en-US,en;q=0.9","674eae0026291e33be89b46f","68764874ac79eee8c1d4cb03","6877633e01fedbf284732742","2","0","674eae0026291e33be89b46f","2","0","2025-07-16T08:45:38.107Z","","","","","","","","","","","MotivationQ","","50","","","","","","","","","","","","","","","","","","","","","","","","","","","","",""
"","","","","ctl-task-cpt","34","781345","0.0-5.0-0.5","69","1","2025-07-16 08:31:13","1f75c3e559b7213887762d5229550c2b","216.120.189.168","Mozilla/5.0 (Windows NT 10.0; Win64; x64) AppleWebKit/537.36 (KHTML, like Gecko) Chrome/138.0.0.0 Safari/537.36","WebKit","Chrome","138.0.0.0","Windows","10.0","https://app.prolific.com/","en-US,en;q=0.9","674eae0026291e33be89b46f","68764874ac79eee8c1d4cb03","6877633e01fedbf284732742","2","0","674eae0026291e33be89b46f","2","0","2025-07-16T08:46:14.834Z","","","","","","","","","","","","","","win-only","0","g1:NW,g2:SE","0.5","6","0","772197.3","2931.7","7935.7","33700.8","1","4","4","6","2","-4","-5","6","11","0.045454545454545456","1740.3","3000","-2580","[""down"",""right""]","{""num_key_presses"":9,""num_perfect"":5,""num_errors"":1,""num_randdir"":3,""num_randdir_good_moves"":1,""num_whilered"":0,""num_whileblue"":1,""num_blue"":1,""num_good_moves"":7}","[293.22232142857143,291.12857142857143,0.3,293.22232142857143,291.12857142857143,103.7,293.22232142857143,291.12857142857143,203.7,293.22232142857143,291.12857142857143,307.1,293.22232142857143,291.12857142857143,410.5,293.22232142857143,291.12857142857143,513.9,293.22232142857143,291.12857142857143,614.3,317.22232142857143,317.12857142857143,714.7,409.22232142857143,424.12857142857143,818.8,410.22232142857143,426.12857142857143,928.4,410.22232142857143,427.12857142857143,1028.9,462.22232142857143,488.12857142857143,1129.6,503.22232142857143,524.1285714285714,1229.6,515.2223214285714,530.1285714285714,1330.9,529.2223214285714,541.1285714285714,1435,529.2223214285714,541.1285714285714,1544.1,529.2223214285714,541.1285714285714,1648.5,529.2223214285714,541.1285714285714,1749.7,529.2223214285714,541.1285714285714,1855.3,529.2223214285714,541.1285714285714,1960,529.2223214285714,541.1285714285714,2061.4,529.2223214285714,541.1285714285714,2161.8,529.2223214285714,541.1285714285714,2263.8,529.2223214285714,541.1285714285714,2369.5,529.2223214285714,541.1285714285714,2477.4,529.2223214285714,541.1285714285714,2582.8,529.2223214285714,541.1285714285714,2683.5,529.2223214285714,541.1285714285714,2784.9,529.2223214285714,541.1285714285714,2888.9,529.2223214285714,541.1285714285714,2994.5,529.2223214285714,541.1285714285714,3095,529.2223214285714,541.1285714285714,3198.8,529.2223214285714,541.1285714285714,3299.3,529.2223214285714,541.1285714285714,3405,529.2223214285714,541.1285714285714,3509,529.2223214285714,541.1285714285714,3614.4,529.2223214285714,541.1285714285714,3714.7,529.2223214285714,541.1285714285714,3815,529.2223214285714,541.1285714285714,3915,529.2223214285714,541.1285714285714,4023.1,529.2223214285714,541.1285714285714,4123.5,529.2223214285714,541.1285714285714,4228.9,529.2223214285714,541.1285714285714,4333.9,529.2223214285714,541.1285714285714,4444.9,529.2223214285714,541.1285714285714,4545.3,529.2223214285714,541.1285714285714,4646.7,529.2223214285714,541.1285714285714,4750.8,529.2223214285714,541.1285714285714,4854,529.2223214285714,541.1285714285714,4957.2]","[1411,1411,1000,0,411,""oops"",""down"",""left"",""bad_move"",4840.8,3429.4,3011,1411.5,418.4,""smooth"",""down"",""down"",""good_move"",7335.2,2493.6,2050.3,4841.6,443.3,""smooth"",""down"",""down"",""good_move"",9616.6,2280.9,1913.9,7335.7,367,""smooth"",""down"",""down"",""good_move"",12458.2,2841.5,2345.7,9616.8,495.8,""smooth"",""right"",""right"",""good_move"",14753,2294.4,1980.4,12458.6,314,""oops"",""right"",""up"",""bad_move"",17404.1,2650.4,2354.4,14753.7,296,""smooth"",""right"",""right"",""good_move"",20355.6,2951.2,2675.6,17404.5,275.5,""oops"",""right"",""right"",""good_move"",23201.4,2845.6,2584.7,20355.8,260.9,""while_blue"",""right"",""down"",""good_move""]","",""
"89539","","<div style=""width:500px;"">
  <p>What determined the result of this run?</p>
  </div>","67","html-slider-response","35","870885","0.0-5.0-1.5","69","1","2025-07-16 08:31:13","1f75c3e559b7213887762d5229550c2b","216.120.189.168","Mozilla/5.0 (Windows NT 10.0; Win64; x64) AppleWebKit/537.36 (KHTML, like Gecko) Chrome/138.0.0.0 Safari/537.36","WebKit","Chrome","138.0.0.0","Windows","10.0","https://app.prolific.com/","en-US,en;q=0.9","674eae0026291e33be89b46f","68764874ac79eee8c1d4cb03","6877633e01fedbf284732742","2","0","674eae0026291e33be89b46f","2","0","2025-07-16T08:47:44.374Z","","","","","","","","","","","AttribQ","","50","","","","","","","","","","","","","","","","","","","","","","","","","","","","",""
"2503","","<div style=""width:500px;"">
  <p>How much control did you have over the ball?</p>
  </div>","71","html-slider-response","36","873389","0.0-5.0-2.5","69","1","2025-07-16 08:31:13","1f75c3e559b7213887762d5229550c2b","216.120.189.168","Mozilla/5.0 (Windows NT 10.0; Win64; x64) AppleWebKit/537.36 (KHTML, like Gecko) Chrome/138.0.0.0 Safari/537.36","WebKit","Chrome","138.0.0.0","Windows","10.0","https://app.prolific.com/","en-US,en;q=0.9","674eae0026291e33be89b46f","68764874ac79eee8c1d4cb03","6877633e01fedbf284732742","2","0","674eae0026291e33be89b46f","2","0","2025-07-16T08:47:46.878Z","","","","","","","","","","","ControlQ","","50","","","","","","","","","","","","","","","","","","","","","","","","","","","","",""
"2657","","<div style=""width:500px;"">
  <p>How would you describe your current emotional state?</p>
  </div>","65","html-slider-response","37","876048","0.0-5.0-3.5","69","1","2025-07-16 08:31:13","1f75c3e559b7213887762d5229550c2b","216.120.189.168","Mozilla/5.0 (Windows NT 10.0; Win64; x64) AppleWebKit/537.36 (KHTML, like Gecko) Chrome/138.0.0.0 Safari/537.36","WebKit","Chrome","138.0.0.0","Windows","10.0","https://app.prolific.com/","en-US,en;q=0.9","674eae0026291e33be89b46f","68764874ac79eee8c1d4cb03","6877633e01fedbf284732742","2","0","674eae0026291e33be89b46f","2","0","2025-07-16T08:47:49.537Z","","","","","","","","","","","StressQ","","50","","","","","","","","","","","","","","","","","","","","","","","","","","","","",""
"3665","","<div style=""width:500px;"">
  <p>What best describes how you currently feel?</p>
  </div>","34","html-slider-response","38","879714","0.0-5.0-4.5","69","1","2025-07-16 08:31:13","1f75c3e559b7213887762d5229550c2b","216.120.189.168","Mozilla/5.0 (Windows NT 10.0; Win64; x64) AppleWebKit/537.36 (KHTML, like Gecko) Chrome/138.0.0.0 Safari/537.36","WebKit","Chrome","138.0.0.0","Windows","10.0","https://app.prolific.com/","en-US,en;q=0.9","674eae0026291e33be89b46f","68764874ac79eee8c1d4cb03","6877633e01fedbf284732742","2","0","674eae0026291e33be89b46f","2","0","2025-07-16T08:47:53.203Z","","","","","","","","","","","MotivationQ","","50","","","","","","","","","","","","","","","","","","","","","","","","","","","","",""
"","","","","ctl-task-cpt","39","904485","0.0-5.0-0.6","69","1","2025-07-16 08:31:13","1f75c3e559b7213887762d5229550c2b","216.120.189.168","Mozilla/5.0 (Windows NT 10.0; Win64; x64) AppleWebKit/537.36 (KHTML, like Gecko) Chrome/138.0.0.0 Safari/537.36","WebKit","Chrome","138.0.0.0","Windows","10.0","https://app.prolific.com/","en-US,en;q=0.9","674eae0026291e33be89b46f","68764874ac79eee8c1d4cb03","6877633e01fedbf284732742","2","0","674eae0026291e33be89b46f","2","0","2025-07-16T08:48:17.975Z","","","","","","","","","","","","","","win-only","1","g1:NE,g2:SW","0.4","7","0","907292","1743","6746.4","21757.9","1","4","4","6","1","1","1","7","6","0.05303030303030303","3114.9","3000","1765","[""up"",""right""]","{""num_key_presses"":4,""num_perfect"":2,""num_errors"":0,""num_randdir"":2,""num_randdir_good_moves"":2,""num_whilered"":0,""num_whileblue"":0,""num_blue"":1,""num_good_moves"":4}","[291.22232142857143,295.12857142857143,0.4,291.22232142857143,295.12857142857143,102.5,291.22232142857143,295.12857142857143,202.9,291.22232142857143,295.12857142857143,303.2,291.22232142857143,295.12857142857143,409.6,291.22232142857143,295.12857142857143,516,291.22232142857143,295.12857142857143,618.5,233.22232142857143,379.12857142857143,718.6,151.22232142857143,487.12857142857143,822.9,151.22232142857143,487.12857142857143,930.9,151.22232142857143,488.12857142857143,1032.1,115.22232142857143,521.1285714285714,1132.2,98.22232142857143,528.1285714285714,1234,87.22232142857143,528.1285714285714,1337.7,80.22232142857143,526.1285714285714,1443.8,79.22232142857143,526.1285714285714,1548.8,78.22232142857143,526.1285714285714,1653.2,76.22232142857143,528.1285714285714,1753.7,76.22232142857143,528.1285714285714,1853.8,76.22232142857143,528.1285714285714,1959.2,191.22232142857143,416.12857142857143,2065.2,408.22232142857143,232.12857142857143,2167.9,408.22232142857143,232.12857142857143,2273,440.22232142857143,181.12857142857143,2382.8,487.22232142857143,102.12857142857143,2484.3,489.22232142857143,97.12857142857143,2584.7,499.22232142857143,88.12857142857143,2688.4,537.2223214285714,61.128571428571426,2794.6,537.2223214285714,61.128571428571426,2895.4,537.2223214285714,61.128571428571426,2998.6,537.2223214285714,61.128571428571426,3100.1,537.2223214285714,61.128571428571426,3202.8,537.2223214285714,61.128571428571426,3303.6,537.2223214285714,61.128571428571426,3410.1,537.2223214285714,61.128571428571426,3518.4,537.2223214285714,61.128571428571426,3622.8,537.2223214285714,61.128571428571426,3732.8,537.2223214285714,61.128571428571426,3837.9,537.2223214285714,61.128571428571426,3938.2,537.2223214285714,61.128571428571426,4046.8,537.2223214285714,61.128571428571426,4147.4,537.2223214285714,61.128571428571426,4247.6,537.2223214285714,61.128571428571426,4348.2,537.2223214285714,61.128571428571426,4448.3,537.2223214285714,61.128571428571426,4552.9,537.2223214285714,61.128571428571426,4653.5,537.2223214285714,61.128571428571426,4759.1,537.2223214285714,61.128571428571426,4860.9,537.2223214285714,61.128571428571426,4965.2]","[5590,5590,3209.8,2014.1,366.1,""oops"",""up"",""right"",""good_move"",8445,2854.2,2510.3,5590.8,343.9,""smooth"",""up"",""up"",""good_move"",12096.4,3651,3275.2,8445.4,375.8,""smooth"",""up"",""up"",""good_move"",14912,2815.4,2488.5,12096.6,326.9,""oops"",""right"",""right"",""good_move""]","",""
"150936","","<div style=""width:500px;"">
  <p>What determined the result of this run?</p>
  </div>","66","html-slider-response","40","1055423","0.0-5.0-1.6","69","1","2025-07-16 08:31:13","1f75c3e559b7213887762d5229550c2b","216.120.189.168","Mozilla/5.0 (Windows NT 10.0; Win64; x64) AppleWebKit/537.36 (KHTML, like Gecko) Chrome/138.0.0.0 Safari/537.36","WebKit","Chrome","138.0.0.0","Windows","10.0","https://app.prolific.com/","en-US,en;q=0.9","674eae0026291e33be89b46f","68764874ac79eee8c1d4cb03","6877633e01fedbf284732742","2","0","674eae0026291e33be89b46f","2","0","2025-07-16T08:50:48.912Z","","","","","","","","","","","AttribQ","","50","","","","","","","","","","","","","","","","","","","","","","","","","","","","",""
"2202","","<div style=""width:500px;"">
  <p>How much control did you have over the ball?</p>
  </div>","69","html-slider-response","41","1057626","0.0-5.0-2.6","69","1","2025-07-16 08:31:13","1f75c3e559b7213887762d5229550c2b","216.120.189.168","Mozilla/5.0 (Windows NT 10.0; Win64; x64) AppleWebKit/537.36 (KHTML, like Gecko) Chrome/138.0.0.0 Safari/537.36","WebKit","Chrome","138.0.0.0","Windows","10.0","https://app.prolific.com/","en-US,en;q=0.9","674eae0026291e33be89b46f","68764874ac79eee8c1d4cb03","6877633e01fedbf284732742","2","0","674eae0026291e33be89b46f","2","0","2025-07-16T08:50:51.115Z","","","","","","","","","","","ControlQ","","50","","","","","","","","","","","","","","","","","","","","","","","","","","","","",""
"2236","","<div style=""width:500px;"">
  <p>How would you describe your current emotional state?</p>
  </div>","66","html-slider-response","42","1059866","0.0-5.0-3.6","69","1","2025-07-16 08:31:13","1f75c3e559b7213887762d5229550c2b","216.120.189.168","Mozilla/5.0 (Windows NT 10.0; Win64; x64) AppleWebKit/537.36 (KHTML, like Gecko) Chrome/138.0.0.0 Safari/537.36","WebKit","Chrome","138.0.0.0","Windows","10.0","https://app.prolific.com/","en-US,en;q=0.9","674eae0026291e33be89b46f","68764874ac79eee8c1d4cb03","6877633e01fedbf284732742","2","0","674eae0026291e33be89b46f","2","0","2025-07-16T08:50:53.355Z","","","","","","","","","","","StressQ","","50","","","","","","","","","","","","","","","","","","","","","","","","","","","","",""
"2937","","<div style=""width:500px;"">
  <p>What best describes how you currently feel?</p>
  </div>","36","html-slider-response","43","1062803","0.0-5.0-4.6","69","1","2025-07-16 08:31:13","1f75c3e559b7213887762d5229550c2b","216.120.189.168","Mozilla/5.0 (Windows NT 10.0; Win64; x64) AppleWebKit/537.36 (KHTML, like Gecko) Chrome/138.0.0.0 Safari/537.36","WebKit","Chrome","138.0.0.0","Windows","10.0","https://app.prolific.com/","en-US,en;q=0.9","674eae0026291e33be89b46f","68764874ac79eee8c1d4cb03","6877633e01fedbf284732742","2","0","674eae0026291e33be89b46f","2","0","2025-07-16T08:50:56.293Z","","","","","","","","","","","MotivationQ","","50","","","","","","","","","","","","","","","","","","","","","","","","","","","","",""
"","","","","ctl-task-cpt","44","1104413","0.0-5.0-0.7","69","1","2025-07-16 08:31:13","1f75c3e559b7213887762d5229550c2b","216.120.189.168","Mozilla/5.0 (Windows NT 10.0; Win64; x64) AppleWebKit/537.36 (KHTML, like Gecko) Chrome/138.0.0.0 Safari/537.36","WebKit","Chrome","138.0.0.0","Windows","10.0","https://app.prolific.com/","en-US,en;q=0.9","674eae0026291e33be89b46f","68764874ac79eee8c1d4cb03","6877633e01fedbf284732742","2","0","674eae0026291e33be89b46f","2","0","2025-07-16T08:51:37.902Z","","","","","","","","","","","","","","win-only","3","g1:SW,g2:NE","0.3","8","0","1090385.5","1125.7","6131.8","38586.3","1","4","8","6","1","1","1","8","7","0.06060606060606061","3429.6","3000","250","[""down"",""left""]","{""num_key_presses"":10,""num_perfect"":3,""num_errors"":0,""num_randdir"":7,""num_randdir_good_moves"":4,""num_whilered"":0,""num_whileblue"":0,""num_blue"":2,""num_good_moves"":7}","[299.22232142857143,296.12857142857143,0.2,299.22232142857143,296.12857142857143,101.3,299.22232142857143,296.12857142857143,206,299.22232142857143,296.12857142857143,307.5,299.22232142857143,296.12857142857143,410.7,299.22232142857143,296.12857142857143,515.2,299.22232142857143,296.12857142857143,615.5,299.22232142857143,296.12857142857143,715.5,299.22232142857143,296.12857142857143,816.1,268.22232142857143,340.12857142857143,928.9,216.22232142857143,427.12857142857143,1030.2,172.22232142857143,507.12857142857143,1130.4,172.22232142857143,507.12857142857143,1230.5,172.22232142857143,507.12857142857143,1330.8,251.22232142857143,376.12857142857143,1431.3,290.22232142857143,330.12857142857143,1534.8,292.22232142857143,326.12857142857143,1641.8,299.22232142857143,319.12857142857143,1743.7,396.22232142857143,233.12857142857143,1847.3,396.22232142857143,233.12857142857143,1951.2,396.22232142857143,233.12857142857143,2057.3,455.22232142857143,142.12857142857143,2160.5,494.22232142857143,94.12857142857143,2265.1,463.22232142857143,130.12857142857143,2375.2,238.22232142857143,375.12857142857143,2475.2,218.22232142857143,394.12857142857143,2580,218.22232142857143,394.12857142857143,2680.9,167.22232142857143,448.12857142857143,2791.6,96.22232142857143,513.1285714285714,2894.6,90.22232142857143,519.1285714285714,2995.7,79.22232142857143,528.1285714285714,3101,74.22232142857143,531.1285714285714,3205,74.22232142857143,531.1285714285714,3308.3,74.22232142857143,531.1285714285714,3410.9,74.22232142857143,531.1285714285714,3511.6,74.22232142857143,531.1285714285714,3615.5,74.22232142857143,531.1285714285714,3722,74.22232142857143,531.1285714285714,3826.8,74.22232142857143,531.1285714285714,3929.8,74.22232142857143,531.1285714285714,4030.9,74.22232142857143,531.1285714285714,4138.6,74.22232142857143,531.1285714285714,4239.9,74.22232142857143,531.1285714285714,4344.7,74.22232142857143,531.1285714285714,4444.7,74.22232142857143,531.1285714285714,4544.9,74.22232142857143,531.1285714285714,4645.7,74.22232142857143,531.1285714285714,4750.5,74.22232142857143,531.1285714285714,4854.9,74.22232142857143,531.1285714285714,4955.4]","[8346,8346,2506.1,5455.1,384.8,""oops"",""down"",""left"",""good_move"",11692.3,3345.4,2917,8346.9,428.4,""oops"",""down"",""left"",""good_move"",14183.4,2490.9,2115,11692.5,375.9,""oops"",""down"",""right"",""bad_move"",16688.1,2504.4,2177.8,14183.8,326.5,""smooth"",""down"",""down"",""good_move"",18952.4,2264.1,1890.6,16688.3,373.5,""oops"",""down"",""up"",""bad_move"",21515.5,2562.5,2238.5,18953,324,""oops"",""down"",""up"",""bad_move"",24132.6,2617,2309.6,21515.6,307.4,""oops"",""down"",""left"",""good_move"",26506.4,2373.7,2110.8,24132.9,262.9,""smooth"",""down"",""down"",""good_move"",30009.3,3502.5,3165.6,26506.8,336.9,""smooth"",""down"",""down"",""good_move"",32339.1,2329.7,2030.9,30009.4,298.8,""oops"",""down"",""down"",""good_move""]","",""
"3921","","<div style=""width:500px;"">
  <p>What determined the result of this run?</p>
  </div>","39","html-slider-response","45","1108335","0.0-5.0-1.7","69","1","2025-07-16 08:31:13","1f75c3e559b7213887762d5229550c2b","216.120.189.168","Mozilla/5.0 (Windows NT 10.0; Win64; x64) AppleWebKit/537.36 (KHTML, like Gecko) Chrome/138.0.0.0 Safari/537.36","WebKit","Chrome","138.0.0.0","Windows","10.0","https://app.prolific.com/","en-US,en;q=0.9","674eae0026291e33be89b46f","68764874ac79eee8c1d4cb03","6877633e01fedbf284732742","2","0","674eae0026291e33be89b46f","2","0","2025-07-16T08:51:41.824Z","","","","","","","","","","","AttribQ","","50","","","","","","","","","","","","","","","","","","","","","","","","","","","","",""
"2031","","<div style=""width:500px;"">
  <p>How much control did you have over the ball?</p>
  </div>","41","html-slider-response","46","1110367","0.0-5.0-2.7","69","1","2025-07-16 08:31:13","1f75c3e559b7213887762d5229550c2b","216.120.189.168","Mozilla/5.0 (Windows NT 10.0; Win64; x64) AppleWebKit/537.36 (KHTML, like Gecko) Chrome/138.0.0.0 Safari/537.36","WebKit","Chrome","138.0.0.0","Windows","10.0","https://app.prolific.com/","en-US,en;q=0.9","674eae0026291e33be89b46f","68764874ac79eee8c1d4cb03","6877633e01fedbf284732742","2","0","674eae0026291e33be89b46f","2","0","2025-07-16T08:51:43.856Z","","","","","","","","","","","ControlQ","","50","","","","","","","","","","","","","","","","","","","","","","","","","","","","",""
"3733","","<div style=""width:500px;"">
  <p>How would you describe your current emotional state?</p>
  </div>","42","html-slider-response","47","1114101","0.0-5.0-3.7","69","1","2025-07-16 08:31:13","1f75c3e559b7213887762d5229550c2b","216.120.189.168","Mozilla/5.0 (Windows NT 10.0; Win64; x64) AppleWebKit/537.36 (KHTML, like Gecko) Chrome/138.0.0.0 Safari/537.36","WebKit","Chrome","138.0.0.0","Windows","10.0","https://app.prolific.com/","en-US,en;q=0.9","674eae0026291e33be89b46f","68764874ac79eee8c1d4cb03","6877633e01fedbf284732742","2","0","674eae0026291e33be89b46f","2","0","2025-07-16T08:51:47.590Z","","","","","","","","","","","StressQ","","50","","","","","","","","","","","","","","","","","","","","","","","","","","","","",""
"2069","","<div style=""width:500px;"">
  <p>What best describes how you currently feel?</p>
  </div>","57","html-slider-response","48","1116172","0.0-5.0-4.7","69","1","2025-07-16 08:31:13","1f75c3e559b7213887762d5229550c2b","216.120.189.168","Mozilla/5.0 (Windows NT 10.0; Win64; x64) AppleWebKit/537.36 (KHTML, like Gecko) Chrome/138.0.0.0 Safari/537.36","WebKit","Chrome","138.0.0.0","Windows","10.0","https://app.prolific.com/","en-US,en;q=0.9","674eae0026291e33be89b46f","68764874ac79eee8c1d4cb03","6877633e01fedbf284732742","2","0","674eae0026291e33be89b46f","2","0","2025-07-16T08:51:49.661Z","","","","","","","","","","","MotivationQ","","50","","","","","","","","","","","","","","","","","","","","","","","","","","","","",""
"","","","","ctl-task-cpt","49","1150874","0.0-5.0-0.8","69","1","2025-07-16 08:31:13","1f75c3e559b7213887762d5229550c2b","216.120.189.168","Mozilla/5.0 (Windows NT 10.0; Win64; x64) AppleWebKit/537.36 (KHTML, like Gecko) Chrome/138.0.0.0 Safari/537.36","WebKit","Chrome","138.0.0.0","Windows","10.0","https://app.prolific.com/","en-US,en;q=0.9","674eae0026291e33be89b46f","68764874ac79eee8c1d4cb03","6877633e01fedbf284732742","2","0","674eae0026291e33be89b46f","2","0","2025-07-16T08:52:24.363Z","","","","","","","","","","","","","","win-only","0","g1:NW,g2:SE","0.2","9","0","1143751.9","1795.6","6802","31685.4","1","4","4","6","2","-4","-4","4","8","0.030303030303030304","2120.8","3000","-2405","[""down"",""right""]","{""num_key_presses"":8,""num_perfect"":2,""num_errors"":0,""num_randdir"":6,""num_randdir_good_moves"":2,""num_whilered"":0,""num_whileblue"":0,""num_blue"":0,""num_good_moves"":4}","[293.22232142857143,298.12857142857143,1.5,293.22232142857143,298.12857142857143,104.2,293.22232142857143,298.12857142857143,204.7,293.22232142857143,298.12857142857143,308.3,293.22232142857143,298.12857142857143,410.6,293.22232142857143,298.12857142857143,510.9,293.22232142857143,298.12857142857143,620.5,293.22232142857143,301.12857142857143,720.6,321.22232142857143,403.12857142857143,821.3,383.22232142857143,493.12857142857143,926.4,387.22232142857143,496.12857142857143,1035.4,344.22232142857143,417.12857142857143,1136.5,342.22232142857143,389.12857142857143,1237.3,458.22232142857143,480.12857142857143,1340.7,479.22232142857143,498.12857142857143,1452.7,479.22232142857143,498.12857142857143,1555.3,487.22232142857143,508.12857142857143,1658.3,530.2223214285714,542.1285714285714,1759.7,536.2223214285714,545.1285714285714,1859.9,536.2223214285714,545.1285714285714,1959.9,536.2223214285714,545.1285714285714,2068.7,536.2223214285714,545.1285714285714,2170,536.2223214285714,545.1285714285714,2271.2,536.2223214285714,545.1285714285714,2371.5,536.2223214285714,545.1285714285714,2472.8,536.2223214285714,545.1285714285714,2575.7,536.2223214285714,545.1285714285714,2686.5,536.2223214285714,545.1285714285714,2787.2,536.2223214285714,545.1285714285714,2892.5,536.2223214285714,545.1285714285714,2995.1,536.2223214285714,545.1285714285714,3105.4,536.2223214285714,545.1285714285714,3206.7,536.2223214285714,545.1285714285714,3310.9,536.2223214285714,545.1285714285714,3411,536.2223214285714,545.1285714285714,3518.1,536.2223214285714,545.1285714285714,3618.1,536.2223214285714,545.1285714285714,3718.3,536.2223214285714,545.1285714285714,3821.2,536.2223214285714,545.1285714285714,3921.5,536.2223214285714,545.1285714285714,4025.6,536.2223214285714,545.1285714285714,4126,536.2223214285714,545.1285714285714,4238.4,536.2223214285714,545.1285714285714,4340.9,536.2223214285714,545.1285714285714,4453.8,536.2223214285714,545.1285714285714,4554.8,536.2223214285714,545.1285714285714,4655.2,536.2223214285714,545.1285714285714,4756.3,536.2223214285714,545.1285714285714,4856.5,536.2223214285714,545.1285714285714,4956.5]","[1364.7,1364.7,1000,0,364.7,""oops"",""down"",""right"",""good_move"",4564.1,3198.7,2859.3,1365.4,339.4,""smooth"",""down"",""down"",""good_move"",7077.6,2513.2,1866.9,4564.4,646.3,""oops"",""down"",""up"",""bad_move"",10119.5,3041.6,2761.3,7077.9,280.3,""oops"",""right"",""left"",""bad_move"",12195.8,2076.1,1672.5,10119.7,403.6,""oops"",""down"",""right"",""good_move"",15443.7,3247.5,2701.2,12196.2,546.3,""oops"",""down"",""left"",""bad_move"",18477.2,3033.3,2696.2,15443.9,337.2,""smooth"",""down"",""down"",""good_move"",21784.9,3307.2,2869.5,18477.7,437.7,""oops"",""right"",""left"",""bad_move""]","",""
"3821","","<div style=""width:500px;"">
  <p>What determined the result of this run?</p>
  </div>","68","html-slider-response","50","1154695","0.0-5.0-1.8","69","1","2025-07-16 08:31:13","1f75c3e559b7213887762d5229550c2b","216.120.189.168","Mozilla/5.0 (Windows NT 10.0; Win64; x64) AppleWebKit/537.36 (KHTML, like Gecko) Chrome/138.0.0.0 Safari/537.36","WebKit","Chrome","138.0.0.0","Windows","10.0","https://app.prolific.com/","en-US,en;q=0.9","674eae0026291e33be89b46f","68764874ac79eee8c1d4cb03","6877633e01fedbf284732742","2","0","674eae0026291e33be89b46f","2","0","2025-07-16T08:52:28.184Z","","","","","","","","","","","AttribQ","","50","","","","","","","","","","","","","","","","","","","","","","","","","","","","",""
"3231","","<div style=""width:500px;"">
  <p>How much control did you have over the ball?</p>
  </div>","38","html-slider-response","51","1157927","0.0-5.0-2.8","69","1","2025-07-16 08:31:13","1f75c3e559b7213887762d5229550c2b","216.120.189.168","Mozilla/5.0 (Windows NT 10.0; Win64; x64) AppleWebKit/537.36 (KHTML, like Gecko) Chrome/138.0.0.0 Safari/537.36","WebKit","Chrome","138.0.0.0","Windows","10.0","https://app.prolific.com/","en-US,en;q=0.9","674eae0026291e33be89b46f","68764874ac79eee8c1d4cb03","6877633e01fedbf284732742","2","0","674eae0026291e33be89b46f","2","0","2025-07-16T08:52:31.416Z","","","","","","","","","","","ControlQ","","50","","","","","","","","","","","","","","","","","","","","","","","","","","","","",""
"3006","","<div style=""width:500px;"">
  <p>How would you describe your current emotional state?</p>
  </div>","57","html-slider-response","52","1160935","0.0-5.0-3.8","69","1","2025-07-16 08:31:13","1f75c3e559b7213887762d5229550c2b","216.120.189.168","Mozilla/5.0 (Windows NT 10.0; Win64; x64) AppleWebKit/537.36 (KHTML, like Gecko) Chrome/138.0.0.0 Safari/537.36","WebKit","Chrome","138.0.0.0","Windows","10.0","https://app.prolific.com/","en-US,en;q=0.9","674eae0026291e33be89b46f","68764874ac79eee8c1d4cb03","6877633e01fedbf284732742","2","0","674eae0026291e33be89b46f","2","0","2025-07-16T08:52:34.424Z","","","","","","","","","","","StressQ","","50","","","","","","","","","","","","","","","","","","","","","","","","","","","","",""
"3057","","<div style=""width:500px;"">
  <p>What best describes how you currently feel?</p>
  </div>","60","html-slider-response","53","1163994","0.0-5.0-4.8","69","1","2025-07-16 08:31:13","1f75c3e559b7213887762d5229550c2b","216.120.189.168","Mozilla/5.0 (Windows NT 10.0; Win64; x64) AppleWebKit/537.36 (KHTML, like Gecko) Chrome/138.0.0.0 Safari/537.36","WebKit","Chrome","138.0.0.0","Windows","10.0","https://app.prolific.com/","en-US,en;q=0.9","674eae0026291e33be89b46f","68764874ac79eee8c1d4cb03","6877633e01fedbf284732742","2","0","674eae0026291e33be89b46f","2","0","2025-07-16T08:52:37.483Z","","","","","","","","","","","MotivationQ","","50","","","","","","","","","","","","","","","","","","","","","","","","","","","","",""
"","","","","ctl-task-cpt","54","1200320","0.0-5.0-0.9","69","1","2025-07-16 08:31:13","1f75c3e559b7213887762d5229550c2b","216.120.189.168","Mozilla/5.0 (Windows NT 10.0; Win64; x64) AppleWebKit/537.36 (KHTML, like Gecko) Chrome/138.0.0.0 Safari/537.36","WebKit","Chrome","138.0.0.0","Windows","10.0","https://app.prolific.com/","en-US,en;q=0.9","674eae0026291e33be89b46f","68764874ac79eee8c1d4cb03","6877633e01fedbf284732742","2","0","674eae0026291e33be89b46f","2","0","2025-07-16T08:53:13.809Z","","","","","","","","","","","","","","win-only","2","g1:SE,g2:NW","0.4","10","0","1191571.9","1146","6154.7","33310.4","1","4","8","6","1","1","0","4","4","0.030303030303030304","1876.3","3000","610","[""down"",""right""]","{""num_key_presses"":10,""num_perfect"":4,""num_errors"":1,""num_randdir"":5,""num_randdir_good_moves"":3,""num_whilered"":0,""num_whileblue"":1,""num_blue"":1,""num_good_moves"":7}","[299.22232142857143,291.12857142857143,0.2,299.22232142857143,291.12857142857143,101.3,299.22232142857143,291.12857142857143,201.4,299.22232142857143,291.12857142857143,304.7,299.22232142857143,291.12857142857143,408.6,299.22232142857143,291.12857142857143,516.1,299.22232142857143,291.12857142857143,617.8,299.22232142857143,291.12857142857143,719.8,299.22232142857143,296.12857142857143,827.9,306.22232142857143,311.12857142857143,932.2,441.22232142857143,545.1285714285714,1035.5,462.22232142857143,580.1285714285714,1143.1,462.22232142857143,580.1285714285714,1245.3,462.22232142857143,580.1285714285714,1349.2,498.22232142857143,561.1285714285714,1451.6,528.2223214285714,540.1285714285714,1559.5,529.2223214285714,539.1285714285714,1666.8,529.2223214285714,539.1285714285714,1767.6,529.2223214285714,539.1285714285714,1869.5,529.2223214285714,539.1285714285714,1970.9,529.2223214285714,539.1285714285714,2078.3,529.2223214285714,539.1285714285714,2182,529.2223214285714,539.1285714285714,2286.1,529.2223214285714,539.1285714285714,2393.1,529.2223214285714,539.1285714285714,2498.8,529.2223214285714,539.1285714285714,2600,529.2223214285714,539.1285714285714,2701.9,529.2223214285714,539.1285714285714,2812.7,529.2223214285714,539.1285714285714,2917.8,529.2223214285714,539.1285714285714,3019.9,529.2223214285714,539.1285714285714,3128.5,529.2223214285714,539.1285714285714,3231.8,529.2223214285714,539.1285714285714,3335.2,529.2223214285714,539.1285714285714,3447.3,529.2223214285714,539.1285714285714,3549.9,529.2223214285714,539.1285714285714,3650.1,529.2223214285714,539.1285714285714,3751.2,529.2223214285714,539.1285714285714,3851.7,529.2223214285714,539.1285714285714,3955.2,529.2223214285714,539.1285714285714,4066.4,529.2223214285714,539.1285714285714,4169.3,529.2223214285714,539.1285714285714,4270.5,529.2223214285714,539.1285714285714,4379.8,529.2223214285714,539.1285714285714,4480.8,529.2223214285714,539.1285714285714,4581,529.2223214285714,539.1285714285714,4682,529.2223214285714,539.1285714285714,4782.7,529.2223214285714,539.1285714285714,4884.7,529.2223214285714,539.1285714285714,4996.5]","[1349.5,1349.5,1000,0,349.5,""oops"",""down"",""up"",""bad_move"",3686.3,2336.2,1975.5,1350.1,360.7,""smooth"",""right"",""right"",""good_move"",6542.1,2855,2552.3,3687.1,302.7,""while_blue"",""down"",""up"",""bad_move"",10086.9,3544.6,3160.5,6542.3,384.1,""oops"",""down"",""up"",""bad_move"",12223.7,2136.6,1728.8,10087.2,407.7,""smooth"",""right"",""right"",""good_move"",15117.7,2893.5,2574.7,12224.2,318.8,""smooth"",""down"",""down"",""good_move"",17265.5,2147.5,1813,15118,334.5,""oops"",""down"",""down"",""good_move"",20800.6,3534.8,3159.9,17265.8,374.9,""smooth"",""down"",""down"",""good_move"",23871.1,3070.4,2691.6,20800.7,378.8,""oops"",""down"",""down"",""good_move"",27051.1,3179.8,2855.5,23871.3,324.3,""oops"",""down"",""down"",""good_move""]","",""
"3397","","<div style=""width:500px;"">
  <p>What determined the result of this run?</p>
  </div>","71","html-slider-response","55","1203718","0.0-5.0-1.9","69","1","2025-07-16 08:31:13","1f75c3e559b7213887762d5229550c2b","216.120.189.168","Mozilla/5.0 (Windows NT 10.0; Win64; x64) AppleWebKit/537.36 (KHTML, like Gecko) Chrome/138.0.0.0 Safari/537.36","WebKit","Chrome","138.0.0.0","Windows","10.0","https://app.prolific.com/","en-US,en;q=0.9","674eae0026291e33be89b46f","68764874ac79eee8c1d4cb03","6877633e01fedbf284732742","2","0","674eae0026291e33be89b46f","2","0","2025-07-16T08:53:17.207Z","","","","","","","","","","","AttribQ","","50","","","","","","","","","","","","","","","","","","","","","","","","","","","","",""
"5359","","<div style=""width:500px;"">
  <p>How much control did you have over the ball?</p>
  </div>","61","html-slider-response","56","1209078","0.0-5.0-2.9","69","1","2025-07-16 08:31:13","1f75c3e559b7213887762d5229550c2b","216.120.189.168","Mozilla/5.0 (Windows NT 10.0; Win64; x64) AppleWebKit/537.36 (KHTML, like Gecko) Chrome/138.0.0.0 Safari/537.36","WebKit","Chrome","138.0.0.0","Windows","10.0","https://app.prolific.com/","en-US,en;q=0.9","674eae0026291e33be89b46f","68764874ac79eee8c1d4cb03","6877633e01fedbf284732742","2","0","674eae0026291e33be89b46f","2","0","2025-07-16T08:53:22.567Z","","","","","","","","","","","ControlQ","","50","","","","","","","","","","","","","","","","","","","","","","","","","","","","",""
"2364","","<div style=""width:500px;"">
  <p>How would you describe your current emotional state?</p>
  </div>","36","html-slider-response","57","1211443","0.0-5.0-3.9","69","1","2025-07-16 08:31:13","1f75c3e559b7213887762d5229550c2b","216.120.189.168","Mozilla/5.0 (Windows NT 10.0; Win64; x64) AppleWebKit/537.36 (KHTML, like Gecko) Chrome/138.0.0.0 Safari/537.36","WebKit","Chrome","138.0.0.0","Windows","10.0","https://app.prolific.com/","en-US,en;q=0.9","674eae0026291e33be89b46f","68764874ac79eee8c1d4cb03","6877633e01fedbf284732742","2","0","674eae0026291e33be89b46f","2","0","2025-07-16T08:53:24.934Z","","","","","","","","","","","StressQ","","50","","","","","","","","","","","","","","","","","","","","","","","","","","","","",""
"3800","","<div style=""width:500px;"">
  <p>What best describes how you currently feel?</p>
  </div>","59","html-slider-response","58","1215246","0.0-5.0-4.9","69","1","2025-07-16 08:31:13","1f75c3e559b7213887762d5229550c2b","216.120.189.168","Mozilla/5.0 (Windows NT 10.0; Win64; x64) AppleWebKit/537.36 (KHTML, like Gecko) Chrome/138.0.0.0 Safari/537.36","WebKit","Chrome","138.0.0.0","Windows","10.0","https://app.prolific.com/","en-US,en;q=0.9","674eae0026291e33be89b46f","68764874ac79eee8c1d4cb03","6877633e01fedbf284732742","2","0","674eae0026291e33be89b46f","2","0","2025-07-16T08:53:28.736Z","","","","","","","","","","","MotivationQ","","50","","","","","","","","","","","","","","","","","","","","","","","","","","","","",""
"","","","","ctl-task-cpt","59","1236267","0.0-5.0-0.10","69","1","2025-07-16 08:31:13","1f75c3e559b7213887762d5229550c2b","216.120.189.168","Mozilla/5.0 (Windows NT 10.0; Win64; x64) AppleWebKit/537.36 (KHTML, like Gecko) Chrome/138.0.0.0 Safari/537.36","WebKit","Chrome","138.0.0.0","Windows","10.0","https://app.prolific.com/","en-US,en;q=0.9","674eae0026291e33be89b46f","68764874ac79eee8c1d4cb03","6877633e01fedbf284732742","2","0","674eae0026291e33be89b46f","2","0","2025-07-16T08:53:49.756Z","","","","","","","","","","","","","","win-only","3","g1:SW,g2:NE","0.5","11","0","1242825.3","2450.8","7454.8","17990.7","1","4","4","6","1","1","0","4","4","0.030303030303030304","2906.7","3000","2250","[""down"",""left""]","{""num_key_presses"":4,""num_perfect"":2,""num_errors"":1,""num_randdir"":1,""num_randdir_good_moves"":1,""num_whilered"":0,""num_whileblue"":1,""num_blue"":1,""num_good_moves"":4}","[302.22232142857143,292.12857142857143,0.2,302.22232142857143,292.12857142857143,103.6,302.22232142857143,292.12857142857143,204.5,302.22232142857143,292.12857142857143,304.8,302.22232142857143,292.12857142857143,418.9,302.22232142857143,292.12857142857143,520.4,302.22232142857143,292.12857142857143,625.2,302.22232142857143,292.12857142857143,729.4,302.22232142857143,292.12857142857143,830,302.22232142857143,292.12857142857143,933,302.22232142857143,292.12857142857143,1034.9,302.22232142857143,292.12857142857143,1136.7,302.22232142857143,292.12857142857143,1239.3,302.22232142857143,292.12857142857143,1340.5,302.22232142857143,292.12857142857143,1451.8,302.22232142857143,292.12857142857143,1553.3,302.22232142857143,292.12857142857143,1655.5,292.22232142857143,303.12857142857143,1760.9,235.22232142857143,372.12857142857143,1865.1,224.22232142857143,390.12857142857143,1972.4,224.22232142857143,390.12857142857143,2075,224.22232142857143,390.12857142857143,2175.1,141.22232142857143,467.12857142857143,2285,85.22232142857143,527.1285714285714,2386.3,69.22232142857143,545.1285714285714,2489.5,67.22232142857143,547.1285714285714,2589.8,67.22232142857143,547.1285714285714,2689.9,67.22232142857143,547.1285714285714,2791.7,67.22232142857143,547.1285714285714,2902.6,67.22232142857143,547.1285714285714,3006.3,67.22232142857143,547.1285714285714,3120.3,67.22232142857143,547.1285714285714,3225.4,67.22232142857143,547.1285714285714,3326.4,67.22232142857143,547.1285714285714,3432.2,67.22232142857143,547.1285714285714,3536,67.22232142857143,547.1285714285714,3640.3,67.22232142857143,547.1285714285714,3740.8,67.22232142857143,547.1285714285714,3852.5,67.22232142857143,547.1285714285714,3952.9,67.22232142857143,547.1285714285714,4054.1,67.22232142857143,547.1285714285714,4154.9,67.22232142857143,547.1285714285714,4255.7,67.22232142857143,547.1285714285714,4370.1,67.22232142857143,547.1285714285714,4472.4,67.22232142857143,547.1285714285714,4575.1,67.22232142857143,547.1285714285714,4684.4,67.22232142857143,547.1285714285714,4786.5,67.22232142857143,547.1285714285714,4888.5,67.22232142857143,547.1285714285714,4990.5]","[1315.5,1315.5,1000,0,315.5,""smooth"",""down"",""down"",""good_move"",4779.7,3464.1,3133.1,1315.7,331,""smooth"",""left"",""left"",""good_move"",7285.3,2504.5,2211.2,4780.8,293.3,""while_blue"",""down"",""left"",""good_move"",10416.1,3130.6,2798.3,7285.5,332.3,""oops"",""down"",""down"",""good_move""]","",""
"4857","","<div style=""width:500px;"">
  <p>What determined the result of this run?</p>
  </div>","64","html-slider-response","60","1241126","0.0-5.0-1.10","69","1","2025-07-16 08:31:13","1f75c3e559b7213887762d5229550c2b","216.120.189.168","Mozilla/5.0 (Windows NT 10.0; Win64; x64) AppleWebKit/537.36 (KHTML, like Gecko) Chrome/138.0.0.0 Safari/537.36","WebKit","Chrome","138.0.0.0","Windows","10.0","https://app.prolific.com/","en-US,en;q=0.9","674eae0026291e33be89b46f","68764874ac79eee8c1d4cb03","6877633e01fedbf284732742","2","0","674eae0026291e33be89b46f","2","0","2025-07-16T08:53:54.615Z","","","","","","","","","","","AttribQ","","50","","","","","","","","","","","","","","","","","","","","","","","","","","","","",""
"2530","","<div style=""width:500px;"">
  <p>How much control did you have over the ball?</p>
  </div>","44","html-slider-response","61","1243657","0.0-5.0-2.10","69","1","2025-07-16 08:31:13","1f75c3e559b7213887762d5229550c2b","216.120.189.168","Mozilla/5.0 (Windows NT 10.0; Win64; x64) AppleWebKit/537.36 (KHTML, like Gecko) Chrome/138.0.0.0 Safari/537.36","WebKit","Chrome","138.0.0.0","Windows","10.0","https://app.prolific.com/","en-US,en;q=0.9","674eae0026291e33be89b46f","68764874ac79eee8c1d4cb03","6877633e01fedbf284732742","2","0","674eae0026291e33be89b46f","2","0","2025-07-16T08:53:57.146Z","","","","","","","","","","","ControlQ","","50","","","","","","","","","","","","","","","","","","","","","","","","","","","","",""
"2075","","<div style=""width:500px;"">
  <p>How would you describe your current emotional state?</p>
  </div>","58","html-slider-response","62","1245735","0.0-5.0-3.10","69","1","2025-07-16 08:31:13","1f75c3e559b7213887762d5229550c2b","216.120.189.168","Mozilla/5.0 (Windows NT 10.0; Win64; x64) AppleWebKit/537.36 (KHTML, like Gecko) Chrome/138.0.0.0 Safari/537.36","WebKit","Chrome","138.0.0.0","Windows","10.0","https://app.prolific.com/","en-US,en;q=0.9","674eae0026291e33be89b46f","68764874ac79eee8c1d4cb03","6877633e01fedbf284732742","2","0","674eae0026291e33be89b46f","2","0","2025-07-16T08:53:59.224Z","","","","","","","","","","","StressQ","","50","","","","","","","","","","","","","","","","","","","","","","","","","","","","",""
"2756","","<div style=""width:500px;"">
  <p>What best describes how you currently feel?</p>
  </div>","64","html-slider-response","63","1248493","0.0-5.0-4.10","69","1","2025-07-16 08:31:13","1f75c3e559b7213887762d5229550c2b","216.120.189.168","Mozilla/5.0 (Windows NT 10.0; Win64; x64) AppleWebKit/537.36 (KHTML, like Gecko) Chrome/138.0.0.0 Safari/537.36","WebKit","Chrome","138.0.0.0","Windows","10.0","https://app.prolific.com/","en-US,en;q=0.9","674eae0026291e33be89b46f","68764874ac79eee8c1d4cb03","6877633e01fedbf284732742","2","0","674eae0026291e33be89b46f","2","0","2025-07-16T08:54:01.982Z","","","","","","","","","","","MotivationQ","","50","","","","","","","","","","","","","","","","","","","","","","","","","","","","",""
"","","","","ctl-task-cpt","64","1271184","0.0-5.0-0.11","69","1","2025-07-16 08:31:13","1f75c3e559b7213887762d5229550c2b","216.120.189.168","Mozilla/5.0 (Windows NT 10.0; Win64; x64) AppleWebKit/537.36 (KHTML, like Gecko) Chrome/138.0.0.0 Safari/537.36","WebKit","Chrome","138.0.0.0","Windows","10.0","https://app.prolific.com/","en-US,en;q=0.9","674eae0026291e33be89b46f","68764874ac79eee8c1d4cb03","6877633e01fedbf284732742","2","0","674eae0026291e33be89b46f","2","0","2025-07-16T08:54:24.673Z","","","","","","","","","","","","","","win-only","3","g1:SW,g2:NE","0.6","12","0","1276071.8","1158.9","6159.6","19676","1","4","8","6","1","1","1","5","4","0.03787878787878788","3876.1","3000","1355","[""down"",""left""]","{""num_key_presses"":4,""num_perfect"":3,""num_errors"":0,""num_randdir"":1,""num_randdir_good_moves"":1,""num_whilered"":0,""num_whileblue"":0,""num_blue"":1,""num_good_moves"":4}","[295.22232142857143,300.12857142857143,0.1,295.22232142857143,300.12857142857143,100.9,295.22232142857143,300.12857142857143,201.9,295.22232142857143,300.12857142857143,302.3,295.22232142857143,300.12857142857143,412.4,295.22232142857143,300.12857142857143,513.5,295.22232142857143,300.12857142857143,614.8,295.22232142857143,300.12857142857143,717.1,295.22232142857143,300.12857142857143,817.5,295.22232142857143,300.12857142857143,929.7,303.22232142857143,287.12857142857143,1032.1,325.22232142857143,253.12857142857143,1137.6,340.22232142857143,233.12857142857143,1246.4,354.22232142857143,214.12857142857143,1349.5,359.22232142857143,207.12857142857143,1451.2,359.22232142857143,206.12857142857143,1552.2,359.22232142857143,206.12857142857143,1659,359.22232142857143,206.12857142857143,1762.9,359.22232142857143,206.12857142857143,1864,362.22232142857143,203.12857142857143,1967,431.22232142857143,121.12857142857143,2076.4,431.22232142857143,121.12857142857143,2181.3,431.22232142857143,121.12857142857143,2282.5,443.22232142857143,110.12857142857143,2396.1,469.22232142857143,91.12857142857143,2498.4,492.22232142857143,78.12857142857143,2613.2,492.22232142857143,78.12857142857143,2716.3,493.22232142857143,78.12857142857143,2816.5,291.22232142857143,298.12857142857143,2925.8,194.22232142857143,410.12857142857143,3031,194.22232142857143,410.12857142857143,3131.3,185.22232142857143,420.12857142857143,3239.4,87.22232142857143,535.1285714285714,3342.4,80.22232142857143,541.1285714285714,3451.2,66.22232142857143,544.1285714285714,3552.6,63.222321428571426,544.1285714285714,3664.1,63.222321428571426,544.1285714285714,3766.4,63.222321428571426,544.1285714285714,3866.5,63.222321428571426,544.1285714285714,3966.5,63.222321428571426,544.1285714285714,4066.9,63.222321428571426,544.1285714285714,4173.8,63.222321428571426,544.1285714285714,4278.5,63.222321428571426,544.1285714285714,4381.3,63.222321428571426,544.1285714285714,4490.2,63.222321428571426,544.1285714285714,4597.6,63.222321428571426,544.1285714285714,4701.8,63.222321428571426,544.1285714285714,4802.1,63.222321428571426,544.1285714285714,4911]","[2046.4,2046.4,1000,0,1046.4,""smooth"",""down"",""down"",""good_move"",4753.7,2706.7,2265.4,2047,441.3,""smooth"",""down"",""down"",""good_move"",6762.1,2008.2,1651.9,4753.9,356.3,""oops"",""left"",""left"",""good_move"",13408.4,6645.9,2313.6,10716.1,378.7,""smooth"",""left"",""left"",""good_move""]","",""
"3137","","<div style=""width:500px;"">
  <p>What determined the result of this run?</p>
  </div>","59","html-slider-response","65","1274323","0.0-5.0-1.11","69","1","2025-07-16 08:31:13","1f75c3e559b7213887762d5229550c2b","216.120.189.168","Mozilla/5.0 (Windows NT 10.0; Win64; x64) AppleWebKit/537.36 (KHTML, like Gecko) Chrome/138.0.0.0 Safari/537.36","WebKit","Chrome","138.0.0.0","Windows","10.0","https://app.prolific.com/","en-US,en;q=0.9","674eae0026291e33be89b46f","68764874ac79eee8c1d4cb03","6877633e01fedbf284732742","2","0","674eae0026291e33be89b46f","2","0","2025-07-16T08:54:27.812Z","","","","","","","","","","","AttribQ","","50","","","","","","","","","","","","","","","","","","","","","","","","","","","","",""
"2010","","<div style=""width:500px;"">
  <p>How much control did you have over the ball?</p>
  </div>","42","html-slider-response","66","1276335","0.0-5.0-2.11","69","1","2025-07-16 08:31:13","1f75c3e559b7213887762d5229550c2b","216.120.189.168","Mozilla/5.0 (Windows NT 10.0; Win64; x64) AppleWebKit/537.36 (KHTML, like Gecko) Chrome/138.0.0.0 Safari/537.36","WebKit","Chrome","138.0.0.0","Windows","10.0","https://app.prolific.com/","en-US,en;q=0.9","674eae0026291e33be89b46f","68764874ac79eee8c1d4cb03","6877633e01fedbf284732742","2","0","674eae0026291e33be89b46f","2","0","2025-07-16T08:54:29.824Z","","","","","","","","","","","ControlQ","","50","","","","","","","","","","","","","","","","","","","","","","","","","","","","",""
"2406","","<div style=""width:500px;"">
  <p>How would you describe your current emotional state?</p>
  </div>","35","html-slider-response","67","1278742","0.0-5.0-3.11","69","1","2025-07-16 08:31:13","1f75c3e559b7213887762d5229550c2b","216.120.189.168","Mozilla/5.0 (Windows NT 10.0; Win64; x64) AppleWebKit/537.36 (KHTML, like Gecko) Chrome/138.0.0.0 Safari/537.36","WebKit","Chrome","138.0.0.0","Windows","10.0","https://app.prolific.com/","en-US,en;q=0.9","674eae0026291e33be89b46f","68764874ac79eee8c1d4cb03","6877633e01fedbf284732742","2","0","674eae0026291e33be89b46f","2","0","2025-07-16T08:54:32.231Z","","","","","","","","","","","StressQ","","50","","","","","","","","","","","","","","","","","","","","","","","","","","","","",""
"4470","","<div style=""width:500px;"">
  <p>What best describes how you currently feel?</p>
  </div>","63","html-slider-response","68","1283213","0.0-5.0-4.11","69","1","2025-07-16 08:31:13","1f75c3e559b7213887762d5229550c2b","216.120.189.168","Mozilla/5.0 (Windows NT 10.0; Win64; x64) AppleWebKit/537.36 (KHTML, like Gecko) Chrome/138.0.0.0 Safari/537.36","WebKit","Chrome","138.0.0.0","Windows","10.0","https://app.prolific.com/","en-US,en;q=0.9","674eae0026291e33be89b46f","68764874ac79eee8c1d4cb03","6877633e01fedbf284732742","2","0","674eae0026291e33be89b46f","2","0","2025-07-16T08:54:36.702Z","","","","","","","","","","","MotivationQ","","50","","","","","","","","","","","","","","","","","","","","","","","","","","","","",""
"","","","","ctl-task-cpt","69","1316429","0.0-5.0-0.12","69","1","2025-07-16 08:31:13","1f75c3e559b7213887762d5229550c2b","216.120.189.168","Mozilla/5.0 (Windows NT 10.0; Win64; x64) AppleWebKit/537.36 (KHTML, like Gecko) Chrome/138.0.0.0 Safari/537.36","WebKit","Chrome","138.0.0.0","Windows","10.0","https://app.prolific.com/","en-US,en;q=0.9","674eae0026291e33be89b46f","68764874ac79eee8c1d4cb03","6877633e01fedbf284732742","2","0","674eae0026291e33be89b46f","2","0","2025-07-16T08:55:09.919Z","","","","","","","","","","","","","","win-only","3","g1:SW,g2:NE","0.7","13","0","1310792.4","1483.8","6485.9","30202","1","4","8","6","2","8","8","13","5","0.09848484848484848","2338.3","3000","1455","[""up"",""right""]","{""num_key_presses"":6,""num_perfect"":5,""num_errors"":0,""num_randdir"":1,""num_randdir_good_moves"":1,""num_whilered"":0,""num_whileblue"":0,""num_blue"":2,""num_good_moves"":6}","[292.22232142857143,293.12857142857143,0.2,292.22232142857143,293.12857142857143,102.5,292.22232142857143,293.12857142857143,203.1,292.22232142857143,293.12857142857143,318.7,292.22232142857143,293.12857142857143,425.3,292.22232142857143,293.12857142857143,535.9,292.22232142857143,293.12857142857143,636.6,292.22232142857143,293.12857142857143,737.6,336.22232142857143,234.12857142857143,849.2,370.22232142857143,187.12857142857143,950.7,397.22232142857143,151.12857142857143,1051.6,406.22232142857143,141.12857142857143,1152.1,409.22232142857143,138.12857142857143,1254.9,418.22232142857143,128.12857142857143,1368.6,418.22232142857143,128.12857142857143,1477.5,427.22232142857143,119.12857142857143,1582.8,492.22232142857143,53.128571428571426,1686.8,498.22232142857143,48.128571428571426,1787.3,504.22232142857143,45.128571428571426,1896.2,509.22232142857143,45.128571428571426,1996.6,512.2223214285714,45.128571428571426,2097.5,512.2223214285714,45.128571428571426,2201.5,512.2223214285714,45.128571428571426,2301.9,512.2223214285714,45.128571428571426,2411.2,512.2223214285714,45.128571428571426,2514,512.2223214285714,45.128571428571426,2616.8,512.2223214285714,45.128571428571426,2718.1,512.2223214285714,45.128571428571426,2821.5,512.2223214285714,45.128571428571426,2923,512.2223214285714,45.128571428571426,3041.5,512.2223214285714,45.128571428571426,3151.6,512.2223214285714,45.128571428571426,3251.9,512.2223214285714,45.128571428571426,3362.2,512.2223214285714,45.128571428571426,3462.4,512.2223214285714,45.128571428571426,3565.8,512.2223214285714,45.128571428571426,3668.3,512.2223214285714,45.128571428571426,3771.8,512.2223214285714,45.128571428571426,3875.8,512.2223214285714,45.128571428571426,3987.4,512.2223214285714,45.128571428571426,4098.3,512.2223214285714,45.128571428571426,4202.3,512.2223214285714,45.128571428571426,4315.3,512.2223214285714,45.128571428571426,4418.2,512.2223214285714,45.128571428571426,4522.5,512.2223214285714,45.128571428571426,4635.8,512.2223214285714,45.128571428571426,4736.7,512.2223214285714,45.128571428571426,4836.8,512.2223214285714,45.128571428571426,4937.1]","[5029.3,5029.4,2657.1,2014.1,358.2,""smooth"",""up"",""up"",""good_move"",7957.9,2928.2,2308.9,5029.7,619.3,""smooth"",""right"",""right"",""good_move"",11250.8,3292.2,2937.1,7958.6,355.1,""oops"",""up"",""right"",""good_move"",18011.5,6760.5,2508.1,15148.1,355.3,""smooth"",""up"",""up"",""good_move"",21278.5,3266.5,2909.9,18012,356.6,""smooth"",""right"",""right"",""good_move"",23573.7,2294,1945.1,21279.8,348.9,""smooth"",""up"",""up"",""good_move""]","",""
"3158","","<div style=""width:500px;"">
  <p>What determined the result of this run?</p>
  </div>","73","html-slider-response","70","1319588","0.0-5.0-1.12","69","1","2025-07-16 08:31:13","1f75c3e559b7213887762d5229550c2b","216.120.189.168","Mozilla/5.0 (Windows NT 10.0; Win64; x64) AppleWebKit/537.36 (KHTML, like Gecko) Chrome/138.0.0.0 Safari/537.36","WebKit","Chrome","138.0.0.0","Windows","10.0","https://app.prolific.com/","en-US,en;q=0.9","674eae0026291e33be89b46f","68764874ac79eee8c1d4cb03","6877633e01fedbf284732742","2","0","674eae0026291e33be89b46f","2","0","2025-07-16T08:55:13.078Z","","","","","","","","","","","AttribQ","","50","","","","","","","","","","","","","","","","","","","","","","","","","","","","",""
"3205","","<div style=""width:500px;"">
  <p>How much control did you have over the ball?</p>
  </div>","70","html-slider-response","71","1322794","0.0-5.0-2.12","69","1","2025-07-16 08:31:13","1f75c3e559b7213887762d5229550c2b","216.120.189.168","Mozilla/5.0 (Windows NT 10.0; Win64; x64) AppleWebKit/537.36 (KHTML, like Gecko) Chrome/138.0.0.0 Safari/537.36","WebKit","Chrome","138.0.0.0","Windows","10.0","https://app.prolific.com/","en-US,en;q=0.9","674eae0026291e33be89b46f","68764874ac79eee8c1d4cb03","6877633e01fedbf284732742","2","0","674eae0026291e33be89b46f","2","0","2025-07-16T08:55:16.283Z","","","","","","","","","","","ControlQ","","50","","","","","","","","","","","","","","","","","","","","","","","","","","","","",""
"3989","","<div style=""width:500px;"">
  <p>How would you describe your current emotional state?</p>
  </div>","64","html-slider-response","72","1326784","0.0-5.0-3.12","69","1","2025-07-16 08:31:13","1f75c3e559b7213887762d5229550c2b","216.120.189.168","Mozilla/5.0 (Windows NT 10.0; Win64; x64) AppleWebKit/537.36 (KHTML, like Gecko) Chrome/138.0.0.0 Safari/537.36","WebKit","Chrome","138.0.0.0","Windows","10.0","https://app.prolific.com/","en-US,en;q=0.9","674eae0026291e33be89b46f","68764874ac79eee8c1d4cb03","6877633e01fedbf284732742","2","0","674eae0026291e33be89b46f","2","0","2025-07-16T08:55:20.273Z","","","","","","","","","","","StressQ","","50","","","","","","","","","","","","","","","","","","","","","","","","","","","","",""
"4892","","<div style=""width:500px;"">
  <p>What best describes how you currently feel?</p>
  </div>","62","html-slider-response","73","1331677","0.0-5.0-4.12","69","1","2025-07-16 08:31:13","1f75c3e559b7213887762d5229550c2b","216.120.189.168","Mozilla/5.0 (Windows NT 10.0; Win64; x64) AppleWebKit/537.36 (KHTML, like Gecko) Chrome/138.0.0.0 Safari/537.36","WebKit","Chrome","138.0.0.0","Windows","10.0","https://app.prolific.com/","en-US,en;q=0.9","674eae0026291e33be89b46f","68764874ac79eee8c1d4cb03","6877633e01fedbf284732742","2","0","674eae0026291e33be89b46f","2","0","2025-07-16T08:55:25.166Z","","","","","","","","","","","MotivationQ","","50","","","","","","","","","","","","","","","","","","","","","","","","","","","","",""
"","","","","ctl-task-cpt","74","1366278","0.0-5.0-0.13","69","1","2025-07-16 08:31:13","1f75c3e559b7213887762d5229550c2b","216.120.189.168","Mozilla/5.0 (Windows NT 10.0; Win64; x64) AppleWebKit/537.36 (KHTML, like Gecko) Chrome/138.0.0.0 Safari/537.36","WebKit","Chrome","138.0.0.0","Windows","10.0","https://app.prolific.com/","en-US,en;q=0.9","674eae0026291e33be89b46f","68764874ac79eee8c1d4cb03","6877633e01fedbf284732742","2","0","674eae0026291e33be89b46f","2","0","2025-07-16T08:55:59.768Z","","","","","","","","","","","","","","win-only","1","g1:NE,g2:SW","0.8","14","0","1359255.4","1981.6","6984","31586.1","1","4","4","6","2","4","4","17","13","0.12878787878787878","2788.3","3000","800","[""down"",""left""]","{""num_key_presses"":8,""num_perfect"":6,""num_errors"":0,""num_randdir"":2,""num_randdir_good_moves"":1,""num_whilered"":0,""num_whileblue"":0,""num_blue"":1,""num_good_moves"":7}","[293.22232142857143,299.12857142857143,0.4,293.22232142857143,299.12857142857143,100.4,293.22232142857143,299.12857142857143,201.6,293.22232142857143,299.12857142857143,305.4,293.22232142857143,299.12857142857143,412.5,293.22232142857143,299.12857142857143,519.3,293.22232142857143,299.12857142857143,632.4,293.22232142857143,299.12857142857143,733.1,293.22232142857143,299.12857142857143,838.4,272.22232142857143,326.12857142857143,941.2,172.22232142857143,457.12857142857143,1043.2,94.22232142857143,539.1285714285714,1149.8,70.22232142857143,562.1285714285714,1255.1,46.222321428571426,569.1285714285714,1364,41.222321428571426,552.1285714285714,1466,41.222321428571426,549.1285714285714,1568.6,41.222321428571426,549.1285714285714,1671.2,41.222321428571426,549.1285714285714,1778.8,41.222321428571426,549.1285714285714,1887.1,41.222321428571426,549.1285714285714,1989.3,41.222321428571426,549.1285714285714,2093.1,41.222321428571426,549.1285714285714,2199.9,41.222321428571426,549.1285714285714,2301.9,41.222321428571426,549.1285714285714,2403.2,41.222321428571426,549.1285714285714,2504.5,41.222321428571426,549.1285714285714,2605.9,41.222321428571426,549.1285714285714,2714.3,41.222321428571426,549.1285714285714,2819.2,41.222321428571426,549.1285714285714,2930.1,41.222321428571426,549.1285714285714,3038.8,41.222321428571426,549.1285714285714,3139.4,41.222321428571426,549.1285714285714,3243.9,41.222321428571426,549.1285714285714,3346.8,41.222321428571426,549.1285714285714,3451.9,41.222321428571426,549.1285714285714,3555.1,41.222321428571426,549.1285714285714,3656.9,41.222321428571426,549.1285714285714,3764.3,41.222321428571426,549.1285714285714,3868.7,41.222321428571426,549.1285714285714,3976.3,41.222321428571426,549.1285714285714,4086.2,41.222321428571426,549.1285714285714,4187.2,41.222321428571426,549.1285714285714,4287.8,41.222321428571426,549.1285714285714,4398,41.222321428571426,549.1285714285714,4502.5,41.222321428571426,549.1285714285714,4605.9,41.222321428571426,549.1285714285714,4714.6,41.222321428571426,549.1285714285714,4819.7,41.222321428571426,549.1285714285714,4924.7]","[1385,1385,1000,0,385,""oops"",""down"",""down"",""good_move"",3231.9,1846.6,1428,1385.3,418.6,""smooth"",""down"",""down"",""good_move"",6662.6,3430.5,3065.5,3232.1,365,""smooth"",""left"",""left"",""good_move"",9111.6,2448.3,2118.7,6663.3,329.6,""smooth"",""down"",""down"",""good_move"",15615.1,6503.2,2276.7,12967.8,370.6,""oops"",""left"",""up"",""bad_move"",18914,3298.4,2915.5,15615.7,382.8,""smooth"",""left"",""left"",""good_move"",22163.2,3248.6,2891.3,18914.6,357.3,""smooth"",""down"",""down"",""good_move"",24485.8,2321.8,1926.4,22164,395.4,""smooth"",""left"",""left"",""good_move""]","",""
"2393","","<div style=""width:500px;"">
  <p>What determined the result of this run?</p>
  </div>","64","html-slider-response","75","1368673","0.0-5.0-1.13","69","1","2025-07-16 08:31:13","1f75c3e559b7213887762d5229550c2b","216.120.189.168","Mozilla/5.0 (Windows NT 10.0; Win64; x64) AppleWebKit/537.36 (KHTML, like Gecko) Chrome/138.0.0.0 Safari/537.36","WebKit","Chrome","138.0.0.0","Windows","10.0","https://app.prolific.com/","en-US,en;q=0.9","674eae0026291e33be89b46f","68764874ac79eee8c1d4cb03","6877633e01fedbf284732742","2","0","674eae0026291e33be89b46f","2","0","2025-07-16T08:56:02.163Z","","","","","","","","","","","AttribQ","","50","","","","","","","","","","","","","","","","","","","","","","","","","","","","",""
"4465","","<div style=""width:500px;"">
  <p>How much control did you have over the ball?</p>
  </div>","50","html-slider-response","76","1373141","0.0-5.0-2.13","69","1","2025-07-16 08:31:13","1f75c3e559b7213887762d5229550c2b","216.120.189.168","Mozilla/5.0 (Windows NT 10.0; Win64; x64) AppleWebKit/537.36 (KHTML, like Gecko) Chrome/138.0.0.0 Safari/537.36","WebKit","Chrome","138.0.0.0","Windows","10.0","https://app.prolific.com/","en-US,en;q=0.9","674eae0026291e33be89b46f","68764874ac79eee8c1d4cb03","6877633e01fedbf284732742","2","0","674eae0026291e33be89b46f","2","0","2025-07-16T08:56:06.630Z","","","","","","","","","","","ControlQ","","50","","","","","","","","","","","","","","","","","","","","","","","","","","","","",""
"2554","","<div style=""width:500px;"">
  <p>How would you describe your current emotional state?</p>
