"rt","response_timestamp","stimulus","response","trial_type","trial_index","time_elapsed","internal_node_id","run_id","condition","recorded_at","source_code_version","ip","user_agent","device","browser","browser_version","platform","platform_version","referer","accept_language","PROLIFIC_PID","STUDY_ID","SESSION_ID","WEEK","BATCH","prolific_id","week","batch","realtime","success","responses","item_order","radio_event_ids","radio_event_times","key_event_times","mouse_event_times","straightlining","zigzagging","honeypot","eventType","view_history","slider_start","which_type","canvas_config","goals_layout","control_level","trial_number","tutorial_trial_number","trial_start_time","phase1_start_time","phase2_start_time","phase3_start_time","goal_1_value","goal_1_distance","goal_2_value","goal_2_distance","goal_selected","outcome","outcome_total","participant_final_score","participant_initial_score","participant_final_score_prop","goal_choice_rt","allocated_time","allocated_time_remaining","goal_direction","counts","mouse_movements","key_presses","question_order","question_id"
"1423","1752672497571","<p style='font-size:40px;line-height:1.25'><strong>Welcome to the experiment!</strong></p><p style='font-size:1.1em;line-height:1.25'>Thank you for participanting in our experiment again! You will be asked to play the Dysfunctional Ball Game again. We will briefly recap the rules before we start.</p><p style='font-size:1.1em;line-height:1.25'>Press <strong>Next</strong> to continue.</p>","0","custom-html-button-response","0","1424","0.0-0.0","115","1","2025-07-16 13:28:13","1f75c3e559b7213887762d5229550c2b","82.132.244.142","Mozilla/5.0 (Windows NT 10.0; Win64; x64) AppleWebKit/537.36 (KHTML, like Gecko) Chrome/138.0.0.0 Safari/537.36","WebKit","Chrome","138.0.0.0","Windows","10.0","https://app.prolific.com/","en-GB,en-US;q=0.9,en;q=0.8","676054ef296caad582258e02","68764874ac79eee8c1d4cb03","6877a8da78b485eba3327537","2","0","676054ef296caad582258e02","2","0","2025-07-16T13:28:17.572Z","","","","","","","","","","","","","","","","","","","","","","","","","","","","","","","","","","","","","","","","","",""
"4686","","","","fullscreen","1","7117","0.0-1.0","115","1","2025-07-16 13:28:13","1f75c3e559b7213887762d5229550c2b","82.132.244.142","Mozilla/5.0 (Windows NT 10.0; Win64; x64) AppleWebKit/537.36 (KHTML, like Gecko) Chrome/138.0.0.0 Safari/537.36","WebKit","Chrome","138.0.0.0","Windows","10.0","https://app.prolific.com/","en-GB,en-US;q=0.9,en;q=0.8","676054ef296caad582258e02","68764874ac79eee8c1d4cb03","6877a8da78b485eba3327537","2","0","676054ef296caad582258e02","2","0","","true","","","","","","","","","","","","","","","","","","","","","","","","","","","","","","","","","","","","","","","","",""
"1626","1752672504891","<p style='font-size:1.1em;line-height:1.25'>In the following, we will ask you a few questions relating to your feelings in the last 24 hours.<br></p><p style='font-size:1.1em;line-height:1.25'>Press the <strong>Next</strong> button to continue.</p>","0","custom-html-button-response","2","8744","0.0-2.0-0.0","115","1","2025-07-16 13:28:13","1f75c3e559b7213887762d5229550c2b","82.132.244.142","Mozilla/5.0 (Windows NT 10.0; Win64; x64) AppleWebKit/537.36 (KHTML, like Gecko) Chrome/138.0.0.0 Safari/537.36","WebKit","Chrome","138.0.0.0","Windows","10.0","https://app.prolific.com/","en-GB,en-US;q=0.9,en;q=0.8","676054ef296caad582258e02","68764874ac79eee8c1d4cb03","6877a8da78b485eba3327537","2","0","676054ef296caad582258e02","2","0","2025-07-16T13:28:24.891Z","","","","","","","","","","","","","","","","","","","","","","","","","","","","","","","","","","","","","","","","","",""
"75256.10000000003","","","","survey-template","3","84003","0.0-2.0-1.0","115","1","2025-07-16 13:28:13","1f75c3e559b7213887762d5229550c2b","82.132.244.142","Mozilla/5.0 (Windows NT 10.0; Win64; x64) AppleWebKit/537.36 (KHTML, like Gecko) Chrome/138.0.0.0 Safari/537.36","WebKit","Chrome","138.0.0.0","Windows","10.0","https://app.prolific.com/","en-GB,en-US;q=0.9,en;q=0.8","676054ef296caad582258e02","68764874ac79eee8c1d4cb03","6877a8da78b485eba3327537","2","0","676054ef296caad582258e02","2","0","2025-07-16T13:29:40.150Z","","{""Q01"":""1"",""Q02"":""2"",""Q03"":""1"",""Q04"":""1"",""Q05"":""1"",""Q06"":""0"",""Q07"":""0"",""Q08"":""0"",""Q09"":""0"",""Q10"":""0"",""Q11"":""1"",""Q12"":""0"",""Q13"":""5"",""Q14"":""0"",""Q15"":""1"",""Q16"":""1"",""Q17"":""0"",""Q18"":""0"",""Q19"":""1"",""Q20"":""0"",""Q21"":""0"",""Q22"":""0""}","[0,1,2,3,4,5,6,7,8,9,10,11,12,13,14,15,16,17,18,19,20,21]","[""Q01"",""Q02"",""Q02"",""Q03"",""Q03"",""Q04"",""Q05"",""Q06"",""Q07"",""Q05"",""Q04"",""Q04"",""Q05"",""Q08"",""Q09"",""Q10"",""Q11"",""Q11"",""Q12"",""Q13"",""Q14"",""Q15"",""Q16"",""Q17"",""Q18"",""Q19"",""Q20"",""Q21"",""Q22""]","[2998.100000000035,4525.900000000023,10214.300000000047,15229.900000000023,15974.100000000035,19725.5,22557.600000000035,24646.100000000035,26246,30021.400000000023,30614,32046.100000000035,32637.600000000035,35342,37702,38518.100000000035,42973.90000000002,45038,46278.100000000035,49622,51486.100000000035,54534,59342,62934,63870.100000000035,68126,70918,73653.60000000003,74598]","[]","[0,2998.100000000035,4525.900000000023,10214.300000000047,15229.900000000023,15974.100000000035,19725.5,21870.100000000035,22557.600000000035,24646.100000000035,26246,30021.400000000023,30614,32046.100000000035,32637.600000000035,35342,37702,38518.100000000035,42973.90000000002,45038,46278.100000000035,49622,51486.100000000035,54534,59342,62934,63870.100000000035,68126,70918,72902.20000000001,73653.60000000003,74598,75254.10000000003]","0.5454545454545454","0.5238095238095238","0","drsp","","","","","","","","","","","","","","","","","","","","","","","","","","","","","","",""
"24692.400000000023","","","","survey-template","4","108697","0.0-2.0-2.0","115","1","2025-07-16 13:28:13","1f75c3e559b7213887762d5229550c2b","82.132.244.142","Mozilla/5.0 (Windows NT 10.0; Win64; x64) AppleWebKit/537.36 (KHTML, like Gecko) Chrome/138.0.0.0 Safari/537.36","WebKit","Chrome","138.0.0.0","Windows","10.0","https://app.prolific.com/","en-GB,en-US;q=0.9,en;q=0.8","676054ef296caad582258e02","68764874ac79eee8c1d4cb03","6877a8da78b485eba3327537","2","0","676054ef296caad582258e02","2","0","2025-07-16T13:30:04.844Z","","{""Q01"":""0"",""Q02"":""5"",""Q03"":""0""}","[0,1,2]","[""Q01"",""Q02"",""Q02"",""Q02"",""Q03""]","[10115.799999999988,12987.799999999988,13675.299999999988,15443.799999999988,18019.79999999999]","[]","[10115.799999999988,12987.799999999988,13675.299999999988,15443.799999999988,17427.79999999999,18019.79999999999,24691.900000000023]","1","0","0","stress","","","","","","","","","","","","","","","","","","","","","","","","","","","","","","",""
"18631","","","","instructions","5","127328","0.0-3.0-0.0","115","1","2025-07-16 13:28:13","1f75c3e559b7213887762d5229550c2b","82.132.244.142","Mozilla/5.0 (Windows NT 10.0; Win64; x64) AppleWebKit/537.36 (KHTML, like Gecko) Chrome/138.0.0.0 Safari/537.36","WebKit","Chrome","138.0.0.0","Windows","10.0","https://app.prolific.com/","en-GB,en-US;q=0.9,en;q=0.8","676054ef296caad582258e02","68764874ac79eee8c1d4cb03","6877a8da78b485eba3327537","2","0","676054ef296caad582258e02","2","0","","","","","","","","","","","","","[{""page_index"":0,""viewing_time"":18631}]","","","","","","","","","","","","","","","","","","","","","","","","","","","","","",""
"3567","","<p>Before you start with this game please answer the following three questions yourself. </p>
  <p>Through this game, we measure several aspects of your cognitive performance, such as reaction times, multi-tasking capabilities </p>
  <p>and the ability to assess the situation you are in.</p>
  <p></p>
  <p><b>How good do you usually are in such tasks?</b></p>","52","html-slider-response","6","130896","0.0-4.0-0.0","115","1","2025-07-16 13:28:13","1f75c3e559b7213887762d5229550c2b","82.132.244.142","Mozilla/5.0 (Windows NT 10.0; Win64; x64) AppleWebKit/537.36 (KHTML, like Gecko) Chrome/138.0.0.0 Safari/537.36","WebKit","Chrome","138.0.0.0","Windows","10.0","https://app.prolific.com/","en-GB,en-US;q=0.9,en;q=0.8","676054ef296caad582258e02","68764874ac79eee8c1d4cb03","6877a8da78b485eba3327537","2","0","676054ef296caad582258e02","2","0","2025-07-16T13:30:27.043Z","","","","","","","","","","","PreSkillQ","","50","","","","","","","","","","","","","","","","","","","","","","","","","","","","",""
"4255","","<div style=""width:500px;"">
  <p>How well do you think you will perform in this task compared to other participants?</p>
  </div>","49","html-slider-response","7","135152","0.0-4.0-1.0","115","1","2025-07-16 13:28:13","1f75c3e559b7213887762d5229550c2b","82.132.244.142","Mozilla/5.0 (Windows NT 10.0; Win64; x64) AppleWebKit/537.36 (KHTML, like Gecko) Chrome/138.0.0.0 Safari/537.36","WebKit","Chrome","138.0.0.0","Windows","10.0","https://app.prolific.com/","en-GB,en-US;q=0.9,en;q=0.8","676054ef296caad582258e02","68764874ac79eee8c1d4cb03","6877a8da78b485eba3327537","2","0","676054ef296caad582258e02","2","0","2025-07-16T13:30:31.299Z","","","","","","","","","","","PrePerfQ","","50","","","","","","","","","","","","","","","","","","","","","","","","","","","","",""
"3703","","<div style=""width:500px;"">
  <p>What best describes how you currently feel?</p>
  </div>","50","html-slider-response","8","138856","0.0-4.0-2.0","115","1","2025-07-16 13:28:13","1f75c3e559b7213887762d5229550c2b","82.132.244.142","Mozilla/5.0 (Windows NT 10.0; Win64; x64) AppleWebKit/537.36 (KHTML, like Gecko) Chrome/138.0.0.0 Safari/537.36","WebKit","Chrome","138.0.0.0","Windows","10.0","https://app.prolific.com/","en-GB,en-US;q=0.9,en;q=0.8","676054ef296caad582258e02","68764874ac79eee8c1d4cb03","6877a8da78b485eba3327537","2","0","676054ef296caad582258e02","2","0","2025-07-16T13:30:35.003Z","","","","","","","","","","","PreMotivationQ","","50","","","","","","","","","","","","","","","","","","","","","","","","","","","","",""
"","","","","ctl-task-cpt","9","167185","0.0-5.0-0.0","115","1","2025-07-16 13:28:13","1f75c3e559b7213887762d5229550c2b","82.132.244.142","Mozilla/5.0 (Windows NT 10.0; Win64; x64) AppleWebKit/537.36 (KHTML, like Gecko) Chrome/138.0.0.0 Safari/537.36","WebKit","Chrome","138.0.0.0","Windows","10.0","https://app.prolific.com/","en-GB,en-US;q=0.9,en;q=0.8","676054ef296caad582258e02","68764874ac79eee8c1d4cb03","6877a8da78b485eba3327537","2","0","676054ef296caad582258e02","2","0","2025-07-16T13:31:03.333Z","","","","","","","","","","","","","","win-only","3","g1:SW,g2:NE","1","1","0","141031.5","1736.7","6740.9","25317.8","1","4","4","6","2","4","4","4","0","0.030303030303030304","1149.6","3000","1105","[""up"",""right""]","{""num_key_presses"":6,""num_perfect"":6,""num_errors"":0,""num_randdir"":0,""num_randdir_good_moves"":0,""num_whilered"":0,""num_whileblue"":0,""num_blue"":1,""num_good_moves"":6}","[292.22232142857143,296.12857142857143,0.3,292.22232142857143,296.12857142857143,104.1,305.22232142857143,294.12857142857143,204.1,304.22232142857143,290.12857142857143,309.1,303.22232142857143,291.12857142857143,416.4,301.22232142857143,292.12857142857143,523.3,247.22232142857143,339.12857142857143,624.1,33.222321428571426,612.1285714285714,724.3,196.22232142857143,493.12857142857143,829.4,505.22232142857143,107.12857142857143,930.5,538.2223214285714,79.12857142857143,1049.1,543.2223214285714,78.12857142857143,1150.7,543.2223214285714,78.12857142857143,1254,543.2223214285714,78.12857142857143,1356.8,533.2223214285714,81.12857142857143,1457.2,433.22232142857143,234.12857142857143,1559.1,360.22232142857143,338.12857142857143,1659.3,350.22232142857143,345.12857142857143,1766,318.22232142857143,343.12857142857143,1869.1,329.22232142857143,332.12857142857143,1976.6,337.22232142857143,328.12857142857143,2077.1,338.22232142857143,328.12857142857143,2182.5,338.22232142857143,328.12857142857143,2283.9,338.22232142857143,328.12857142857143,2389.1,338.22232142857143,328.12857142857143,2489.2,338.22232142857143,328.12857142857143,2589.6,338.22232142857143,328.12857142857143,2698.7,338.22232142857143,328.12857142857143,2798.8,338.22232142857143,328.12857142857143,2904.2,338.22232142857143,328.12857142857143,3009.4,338.22232142857143,328.12857142857143,3114.5,338.22232142857143,328.12857142857143,3215.2,338.22232142857143,328.12857142857143,3315.3,338.22232142857143,328.12857142857143,3419.6,338.22232142857143,328.12857142857143,3525.6,338.22232142857143,328.12857142857143,3632,338.22232142857143,328.12857142857143,3734.3,338.22232142857143,328.12857142857143,3834.3,338.22232142857143,328.12857142857143,3946.4,338.22232142857143,328.12857142857143,4048.3,338.22232142857143,328.12857142857143,4148.7,338.22232142857143,328.12857142857143,4254.1,338.22232142857143,328.12857142857143,4359.3,338.22232142857143,328.12857142857143,4465,338.22232142857143,328.12857142857143,4569.4,338.22232142857143,328.12857142857143,4669.5,338.22232142857143,328.12857142857143,4774.3,338.22232142857143,328.12857142857143,4881.7,338.22232142857143,328.12857142857143,4981.8]","[1065,1065,1000,0,65,""smooth"",""right"",""right"",""good_move"",3677.3,2612,2217.4,1065.3,394.6,""smooth"",""right"",""right"",""good_move"",6848.5,3171.1,2755.4,3677.4,415.7,""smooth"",""right"",""right"",""good_move"",9208.4,2359.6,1930.9,6848.8,428.7,""smooth"",""up"",""up"",""good_move"",15622.4,6413.7,2155.7,13025.8,440.9,""smooth"",""up"",""up"",""good_move"",18456.4,2833.8,2416.3,15622.6,417.5,""smooth"",""up"",""up"",""good_move""]","",""
"8741","","<div style=""width:500px;"">
  <p>What determined the result of this run?</p>
  </div>","51","html-slider-response","10","175927","0.0-5.0-1.0","115","1","2025-07-16 13:28:13","1f75c3e559b7213887762d5229550c2b","82.132.244.142","Mozilla/5.0 (Windows NT 10.0; Win64; x64) AppleWebKit/537.36 (KHTML, like Gecko) Chrome/138.0.0.0 Safari/537.36","WebKit","Chrome","138.0.0.0","Windows","10.0","https://app.prolific.com/","en-GB,en-US;q=0.9,en;q=0.8","676054ef296caad582258e02","68764874ac79eee8c1d4cb03","6877a8da78b485eba3327537","2","0","676054ef296caad582258e02","2","0","2025-07-16T13:31:12.075Z","","","","","","","","","","","AttribQ","","50","","","","","","","","","","","","","","","","","","","","","","","","","","","","",""
"1976","","<div style=""width:500px;"">
  <p>How much control did you have over the ball?</p>
  </div>","100","html-slider-response","11","177904","0.0-5.0-2.0","115","1","2025-07-16 13:28:13","1f75c3e559b7213887762d5229550c2b","82.132.244.142","Mozilla/5.0 (Windows NT 10.0; Win64; x64) AppleWebKit/537.36 (KHTML, like Gecko) Chrome/138.0.0.0 Safari/537.36","WebKit","Chrome","138.0.0.0","Windows","10.0","https://app.prolific.com/","en-GB,en-US;q=0.9,en;q=0.8","676054ef296caad582258e02","68764874ac79eee8c1d4cb03","6877a8da78b485eba3327537","2","0","676054ef296caad582258e02","2","0","2025-07-16T13:31:14.051Z","","","","","","","","","","","ControlQ","","50","","","","","","","","","","","","","","","","","","","","","","","","","","","","",""
"2663","","<div style=""width:500px;"">
  <p>How would you describe your current emotional state?</p>
  </div>","39","html-slider-response","12","180567","0.0-5.0-3.0","115","1","2025-07-16 13:28:13","1f75c3e559b7213887762d5229550c2b","82.132.244.142","Mozilla/5.0 (Windows NT 10.0; Win64; x64) AppleWebKit/537.36 (KHTML, like Gecko) Chrome/138.0.0.0 Safari/537.36","WebKit","Chrome","138.0.0.0","Windows","10.0","https://app.prolific.com/","en-GB,en-US;q=0.9,en;q=0.8","676054ef296caad582258e02","68764874ac79eee8c1d4cb03","6877a8da78b485eba3327537","2","0","676054ef296caad582258e02","2","0","2025-07-16T13:31:16.715Z","","","","","","","","","","","StressQ","","50","","","","","","","","","","","","","","","","","","","","","","","","","","","","",""
"3895","","<div style=""width:500px;"">
  <p>What best describes how you currently feel?</p>
  </div>","50","html-slider-response","13","184464","0.0-5.0-4.0","115","1","2025-07-16 13:28:13","1f75c3e559b7213887762d5229550c2b","82.132.244.142","Mozilla/5.0 (Windows NT 10.0; Win64; x64) AppleWebKit/537.36 (KHTML, like Gecko) Chrome/138.0.0.0 Safari/537.36","WebKit","Chrome","138.0.0.0","Windows","10.0","https://app.prolific.com/","en-GB,en-US;q=0.9,en;q=0.8","676054ef296caad582258e02","68764874ac79eee8c1d4cb03","6877a8da78b485eba3327537","2","0","676054ef296caad582258e02","2","0","2025-07-16T13:31:20.611Z","","","","","","","","","","","MotivationQ","","50","","","","","","","","","","","","","","","","","","","","","","","","","","","","",""
"","","","","ctl-task-cpt","14","210070","0.0-5.0-0.1","115","1","2025-07-16 13:28:13","1f75c3e559b7213887762d5229550c2b","82.132.244.142","Mozilla/5.0 (Windows NT 10.0; Win64; x64) AppleWebKit/537.36 (KHTML, like Gecko) Chrome/138.0.0.0 Safari/537.36","WebKit","Chrome","138.0.0.0","Windows","10.0","https://app.prolific.com/","en-GB,en-US;q=0.9,en;q=0.8","676054ef296caad582258e02","68764874ac79eee8c1d4cb03","6877a8da78b485eba3327537","2","0","676054ef296caad582258e02","2","0","2025-07-16T13:31:46.217Z","","","","","","","","","","","","","","win-only","2","g1:SE,g2:NW","0.9","2","0","186638","1783.8","6787","22591.5","1","4","8","6","2","8","8","12","4","0.09090909090909091","2056.1","3000","945","[""left"",""up""]","{""num_key_presses"":6,""num_perfect"":5,""num_errors"":0,""num_randdir"":1,""num_randdir_good_moves"":1,""num_whilered"":0,""num_whileblue"":0,""num_blue"":0,""num_good_moves"":6}","[297.22232142857143,294.12857142857143,0.2,297.22232142857143,294.12857142857143,102.4,299.22232142857143,302.12857142857143,202.8,306.22232142857143,342.12857142857143,302.9,328.22232142857143,347.12857142857143,406.9,364.22232142857143,428.12857142857143,507.2,412.22232142857143,447.12857142857143,611.8,291.22232142857143,311.12857142857143,717.1,111.22232142857143,143.12857142857143,821.7,102.22232142857143,94.12857142857143,928.1,45.222321428571426,29.128571428571426,1033.1,44.222321428571426,28.128571428571426,1137.3,44.222321428571426,28.128571428571426,1243.2,67.22232142857143,54.128571428571426,1347.4,382.22232142857143,362.12857142857143,1453,274.22232142857143,243.12857142857143,1553,93.22232142857143,77.12857142857143,1657.3,93.22232142857143,77.12857142857143,1761.6,92.22232142857143,76.12857142857143,1867,86.22232142857143,73.12857142857143,1971.6,84.22232142857143,72.12857142857143,2073,84.22232142857143,72.12857142857143,2177,302.22232142857143,418.12857142857143,2281.4,634.2223214285714,683.1285714285714,2381.6,975.2223214285714,488.12857142857143,2481.8,975.2223214285714,450.12857142857143,2582.2,975.2223214285714,450.12857142857143,2682.9,975.2223214285714,450.12857142857143,2782.9,975.2223214285714,450.12857142857143,2882.9,975.2223214285714,450.12857142857143,2987.1,975.2223214285714,450.12857142857143,3087.2,975.2223214285714,450.12857142857143,3187.3,975.2223214285714,450.12857142857143,3293,975.2223214285714,450.12857142857143,3393.1,975.2223214285714,450.12857142857143,3497.5,975.2223214285714,450.12857142857143,3601.6,975.2223214285714,450.12857142857143,3702.4,975.2223214285714,450.12857142857143,3806.9,975.2223214285714,450.12857142857143,3907.2,975.2223214285714,450.12857142857143,4012.5,975.2223214285714,450.12857142857143,4112.6,975.2223214285714,450.12857142857143,4212.7,975.2223214285714,450.12857142857143,4317,975.2223214285714,450.12857142857143,4422.8,975.2223214285714,450.12857142857143,4526.6,975.2223214285714,450.12857142857143,4626.7,975.2223214285714,450.12857142857143,4726.8,975.2223214285714,450.12857142857143,4832.7,975.2223214285714,450.12857142857143,4932.9]","[1316.9,1316.9,1000,0,316.9,""smooth"",""up"",""up"",""good_move"",4028.2,2711.1,2370.2,1317.1,340.9,""smooth"",""up"",""up"",""good_move"",7628,3599.6,3203.9,4028.4,395.7,""oops"",""up"",""left"",""good_move"",10244,2615.7,2254.4,7628.3,361.3,""smooth"",""up"",""up"",""good_move"",13148,2903.8,2585.7,10244.2,318.1,""smooth"",""left"",""left"",""good_move"",15716.1,2567.9,2220.9,13148.2,347,""smooth"",""left"",""left"",""good_move""]","",""
"4977","","<div style=""width:500px;"">
  <p>What determined the result of this run?</p>
  </div>","50","html-slider-response","15","215048","0.0-5.0-1.1","115","1","2025-07-16 13:28:13","1f75c3e559b7213887762d5229550c2b","82.132.244.142","Mozilla/5.0 (Windows NT 10.0; Win64; x64) AppleWebKit/537.36 (KHTML, like Gecko) Chrome/138.0.0.0 Safari/537.36","WebKit","Chrome","138.0.0.0","Windows","10.0","https://app.prolific.com/","en-GB,en-US;q=0.9,en;q=0.8","676054ef296caad582258e02","68764874ac79eee8c1d4cb03","6877a8da78b485eba3327537","2","0","676054ef296caad582258e02","2","0","2025-07-16T13:31:51.195Z","","","","","","","","","","","AttribQ","","50","","","","","","","","","","","","","","","","","","","","","","","","","","","","",""
"2279","","<div style=""width:500px;"">
  <p>How much control did you have over the ball?</p>
  </div>","77","html-slider-response","16","217327","0.0-5.0-2.1","115","1","2025-07-16 13:28:13","1f75c3e559b7213887762d5229550c2b","82.132.244.142","Mozilla/5.0 (Windows NT 10.0; Win64; x64) AppleWebKit/537.36 (KHTML, like Gecko) Chrome/138.0.0.0 Safari/537.36","WebKit","Chrome","138.0.0.0","Windows","10.0","https://app.prolific.com/","en-GB,en-US;q=0.9,en;q=0.8","676054ef296caad582258e02","68764874ac79eee8c1d4cb03","6877a8da78b485eba3327537","2","0","676054ef296caad582258e02","2","0","2025-07-16T13:31:53.475Z","","","","","","","","","","","ControlQ","","50","","","","","","","","","","","","","","","","","","","","","","","","","","","","",""
"1863","","<div style=""width:500px;"">
  <p>How would you describe your current emotional state?</p>
  </div>","42","html-slider-response","17","219192","0.0-5.0-3.1","115","1","2025-07-16 13:28:13","1f75c3e559b7213887762d5229550c2b","82.132.244.142","Mozilla/5.0 (Windows NT 10.0; Win64; x64) AppleWebKit/537.36 (KHTML, like Gecko) Chrome/138.0.0.0 Safari/537.36","WebKit","Chrome","138.0.0.0","Windows","10.0","https://app.prolific.com/","en-GB,en-US;q=0.9,en;q=0.8","676054ef296caad582258e02","68764874ac79eee8c1d4cb03","6877a8da78b485eba3327537","2","0","676054ef296caad582258e02","2","0","2025-07-16T13:31:55.339Z","","","","","","","","","","","StressQ","","50","","","","","","","","","","","","","","","","","","","","","","","","","","","","",""
"1847","","<div style=""width:500px;"">
  <p>What best describes how you currently feel?</p>
  </div>","50","html-slider-response","18","221040","0.0-5.0-4.1","115","1","2025-07-16 13:28:13","1f75c3e559b7213887762d5229550c2b","82.132.244.142","Mozilla/5.0 (Windows NT 10.0; Win64; x64) AppleWebKit/537.36 (KHTML, like Gecko) Chrome/138.0.0.0 Safari/537.36","WebKit","Chrome","138.0.0.0","Windows","10.0","https://app.prolific.com/","en-GB,en-US;q=0.9,en;q=0.8","676054ef296caad582258e02","68764874ac79eee8c1d4cb03","6877a8da78b485eba3327537","2","0","676054ef296caad582258e02","2","0","2025-07-16T13:31:57.187Z","","","","","","","","","","","MotivationQ","","50","","","","","","","","","","","","","","","","","","","","","","","","","","","","",""
"","","","","ctl-task-cpt","19","262017","0.0-5.0-0.2","115","1","2025-07-16 13:28:13","1f75c3e559b7213887762d5229550c2b","82.132.244.142","Mozilla/5.0 (Windows NT 10.0; Win64; x64) AppleWebKit/537.36 (KHTML, like Gecko) Chrome/138.0.0.0 Safari/537.36","WebKit","Chrome","138.0.0.0","Windows","10.0","https://app.prolific.com/","en-GB,en-US;q=0.9,en;q=0.8","676054ef296caad582258e02","68764874ac79eee8c1d4cb03","6877a8da78b485eba3327537","2","0","676054ef296caad582258e02","2","0","2025-07-16T13:32:38.164Z","","","","","","","","","","","","","","win-only","3","g1:SW,g2:NE","0.8","3","0","223215","814.8","5816.2","37971.7","1","4","8","6","2","-8","-9","3","12","0.022727272727272728","1200.1","3000","-2990","[""up"",""right""]","{""num_key_presses"":10,""num_perfect"":7,""num_errors"":1,""num_randdir"":2,""num_randdir_good_moves"":0,""num_whilered"":0,""num_whileblue"":1,""num_blue"":2,""num_good_moves"":7}","[299.22232142857143,295.12857142857143,0.2,299.22232142857143,295.12857142857143,101.4,299.22232142857143,295.12857142857143,201.4,299.22232142857143,288.12857142857143,301.8,311.22232142857143,281.12857142857143,410,317.22232142857143,286.12857142857143,510.8,317.22232142857143,286.12857142857143,620,317.22232142857143,286.12857142857143,726.1,541.2223214285714,245.12857142857143,834.3,665.2223214285714,106.12857142857143,934.3,653.2223214285714,79.12857142857143,1036.4,534.2223214285714,41.128571428571426,1137.2,532.2223214285714,40.128571428571426,1244.1,532.2223214285714,40.128571428571426,1346.1,532.2223214285714,40.128571428571426,1446.5,532.2223214285714,40.128571428571426,1551.1,532.2223214285714,40.128571428571426,1669.5,532.2223214285714,40.128571428571426,1776.3,532.2223214285714,40.128571428571426,1880.4,532.2223214285714,40.128571428571426,1980.4,532.2223214285714,40.128571428571426,2080.4,532.2223214285714,40.128571428571426,2181.1,532.2223214285714,40.128571428571426,2281.9,532.2223214285714,40.128571428571426,2386,532.2223214285714,40.128571428571426,2486.2,532.2223214285714,40.128571428571426,2587.2,532.2223214285714,40.128571428571426,2692.2,532.2223214285714,40.128571428571426,2796.1,532.2223214285714,40.128571428571426,2900.5,532.2223214285714,40.128571428571426,3000.8,532.2223214285714,40.128571428571426,3101,532.2223214285714,40.128571428571426,3201.2,532.2223214285714,40.128571428571426,3315.5,532.2223214285714,40.128571428571426,3416.3,532.2223214285714,40.128571428571426,3535.2,532.2223214285714,40.128571428571426,3636.2,532.2223214285714,40.128571428571426,3736.6,532.2223214285714,40.128571428571426,3841.9,532.2223214285714,40.128571428571426,3947.3,532.2223214285714,40.128571428571426,4049.3,532.2223214285714,40.128571428571426,4150.8,532.2223214285714,40.128571428571426,4251.2,532.2223214285714,40.128571428571426,4357.8,532.2223214285714,40.128571428571426,4470.5,532.2223214285714,40.128571428571426,4571,532.2223214285714,40.128571428571426,4674.6,532.2223214285714,40.128571428571426,4776.8,532.2223214285714,40.128571428571426,4876.8,532.2223214285714,40.128571428571426,4981.8]","[1294.3,1294.3,1004.4,0,289.9,""while_blue"",""right"",""left"",""bad_move"",4502.5,3207.9,2832.6,1294.6,375.3,""smooth"",""right"",""right"",""good_move"",10446.7,5943.9,1681.7,8429.3,335.7,""smooth"",""right"",""right"",""good_move"",12766.2,2319.4,1929,10446.8,390.4,""smooth"",""right"",""right"",""good_move"",15301.8,2535.4,2207.8,12766.4,327.6,""oops"",""right"",""left"",""bad_move"",17773.9,2472,2085.5,15301.9,386.5,""smooth"",""right"",""right"",""good_move"",20181.7,2407.6,2089.6,17774.1,318,""oops"",""right"",""down"",""bad_move"",23886.1,3704.1,3350.9,20182,353.2,""smooth"",""right"",""right"",""good_move"",26846,2959.7,2680.3,23886.3,279.4,""smooth"",""up"",""up"",""good_move"",29749.9,2903.7,2617.6,26846.2,286.1,""smooth"",""up"",""up"",""good_move""]","",""
"3430","","<div style=""width:500px;"">
  <p>What determined the result of this run?</p>
  </div>","55","html-slider-response","20","265448","0.0-5.0-1.2","115","1","2025-07-16 13:28:13","1f75c3e559b7213887762d5229550c2b","82.132.244.142","Mozilla/5.0 (Windows NT 10.0; Win64; x64) AppleWebKit/537.36 (KHTML, like Gecko) Chrome/138.0.0.0 Safari/537.36","WebKit","Chrome","138.0.0.0","Windows","10.0","https://app.prolific.com/","en-GB,en-US;q=0.9,en;q=0.8","676054ef296caad582258e02","68764874ac79eee8c1d4cb03","6877a8da78b485eba3327537","2","0","676054ef296caad582258e02","2","0","2025-07-16T13:32:41.595Z","","","","","","","","","","","AttribQ","","50","","","","","","","","","","","","","","","","","","","","","","","","","","","","",""
"4032","","<div style=""width:500px;"">
  <p>How much control did you have over the ball?</p>
  </div>","20","html-slider-response","21","269480","0.0-5.0-2.2","115","1","2025-07-16 13:28:13","1f75c3e559b7213887762d5229550c2b","82.132.244.142","Mozilla/5.0 (Windows NT 10.0; Win64; x64) AppleWebKit/537.36 (KHTML, like Gecko) Chrome/138.0.0.0 Safari/537.36","WebKit","Chrome","138.0.0.0","Windows","10.0","https://app.prolific.com/","en-GB,en-US;q=0.9,en;q=0.8","676054ef296caad582258e02","68764874ac79eee8c1d4cb03","6877a8da78b485eba3327537","2","0","676054ef296caad582258e02","2","0","2025-07-16T13:32:45.627Z","","","","","","","","","","","ControlQ","","50","","","","","","","","","","","","","","","","","","","","","","","","","","","","",""
"2335","","<div style=""width:500px;"">
  <p>How would you describe your current emotional state?</p>
  </div>","42","html-slider-response","22","271816","0.0-5.0-3.2","115","1","2025-07-16 13:28:13","1f75c3e559b7213887762d5229550c2b","82.132.244.142","Mozilla/5.0 (Windows NT 10.0; Win64; x64) AppleWebKit/537.36 (KHTML, like Gecko) Chrome/138.0.0.0 Safari/537.36","WebKit","Chrome","138.0.0.0","Windows","10.0","https://app.prolific.com/","en-GB,en-US;q=0.9,en;q=0.8","676054ef296caad582258e02","68764874ac79eee8c1d4cb03","6877a8da78b485eba3327537","2","0","676054ef296caad582258e02","2","0","2025-07-16T13:32:47.963Z","","","","","","","","","","","StressQ","","50","","","","","","","","","","","","","","","","","","","","","","","","","","","","",""
"1592","","<div style=""width:500px;"">
  <p>What best describes how you currently feel?</p>
  </div>","50","html-slider-response","23","273408","0.0-5.0-4.2","115","1","2025-07-16 13:28:13","1f75c3e559b7213887762d5229550c2b","82.132.244.142","Mozilla/5.0 (Windows NT 10.0; Win64; x64) AppleWebKit/537.36 (KHTML, like Gecko) Chrome/138.0.0.0 Safari/537.36","WebKit","Chrome","138.0.0.0","Windows","10.0","https://app.prolific.com/","en-GB,en-US;q=0.9,en;q=0.8","676054ef296caad582258e02","68764874ac79eee8c1d4cb03","6877a8da78b485eba3327537","2","0","676054ef296caad582258e02","2","0","2025-07-16T13:32:49.555Z","","","","","","","","","","","MotivationQ","","50","","","","","","","","","","","","","","","","","","","","","","","","","","","","",""
"","","","","ctl-task-cpt","24","316777","0.0-5.0-0.3","115","1","2025-07-16 13:28:13","1f75c3e559b7213887762d5229550c2b","82.132.244.142","Mozilla/5.0 (Windows NT 10.0; Win64; x64) AppleWebKit/537.36 (KHTML, like Gecko) Chrome/138.0.0.0 Safari/537.36","WebKit","Chrome","138.0.0.0","Windows","10.0","https://app.prolific.com/","en-GB,en-US;q=0.9,en;q=0.8","676054ef296caad582258e02","68764874ac79eee8c1d4cb03","6877a8da78b485eba3327537","2","0","676054ef296caad582258e02","2","0","2025-07-16T13:33:32.924Z","","","","","","","","","","","","","","win-only","3","g1:SW,g2:NE","0.7","4","0","275583.4","1406.6","6411.1","40351.5","1","4","4","6","1","1","1","4","3","0.030303030303030304","1848","3000","665","[""down"",""left""]","{""num_key_presses"":6,""num_perfect"":5,""num_errors"":0,""num_randdir"":1,""num_randdir_good_moves"":0,""num_whilered"":0,""num_whileblue"":0,""num_blue"":5,""num_good_moves"":5}","[297.22232142857143,291.12857142857143,0.1,297.22232142857143,291.12857142857143,103.6,437.22232142857143,350.12857142857143,204,854.2223214285714,345.12857142857143,308.8,747.2223214285714,331.12857142857143,409.5,686.2223214285714,331.12857142857143,514.3,683.2223214285714,331.12857142857143,614.4,574.2223214285714,233.12857142857143,714.5,633.2223214285714,65.12857142857143,814.7,619.2223214285714,68.12857142857143,920,538.2223214285714,95.12857142857143,1024.2,538.2223214285714,75.12857142857143,1125.2,539.2223214285714,65.12857142857143,1228.8,397.22232142857143,278.12857142857143,1330.6,312.22232142857143,491.12857142857143,1434.2,142.22232142857143,520.1285714285714,1539.1,84.22232142857143,533.1285714285714,1639.8,23.222321428571426,558.1285714285714,1744.7,18.222321428571426,570.1285714285714,1860.6,18.222321428571426,570.1285714285714,1964.4,118.22232142857143,510.12857142857143,2068.8,886.2223214285714,683.1285714285714,2169.1,975.2223214285714,631.1285714285714,2269.5,844.2223214285714,395.12857142857143,2374.2,844.2223214285714,395.12857142857143,2479.2,844.2223214285714,395.12857142857143,2584.2,844.2223214285714,395.12857142857143,2689.4,844.2223214285714,395.12857142857143,2794.5,844.2223214285714,395.12857142857143,2899.4,844.2223214285714,395.12857142857143,2999.4,844.2223214285714,395.12857142857143,3104,844.2223214285714,395.12857142857143,3208.7,844.2223214285714,395.12857142857143,3314.3,844.2223214285714,395.12857142857143,3415.1,844.2223214285714,395.12857142857143,3519.1,844.2223214285714,395.12857142857143,3619.1,844.2223214285714,395.12857142857143,3724.3,844.2223214285714,395.12857142857143,3824.9,844.2223214285714,395.12857142857143,3928.6,844.2223214285714,395.12857142857143,4030.5,844.2223214285714,395.12857142857143,4135.2,844.2223214285714,395.12857142857143,4238.9,844.2223214285714,395.12857142857143,4339.9,844.2223214285714,395.12857142857143,4439.9,844.2223214285714,395.12857142857143,4544.1,844.2223214285714,395.12857142857143,4644.7,844.2223214285714,395.12857142857143,4749.5,844.2223214285714,395.12857142857143,4854.3,844.2223214285714,395.12857142857143,4955.2]","[1347.6,1347.6,1000,0,347.6,""smooth"",""down"",""down"",""good_move"",7890.9,6543,2364.1,5144.7,382.1,""oops"",""down"",""right"",""bad_move"",10906.7,3015.6,2656,7891.1,359.6,""smooth"",""left"",""left"",""good_move"",17778.7,6871.7,2749,14649.3,380.4,""smooth"",""left"",""left"",""good_move"",27171.7,9392.9,1957.6,24746,468.1,""smooth"",""left"",""left"",""good_move"",33850.6,6678.8,2552.9,30874.4,423.3,""smooth"",""down"",""down"",""good_move""]","",""
"3934","","<div style=""width:500px;"">
  <p>What determined the result of this run?</p>
  </div>","49","html-slider-response","25","320712","0.0-5.0-1.3","115","1","2025-07-16 13:28:13","1f75c3e559b7213887762d5229550c2b","82.132.244.142","Mozilla/5.0 (Windows NT 10.0; Win64; x64) AppleWebKit/537.36 (KHTML, like Gecko) Chrome/138.0.0.0 Safari/537.36","WebKit","Chrome","138.0.0.0","Windows","10.0","https://app.prolific.com/","en-GB,en-US;q=0.9,en;q=0.8","676054ef296caad582258e02","68764874ac79eee8c1d4cb03","6877a8da78b485eba3327537","2","0","676054ef296caad582258e02","2","0","2025-07-16T13:33:36.859Z","","","","","","","","","","","AttribQ","","50","","","","","","","","","","","","","","","","","","","","","","","","","","","","",""
"3871","","<div style=""width:500px;"">
  <p>How much control did you have over the ball?</p>
  </div>","72","html-slider-response","26","324584","0.0-5.0-2.3","115","1","2025-07-16 13:28:13","1f75c3e559b7213887762d5229550c2b","82.132.244.142","Mozilla/5.0 (Windows NT 10.0; Win64; x64) AppleWebKit/537.36 (KHTML, like Gecko) Chrome/138.0.0.0 Safari/537.36","WebKit","Chrome","138.0.0.0","Windows","10.0","https://app.prolific.com/","en-GB,en-US;q=0.9,en;q=0.8","676054ef296caad582258e02","68764874ac79eee8c1d4cb03","6877a8da78b485eba3327537","2","0","676054ef296caad582258e02","2","0","2025-07-16T13:33:40.731Z","","","","","","","","","","","ControlQ","","50","","","","","","","","","","","","","","","","","","","","","","","","","","","","",""
"1463","","<div style=""width:500px;"">
  <p>How would you describe your current emotional state?</p>
  </div>","50","html-slider-response","27","326048","0.0-5.0-3.3","115","1","2025-07-16 13:28:13","1f75c3e559b7213887762d5229550c2b","82.132.244.142","Mozilla/5.0 (Windows NT 10.0; Win64; x64) AppleWebKit/537.36 (KHTML, like Gecko) Chrome/138.0.0.0 Safari/537.36","WebKit","Chrome","138.0.0.0","Windows","10.0","https://app.prolific.com/","en-GB,en-US;q=0.9,en;q=0.8","676054ef296caad582258e02","68764874ac79eee8c1d4cb03","6877a8da78b485eba3327537","2","0","676054ef296caad582258e02","2","0","2025-07-16T13:33:42.195Z","","","","","","","","","","","StressQ","","50","","","","","","","","","","","","","","","","","","","","","","","","","","","","",""
"3279","","<div style=""width:500px;"">
  <p>What best describes how you currently feel?</p>
  </div>","50","html-slider-response","28","329328","0.0-5.0-4.3","115","1","2025-07-16 13:28:13","1f75c3e559b7213887762d5229550c2b","82.132.244.142","Mozilla/5.0 (Windows NT 10.0; Win64; x64) AppleWebKit/537.36 (KHTML, like Gecko) Chrome/138.0.0.0 Safari/537.36","WebKit","Chrome","138.0.0.0","Windows","10.0","https://app.prolific.com/","en-GB,en-US;q=0.9,en;q=0.8","676054ef296caad582258e02","68764874ac79eee8c1d4cb03","6877a8da78b485eba3327537","2","0","676054ef296caad582258e02","2","0","2025-07-16T13:33:45.475Z","","","","","","","","","","","MotivationQ","","50","","","","","","","","","","","","","","","","","","","","","","","","","","","","",""
"","","","","ctl-task-cpt","29","358397","0.0-5.0-0.4","115","1","2025-07-16 13:28:13","1f75c3e559b7213887762d5229550c2b","82.132.244.142","Mozilla/5.0 (Windows NT 10.0; Win64; x64) AppleWebKit/537.36 (KHTML, like Gecko) Chrome/138.0.0.0 Safari/537.36","WebKit","Chrome","138.0.0.0","Windows","10.0","https://app.prolific.com/","en-GB,en-US;q=0.9,en;q=0.8","676054ef296caad582258e02","68764874ac79eee8c1d4cb03","6877a8da78b485eba3327537","2","0","676054ef296caad582258e02","2","0","2025-07-16T13:34:14.544Z","","","","","","","","","","","","","","win-only","0","g1:NW,g2:SE","0.6","5","0","331503.3","950.9","5955.5","26050.5","1","4","8","6","1","1","1","5","4","0.03787878787878788","1416","3000","910","[""left"",""up""]","{""num_key_presses"":6,""num_perfect"":4,""num_errors"":0,""num_randdir"":2,""num_randdir_good_moves"":1,""num_whilered"":0,""num_whileblue"":0,""num_blue"":1,""num_good_moves"":5}","[301.22232142857143,293.12857142857143,0.1,301.22232142857143,293.12857142857143,104.9,310.22232142857143,274.12857142857143,205.1,296.22232142857143,244.12857142857143,305.2,235.22232142857143,182.12857142857143,411.1,216.22232142857143,156.12857142857143,514.2,348.22232142857143,440.12857142857143,614.3,440.22232142857143,575.1285714285714,714.7,482.22232142857143,586.1285714285714,815.1,473.22232142857143,560.1285714285714,916,309.22232142857143,362.12857142857143,1019.8,113.22232142857143,184.12857142857143,1120.9,100.22232142857143,125.12857142857143,1224.4,67.22232142857143,52.128571428571426,1324.5,58.222321428571426,39.128571428571426,1429.3,58.222321428571426,39.128571428571426,1530.2,210.22232142857143,115.12857142857143,1635,289.22232142857143,139.12857142857143,1735.1,298.22232142857143,139.12857142857143,1839.7,451.22232142857143,56.128571428571426,1940.4,451.22232142857143,56.128571428571426,2044.2,451.22232142857143,56.128571428571426,2144.7,451.22232142857143,56.128571428571426,2249.2,451.22232142857143,56.128571428571426,2350.4,451.22232142857143,56.128571428571426,2455.2,451.22232142857143,56.128571428571426,2555.2,451.22232142857143,56.128571428571426,2660.6,451.22232142857143,56.128571428571426,2764.3,451.22232142857143,56.128571428571426,2870.1,451.22232142857143,56.128571428571426,2974.6,451.22232142857143,56.128571428571426,3075.4,451.22232142857143,56.128571428571426,3176.1,451.22232142857143,56.128571428571426,3279.7,451.22232142857143,56.128571428571426,3384.6,451.22232142857143,56.128571428571426,3484.7,451.22232142857143,56.128571428571426,3589.6,451.22232142857143,56.128571428571426,3694.5,451.22232142857143,56.128571428571426,3794.5,451.22232142857143,56.128571428571426,3895.3,451.22232142857143,56.128571428571426,3999.9,451.22232142857143,56.128571428571426,4100.1,451.22232142857143,56.128571428571426,4204.5,451.22232142857143,56.128571428571426,4304.6,451.22232142857143,56.128571428571426,4409.8,451.22232142857143,56.128571428571426,4510.8,451.22232142857143,56.128571428571426,4615,451.22232142857143,56.128571428571426,4719.5,451.22232142857143,56.128571428571426,4825.3,451.22232142857143,56.128571428571426,4926.1]","[1354.3,1354.3,1000,0,354.3,""smooth"",""up"",""up"",""good_move"",8706.6,7352,2957.6,5370.3,378.7,""oops"",""up"",""up"",""good_move"",11746.6,3039.8,2684.9,8706.8,354.9,""smooth"",""left"",""left"",""good_move"",14434.5,2687.5,2330.5,11747,357,""oops"",""left"",""right"",""bad_move"",16922.5,2487.7,2156.6,14434.8,331.1,""smooth"",""left"",""left"",""good_move"",20002.6,3079.9,2733.3,16922.7,346.6,""smooth"",""left"",""left"",""good_move""]","",""
"1674","","<div style=""width:500px;"">
  <p>What determined the result of this run?</p>
  </div>","50","html-slider-response","30","360072","0.0-5.0-1.4","115","1","2025-07-16 13:28:13","1f75c3e559b7213887762d5229550c2b","82.132.244.142","Mozilla/5.0 (Windows NT 10.0; Win64; x64) AppleWebKit/537.36 (KHTML, like Gecko) Chrome/138.0.0.0 Safari/537.36","WebKit","Chrome","138.0.0.0","Windows","10.0","https://app.prolific.com/","en-GB,en-US;q=0.9,en;q=0.8","676054ef296caad582258e02","68764874ac79eee8c1d4cb03","6877a8da78b485eba3327537","2","0","676054ef296caad582258e02","2","0","2025-07-16T13:34:16.219Z","","","","","","","","","","","AttribQ","","50","","","","","","","","","","","","","","","","","","","","","","","","","","","","",""
"3127","","<div style=""width:500px;"">
  <p>How much control did you have over the ball?</p>
  </div>","56","html-slider-response","31","363200","0.0-5.0-2.4","115","1","2025-07-16 13:28:13","1f75c3e559b7213887762d5229550c2b","82.132.244.142","Mozilla/5.0 (Windows NT 10.0; Win64; x64) AppleWebKit/537.36 (KHTML, like Gecko) Chrome/138.0.0.0 Safari/537.36","WebKit","Chrome","138.0.0.0","Windows","10.0","https://app.prolific.com/","en-GB,en-US;q=0.9,en;q=0.8","676054ef296caad582258e02","68764874ac79eee8c1d4cb03","6877a8da78b485eba3327537","2","0","676054ef296caad582258e02","2","0","2025-07-16T13:34:19.347Z","","","","","","","","","","","ControlQ","","50","","","","","","","","","","","","","","","","","","","","","","","","","","","","",""
"1871","","<div style=""width:500px;"">
  <p>How would you describe your current emotional state?</p>
  </div>","44","html-slider-response","32","365072","0.0-5.0-3.4","115","1","2025-07-16 13:28:13","1f75c3e559b7213887762d5229550c2b","82.132.244.142","Mozilla/5.0 (Windows NT 10.0; Win64; x64) AppleWebKit/537.36 (KHTML, like Gecko) Chrome/138.0.0.0 Safari/537.36","WebKit","Chrome","138.0.0.0","Windows","10.0","https://app.prolific.com/","en-GB,en-US;q=0.9,en;q=0.8","676054ef296caad582258e02","68764874ac79eee8c1d4cb03","6877a8da78b485eba3327537","2","0","676054ef296caad582258e02","2","0","2025-07-16T13:34:21.219Z","","","","","","","","","","","StressQ","","50","","","","","","","","","","","","","","","","","","","","","","","","","","","","",""
"1616","","<div style=""width:500px;"">
  <p>What best describes how you currently feel?</p>
  </div>","50","html-slider-response","33","366688","0.0-5.0-4.4","115","1","2025-07-16 13:28:13","1f75c3e559b7213887762d5229550c2b","82.132.244.142","Mozilla/5.0 (Windows NT 10.0; Win64; x64) AppleWebKit/537.36 (KHTML, like Gecko) Chrome/138.0.0.0 Safari/537.36","WebKit","Chrome","138.0.0.0","Windows","10.0","https://app.prolific.com/","en-GB,en-US;q=0.9,en;q=0.8","676054ef296caad582258e02","68764874ac79eee8c1d4cb03","6877a8da78b485eba3327537","2","0","676054ef296caad582258e02","2","0","2025-07-16T13:34:22.835Z","","","","","","","","","","","MotivationQ","","50","","","","","","","","","","","","","","","","","","","","","","","","","","","","",""
"","","","","ctl-task-cpt","34","402847","0.0-5.0-0.5","115","1","2025-07-16 13:28:13","1f75c3e559b7213887762d5229550c2b","82.132.244.142","Mozilla/5.0 (Windows NT 10.0; Win64; x64) AppleWebKit/537.36 (KHTML, like Gecko) Chrome/138.0.0.0 Safari/537.36","WebKit","Chrome","138.0.0.0","Windows","10.0","https://app.prolific.com/","en-GB,en-US;q=0.9,en;q=0.8","676054ef296caad582258e02","68764874ac79eee8c1d4cb03","6877a8da78b485eba3327537","2","0","676054ef296caad582258e02","2","0","2025-07-16T13:34:58.994Z","","","","","","","","","","","","","","win-only","1","g1:NE,g2:SW","0.5","6","0","368863.3","1038.8","6041.9","33142.1","1","4","4","6","1","1","1","6","5","0.045454545454545456","2104","3000","610","[""up"",""right""]","{""num_key_presses"":6,""num_perfect"":3,""num_errors"":0,""num_randdir"":3,""num_randdir_good_moves"":2,""num_whilered"":0,""num_whileblue"":0,""num_blue"":3,""num_good_moves"":5}","[296.22232142857143,289.12857142857143,0.2,296.22232142857143,289.12857142857143,102,293.22232142857143,279.12857142857143,207.9,226.22232142857143,227.12857142857143,311.8,214.22232142857143,214.12857142857143,411.8,315.22232142857143,276.12857142857143,512.4,290.22232142857143,385.12857142857143,616.8,268.22232142857143,410.12857142857143,717.4,161.22232142857143,460.12857142857143,821.8,92.22232142857143,571.1285714285714,927.2,78.22232142857143,592.1285714285714,1028.4,42.222321428571426,581.1285714285714,1132.5,42.222321428571426,564.1285714285714,1232.5,66.22232142857143,528.1285714285714,1333.2,315.22232142857143,328.12857142857143,1436.6,457.22232142857143,185.12857142857143,1536.8,570.2223214285714,43.128571428571426,1637.1,582.2223214285714,36.128571428571426,1737.1,582.2223214285714,36.128571428571426,1841.9,569.2223214285714,48.128571428571426,1948.3,569.2223214285714,48.128571428571426,2052,569.2223214285714,48.128571428571426,2152.3,572.2223214285714,78.12857142857143,2257,676.2223214285714,257.12857142857143,2357.3,710.2223214285714,251.12857142857143,2462.4,819.2223214285714,178.12857142857143,2567.3,819.2223214285714,178.12857142857143,2667.3,819.2223214285714,178.12857142857143,2767.5,819.2223214285714,178.12857142857143,2871.7,819.2223214285714,178.12857142857143,2972.3,819.2223214285714,178.12857142857143,3077.4,819.2223214285714,178.12857142857143,3183.3,819.2223214285714,178.12857142857143,3286.9,819.2223214285714,178.12857142857143,3391.6,819.2223214285714,178.12857142857143,3493.2,819.2223214285714,178.12857142857143,3597.8,819.2223214285714,178.12857142857143,3701.7,819.2223214285714,178.12857142857143,3802.2,819.2223214285714,178.12857142857143,3902.3,819.2223214285714,178.12857142857143,4006.8,819.2223214285714,178.12857142857143,4106.9,819.2223214285714,178.12857142857143,4212.8,819.2223214285714,178.12857142857143,4317.1,819.2223214285714,178.12857142857143,4417.3,819.2223214285714,178.12857142857143,4522.3,819.2223214285714,178.12857142857143,4626.7,819.2223214285714,178.12857142857143,4727.3,819.2223214285714,178.12857142857143,4832,819.2223214285714,178.12857142857143,4932.2]","[8502.1,8502.1,2667.3,5454.1,380.7,""oops"",""right"",""down"",""bad_move"",11668.1,3165.6,2721,8502.5,444.6,""oops"",""right"",""up"",""good_move"",14692.2,3023.9,2591.3,11668.3,432.6,""oops"",""right"",""right"",""good_move"",17324.2,2631.8,2249.8,14692.4,382,""smooth"",""right"",""right"",""good_move"",20397.1,3072.8,2674.2,17324.3,398.6,""smooth"",""up"",""up"",""good_move"",27012.3,6615,3159.4,23470.2,382.7,""smooth"",""up"",""up"",""good_move""]","",""
"2736","","<div style=""width:500px;"">
  <p>What determined the result of this run?</p>
  </div>","50","html-slider-response","35","405584","0.0-5.0-1.5","115","1","2025-07-16 13:28:13","1f75c3e559b7213887762d5229550c2b","82.132.244.142","Mozilla/5.0 (Windows NT 10.0; Win64; x64) AppleWebKit/537.36 (KHTML, like Gecko) Chrome/138.0.0.0 Safari/537.36","WebKit","Chrome","138.0.0.0","Windows","10.0","https://app.prolific.com/","en-GB,en-US;q=0.9,en;q=0.8","676054ef296caad582258e02","68764874ac79eee8c1d4cb03","6877a8da78b485eba3327537","2","0","676054ef296caad582258e02","2","0","2025-07-16T13:35:01.731Z","","","","","","","","","","","AttribQ","","50","","","","","","","","","","","","","","","","","","","","","","","","","","","","",""
"3495","","<div style=""width:500px;"">
  <p>How much control did you have over the ball?</p>
  </div>","50","html-slider-response","36","409080","0.0-5.0-2.5","115","1","2025-07-16 13:28:13","1f75c3e559b7213887762d5229550c2b","82.132.244.142","Mozilla/5.0 (Windows NT 10.0; Win64; x64) AppleWebKit/537.36 (KHTML, like Gecko) Chrome/138.0.0.0 Safari/537.36","WebKit","Chrome","138.0.0.0","Windows","10.0","https://app.prolific.com/","en-GB,en-US;q=0.9,en;q=0.8","676054ef296caad582258e02","68764874ac79eee8c1d4cb03","6877a8da78b485eba3327537","2","0","676054ef296caad582258e02","2","0","2025-07-16T13:35:05.227Z","","","","","","","","","","","ControlQ","","50","","","","","","","","","","","","","","","","","","","","","","","","","","","","",""
"1647","","<div style=""width:500px;"">
  <p>How would you describe your current emotional state?</p>
  </div>","44","html-slider-response","37","410728","0.0-5.0-3.5","115","1","2025-07-16 13:28:13","1f75c3e559b7213887762d5229550c2b","82.132.244.142","Mozilla/5.0 (Windows NT 10.0; Win64; x64) AppleWebKit/537.36 (KHTML, like Gecko) Chrome/138.0.0.0 Safari/537.36","WebKit","Chrome","138.0.0.0","Windows","10.0","https://app.prolific.com/","en-GB,en-US;q=0.9,en;q=0.8","676054ef296caad582258e02","68764874ac79eee8c1d4cb03","6877a8da78b485eba3327537","2","0","676054ef296caad582258e02","2","0","2025-07-16T13:35:06.875Z","","","","","","","","","","","StressQ","","50","","","","","","","","","","","","","","","","","","","","","","","","","","","","",""
"1703","","<div style=""width:500px;"">
  <p>What best describes how you currently feel?</p>
  </div>","50","html-slider-response","38","412432","0.0-5.0-4.5","115","1","2025-07-16 13:28:13","1f75c3e559b7213887762d5229550c2b","82.132.244.142","Mozilla/5.0 (Windows NT 10.0; Win64; x64) AppleWebKit/537.36 (KHTML, like Gecko) Chrome/138.0.0.0 Safari/537.36","WebKit","Chrome","138.0.0.0","Windows","10.0","https://app.prolific.com/","en-GB,en-US;q=0.9,en;q=0.8","676054ef296caad582258e02","68764874ac79eee8c1d4cb03","6877a8da78b485eba3327537","2","0","676054ef296caad582258e02","2","0","2025-07-16T13:35:08.579Z","","","","","","","","","","","MotivationQ","","50","","","","","","","","","","","","","","","","","","","","","","","","","","","","",""
"","","","","ctl-task-cpt","39","452036","0.0-5.0-0.6","115","1","2025-07-16 13:28:13","1f75c3e559b7213887762d5229550c2b","82.132.244.142","Mozilla/5.0 (Windows NT 10.0; Win64; x64) AppleWebKit/537.36 (KHTML, like Gecko) Chrome/138.0.0.0 Safari/537.36","WebKit","Chrome","138.0.0.0","Windows","10.0","https://app.prolific.com/","en-GB,en-US;q=0.9,en;q=0.8","676054ef296caad582258e02","68764874ac79eee8c1d4cb03","6877a8da78b485eba3327537","2","0","676054ef296caad582258e02","2","0","2025-07-16T13:35:48.183Z","","","","","","","","","","","","","","win-only","3","g1:SW,g2:NE","0.4","7","0","414607.3","688.1","5691.5","36585.3","1","4","4","6","1","-1","-1","5","6","0.03787878787878788","1322.4","3000","-3005","[""down"",""left""]","{""num_key_presses"":8,""num_perfect"":3,""num_errors"":0,""num_randdir"":5,""num_randdir_good_moves"":1,""num_whilered"":0,""num_whileblue"":0,""num_blue"":2,""num_good_moves"":4}","[300.22232142857143,295.12857142857143,0.1,300.22232142857143,295.12857142857143,103.6,299.22232142857143,292.12857142857143,207.3,349.22232142857143,228.12857142857143,312.2,421.22232142857143,163.12857142857143,412.6,266.22232142857143,362.12857142857143,512.8,250.22232142857143,458.12857142857143,612.8,225.22232142857143,478.12857142857143,717.4,108.22232142857143,518.1285714285714,817.9,28.222321428571426,565.1285714285714,923,28.222321428571426,565.1285714285714,1023.2,28.222321428571426,565.1285714285714,1127.3,31.222321428571426,561.1285714285714,1227.4,31.222321428571426,561.1285714285714,1332.9,31.222321428571426,557.1285714285714,1432.9,37.222321428571426,556.1285714285714,1538.8,242.22232142857143,486.12857142857143,1642.4,403.22232142857143,425.12857142857143,1747.7,616.2223214285714,360.12857142857143,1853.8,877.2223214285714,221.12857142857143,1957.6,975.2223214285714,121.12857142857143,2062.3,975.2223214285714,121.12857142857143,2163.5,975.2223214285714,121.12857142857143,2267.2,975.2223214285714,121.12857142857143,2367.3,975.2223214285714,121.12857142857143,2472.6,975.2223214285714,121.12857142857143,2577.5,975.2223214285714,121.12857142857143,2677.5,975.2223214285714,121.12857142857143,2778.5,975.2223214285714,121.12857142857143,2879,975.2223214285714,121.12857142857143,2982.3,975.2223214285714,121.12857142857143,3082.3,975.2223214285714,121.12857142857143,3182.9,975.2223214285714,121.12857142857143,3287.7,975.2223214285714,121.12857142857143,3388.4,975.2223214285714,121.12857142857143,3492.7,975.2223214285714,121.12857142857143,3597.6,975.2223214285714,121.12857142857143,3698.7,975.2223214285714,121.12857142857143,3802.5,975.2223214285714,121.12857142857143,3902.5,975.2223214285714,121.12857142857143,4003,975.2223214285714,121.12857142857143,4104,975.2223214285714,121.12857142857143,4207.2,975.2223214285714,121.12857142857143,4307.2,975.2223214285714,121.12857142857143,4407.9,975.2223214285714,121.12857142857143,4513.2,975.2223214285714,121.12857142857143,4618.6,975.2223214285714,121.12857142857143,4722.6,975.2223214285714,121.12857142857143,4823.6,975.2223214285714,121.12857142857143,4927.8]","[1346.7,1346.7,1000,0,346.7,""oops"",""down"",""up"",""bad_move"",4506.7,3159.7,2800.5,1347,359.2,""oops"",""down"",""left"",""good_move"",10562.6,6055.6,2405.8,7818.9,337.9,""oops"",""down"",""up"",""bad_move"",17130.8,6568,2853.1,13909.1,368.6,""smooth"",""down"",""down"",""good_move"",20274.6,3143.6,2785.6,17131,358,""smooth"",""down"",""down"",""good_move"",23458.9,3184.2,2849.2,20274.7,335,""oops"",""down"",""up"",""bad_move"",26122.7,2663.4,2256.3,23459.3,407.1,""smooth"",""down"",""down"",""good_move"",28546.6,2423.8,2073.2,26122.8,350.6,""oops"",""down"",""right"",""bad_move""]","",""
"2771","","<div style=""width:500px;"">
  <p>What determined the result of this run?</p>
  </div>","0","html-slider-response","40","454808","0.0-5.0-1.6","115","1","2025-07-16 13:28:13","1f75c3e559b7213887762d5229550c2b","82.132.244.142","Mozilla/5.0 (Windows NT 10.0; Win64; x64) AppleWebKit/537.36 (KHTML, like Gecko) Chrome/138.0.0.0 Safari/537.36","WebKit","Chrome","138.0.0.0","Windows","10.0","https://app.prolific.com/","en-GB,en-US;q=0.9,en;q=0.8","676054ef296caad582258e02","68764874ac79eee8c1d4cb03","6877a8da78b485eba3327537","2","0","676054ef296caad582258e02","2","0","2025-07-16T13:35:50.955Z","","","","","","","","","","","AttribQ","","50","","","","","","","","","","","","","","","","","","","","","","","","","","","","",""
"1903","","<div style=""width:500px;"">
  <p>How much control did you have over the ball?</p>
  </div>","0","html-slider-response","41","456712","0.0-5.0-2.6","115","1","2025-07-16 13:28:13","1f75c3e559b7213887762d5229550c2b","82.132.244.142","Mozilla/5.0 (Windows NT 10.0; Win64; x64) AppleWebKit/537.36 (KHTML, like Gecko) Chrome/138.0.0.0 Safari/537.36","WebKit","Chrome","138.0.0.0","Windows","10.0","https://app.prolific.com/","en-GB,en-US;q=0.9,en;q=0.8","676054ef296caad582258e02","68764874ac79eee8c1d4cb03","6877a8da78b485eba3327537","2","0","676054ef296caad582258e02","2","0","2025-07-16T13:35:52.859Z","","","","","","","","","","","ControlQ","","50","","","","","","","","","","","","","","","","","","","","","","","","","","","","",""
"5295","","<div style=""width:500px;"">
  <p>How would you describe your current emotional state?</p>
  </div>","46","html-slider-response","42","462008","0.0-5.0-3.6","115","1","2025-07-16 13:28:13","1f75c3e559b7213887762d5229550c2b","82.132.244.142","Mozilla/5.0 (Windows NT 10.0; Win64; x64) AppleWebKit/537.36 (KHTML, like Gecko) Chrome/138.0.0.0 Safari/537.36","WebKit","Chrome","138.0.0.0","Windows","10.0","https://app.prolific.com/","en-GB,en-US;q=0.9,en;q=0.8","676054ef296caad582258e02","68764874ac79eee8c1d4cb03","6877a8da78b485eba3327537","2","0","676054ef296caad582258e02","2","0","2025-07-16T13:35:58.155Z","","","","","","","","","","","StressQ","","50","","","","","","","","","","","","","","","","","","","","","","","","","","","","",""
"1135","","<div style=""width:500px;"">
  <p>What best describes how you currently feel?</p>
  </div>","50","html-slider-response","43","463144","0.0-5.0-4.6","115","1","2025-07-16 13:28:13","1f75c3e559b7213887762d5229550c2b","82.132.244.142","Mozilla/5.0 (Windows NT 10.0; Win64; x64) AppleWebKit/537.36 (KHTML, like Gecko) Chrome/138.0.0.0 Safari/537.36","WebKit","Chrome","138.0.0.0","Windows","10.0","https://app.prolific.com/","en-GB,en-US;q=0.9,en;q=0.8","676054ef296caad582258e02","68764874ac79eee8c1d4cb03","6877a8da78b485eba3327537","2","0","676054ef296caad582258e02","2","0","2025-07-16T13:35:59.291Z","","","","","","","","","","","MotivationQ","","50","","","","","","","","","","","","","","","","","","","","","","","","","","","","",""
"","","","","ctl-task-cpt","44","505110","0.0-5.0-0.7","115","1","2025-07-16 13:28:13","1f75c3e559b7213887762d5229550c2b","82.132.244.142","Mozilla/5.0 (Windows NT 10.0; Win64; x64) AppleWebKit/537.36 (KHTML, like Gecko) Chrome/138.0.0.0 Safari/537.36","WebKit","Chrome","138.0.0.0","Windows","10.0","https://app.prolific.com/","en-GB,en-US;q=0.9,en;q=0.8","676054ef296caad582258e02","68764874ac79eee8c1d4cb03","6877a8da78b485eba3327537","2","0","676054ef296caad582258e02","2","0","2025-07-16T13:36:41.257Z","","","","","","","","","","","","","","win-only","2","g1:SE,g2:NW","0.3","8","0","465319.3","1055.1","6055.3","38940.9","1","4","8","6","2","-8","-8","0","5","0","1679.9","3000","-2600","[""left"",""up""]","{""num_key_presses"":10,""num_perfect"":3,""num_errors"":0,""num_randdir"":7,""num_randdir_good_moves"":3,""num_whilered"":0,""num_whileblue"":0,""num_blue"":1,""num_good_moves"":6}","[295.22232142857143,288.12857142857143,0.1,295.22232142857143,288.12857142857143,100.6,295.22232142857143,288.12857142857143,200.6,360.22232142857143,208.12857142857143,309.4,334.22232142857143,213.12857142857143,410.4,234.22232142857143,213.12857142857143,515,138.22232142857143,164.12857142857143,615,147.22232142857143,152.12857142857143,715.4,223.22232142857143,185.12857142857143,816,314.22232142857143,257.12857142857143,925.2,437.22232142857143,377.12857142857143,1031,518.2223214285714,418.12857142857143,1135.2,429.22232142857143,350.12857142857143,1236.2,101.22232142857143,137.12857142857143,1340.3,88.22232142857143,116.12857142857143,1447,71.22232142857143,86.12857142857143,1550.9,54.222321428571426,47.128571428571426,1658.7,54.222321428571426,47.128571428571426,1760.2,281.22232142857143,254.12857142857143,1860.4,425.22232142857143,392.12857142857143,1960.7,509.22232142857143,454.12857142857143,2065.4,739.2223214285714,380.12857142857143,2165.6,877.2223214285714,282.12857142857143,2275.2,875.2223214285714,270.12857142857143,2375.3,875.2223214285714,270.12857142857143,2480.1,875.2223214285714,270.12857142857143,2580.3,875.2223214285714,270.12857142857143,2680.5,875.2223214285714,270.12857142857143,2790.4,875.2223214285714,270.12857142857143,2895.3,875.2223214285714,270.12857142857143,2996.5,875.2223214285714,270.12857142857143,3100.9,875.2223214285714,270.12857142857143,3207.7,875.2223214285714,270.12857142857143,3308.5,875.2223214285714,270.12857142857143,3410.1,875.2223214285714,270.12857142857143,3510.5,875.2223214285714,270.12857142857143,3611,875.2223214285714,270.12857142857143,3715.3,875.2223214285714,270.12857142857143,3816.1,875.2223214285714,270.12857142857143,3923.6,875.2223214285714,270.12857142857143,4023.9,875.2223214285714,270.12857142857143,4126.5,875.2223214285714,270.12857142857143,4230.9,875.2223214285714,270.12857142857143,4340.3,875.2223214285714,270.12857142857143,4440.3,875.2223214285714,270.12857142857143,4541.9,875.2223214285714,270.12857142857143,4645.2,875.2223214285714,270.12857142857143,4745.9,875.2223214285714,270.12857142857143,4847.8,875.2223214285714,270.12857142857143,4951.1]","[1350.9,1350.9,1000,0,350.9,""oops"",""up"",""down"",""bad_move"",4853.5,3502.3,3150.2,1351.2,352.1,""smooth"",""up"",""up"",""good_move"",7526.9,2673.2,2307.7,4853.7,365.5,""oops"",""up"",""up"",""good_move"",9734.4,2207.3,1845,7527.1,362.3,""oops"",""up"",""right"",""bad_move"",13255,3520.3,3206.3,9734.7,314,""oops"",""up"",""up"",""good_move"",16455,3199.9,2927.1,13255.1,272.8,""smooth"",""up"",""up"",""good_move"",18681.7,2226.5,1919.1,16455.2,307.4,""smooth"",""left"",""left"",""good_move"",21131.4,2449.5,2174.3,18681.9,275.2,""oops"",""left"",""down"",""bad_move"",27295.1,6163.4,2199.8,24747.2,348.1,""oops"",""left"",""right"",""bad_move"",30415.1,3119.8,2745.5,27295.3,374.3,""oops"",""left"",""up"",""good_move""]","",""
"2138","","<div style=""width:500px;"">
  <p>What determined the result of this run?</p>
  </div>","0","html-slider-response","45","507248","0.0-5.0-1.7","115","1","2025-07-16 13:28:13","1f75c3e559b7213887762d5229550c2b","82.132.244.142","Mozilla/5.0 (Windows NT 10.0; Win64; x64) AppleWebKit/537.36 (KHTML, like Gecko) Chrome/138.0.0.0 Safari/537.36","WebKit","Chrome","138.0.0.0","Windows","10.0","https://app.prolific.com/","en-GB,en-US;q=0.9,en;q=0.8","676054ef296caad582258e02","68764874ac79eee8c1d4cb03","6877a8da78b485eba3327537","2","0","676054ef296caad582258e02","2","0","2025-07-16T13:36:43.395Z","","","","","","","","","","","AttribQ","","50","","","","","","","","","","","","","","","","","","","","","","","","","","","","",""
"1799","","<div style=""width:500px;"">
  <p>How much control did you have over the ball?</p>
  </div>","0","html-slider-response","46","509048","0.0-5.0-2.7","115","1","2025-07-16 13:28:13","1f75c3e559b7213887762d5229550c2b","82.132.244.142","Mozilla/5.0 (Windows NT 10.0; Win64; x64) AppleWebKit/537.36 (KHTML, like Gecko) Chrome/138.0.0.0 Safari/537.36","WebKit","Chrome","138.0.0.0","Windows","10.0","https://app.prolific.com/","en-GB,en-US;q=0.9,en;q=0.8","676054ef296caad582258e02","68764874ac79eee8c1d4cb03","6877a8da78b485eba3327537","2","0","676054ef296caad582258e02","2","0","2025-07-16T13:36:45.195Z","","","","","","","","","","","ControlQ","","50","","","","","","","","","","","","","","","","","","","","","","","","","","","","",""
"1583","","<div style=""width:500px;"">
  <p>How would you describe your current emotional state?</p>
  </div>","50","html-slider-response","47","510632","0.0-5.0-3.7","115","1","2025-07-16 13:28:13","1f75c3e559b7213887762d5229550c2b","82.132.244.142","Mozilla/5.0 (Windows NT 10.0; Win64; x64) AppleWebKit/537.36 (KHTML, like Gecko) Chrome/138.0.0.0 Safari/537.36","WebKit","Chrome","138.0.0.0","Windows","10.0","https://app.prolific.com/","en-GB,en-US;q=0.9,en;q=0.8","676054ef296caad582258e02","68764874ac79eee8c1d4cb03","6877a8da78b485eba3327537","2","0","676054ef296caad582258e02","2","0","2025-07-16T13:36:46.779Z","","","","","","","","","","","StressQ","","50","","","","","","","","","","","","","","","","","","","","","","","","","","","","",""
"2687","","<div style=""width:500px;"">
  <p>What best describes how you currently feel?</p>
  </div>","50","html-slider-response","48","513320","0.0-5.0-4.7","115","1","2025-07-16 13:28:13","1f75c3e559b7213887762d5229550c2b","82.132.244.142","Mozilla/5.0 (Windows NT 10.0; Win64; x64) AppleWebKit/537.36 (KHTML, like Gecko) Chrome/138.0.0.0 Safari/537.36","WebKit","Chrome","138.0.0.0","Windows","10.0","https://app.prolific.com/","en-GB,en-US;q=0.9,en;q=0.8","676054ef296caad582258e02","68764874ac79eee8c1d4cb03","6877a8da78b485eba3327537","2","0","676054ef296caad582258e02","2","0","2025-07-16T13:36:49.467Z","","","","","","","","","","","MotivationQ","","50","","","","","","","","","","","","","","","","","","","","","","","","","","","","",""
"","","","","ctl-task-cpt","49","553940","0.0-5.0-0.8","115","1","2025-07-16 13:28:13","1f75c3e559b7213887762d5229550c2b","82.132.244.142","Mozilla/5.0 (Windows NT 10.0; Win64; x64) AppleWebKit/537.36 (KHTML, like Gecko) Chrome/138.0.0.0 Safari/537.36","WebKit","Chrome","138.0.0.0","Windows","10.0","https://app.prolific.com/","en-GB,en-US;q=0.9,en;q=0.8","676054ef296caad582258e02","68764874ac79eee8c1d4cb03","6877a8da78b485eba3327537","2","0","676054ef296caad582258e02","2","0","2025-07-16T13:37:30.087Z","","","","","","","","","","","","","","win-only","3","g1:SW,g2:NE","0.2","9","0","515495.3","815.2","5816","37601.9","1","4","8","6","2","-8","-9","0","0","0","1399.8","3000","-3010","[""up"",""right""]","{""num_key_presses"":9,""num_perfect"":1,""num_errors"":1,""num_randdir"":7,""num_randdir_good_moves"":3,""num_whilered"":0,""num_whileblue"":1,""num_blue"":2,""num_good_moves"":5}","[295.22232142857143,295.12857142857143,0.1,295.22232142857143,295.12857142857143,101.6,277.22232142857143,258.12857142857143,204.9,209.22232142857143,194.12857142857143,304.9,257.22232142857143,207.12857142857143,404.9,202.22232142857143,275.12857142857143,505.6,155.22232142857143,372.12857142857143,605.7,162.22232142857143,406.12857142857143,709.9,196.22232142857143,427.12857142857143,810.1,413.22232142857143,235.12857142857143,910.2,569.2223214285714,42.128571428571426,1016.6,593.2223214285714,19.128571428571426,1121.1,593.2223214285714,19.128571428571426,1225.6,576.2223214285714,25.128571428571426,1330.8,570.2223214285714,27.128571428571426,1435.8,750.2223214285714,153.12857142857143,1536.8,948.2223214285714,251.12857142857143,1640.1,939.2223214285714,246.12857142857143,1740.1,924.2223214285714,241.12857142857143,1840.6,924.2223214285714,241.12857142857143,1946.7,924.2223214285714,241.12857142857143,2050,924.2223214285714,241.12857142857143,2151.4,924.2223214285714,241.12857142857143,2255.9,924.2223214285714,241.12857142857143,2360.6,924.2223214285714,241.12857142857143,2461.9,924.2223214285714,241.12857142857143,2567,924.2223214285714,241.12857142857143,2670.3,924.2223214285714,241.12857142857143,2770.5,924.2223214285714,241.12857142857143,2871,924.2223214285714,241.12857142857143,2975.5,924.2223214285714,241.12857142857143,3080.2,924.2223214285714,241.12857142857143,3185.8,924.2223214285714,241.12857142857143,3290.8,924.2223214285714,241.12857142857143,3395.5,924.2223214285714,241.12857142857143,3495.8,924.2223214285714,241.12857142857143,3601.4,924.2223214285714,241.12857142857143,3705.5,924.2223214285714,241.12857142857143,3806.7,924.2223214285714,241.12857142857143,3911.6,924.2223214285714,241.12857142857143,4012,924.2223214285714,241.12857142857143,4116.2,924.2223214285714,241.12857142857143,4219.9,924.2223214285714,241.12857142857143,4320.5,924.2223214285714,241.12857142857143,4425.5,924.2223214285714,241.12857142857143,4530.1,924.2223214285714,241.12857142857143,4630.5,924.2223214285714,241.12857142857143,4730.7,924.2223214285714,241.12857142857143,4830.8,924.2223214285714,241.12857142857143,4932]","[1310.5,1310.5,1000,0,310.5,""oops"",""right"",""up"",""good_move"",3902.3,2591.5,2260.3,1310.8,331.2,""smooth"",""right"",""right"",""good_move"",6934.3,3031.8,2746.9,3902.5,284.9,""while_blue"",""right"",""right"",""good_move"",10238.3,3303.9,2918.2,6934.4,385.7,""oops"",""right"",""right"",""good_move"",13224.6,2986.1,2601.2,10238.5,384.9,""oops"",""up"",""down"",""bad_move"",16262.3,3037.4,2695.7,13224.9,341.7,""oops"",""up"",""left"",""bad_move"",19473.9,3211.4,2826.2,16262.5,385.2,""oops"",""up"",""right"",""good_move"",22462.5,2988.3,2617,19474.2,371.3,""oops"",""up"",""down"",""bad_move"",29702.3,7239.6,2549.5,26780.7,372.1,""oops"",""up"",""down"",""bad_move""]","",""
"4419","","<div style=""width:500px;"">
  <p>What determined the result of this run?</p>
  </div>","32","html-slider-response","50","558360","0.0-5.0-1.8","115","1","2025-07-16 13:28:13","1f75c3e559b7213887762d5229550c2b","82.132.244.142","Mozilla/5.0 (Windows NT 10.0; Win64; x64) AppleWebKit/537.36 (KHTML, like Gecko) Chrome/138.0.0.0 Safari/537.36","WebKit","Chrome","138.0.0.0","Windows","10.0","https://app.prolific.com/","en-GB,en-US;q=0.9,en;q=0.8","676054ef296caad582258e02","68764874ac79eee8c1d4cb03","6877a8da78b485eba3327537","2","0","676054ef296caad582258e02","2","0","2025-07-16T13:37:34.507Z","","","","","","","","","","","AttribQ","","50","","","","","","","","","","","","","","","","","","","","","","","","","","","","",""
"1999","","<div style=""width:500px;"">
  <p>How much control did you have over the ball?</p>
  </div>","0","html-slider-response","51","560360","0.0-5.0-2.8","115","1","2025-07-16 13:28:13","1f75c3e559b7213887762d5229550c2b","82.132.244.142","Mozilla/5.0 (Windows NT 10.0; Win64; x64) AppleWebKit/537.36 (KHTML, like Gecko) Chrome/138.0.0.0 Safari/537.36","WebKit","Chrome","138.0.0.0","Windows","10.0","https://app.prolific.com/","en-GB,en-US;q=0.9,en;q=0.8","676054ef296caad582258e02","68764874ac79eee8c1d4cb03","6877a8da78b485eba3327537","2","0","676054ef296caad582258e02","2","0","2025-07-16T13:37:36.507Z","","","","","","","","","","","ControlQ","","50","","","","","","","","","","","","","","","","","","","","","","","","","","","","",""
"2519","","<div style=""width:500px;"">
  <p>How would you describe your current emotional state?</p>
  </div>","46","html-slider-response","52","562880","0.0-5.0-3.8","115","1","2025-07-16 13:28:13","1f75c3e559b7213887762d5229550c2b","82.132.244.142","Mozilla/5.0 (Windows NT 10.0; Win64; x64) AppleWebKit/537.36 (KHTML, like Gecko) Chrome/138.0.0.0 Safari/537.36","WebKit","Chrome","138.0.0.0","Windows","10.0","https://app.prolific.com/","en-GB,en-US;q=0.9,en;q=0.8","676054ef296caad582258e02","68764874ac79eee8c1d4cb03","6877a8da78b485eba3327537","2","0","676054ef296caad582258e02","2","0","2025-07-16T13:37:39.027Z","","","","","","","","","","","StressQ","","50","","","","","","","","","","","","","","","","","","","","","","","","","","","","",""
"1983","","<div style=""width:500px;"">
  <p>What best describes how you currently feel?</p>
  </div>","50","html-slider-response","53","564864","0.0-5.0-4.8","115","1","2025-07-16 13:28:13","1f75c3e559b7213887762d5229550c2b","82.132.244.142","Mozilla/5.0 (Windows NT 10.0; Win64; x64) AppleWebKit/537.36 (KHTML, like Gecko) Chrome/138.0.0.0 Safari/537.36","WebKit","Chrome","138.0.0.0","Windows","10.0","https://app.prolific.com/","en-GB,en-US;q=0.9,en;q=0.8","676054ef296caad582258e02","68764874ac79eee8c1d4cb03","6877a8da78b485eba3327537","2","0","676054ef296caad582258e02","2","0","2025-07-16T13:37:41.011Z","","","","","","","","","","","MotivationQ","","50","","","","","","","","","","","","","","","","","","","","","","","","","","","","",""
"","","","","ctl-task-cpt","54","604120","0.0-5.0-0.9","115","1","2025-07-16 13:28:13","1f75c3e559b7213887762d5229550c2b","82.132.244.142","Mozilla/5.0 (Windows NT 10.0; Win64; x64) AppleWebKit/537.36 (KHTML, like Gecko) Chrome/138.0.0.0 Safari/537.36","WebKit","Chrome","138.0.0.0","Windows","10.0","https://app.prolific.com/","en-GB,en-US;q=0.9,en;q=0.8","676054ef296caad582258e02","68764874ac79eee8c1d4cb03","6877a8da78b485eba3327537","2","0","676054ef296caad582258e02","2","0","2025-07-16T13:38:20.267Z","","","","","","","","","","","","","","win-only","1","g1:NE,g2:SW","0.4","10","0","567039.4","783.4","5786.8","36237","1","4","4","6","2","4","4","4","0","0.030303030303030304","1912.6","3000","225","[""down"",""left""]","{""num_key_presses"":8,""num_perfect"":4,""num_errors"":0,""num_randdir"":4,""num_randdir_good_moves"":3,""num_whilered"":0,""num_whileblue"":0,""num_blue"":3,""num_good_moves"":7}","[297.22232142857143,289.12857142857143,0.1,298.22232142857143,289.12857142857143,100.7,302.22232142857143,307.12857142857143,203,332.22232142857143,319.12857142857143,308.3,310.22232142857143,313.12857142857143,412.1,299.22232142857143,323.12857142857143,512.7,299.22232142857143,375.12857142857143,613.4,300.22232142857143,376.12857142857143,718.2,306.22232142857143,366.12857142857143,821.8,324.22232142857143,308.12857142857143,923.3,328.22232142857143,282.12857142857143,1027.1,328.22232142857143,282.12857142857143,1128.7,285.22232142857143,327.12857142857143,1228.7,136.22232142857143,604.1285714285714,1332.1,124.22232142857143,609.1285714285714,1432.4,102.22232142857143,609.1285714285714,1537.3,61.222321428571426,562.1285714285714,1643.1,60.222321428571426,560.1285714285714,1746.9,60.222321428571426,560.1285714285714,1848.4,60.222321428571426,560.1285714285714,1948.8,64.22232142857143,556.1285714285714,2055.3,125.22232142857143,497.12857142857143,2157.4,193.22232142857143,459.12857142857143,2257.4,193.22232142857143,459.12857142857143,2358.8,213.22232142857143,479.12857142857143,2462.3,277.22232142857143,527.1285714285714,2562.8,301.22232142857143,544.1285714285714,2667.6,301.22232142857143,544.1285714285714,2768.9,301.22232142857143,544.1285714285714,2869.4,301.22232142857143,544.1285714285714,2970.2,301.22232142857143,544.1285714285714,3072.4,301.22232142857143,544.1285714285714,3177.9,301.22232142857143,544.1285714285714,3281.8,301.22232142857143,544.1285714285714,3383.5,301.22232142857143,544.1285714285714,3483.6,301.22232142857143,544.1285714285714,3587,301.22232142857143,544.1285714285714,3687.6,301.22232142857143,544.1285714285714,3795.4,301.22232142857143,544.1285714285714,3897.8,301.22232142857143,544.1285714285714,4002.1,301.22232142857143,544.1285714285714,4103.4,301.22232142857143,544.1285714285714,4207.7,301.22232142857143,544.1285714285714,4312.4,301.22232142857143,544.1285714285714,4413.3,301.22232142857143,544.1285714285714,4518.2,301.22232142857143,544.1285714285714,4618.2,301.22232142857143,544.1285714285714,4722.3,301.22232142857143,544.1285714285714,4827.7,301.22232142857143,544.1285714285714,4933.2]","[1307.7,1307.7,1000,0,307.7,""oops"",""down"",""up"",""bad_move"",3379.5,2071.5,1706.2,1308,365.3,""smooth"",""left"",""left"",""good_move"",6131.4,2751.7,2406.3,3379.7,345.4,""smooth"",""left"",""left"",""good_move"",8851.5,2719.9,2382.2,6131.6,337.7,""oops"",""left"",""down"",""good_move"",14691.6,5839.8,2189.4,12159.9,342.3,""oops"",""left"",""down"",""good_move"",25469.3,10777.5,2399.6,22678.5,391.2,""smooth"",""left"",""left"",""good_move"",27603.7,2134.2,1743.7,25469.5,390.5,""oops"",""down"",""down"",""good_move"",30363.6,2759.7,2408.3,27603.9,351.4,""smooth"",""down"",""down"",""good_move""]","",""
"1991","","<div style=""width:500px;"">
  <p>What determined the result of this run?</p>
  </div>","35","html-slider-response","55","606112","0.0-5.0-1.9","115","1","2025-07-16 13:28:13","1f75c3e559b7213887762d5229550c2b","82.132.244.142","Mozilla/5.0 (Windows NT 10.0; Win64; x64) AppleWebKit/537.36 (KHTML, like Gecko) Chrome/138.0.0.0 Safari/537.36","WebKit","Chrome","138.0.0.0","Windows","10.0","https://app.prolific.com/","en-GB,en-US;q=0.9,en;q=0.8","676054ef296caad582258e02","68764874ac79eee8c1d4cb03","6877a8da78b485eba3327537","2","0","676054ef296caad582258e02","2","0","2025-07-16T13:38:22.259Z","","","","","","","","","","","AttribQ","","50","","","","","","","","","","","","","","","","","","","","","","","","","","","","",""
"2839","","<div style=""width:500px;"">
  <p>How much control did you have over the ball?</p>
  </div>","41","html-slider-response","56","608952","0.0-5.0-2.9","115","1","2025-07-16 13:28:13","1f75c3e559b7213887762d5229550c2b","82.132.244.142","Mozilla/5.0 (Windows NT 10.0; Win64; x64) AppleWebKit/537.36 (KHTML, like Gecko) Chrome/138.0.0.0 Safari/537.36","WebKit","Chrome","138.0.0.0","Windows","10.0","https://app.prolific.com/","en-GB,en-US;q=0.9,en;q=0.8","676054ef296caad582258e02","68764874ac79eee8c1d4cb03","6877a8da78b485eba3327537","2","0","676054ef296caad582258e02","2","0","2025-07-16T13:38:25.099Z","","","","","","","","","","","ControlQ","","50","","","","","","","","","","","","","","","","","","","","","","","","","","","","",""
"2583","","<div style=""width:500px;"">
  <p>How would you describe your current emotional state?</p>
  </div>","48","html-slider-response","57","611536","0.0-5.0-3.9","115","1","2025-07-16 13:28:13","1f75c3e559b7213887762d5229550c2b","82.132.244.142","Mozilla/5.0 (Windows NT 10.0; Win64; x64) AppleWebKit/537.36 (KHTML, like Gecko) Chrome/138.0.0.0 Safari/537.36","WebKit","Chrome","138.0.0.0","Windows","10.0","https://app.prolific.com/","en-GB,en-US;q=0.9,en;q=0.8","676054ef296caad582258e02","68764874ac79eee8c1d4cb03","6877a8da78b485eba3327537","2","0","676054ef296caad582258e02","2","0","2025-07-16T13:38:27.683Z","","","","","","","","","","","StressQ","","50","","","","","","","","","","","","","","","","","","","","","","","","","","","","",""
"1087","","<div style=""width:500px;"">
  <p>What best describes how you currently feel?</p>
  </div>","50","html-slider-response","58","612624","0.0-5.0-4.9","115","1","2025-07-16 13:28:13","1f75c3e559b7213887762d5229550c2b","82.132.244.142","Mozilla/5.0 (Windows NT 10.0; Win64; x64) AppleWebKit/537.36 (KHTML, like Gecko) Chrome/138.0.0.0 Safari/537.36","WebKit","Chrome","138.0.0.0","Windows","10.0","https://app.prolific.com/","en-GB,en-US;q=0.9,en;q=0.8","676054ef296caad582258e02","68764874ac79eee8c1d4cb03","6877a8da78b485eba3327537","2","0","676054ef296caad582258e02","2","0","2025-07-16T13:38:28.771Z","","","","","","","","","","","MotivationQ","","50","","","","","","","","","","","","","","","","","","","","","","","","","","","","",""
"","","","","ctl-task-cpt","59","653708","0.0-5.0-0.10","115","1","2025-07-16 13:28:13","1f75c3e559b7213887762d5229550c2b","82.132.244.142","Mozilla/5.0 (Windows NT 10.0; Win64; x64) AppleWebKit/537.36 (KHTML, like Gecko) Chrome/138.0.0.0 Safari/537.36","WebKit","Chrome","138.0.0.0","Windows","10.0","https://app.prolific.com/","en-GB,en-US;q=0.9,en;q=0.8","676054ef296caad582258e02","68764874ac79eee8c1d4cb03","6877a8da78b485eba3327537","2","0","676054ef296caad582258e02","2","0","2025-07-16T13:39:09.855Z","","","","","","","","","","","","","","win-only","0","g1:NW,g2:SE","0.5","11","0","614799.5","1376.6","6381.4","38065.6","1","4","4","6","2","-4","-4","0","4","0","1230.3","3000","-2740","[""down"",""right""]","{""num_key_presses"":9,""num_perfect"":5,""num_errors"":0,""num_randdir"":4,""num_randdir_good_moves"":2,""num_whilered"":0,""num_whileblue"":0,""num_blue"":1,""num_good_moves"":7}","[296.22232142857143,298.12857142857143,0.2,296.22232142857143,298.12857142857143,104.4,307.22232142857143,302.12857142857143,210.1,313.22232142857143,304.12857142857143,320.4,297.22232142857143,420.12857142857143,423.9,461.22232142857143,555.1285714285714,523.9,468.22232142857143,557.1285714285714,625.1,490.22232142857143,564.1285714285714,730.3,536.2223214285714,543.1285714285714,834.7,537.2223214285714,537.1285714285714,939.4,537.2223214285714,536.1285714285714,1039.6,537.2223214285714,536.1285714285714,1140.1,537.2223214285714,536.1285714285714,1245.5,537.2223214285714,536.1285714285714,1350.9,610.2223214285714,491.12857142857143,1451.9,670.2223214285714,413.12857142857143,1554.3,702.2223214285714,392.12857142857143,1658.7,699.2223214285714,385.12857142857143,1767.4,699.2223214285714,385.12857142857143,1867.7,699.2223214285714,385.12857142857143,1968.7,699.2223214285714,385.12857142857143,2069.3,699.2223214285714,385.12857142857143,2174.5,699.2223214285714,385.12857142857143,2277.1,699.2223214285714,385.12857142857143,2384.7,699.2223214285714,385.12857142857143,2485.1,699.2223214285714,385.12857142857143,2589.6,699.2223214285714,385.12857142857143,2694,699.2223214285714,385.12857142857143,2795.5,699.2223214285714,385.12857142857143,2899.7,699.2223214285714,385.12857142857143,3004,699.2223214285714,385.12857142857143,3104.8,699.2223214285714,385.12857142857143,3217.7,699.2223214285714,385.12857142857143,3318.8,699.2223214285714,385.12857142857143,3433.8,699.2223214285714,385.12857142857143,3534.3,699.2223214285714,385.12857142857143,3639.2,699.2223214285714,385.12857142857143,3739.4,699.2223214285714,385.12857142857143,3843.8,699.2223214285714,385.12857142857143,3952.1,699.2223214285714,385.12857142857143,4054.5,699.2223214285714,385.12857142857143,4154.8,699.2223214285714,385.12857142857143,4266,699.2223214285714,385.12857142857143,4370.1,699.2223214285714,385.12857142857143,4473.8,699.2223214285714,385.12857142857143,4583.3,699.2223214285714,385.12857142857143,4684.5,699.2223214285714,385.12857142857143,4788.7,699.2223214285714,385.12857142857143,4889.2,699.2223214285714,385.12857142857143,4989.6]","[1344.9,1344.9,1000,0,344.9,""smooth"",""down"",""down"",""good_move"",8340.2,6995.1,2713.7,5294.4,332.1,""oops"",""down"",""left"",""bad_move"",11805.5,3465.1,3052.9,8340.4,412.2,""smooth"",""down"",""down"",""good_move"",14403.2,2597.4,2207.8,11805.8,389.6,""smooth"",""down"",""down"",""good_move"",16537.8,2134.4,1696.1,14403.4,438.3,""oops"",""right"",""left"",""bad_move"",20016.9,3478.8,3105.3,16538.1,373.5,""oops"",""right"",""right"",""good_move"",22218.1,2201.1,1745.6,20017.1,455.5,""smooth"",""right"",""right"",""good_move"",25918.3,3700,3301.1,22218.3,398.9,""oops"",""right"",""right"",""good_move"",28641,2722.6,2355.3,25918.4,367.3,""smooth"",""right"",""right"",""good_move""]","",""
"3451","","<div style=""width:500px;"">
  <p>What determined the result of this run?</p>
  </div>","38","html-slider-response","60","657160","0.0-5.0-1.10","115","1","2025-07-16 13:28:13","1f75c3e559b7213887762d5229550c2b","82.132.244.142","Mozilla/5.0 (Windows NT 10.0; Win64; x64) AppleWebKit/537.36 (KHTML, like Gecko) Chrome/138.0.0.0 Safari/537.36","WebKit","Chrome","138.0.0.0","Windows","10.0","https://app.prolific.com/","en-GB,en-US;q=0.9,en;q=0.8","676054ef296caad582258e02","68764874ac79eee8c1d4cb03","6877a8da78b485eba3327537","2","0","676054ef296caad582258e02","2","0","2025-07-16T13:39:13.307Z","","","","","","","","","","","AttribQ","","50","","","","","","","","","","","","","","","","","","","","","","","","","","","","",""
"33848","","<div style=""width:500px;"">
  <p>How much control did you have over the ball?</p>
  </div>","32","html-slider-response","61","691008","0.0-5.0-2.10","115","1","2025-07-16 13:28:13","1f75c3e559b7213887762d5229550c2b","82.132.244.142","Mozilla/5.0 (Windows NT 10.0; Win64; x64) AppleWebKit/537.36 (KHTML, like Gecko) Chrome/138.0.0.0 Safari/537.36","WebKit","Chrome","138.0.0.0","Windows","10.0","https://app.prolific.com/","en-GB,en-US;q=0.9,en;q=0.8","676054ef296caad582258e02","68764874ac79eee8c1d4cb03","6877a8da78b485eba3327537","2","0","676054ef296caad582258e02","2","0","2025-07-16T13:39:47.155Z","","","","","","","","","","","ControlQ","","50","","","","","","","","","","","","","","","","","","","","","","","","","","","","",""
"2175","","<div style=""width:500px;"">
  <p>How would you describe your current emotional state?</p>
  </div>","45","html-slider-response","62","693184","0.0-5.0-3.10","115","1","2025-07-16 13:28:13","1f75c3e559b7213887762d5229550c2b","82.132.244.142","Mozilla/5.0 (Windows NT 10.0; Win64; x64) AppleWebKit/537.36 (KHTML, like Gecko) Chrome/138.0.0.0 Safari/537.36","WebKit","Chrome","138.0.0.0","Windows","10.0","https://app.prolific.com/","en-GB,en-US;q=0.9,en;q=0.8","676054ef296caad582258e02","68764874ac79eee8c1d4cb03","6877a8da78b485eba3327537","2","0","676054ef296caad582258e02","2","0","2025-07-16T13:39:49.331Z","","","","","","","","","","","StressQ","","50","","","","","","","","","","","","","","","","","","","","","","","","","","","","",""
"11151","","<div style=""width:500px;"">
  <p>What best describes how you currently feel?</p>
  </div>","50","html-slider-response","63","704337","0.0-5.0-4.10","115","1","2025-07-16 13:28:13","1f75c3e559b7213887762d5229550c2b","82.132.244.142","Mozilla/5.0 (Windows NT 10.0; Win64; x64) AppleWebKit/537.36 (KHTML, like Gecko) Chrome/138.0.0.0 Safari/537.36","WebKit","Chrome","138.0.0.0","Windows","10.0","https://app.prolific.com/","en-GB,en-US;q=0.9,en;q=0.8","676054ef296caad582258e02","68764874ac79eee8c1d4cb03","6877a8da78b485eba3327537","2","0","676054ef296caad582258e02","2","0","2025-07-16T13:40:00.484Z","","","","","","","","","","","MotivationQ","","50","","","","","","","","","","","","","","","","","","","","","","","","","","","","",""
"","","","","ctl-task-cpt","64","727528","0.0-5.0-0.11","115","1","2025-07-16 13:28:13","1f75c3e559b7213887762d5229550c2b","82.132.244.142","Mozilla/5.0 (Windows NT 10.0; Win64; x64) AppleWebKit/537.36 (KHTML, like Gecko) Chrome/138.0.0.0 Safari/537.36","WebKit","Chrome","138.0.0.0","Windows","10.0","https://app.prolific.com/","en-GB,en-US;q=0.9,en;q=0.8","676054ef296caad582258e02","68764874ac79eee8c1d4cb03","6877a8da78b485eba3327537","2","0","676054ef296caad582258e02","2","0","2025-07-16T13:40:23.675Z","","","","","","","","","","","","","","win-only","1","g1:NE,g2:SW","0.6","12","0","706511.9","1198.7","6200.5","20166.3","1","4","8","6","1","1","1","1","0","0.007575757575757576","1264.2","3000","1795","[""up"",""right""]","{""num_key_presses"":4,""num_perfect"":3,""num_errors"":0,""num_randdir"":1,""num_randdir_good_moves"":1,""num_whilered"":0,""num_whileblue"":0,""num_blue"":1,""num_good_moves"":4}","[292.22232142857143,302.12857142857143,0.2,292.22232142857143,302.12857142857143,103,292.22232142857143,302.12857142857143,207.7,372.22232142857143,233.12857142857143,316.7,461.22232142857143,167.12857142857143,421.8,278.22232142857143,388.12857142857143,522,130.22232142857143,472.12857142857143,622.1,100.22232142857143,484.12857142857143,731.5,116.22232142857143,494.12857142857143,832.7,467.22232142857143,174.12857142857143,933.1,501.22232142857143,126.12857142857143,1037.1,529.2223214285714,117.12857142857143,1137.6,546.2223214285714,62.128571428571426,1243.3,546.2223214285714,62.128571428571426,1343.5,521.2223214285714,239.12857142857143,1450.6,520.2223214285714,305.12857142857143,1552.5,528.2223214285714,327.12857142857143,1665.6,528.2223214285714,327.12857142857143,1767.7,528.2223214285714,327.12857142857143,1872.2,528.2223214285714,327.12857142857143,1973.3,528.2223214285714,327.12857142857143,2082.5,528.2223214285714,327.12857142857143,2187.4,528.2223214285714,327.12857142857143,2287.5,528.2223214285714,327.12857142857143,2387.5,528.2223214285714,327.12857142857143,2492,528.2223214285714,327.12857142857143,2593,528.2223214285714,327.12857142857143,2697.2,528.2223214285714,327.12857142857143,2803.1,528.2223214285714,327.12857142857143,2906.7,528.2223214285714,327.12857142857143,3015.4,528.2223214285714,327.12857142857143,3116.9,528.2223214285714,327.12857142857143,3217.5,528.2223214285714,327.12857142857143,3317.6,528.2223214285714,327.12857142857143,3422.2,528.2223214285714,327.12857142857143,3530.2,528.2223214285714,327.12857142857143,3631.3,528.2223214285714,327.12857142857143,3731.8,528.2223214285714,327.12857142857143,3837.7,528.2223214285714,327.12857142857143,3937.7,528.2223214285714,327.12857142857143,4037.7,528.2223214285714,327.12857142857143,4142.2,528.2223214285714,327.12857142857143,4247.9,528.2223214285714,327.12857142857143,4348.4,528.2223214285714,327.12857142857143,4451.7,528.2223214285714,327.12857142857143,4572.6,528.2223214285714,327.12857142857143,4681.5,528.2223214285714,327.12857142857143,4783.2,528.2223214285714,327.12857142857143,4887.4,528.2223214285714,327.12857142857143,4998.1]","[1343.6,1343.6,1000,0,343.6,""oops"",""right"",""right"",""good_move"",4076.1,2732.2,2394.5,1343.9,337.7,""smooth"",""right"",""right"",""good_move"",10405.8,6329.6,2574.9,7464.8,366.1,""smooth"",""up"",""up"",""good_move"",13877.7,3471.6,3093.3,10406.1,378.3,""smooth"",""up"",""up"",""good_move""]","",""
"4303","","<div style=""width:500px;"">
  <p>What determined the result of this run?</p>
  </div>","59","html-slider-response","65","731832","0.0-5.0-1.11","115","1","2025-07-16 13:28:13","1f75c3e559b7213887762d5229550c2b","82.132.244.142","Mozilla/5.0 (Windows NT 10.0; Win64; x64) AppleWebKit/537.36 (KHTML, like Gecko) Chrome/138.0.0.0 Safari/537.36","WebKit","Chrome","138.0.0.0","Windows","10.0","https://app.prolific.com/","en-GB,en-US;q=0.9,en;q=0.8","676054ef296caad582258e02","68764874ac79eee8c1d4cb03","6877a8da78b485eba3327537","2","0","676054ef296caad582258e02","2","0","2025-07-16T13:40:27.980Z","","","","","","","","","","","AttribQ","","50","","","","","","","","","","","","","","","","","","","","","","","","","","","","",""
"2511","","<div style=""width:500px;"">
  <p>How much control did you have over the ball?</p>
  </div>","100","html-slider-response","66","734344","0.0-5.0-2.11","115","1","2025-07-16 13:28:13","1f75c3e559b7213887762d5229550c2b","82.132.244.142","Mozilla/5.0 (Windows NT 10.0; Win64; x64) AppleWebKit/537.36 (KHTML, like Gecko) Chrome/138.0.0.0 Safari/537.36","WebKit","Chrome","138.0.0.0","Windows","10.0","https://app.prolific.com/","en-GB,en-US;q=0.9,en;q=0.8","676054ef296caad582258e02","68764874ac79eee8c1d4cb03","6877a8da78b485eba3327537","2","0","676054ef296caad582258e02","2","0","2025-07-16T13:40:30.492Z","","","","","","","","","","","ControlQ","","50","","","","","","","","","","","","","","","","","","","","","","","","","","","","",""
"1639","","<div style=""width:500px;"">
  <p>How would you describe your current emotional state?</p>
  </div>","50","html-slider-response","67","735984","0.0-5.0-3.11","115","1","2025-07-16 13:28:13","1f75c3e559b7213887762d5229550c2b","82.132.244.142","Mozilla/5.0 (Windows NT 10.0; Win64; x64) AppleWebKit/537.36 (KHTML, like Gecko) Chrome/138.0.0.0 Safari/537.36","WebKit","Chrome","138.0.0.0","Windows","10.0","https://app.prolific.com/","en-GB,en-US;q=0.9,en;q=0.8","676054ef296caad582258e02","68764874ac79eee8c1d4cb03","6877a8da78b485eba3327537","2","0","676054ef296caad582258e02","2","0","2025-07-16T13:40:32.131Z","","","","","","","","","","","StressQ","","50","","","","","","","","","","","","","","","","","","","","","","","","","","","","",""
"1631","","<div style=""width:500px;"">
  <p>What best describes how you currently feel?</p>
  </div>","50","html-slider-response","68","737616","0.0-5.0-4.11","115","1","2025-07-16 13:28:13","1f75c3e559b7213887762d5229550c2b","82.132.244.142","Mozilla/5.0 (Windows NT 10.0; Win64; x64) AppleWebKit/537.36 (KHTML, like Gecko) Chrome/138.0.0.0 Safari/537.36","WebKit","Chrome","138.0.0.0","Windows","10.0","https://app.prolific.com/","en-GB,en-US;q=0.9,en;q=0.8","676054ef296caad582258e02","68764874ac79eee8c1d4cb03","6877a8da78b485eba3327537","2","0","676054ef296caad582258e02","2","0","2025-07-16T13:40:33.763Z","","","","","","","","","","","MotivationQ","","50","","","","","","","","","","","","","","","","","","","","","","","","","","","","",""
"","","","","ctl-task-cpt","69","784686","0.0-5.0-0.12","115","1","2025-07-16 13:28:13","1f75c3e559b7213887762d5229550c2b","82.132.244.142","Mozilla/5.0 (Windows NT 10.0; Win64; x64) AppleWebKit/537.36 (KHTML, like Gecko) Chrome/138.0.0.0 Safari/537.36","WebKit","Chrome","138.0.0.0","Windows","10.0","https://app.prolific.com/","en-GB,en-US;q=0.9,en;q=0.8","676054ef296caad582258e02","68764874ac79eee8c1d4cb03","6877a8da78b485eba3327537","2","0","676054ef296caad582258e02","2","0","2025-07-16T13:41:20.834Z","","","","","","","","","","","","","","win-only","0","g1:NW,g2:SE","0.7","13","0","739791.6","743.3","5746","44052.1","1","4","8","6","2","-8","-10","0","1","0","2048.1","3000","-3010","[""down"",""right""]","{""num_key_presses"":11,""num_perfect"":6,""num_errors"":2,""num_randdir"":3,""num_randdir_good_moves"":0,""num_whilered"":0,""num_whileblue"":0,""num_blue"":2,""num_good_moves"":6}","[295.22232142857143,295.12857142857143,0.1,295.22232142857143,295.12857142857143,105.4,326.22232142857143,233.12857142857143,207.4,339.22232142857143,186.12857142857143,307.8,355.22232142857143,249.12857142857143,412.3,433.22232142857143,452.12857142857143,512.5,453.22232142857143,501.12857142857143,613.6,453.22232142857143,480.12857142857143,718,250.22232142857143,271.12857142857143,823.3,153.22232142857143,200.12857142857143,927.2,118.22232142857143,137.12857142857143,1027.3,110.22232142857143,121.12857142857143,1128.8,162.22232142857143,158.12857142857143,1232.8,499.22232142857143,449.12857142857143,1332.9,561.2223214285714,525.1285714285714,1433.1,563.2223214285714,534.1285714285714,1537.5,562.2223214285714,540.1285714285714,1642.6,561.2223214285714,541.1285714285714,1743.5,561.2223214285714,541.1285714285714,1848.8,561.2223214285714,541.1285714285714,1953.2,561.2223214285714,541.1285714285714,2053.5,579.2223214285714,529.1285714285714,2157.8,621.2223214285714,477.12857142857143,2258.1,625.2223214285714,393.12857142857143,2362.8,588.2223214285714,331.12857142857143,2467.8,542.2223214285714,295.12857142857143,2572.9,736.2223214285714,295.12857142857143,2673.5,800.2223214285714,295.12857142857143,2773.5,800.2223214285714,295.12857142857143,2877.9,800.2223214285714,295.12857142857143,2982.7,800.2223214285714,295.12857142857143,3086.9,800.2223214285714,295.12857142857143,3187.1,800.2223214285714,295.12857142857143,3293.1,800.2223214285714,295.12857142857143,3397.7,800.2223214285714,295.12857142857143,3497.9,800.2223214285714,295.12857142857143,3603,800.2223214285714,295.12857142857143,3707.6,800.2223214285714,295.12857142857143,3808.6,800.2223214285714,295.12857142857143,3913,800.2223214285714,295.12857142857143,4018,800.2223214285714,295.12857142857143,4122.5,800.2223214285714,295.12857142857143,4223.7,800.2223214285714,295.12857142857143,4327.8,800.2223214285714,295.12857142857143,4432.6,800.2223214285714,295.12857142857143,4533.4,800.2223214285714,295.12857142857143,4633.4,800.2223214285714,295.12857142857143,4737.7,800.2223214285714,295.12857142857143,4837.7,800.2223214285714,295.12857142857143,4937.7]","[8252.4,8252.4,2514.9,5339.9,397.6,""smooth"",""right"",""right"",""good_move"",11588.4,3335.7,2996.7,8252.7,339,""smooth"",""right"",""right"",""good_move"",14532.2,2943.7,2580.7,11588.6,363,""oops"",""right"",""left"",""bad_move"",17516.4,2983.9,2679.7,14532.5,304.2,""smooth"",""right"",""right"",""good_move"",19772.5,2255.9,1922.4,17516.6,333.5,""smooth"",""right"",""right"",""good_move"",22676.4,2903.7,2636.7,19772.7,267,""smooth"",""down"",""down"",""good_move"",25740.2,3063.5,2784.8,22676.7,278.7,""oops"",""down"",""left"",""bad_move"",28332.4,2591.9,2599.9,25740.5,-8,""error"",""-"",""-"",""no_move"",29932.5,1599.9,1880.7,29335.2,-1283.4,""error"",""-"",""-"",""no_move"",33156.4,3223.7,1870.7,30936.1,349.6,""smooth"",""down"",""down"",""good_move"",35572.3,2415.6,2087.4,33156.7,328.2,""oops"",""right"",""left"",""bad_move""]","",""
"3617","","<div style=""width:500px;"">
  <p>What determined the result of this run?</p>
  </div>","62","html-slider-response","70","788304","0.0-5.0-1.12","115","1","2025-07-16 13:28:13","1f75c3e559b7213887762d5229550c2b","82.132.244.142","Mozilla/5.0 (Windows NT 10.0; Win64; x64) AppleWebKit/537.36 (KHTML, like Gecko) Chrome/138.0.0.0 Safari/537.36","WebKit","Chrome","138.0.0.0","Windows","10.0","https://app.prolific.com/","en-GB,en-US;q=0.9,en;q=0.8","676054ef296caad582258e02","68764874ac79eee8c1d4cb03","6877a8da78b485eba3327537","2","0","676054ef296caad582258e02","2","0","2025-07-16T13:41:24.452Z","","","","","","","","","","","AttribQ","","50","","","","","","","","","","","","","","","","","","","","","","","","","","","","",""
"4199","","<div style=""width:500px;"">
  <p>How much control did you have over the ball?</p>
  </div>","21","html-slider-response","71","792504","0.0-5.0-2.12","115","1","2025-07-16 13:28:13","1f75c3e559b7213887762d5229550c2b","82.132.244.142","Mozilla/5.0 (Windows NT 10.0; Win64; x64) AppleWebKit/537.36 (KHTML, like Gecko) Chrome/138.0.0.0 Safari/537.36","WebKit","Chrome","138.0.0.0","Windows","10.0","https://app.prolific.com/","en-GB,en-US;q=0.9,en;q=0.8","676054ef296caad582258e02","68764874ac79eee8c1d4cb03","6877a8da78b485eba3327537","2","0","676054ef296caad582258e02","2","0","2025-07-16T13:41:28.652Z","","","","","","","","","","","ControlQ","","50","","","","","","","","","","","","","","","","","","","","","","","","","","","","",""
"4264","","<div style=""width:500px;"">
  <p>How would you describe your current emotional state?</p>
  </div>","52","html-slider-response","72","796769","0.0-5.0-3.12","115","1","2025-07-16 13:28:13","1f75c3e559b7213887762d5229550c2b","82.132.244.142","Mozilla/5.0 (Windows NT 10.0; Win64; x64) AppleWebKit/537.36 (KHTML, like Gecko) Chrome/138.0.0.0 Safari/537.36","WebKit","Chrome","138.0.0.0","Windows","10.0","https://app.prolific.com/","en-GB,en-US;q=0.9,en;q=0.8","676054ef296caad582258e02","68764874ac79eee8c1d4cb03","6877a8da78b485eba3327537","2","0","676054ef296caad582258e02","2","0","2025-07-16T13:41:32.916Z","","","","","","","","","","","StressQ","","50","","","","","","","","","","","","","","","","","","","","","","","","","","","","",""
"2911","","<div style=""width:500px;"">
  <p>What best describes how you currently feel?</p>
  </div>","50","html-slider-response","73","799681","0.0-5.0-4.12","115","1","2025-07-16 13:28:13","1f75c3e559b7213887762d5229550c2b","82.132.244.142","Mozilla/5.0 (Windows NT 10.0; Win64; x64) AppleWebKit/537.36 (KHTML, like Gecko) Chrome/138.0.0.0 Safari/537.36","WebKit","Chrome","138.0.0.0","Windows","10.0","https://app.prolific.com/","en-GB,en-US;q=0.9,en;q=0.8","676054ef296caad582258e02","68764874ac79eee8c1d4cb03","6877a8da78b485eba3327537","2","0","676054ef296caad582258e02","2","0","2025-07-16T13:41:35.828Z","","","","","","","","","","","MotivationQ","","50","","","","","","","","","","","","","","","","","","","","","","","","","","","","",""
"","","","","ctl-task-cpt","74","822986","0.0-5.0-0.13","115","1","2025-07-16 13:28:13","1f75c3e559b7213887762d5229550c2b","82.132.244.142","Mozilla/5.0 (Windows NT 10.0; Win64; x64) AppleWebKit/537.36 (KHTML, like Gecko) Chrome/138.0.0.0 Safari/537.36","WebKit","Chrome","138.0.0.0","Windows","10.0","https://app.prolific.com/","en-GB,en-US;q=0.9,en;q=0.8","676054ef296caad582258e02","68764874ac79eee8c1d4cb03","6877a8da78b485eba3327537","2","0","676054ef296caad582258e02","2","0","2025-07-16T13:41:59.134Z","","","","","","","","","","","","","","win-only","2","g1:SE,g2:NW","0.8","14","0","801855.9","1207.2","6211.3","20286.1","1","4","4","6","1","1","1","1","0","0.007575757575757576","1623.9","3000","1515","[""down"",""right""]","{""num_key_presses"":4,""num_perfect"":3,""num_errors"":0,""num_randdir"":1,""num_randdir_good_moves"":1,""num_whilered"":0,""num_whileblue"":0,""num_blue"":1,""num_good_moves"":4}","[292.22232142857143,293.12857142857143,0.2,292.22232142857143,293.12857142857143,103,297.22232142857143,288.12857142857143,203.1,399.22232142857143,189.12857142857143,308.2,408.22232142857143,182.12857142857143,413.4,339.22232142857143,199.12857142857143,513.4,142.22232142857143,131.12857142857143,618.7,131.22232142857143,117.12857142857143,723.1,111.22232142857143,106.12857142857143,828.9,77.22232142857143,83.12857142857143,932.9,75.22232142857143,78.12857142857143,1033.6,179.22232142857143,237.12857142857143,1134,423.22232142857143,508.12857142857143,1240,435.22232142857143,516.1285714285714,1344.5,521.2223214285714,540.1285714285714,1448.1,533.2223214285714,539.1285714285714,1549.1,545.2223214285714,532.1285714285714,1654.8,503.22232142857143,529.1285714285714,1759.1,503.22232142857143,529.1285714285714,1859.8,503.22232142857143,529.1285714285714,1964.1,503.22232142857143,529.1285714285714,2068.8,503.22232142857143,529.1285714285714,2174,503.22232142857143,529.1285714285714,2274.8,503.22232142857143,529.1285714285714,2378.9,503.22232142857143,529.1285714285714,2483.8,503.22232142857143,529.1285714285714,2588.3,503.22232142857143,529.1285714285714,2688.9,503.22232142857143,529.1285714285714,2794,503.22232142857143,529.1285714285714,2898.1,503.22232142857143,529.1285714285714,2999.1,503.22232142857143,529.1285714285714,3103.1,503.22232142857143,529.1285714285714,3203.3,503.22232142857143,529.1285714285714,3304.3,503.22232142857143,529.1285714285714,3404.6,503.22232142857143,529.1285714285714,3506.1,503.22232142857143,529.1285714285714,3608.5,503.22232142857143,529.1285714285714,3709.2,503.22232142857143,529.1285714285714,3813.3,503.22232142857143,529.1285714285714,3918.8,503.22232142857143,529.1285714285714,4018.9,503.22232142857143,529.1285714285714,4123.1,503.22232142857143,529.1285714285714,4223.3,503.22232142857143,529.1285714285714,4323.6,503.22232142857143,529.1285714285714,4423.8,503.22232142857143,529.1285714285714,4524.5,503.22232142857143,529.1285714285714,4624.6,503.22232142857143,529.1285714285714,4728.8,503.22232142857143,529.1285714285714,4828.9,503.22232142857143,529.1285714285714,4933.1]","[5179.3,5179.3,2774.8,2004.7,399.8,""smooth"",""right"",""right"",""good_move"",8419.1,3239.5,2876.7,5179.6,362.8,""smooth"",""right"",""right"",""good_move"",11602.9,3183.6,2826.8,8419.3,356.8,""oops"",""down"",""down"",""good_move"",13978.9,2375.8,1980.7,11603.1,395.1,""smooth"",""down"",""down"",""good_move""]","",""
"2853","","<div style=""width:500px;"">
  <p>What determined the result of this run?</p>
