"rt","response_timestamp","stimulus","response","trial_type","trial_index","time_elapsed","internal_node_id","run_id","condition","recorded_at","source_code_version","ip","user_agent","device","browser","browser_version","platform","platform_version","referer","accept_language","PROLIFIC_PID","STUDY_ID","SESSION_ID","WEEK","BATCH","prolific_id","week","batch","realtime","success","responses","item_order","radio_event_ids","radio_event_times","key_event_times","mouse_event_times","straightlining","zigzagging","honeypot","eventType","view_history","slider_start","which_type","canvas_config","goals_layout","control_level","trial_number","tutorial_trial_number","trial_start_time","phase1_start_time","phase2_start_time","phase3_start_time","goal_1_value","goal_1_distance","goal_2_value","goal_2_distance","goal_selected","outcome","outcome_total","participant_final_score","participant_initial_score","participant_final_score_prop","goal_choice_rt","allocated_time","allocated_time_remaining","goal_direction","counts","mouse_movements","key_presses","question_order","question_id"
"205300","1752654386269","<p style='font-size:40px;line-height:1.25'><strong>Welcome to the experiment!</strong></p><p style='font-size:1.1em;line-height:1.25'>Thank you for participanting in our experiment again! You will be asked to play the Dysfunctional Ball Game again. We will briefly recap the rules before we start.</p><p style='font-size:1.1em;line-height:1.25'>Press <strong>Next</strong> to continue.</p>","0","custom-html-button-response","0","205304","0.0-0.0","52","1","2025-07-16 08:21:17","1f75c3e559b7213887762d5229550c2b","216.120.189.41","Mozilla/5.0 (Windows NT 10.0; Win64; x64) AppleWebKit/537.36 (KHTML, like Gecko) Chrome/138.0.0.0 Safari/537.36","WebKit","Chrome","138.0.0.0","Windows","10.0","https://app.prolific.com/","en-US,en;q=0.9","6743c8da977b0d274dad1fc2","686e379bc37a29ffa5cdc956","68776006826754b038605f6a","1","1","6743c8da977b0d274dad1fc2","1","1","2025-07-16T08:26:26.271Z","","","","","","","","","","","","","","","","","","","","","","","","","","","","","","","","","","","","","","","","","",""
"2883","","","","fullscreen","1","209192","0.0-1.0","52","1","2025-07-16 08:21:17","1f75c3e559b7213887762d5229550c2b","216.120.189.41","Mozilla/5.0 (Windows NT 10.0; Win64; x64) AppleWebKit/537.36 (KHTML, like Gecko) Chrome/138.0.0.0 Safari/537.36","WebKit","Chrome","138.0.0.0","Windows","10.0","https://app.prolific.com/","en-US,en;q=0.9","6743c8da977b0d274dad1fc2","686e379bc37a29ffa5cdc956","68776006826754b038605f6a","1","1","6743c8da977b0d274dad1fc2","1","1","","true","","","","","","","","","","","","","","","","","","","","","","","","","","","","","","","","","","","","","","","","",""
"1960","1752654392124","<p style='font-size:1.1em;line-height:1.25'>In the following, we will ask you a few questions relating to your feelings in the last 24 hours.<br></p><p style='font-size:1.1em;line-height:1.25'>Press the <strong>Next</strong> button to continue.</p>","0","custom-html-button-response","2","211158","0.0-2.0-0.0","52","1","2025-07-16 08:21:17","1f75c3e559b7213887762d5229550c2b","216.120.189.41","Mozilla/5.0 (Windows NT 10.0; Win64; x64) AppleWebKit/537.36 (KHTML, like Gecko) Chrome/138.0.0.0 Safari/537.36","WebKit","Chrome","138.0.0.0","Windows","10.0","https://app.prolific.com/","en-US,en;q=0.9","6743c8da977b0d274dad1fc2","686e379bc37a29ffa5cdc956","68776006826754b038605f6a","1","1","6743c8da977b0d274dad1fc2","1","1","2025-07-16T08:26:32.125Z","","","","","","","","","","","","","","","","","","","","","","","","","","","","","","","","","","","","","","","","","",""
"481340","","","","survey-template","3","692506","0.0-2.0-1.0","52","1","2025-07-16 08:21:17","1f75c3e559b7213887762d5229550c2b","216.120.189.41","Mozilla/5.0 (Windows NT 10.0; Win64; x64) AppleWebKit/537.36 (KHTML, like Gecko) Chrome/138.0.0.0 Safari/537.36","WebKit","Chrome","138.0.0.0","Windows","10.0","https://app.prolific.com/","en-US,en;q=0.9","6743c8da977b0d274dad1fc2","686e379bc37a29ffa5cdc956","68776006826754b038605f6a","1","1","6743c8da977b0d274dad1fc2","1","1","2025-07-16T08:34:33.473Z","","{""Q01"":""0"",""Q02"":""0"",""Q03"":""0"",""Q04"":""0"",""Q05"":""0"",""Q06"":""0"",""Q07"":""0"",""Q08"":""0"",""Q09"":""0"",""Q10"":""0"",""Q11"":""0"",""Q12"":""0"",""Q13"":""5"",""Q14"":""0"",""Q15"":""0"",""Q16"":""0"",""Q17"":""0"",""Q18"":""0"",""Q19"":""0"",""Q20"":""0"",""Q21"":""0"",""Q22"":""0""}","[0,1,2,3,4,5,6,7,8,9,10,11,12,13,14,15,16,17,18,19,20,21]","[""Q01"",""Q02"",""Q03"",""Q04"",""Q06"",""Q05"",""Q07"",""Q08"",""Q09"",""Q10"",""Q11"",""Q12"",""Q13"",""Q14"",""Q15"",""Q16"",""Q17"",""Q18"",""Q20"",""Q19"",""Q21"",""Q22""]","[405998.299999997,406819.799999997,407675.200000003,408532.5,409965.6000000015,410531.700000003,411659.1000000015,412980.3999999985,413803.1000000015,415187.200000003,417932.200000003,418803.1000000015,431435.200000003,440435,446267.1000000015,447003.1000000015,448596.1000000015,449347,450787.700000003,451955.299999997,459603.1000000015,460715.299999997]","[]","[0.10000000149011612,2612.2000000029802,3579.7999999970198,397674.8999999985,405998.299999997,406819.799999997,407675.200000003,408532.5,409292.8999999985,409965.6000000015,410531.700000003,411659.1000000015,412980.3999999985,413803.1000000015,415187.200000003,416107.200000003,417932.200000003,418803.1000000015,431435.200000003,440435,441339.5,446267.1000000015,447003.1000000015,448596.1000000015,449347,449891.799999997,450787.700000003,451955.299999997,459603.1000000015,460715.299999997,481331.5]","0.9545454545454546","0.09523809523809523","0","drsp","","","","","","","","","","","","","","","","","","","","","","","","","","","","","","",""
"5603","","","","survey-template","4","698111","0.0-2.0-2.0","52","1","2025-07-16 08:21:17","1f75c3e559b7213887762d5229550c2b","216.120.189.41","Mozilla/5.0 (Windows NT 10.0; Win64; x64) AppleWebKit/537.36 (KHTML, like Gecko) Chrome/138.0.0.0 Safari/537.36","WebKit","Chrome","138.0.0.0","Windows","10.0","https://app.prolific.com/","en-US,en;q=0.9","6743c8da977b0d274dad1fc2","686e379bc37a29ffa5cdc956","68776006826754b038605f6a","1","1","6743c8da977b0d274dad1fc2","1","1","2025-07-16T08:34:39.078Z","","{""Q01"":""0"",""Q02"":""5"",""Q03"":""0""}","[0,1,2]","[""Q02"",""Q01"",""Q03""]","[2873.2000000029802,3729.3000000044703,4617]","[]","[2194.4000000059605,2873.2000000029802,3729.3000000044703,4617,5601.70000000298]","1","0","0","stress","","","","","","","","","","","","","","","","","","","","","","","","","","","","","","",""
"3142","","","","instructions","5","701254","0.0-3.0-0.0","52","1","2025-07-16 08:21:17","1f75c3e559b7213887762d5229550c2b","216.120.189.41","Mozilla/5.0 (Windows NT 10.0; Win64; x64) AppleWebKit/537.36 (KHTML, like Gecko) Chrome/138.0.0.0 Safari/537.36","WebKit","Chrome","138.0.0.0","Windows","10.0","https://app.prolific.com/","en-US,en;q=0.9","6743c8da977b0d274dad1fc2","686e379bc37a29ffa5cdc956","68776006826754b038605f6a","1","1","6743c8da977b0d274dad1fc2","1","1","","","","","","","","","","","","","[{""page_index"":0,""viewing_time"":3141}]","","","","","","","","","","","","","","","","","","","","","","","","","","","","","",""
"3046","","<p>Before you start with this game please answer the following three questions yourself. </p>
  <p>Through this game, we measure several aspects of your cognitive performance, such as reaction times, multi-tasking capabilities </p>
  <p>and the ability to assess the situation you are in.</p>
  <p></p>
  <p><b>How good do you usually are in such tasks?</b></p>","78","html-slider-response","6","704302","0.0-4.0-0.0","52","1","2025-07-16 08:21:17","1f75c3e559b7213887762d5229550c2b","216.120.189.41","Mozilla/5.0 (Windows NT 10.0; Win64; x64) AppleWebKit/537.36 (KHTML, like Gecko) Chrome/138.0.0.0 Safari/537.36","WebKit","Chrome","138.0.0.0","Windows","10.0","https://app.prolific.com/","en-US,en;q=0.9","6743c8da977b0d274dad1fc2","686e379bc37a29ffa5cdc956","68776006826754b038605f6a","1","1","6743c8da977b0d274dad1fc2","1","1","2025-07-16T08:34:45.269Z","","","","","","","","","","","PreSkillQ","","50","","","","","","","","","","","","","","","","","","","","","","","","","","","","",""
"2784","","<div style=""width:500px;"">
  <p>How well do you think you will perform in this task compared to other participants?</p>
  </div>","80","html-slider-response","7","707088","0.0-4.0-1.0","52","1","2025-07-16 08:21:17","1f75c3e559b7213887762d5229550c2b","216.120.189.41","Mozilla/5.0 (Windows NT 10.0; Win64; x64) AppleWebKit/537.36 (KHTML, like Gecko) Chrome/138.0.0.0 Safari/537.36","WebKit","Chrome","138.0.0.0","Windows","10.0","https://app.prolific.com/","en-US,en;q=0.9","6743c8da977b0d274dad1fc2","686e379bc37a29ffa5cdc956","68776006826754b038605f6a","1","1","6743c8da977b0d274dad1fc2","1","1","2025-07-16T08:34:48.055Z","","","","","","","","","","","PrePerfQ","","50","","","","","","","","","","","","","","","","","","","","","","","","","","","","",""
"1860","","<div style=""width:500px;"">
  <p>What best describes how you currently feel?</p>
  </div>","100","html-slider-response","8","708949","0.0-4.0-2.0","52","1","2025-07-16 08:21:17","1f75c3e559b7213887762d5229550c2b","216.120.189.41","Mozilla/5.0 (Windows NT 10.0; Win64; x64) AppleWebKit/537.36 (KHTML, like Gecko) Chrome/138.0.0.0 Safari/537.36","WebKit","Chrome","138.0.0.0","Windows","10.0","https://app.prolific.com/","en-US,en;q=0.9","6743c8da977b0d274dad1fc2","686e379bc37a29ffa5cdc956","68776006826754b038605f6a","1","1","6743c8da977b0d274dad1fc2","1","1","2025-07-16T08:34:49.916Z","","","","","","","","","","","PreMotivationQ","","50","","","","","","","","","","","","","","","","","","","","","","","","","","","","",""
"","","","","ctl-task-cpt","9","3957542","0.0-5.0-0.0","52","1","2025-07-16 08:21:17","1f75c3e559b7213887762d5229550c2b","216.120.189.41","Mozilla/5.0 (Windows NT 10.0; Win64; x64) AppleWebKit/537.36 (KHTML, like Gecko) Chrome/138.0.0.0 Safari/537.36","WebKit","Chrome","138.0.0.0","Windows","10.0","https://app.prolific.com/","en-US,en;q=0.9","6743c8da977b0d274dad1fc2","686e379bc37a29ffa5cdc956","68776006826754b038605f6a","1","1","6743c8da977b0d274dad1fc2","1","1","2025-07-16T09:28:58.510Z","","","","","","","","","","","","","","win-only","0","g1:NW,g2:SE","1","1","0","814185","3213046.4","3218051.4","3245587.7","1","4","4","6","2","-4","-4","0","0","0","1325.4","3000","-3010","[""down"",""right""]","{""num_key_presses"":7,""num_perfect"":7,""num_errors"":0,""num_randdir"":0,""num_randdir_good_moves"":0,""num_whilered"":0,""num_whileblue"":0,""num_blue"":1,""num_good_moves"":6}","[261.396875,262.803125,2.3,261.396875,262.803125,100.4,261.396875,262.803125,204.7,261.396875,262.803125,304.7,261.396875,262.803125,405.3,260.396875,265.803125,505.3,261.396875,268.803125,609.3,316.396875,340.803125,713.8,418.396875,414.803125,814.5,420.396875,416.803125,919,444.396875,454.803125,1020.7,455.396875,470.803125,1126.7,461.396875,474.803125,1229.1,463.396875,474.803125,1339.6,463.396875,474.803125,1440.5,463.396875,474.803125,1544.3,463.396875,474.803125,1645.9,463.396875,474.803125,1749,463.396875,474.803125,1849.5,463.396875,474.803125,1949.9,464.396875,455.803125,2054.4,464.396875,454.803125,2154.4,464.396875,454.803125,2254.5,464.396875,454.803125,2355.4,464.396875,454.803125,2459.7,464.396875,454.803125,2564.4,464.396875,454.803125,2669.8,464.396875,454.803125,2775.1,464.396875,454.803125,2878.8,464.396875,454.803125,2979.6,464.396875,454.803125,3084.8,464.396875,454.803125,3189.1,464.396875,454.803125,3289.5,464.396875,454.803125,3394,464.396875,454.803125,3494.1,464.396875,454.803125,3598.9,464.396875,454.803125,3699.4,464.396875,454.803125,3804.5,464.396875,454.803125,3909.6,464.396875,454.803125,4014.1,464.396875,454.803125,4114.2,464.396875,454.803125,4215.4,464.396875,454.803125,4315.6,464.396875,454.803125,4418.8,464.396875,454.803125,4519,464.396875,454.803125,4619.9,464.396875,454.803125,4719.9,464.396875,454.803125,4825.1,464.396875,454.803125,4925.3]","[1559.3,1559.2,1000,0.1,559.2,""smooth"",""up"",""up"",""bad_move"",5087.9,3527.8,3083.3,1560.1,444.5,""smooth"",""down"",""down"",""good_move"",8606.1,3518,3141.3,5088.2,376.7,""smooth"",""down"",""down"",""good_move"",14484.7,5878.3,2270,11845,369.7,""smooth"",""right"",""right"",""good_move"",17399.9,2914.3,2493.5,14485.6,420.9,""smooth"",""right"",""right"",""good_move"",20824.4,3423.7,3086.3,17400.7,337.4,""smooth"",""down"",""down"",""good_move"",24144.8,3320.1,3001.3,20824.7,318.8,""smooth"",""down"",""down"",""good_move""]","",""
"7786","","<div style=""width:500px;"">
  <p>What determined the result of this run?</p>
  </div>","88","html-slider-response","10","3965330","0.0-5.0-1.0","52","1","2025-07-16 08:21:17","1f75c3e559b7213887762d5229550c2b","216.120.189.41","Mozilla/5.0 (Windows NT 10.0; Win64; x64) AppleWebKit/537.36 (KHTML, like Gecko) Chrome/138.0.0.0 Safari/537.36","WebKit","Chrome","138.0.0.0","Windows","10.0","https://app.prolific.com/","en-US,en;q=0.9","6743c8da977b0d274dad1fc2","686e379bc37a29ffa5cdc956","68776006826754b038605f6a","1","1","6743c8da977b0d274dad1fc2","1","1","2025-07-16T09:29:06.297Z","","","","","","","","","","","AttribQ","","50","","","","","","","","","","","","","","","","","","","","","","","","","","","","",""
"5487","","<div style=""width:500px;"">
  <p>How much control did you have over the ball?</p>
  </div>","100","html-slider-response","11","3970818","0.0-5.0-2.0","52","1","2025-07-16 08:21:17","1f75c3e559b7213887762d5229550c2b","216.120.189.41","Mozilla/5.0 (Windows NT 10.0; Win64; x64) AppleWebKit/537.36 (KHTML, like Gecko) Chrome/138.0.0.0 Safari/537.36","WebKit","Chrome","138.0.0.0","Windows","10.0","https://app.prolific.com/","en-US,en;q=0.9","6743c8da977b0d274dad1fc2","686e379bc37a29ffa5cdc956","68776006826754b038605f6a","1","1","6743c8da977b0d274dad1fc2","1","1","2025-07-16T09:29:11.785Z","","","","","","","","","","","ControlQ","","50","","","","","","","","","","","","","","","","","","","","","","","","","","","","",""
"4663","","<div style=""width:500px;"">
  <p>How would you describe your current emotional state?</p>
  </div>","0","html-slider-response","12","3975483","0.0-5.0-3.0","52","1","2025-07-16 08:21:17","1f75c3e559b7213887762d5229550c2b","216.120.189.41","Mozilla/5.0 (Windows NT 10.0; Win64; x64) AppleWebKit/537.36 (KHTML, like Gecko) Chrome/138.0.0.0 Safari/537.36","WebKit","Chrome","138.0.0.0","Windows","10.0","https://app.prolific.com/","en-US,en;q=0.9","6743c8da977b0d274dad1fc2","686e379bc37a29ffa5cdc956","68776006826754b038605f6a","1","1","6743c8da977b0d274dad1fc2","1","1","2025-07-16T09:29:16.450Z","","","","","","","","","","","StressQ","","50","","","","","","","","","","","","","","","","","","","","","","","","","","","","",""
"171047","","<div style=""width:500px;"">
  <p>What best describes how you currently feel?</p>
  </div>","97","html-slider-response","13","4146530","0.0-5.0-4.0","52","1","2025-07-16 08:21:17","1f75c3e559b7213887762d5229550c2b","216.120.189.41","Mozilla/5.0 (Windows NT 10.0; Win64; x64) AppleWebKit/537.36 (KHTML, like Gecko) Chrome/138.0.0.0 Safari/537.36","WebKit","Chrome","138.0.0.0","Windows","10.0","https://app.prolific.com/","en-US,en;q=0.9","6743c8da977b0d274dad1fc2","686e379bc37a29ffa5cdc956","68776006826754b038605f6a","1","1","6743c8da977b0d274dad1fc2","1","1","2025-07-16T09:32:07.497Z","","","","","","","","","","","MotivationQ","","50","","","","","","","","","","","","","","","","","","","","","","","","","","","","",""
"","","","","ctl-task-cpt","14","4193291","0.0-5.0-0.1","52","1","2025-07-16 08:21:17","1f75c3e559b7213887762d5229550c2b","216.120.189.41","Mozilla/5.0 (Windows NT 10.0; Win64; x64) AppleWebKit/537.36 (KHTML, like Gecko) Chrome/138.0.0.0 Safari/537.36","WebKit","Chrome","138.0.0.0","Windows","10.0","https://app.prolific.com/","en-US,en;q=0.9","6743c8da977b0d274dad1fc2","686e379bc37a29ffa5cdc956","68776006826754b038605f6a","1","1","6743c8da977b0d274dad1fc2","1","1","2025-07-16T09:32:54.258Z","","","","","","","","","","","","","","win-only","1","g1:NE,g2:SW","0.9","2","0","4251767.2","18261.5","23267.3","43741.4","1","4","8","6","2","8","8","8","0","0.06060606060606061","1419.5","3000","555","[""down"",""left""]","{""num_key_presses"":6,""num_perfect"":5,""num_errors"":0,""num_randdir"":1,""num_randdir_good_moves"":1,""num_whilered"":0,""num_whileblue"":0,""num_blue"":1,""num_good_moves"":6}","[260.7857142857143,266.1919642857143,0.3,260.7857142857143,266.1919642857143,104.3,260.7857142857143,266.1919642857143,205.3,260.7857142857143,266.1919642857143,309.1,260.7857142857143,266.1919642857143,410.2,260.7857142857143,266.1919642857143,516.2,260.7857142857143,266.1919642857143,620.5,260.7857142857143,266.1919642857143,722,223.78571428571428,310.1919642857143,824.4,140.78571428571428,418.1919642857143,945.9,121.78571428571428,427.1919642857143,1059.4,40.785714285714285,454.1919642857143,1159.5,38.785714285714285,455.1919642857143,1260.1,38.785714285714285,459.1919642857143,1365.3,38.785714285714285,459.1919642857143,1469.3,38.785714285714285,459.1919642857143,1569.3,125.78571428571428,461.1919642857143,1669.3,304.7857142857143,479.1919642857143,1780.7,332.7857142857143,484.1919642857143,1881.2,332.7857142857143,484.1919642857143,1984.2,332.7857142857143,484.1919642857143,2085.5,344.7857142857143,495.1919642857143,2189.3,347.7857142857143,504.1919642857143,2289.4,350.7857142857143,519.1919642857143,2390.2,355.7857142857143,527.1919642857143,2499.7,365.7857142857143,550.1919642857143,2605.4,367.7857142857143,552.1919642857143,2709.5,368.7857142857143,551.1919642857143,2811.9,368.7857142857143,551.1919642857143,2914.2,368.7857142857143,551.1919642857143,3015.6,368.7857142857143,551.1919642857143,3119.8,368.7857142857143,551.1919642857143,3222.7,368.7857142857143,551.1919642857143,3325.1,368.7857142857143,551.1919642857143,3429.3,368.7857142857143,551.1919642857143,3532.5,368.7857142857143,551.1919642857143,3634.7,368.7857142857143,551.1919642857143,3735.8,368.7857142857143,551.1919642857143,3839,368.7857142857143,551.1919642857143,3940.1,368.7857142857143,551.1919642857143,4040.3,368.7857142857143,551.1919642857143,4140.6,368.7857142857143,551.1919642857143,4247.4,368.7857142857143,551.1919642857143,4350.1,368.7857142857143,551.1919642857143,4455.9,368.7857142857143,551.1919642857143,4559.9,368.7857142857143,551.1919642857143,4665.1,368.7857142857143,551.1919642857143,4766.1,368.7857142857143,551.1919642857143,4868.9,368.7857142857143,551.1919642857143,4969.7]","[1567.9,1567.9,1000,0,567.9,""smooth"",""down"",""down"",""good_move"",4915,3346.6,3009.3,1568.4,337.3,""smooth"",""down"",""down"",""good_move"",7161.9,2246.6,1814.3,4915.3,432.3,""smooth"",""down"",""down"",""good_move"",10463.7,3301.6,2918.1,7162.1,383.5,""smooth"",""left"",""left"",""good_move"",17263.1,6798.9,2232.5,14608.3,422.3,""oops"",""left"",""left"",""good_move"",20390.6,3127.2,2702.1,17263.4,425.2,""smooth"",""left"",""left"",""good_move""]","",""
"4229","","<div style=""width:500px;"">
  <p>What determined the result of this run?</p>
  </div>","100","html-slider-response","15","4197522","0.0-5.0-1.1","52","1","2025-07-16 08:21:17","1f75c3e559b7213887762d5229550c2b","216.120.189.41","Mozilla/5.0 (Windows NT 10.0; Win64; x64) AppleWebKit/537.36 (KHTML, like Gecko) Chrome/138.0.0.0 Safari/537.36","WebKit","Chrome","138.0.0.0","Windows","10.0","https://app.prolific.com/","en-US,en;q=0.9","6743c8da977b0d274dad1fc2","686e379bc37a29ffa5cdc956","68776006826754b038605f6a","1","1","6743c8da977b0d274dad1fc2","1","1","2025-07-16T09:32:58.489Z","","","","","","","","","","","AttribQ","","50","","","","","","","","","","","","","","","","","","","","","","","","","","","","",""
"2966","","<div style=""width:500px;"">
  <p>How much control did you have over the ball?</p>
  </div>","100","html-slider-response","16","4200490","0.0-5.0-2.1","52","1","2025-07-16 08:21:17","1f75c3e559b7213887762d5229550c2b","216.120.189.41","Mozilla/5.0 (Windows NT 10.0; Win64; x64) AppleWebKit/537.36 (KHTML, like Gecko) Chrome/138.0.0.0 Safari/537.36","WebKit","Chrome","138.0.0.0","Windows","10.0","https://app.prolific.com/","en-US,en;q=0.9","6743c8da977b0d274dad1fc2","686e379bc37a29ffa5cdc956","68776006826754b038605f6a","1","1","6743c8da977b0d274dad1fc2","1","1","2025-07-16T09:33:01.457Z","","","","","","","","","","","ControlQ","","50","","","","","","","","","","","","","","","","","","","","","","","","","","","","",""
"13167","","<div style=""width:500px;"">
  <p>How would you describe your current emotional state?</p>
  </div>","0","html-slider-response","17","4213658","0.0-5.0-3.1","52","1","2025-07-16 08:21:17","1f75c3e559b7213887762d5229550c2b","216.120.189.41","Mozilla/5.0 (Windows NT 10.0; Win64; x64) AppleWebKit/537.36 (KHTML, like Gecko) Chrome/138.0.0.0 Safari/537.36","WebKit","Chrome","138.0.0.0","Windows","10.0","https://app.prolific.com/","en-US,en;q=0.9","6743c8da977b0d274dad1fc2","686e379bc37a29ffa5cdc956","68776006826754b038605f6a","1","1","6743c8da977b0d274dad1fc2","1","1","2025-07-16T09:33:14.625Z","","","","","","","","","","","StressQ","","50","","","","","","","","","","","","","","","","","","","","","","","","","","","","",""
"7119","","<div style=""width:500px;"">
  <p>What best describes how you currently feel?</p>
  </div>","100","html-slider-response","18","4220778","0.0-5.0-4.1","52","1","2025-07-16 08:21:17","1f75c3e559b7213887762d5229550c2b","216.120.189.41","Mozilla/5.0 (Windows NT 10.0; Win64; x64) AppleWebKit/537.36 (KHTML, like Gecko) Chrome/138.0.0.0 Safari/537.36","WebKit","Chrome","138.0.0.0","Windows","10.0","https://app.prolific.com/","en-US,en;q=0.9","6743c8da977b0d274dad1fc2","686e379bc37a29ffa5cdc956","68776006826754b038605f6a","1","1","6743c8da977b0d274dad1fc2","1","1","2025-07-16T09:33:21.745Z","","","","","","","","","","","MotivationQ","","50","","","","","","","","","","","","","","","","","","","","","","","","","","","","",""
"","","","","ctl-task-cpt","19","4266073","0.0-5.0-0.2","52","1","2025-07-16 08:21:17","1f75c3e559b7213887762d5229550c2b","216.120.189.41","Mozilla/5.0 (Windows NT 10.0; Win64; x64) AppleWebKit/537.36 (KHTML, like Gecko) Chrome/138.0.0.0 Safari/537.36","WebKit","Chrome","138.0.0.0","Windows","10.0","https://app.prolific.com/","en-US,en;q=0.9","6743c8da977b0d274dad1fc2","686e379bc37a29ffa5cdc956","68776006826754b038605f6a","1","1","6743c8da977b0d274dad1fc2","1","1","2025-07-16T09:34:07.040Z","","","","","","","","","","","","","","win-only","1","g1:NE,g2:SW","0.8","3","0","4326013.5","1411.1","6415.9","42275.7","1","4","8","6","2","-8","-18","0","8","0","995.9","3000","-3015","[""down"",""left""]","{""num_key_presses"":49,""num_perfect"":5,""num_errors"":10,""num_randdir"":1,""num_randdir_good_moves"":0,""num_whilered"":33,""num_whileblue"":1,""num_blue"":1,""num_good_moves"":5}","[260.7857142857143,261.1919642857143,0.4,260.7857142857143,261.1919642857143,105.5,260.7857142857143,261.1919642857143,216.1,261.7857142857143,268.1919642857143,319.3,261.7857142857143,301.1919642857143,419.7,261.7857142857143,323.1919642857143,521,237.78571428571428,342.1919642857143,624.4,105.78571428571428,404.1919642857143,724.7,25.785714285714285,462.1919642857143,825.9,24.785714285714285,464.1919642857143,931.6,24.785714285714285,465.1919642857143,1035.5,24.785714285714285,465.1919642857143,1140.6,42.785714285714285,465.1919642857143,1246,191.78571428571428,462.1919642857143,1349.5,311.7857142857143,455.1919642857143,1450.4,333.7857142857143,451.1919642857143,1554.6,333.7857142857143,451.1919642857143,1660.8,333.7857142857143,451.1919642857143,1766.5,333.7857142857143,451.1919642857143,1867.2,333.7857142857143,451.1919642857143,1967.6,333.7857142857143,451.1919642857143,2069.3,333.7857142857143,451.1919642857143,2169.4,333.7857142857143,451.1919642857143,2275.6,326.7857142857143,453.1919642857143,2380.5,325.7857142857143,453.1919642857143,2484.5,319.7857142857143,463.1919642857143,2590.4,262.7857142857143,493.1919642857143,2694.5,214.78571428571428,507.1919642857143,2796.2,125.78571428571428,557.1919642857143,2899.8,124.78571428571428,559.1919642857143,3005.7,124.78571428571428,559.1919642857143,3109.8,123.78571428571428,559.1919642857143,3210.7,123.78571428571428,553.1919642857143,3315.1,123.78571428571428,553.1919642857143,3415.9,123.78571428571428,553.1919642857143,3515.9,123.78571428571428,553.1919642857143,3620.7,123.78571428571428,553.1919642857143,3726.1,123.78571428571428,553.1919642857143,3831.5,123.78571428571428,553.1919642857143,3932.3,123.78571428571428,553.1919642857143,4034.2,123.78571428571428,553.1919642857143,4135.3,123.78571428571428,553.1919642857143,4239.2,123.78571428571428,553.1919642857143,4339.4,123.78571428571428,553.1919642857143,4439.9,123.78571428571428,553.1919642857143,4540.5,123.78571428571428,553.1919642857143,4644.4,123.78571428571428,553.1919642857143,4744.7,123.78571428571428,553.1919642857143,4849.5,123.78571428571428,553.1919642857143,4949.5]","[1511.1,1511.1,1000,0,511.1,""smooth"",""down"",""down"",""good_move"",4394.7,2883.2,2491.7,1511.5,391.5,""smooth"",""down"",""down"",""good_move"",7069.8,2674.8,2342.3,4395,332.5,""smooth"",""down"",""down"",""good_move"",10226.9,3156.8,2759,7070.2,397.7,""smooth"",""left"",""left"",""good_move"",13374.1,3146.7,2798.4,10227.5,348.3,""while_blue"",""left"",""right"",""bad_move"",16452.4,3077.2,2654,13375.2,423.2,""oops"",""left"",""right"",""bad_move"",19504.3,3051.5,2625.4,16452.8,426.1,""smooth"",""left"",""left"",""good_move"",22027.4,2522.9,2892.4,19504.5,-369.5,""error"",""-"",""-"",""no_move"",22198.7,171.1,2892.4,19504.5,-198.2,""while_red"",""-"",""-"",""no_move"",23577.4,1549.8,2708.1,23029.8,-2160.5,""error"",""-"",""-"",""no_move"",24058.8,480.6,2708.1,23029.8,-1679.1,""while_red"",""-"",""-"",""no_move"",24292.2,714,2708.1,23029.8,-1445.7,""while_red"",""-"",""-"",""no_move"",24486.9,908.7,2708.1,23029.8,-1251,""while_red"",""-"",""-"",""no_move"",24690.3,1112.2,2718.1,24578.3,-2606,""error"",""-"",""-"",""no_move"",24875.9,185,2718.1,24578.3,-2420.5,""while_red"",""-"",""-"",""no_move"",25066.6,375.7,2718.1,24578.3,-2229.8,""while_red"",""-"",""-"",""no_move"",25269,578.1,2718.1,24578.3,-2027.4,""while_red"",""-"",""-"",""no_move"",25484.2,793.4,2718.1,24578.3,-1812.1,""while_red"",""-"",""-"",""no_move"",25696.8,1005.9,3197.3,25693.2,-3193.7,""error"",""-"",""-"",""no_move"",25910.8,213.8,3197.3,25693.2,-2979.7,""while_red"",""-"",""-"",""no_move"",26109.9,412.9,3197.3,25693.2,-2780.6,""while_red"",""-"",""-"",""no_move"",26290.8,593.8,3197.3,25693.2,-2599.7,""while_red"",""-"",""-"",""no_move"",26492.5,795.5,3197.3,25693.2,-2398,""while_red"",""-"",""-"",""no_move"",26695.1,998.1,3197.3,25693.2,-2195.4,""while_red"",""-"",""-"",""no_move"",26896.9,1199.9,2645.7,26706.8,-2455.6,""error"",""-"",""-"",""no_move"",27094.1,196.9,2645.7,26706.8,-2258.4,""while_red"",""-"",""-"",""no_move"",27276,378.8,2645.7,26706.8,-2076.5,""while_red"",""-"",""-"",""no_move"",27467.8,570.6,2645.7,26706.8,-1884.7,""while_red"",""-"",""-"",""no_move"",27661.6,764.4,2645.7,26706.8,-1690.9,""while_red"",""-"",""-"",""no_move"",27833.7,936.5,2645.7,26706.8,-1518.8,""while_red"",""-"",""-"",""no_move"",28028.9,1131.7,2328.1,27901.2,-2200.4,""error"",""-"",""-"",""no_move"",28226.1,197,2328.1,27901.2,-2003.2,""while_red"",""-"",""-"",""no_move"",28406.5,377.4,2328.1,27901.2,-1822.8,""while_red"",""-"",""-"",""no_move"",28588.6,559.5,2328.1,27901.2,-1640.7,""while_red"",""-"",""-"",""no_move"",28775,745.9,2328.1,27901.2,-1454.3,""while_red"",""-"",""-"",""no_move"",28975.2,946.1,2328.1,27901.2,-1254.1,""while_red"",""-"",""-"",""no_move"",29158.9,1129.8,2949.4,29029.9,-2820.4,""error"",""-"",""-"",""no_move"",29341.5,182.2,2949.4,29029.9,-2637.8,""while_red"",""-"",""-"",""no_move"",29540.8,381.6,2949.4,29029.9,-2438.4,""while_red"",""-"",""-"",""no_move"",29709.6,550.3,2949.4,29029.9,-2269.7,""while_red"",""-"",""-"",""no_move"",29890.2,730.9,2949.4,29029.9,-2089.1,""while_red"",""-"",""-"",""no_move"",30064.6,905.3,2949.4,29029.9,-1914.7,""while_red"",""-"",""-"",""no_move"",30258.2,1098.9,2429.2,30160.9,-2331.9,""error"",""-"",""-"",""no_move"",30460.2,201.5,2429.2,30160.9,-2129.9,""while_red"",""-"",""-"",""no_move"",30645.2,386.5,2429.2,30160.9,-1944.9,""while_red"",""-"",""-"",""no_move"",30827.9,569.3,2429.2,30160.9,-1762.1,""while_red"",""-"",""-"",""no_move"",31025.3,766.6,2429.2,30160.9,-1564.8,""while_red"",""-"",""-"",""no_move"",31206.7,948,2429.2,30160.9,-1383.4,""while_red"",""-"",""-"",""no_move"",31398.2,1139.5,2599.4,31260.3,-2461.5,""error"",""-"",""-"",""no_move""]","",""
"15064","","<div style=""width:500px;"">
  <p>What determined the result of this run?</p>
  </div>","100","html-slider-response","20","4281138","0.0-5.0-1.2","52","1","2025-07-16 08:21:17","1f75c3e559b7213887762d5229550c2b","216.120.189.41","Mozilla/5.0 (Windows NT 10.0; Win64; x64) AppleWebKit/537.36 (KHTML, like Gecko) Chrome/138.0.0.0 Safari/537.36","WebKit","Chrome","138.0.0.0","Windows","10.0","https://app.prolific.com/","en-US,en;q=0.9","6743c8da977b0d274dad1fc2","686e379bc37a29ffa5cdc956","68776006826754b038605f6a","1","1","6743c8da977b0d274dad1fc2","1","1","2025-07-16T09:34:22.105Z","","","","","","","","","","","AttribQ","","50","","","","","","","","","","","","","","","","","","","","","","","","","","","","",""
"24919","","<div style=""width:500px;"">
  <p>How much control did you have over the ball?</p>
  </div>","97","html-slider-response","21","4306058","0.0-5.0-2.2","52","1","2025-07-16 08:21:17","1f75c3e559b7213887762d5229550c2b","216.120.189.41","Mozilla/5.0 (Windows NT 10.0; Win64; x64) AppleWebKit/537.36 (KHTML, like Gecko) Chrome/138.0.0.0 Safari/537.36","WebKit","Chrome","138.0.0.0","Windows","10.0","https://app.prolific.com/","en-US,en;q=0.9","6743c8da977b0d274dad1fc2","686e379bc37a29ffa5cdc956","68776006826754b038605f6a","1","1","6743c8da977b0d274dad1fc2","1","1","2025-07-16T09:34:47.025Z","","","","","","","","","","","ControlQ","","50","","","","","","","","","","","","","","","","","","","","","","","","","","","","",""
"3007","","<div style=""width:500px;"">
  <p>How would you describe your current emotional state?</p>
  </div>","31","html-slider-response","22","4309066","0.0-5.0-3.2","52","1","2025-07-16 08:21:17","1f75c3e559b7213887762d5229550c2b","216.120.189.41","Mozilla/5.0 (Windows NT 10.0; Win64; x64) AppleWebKit/537.36 (KHTML, like Gecko) Chrome/138.0.0.0 Safari/537.36","WebKit","Chrome","138.0.0.0","Windows","10.0","https://app.prolific.com/","en-US,en;q=0.9","6743c8da977b0d274dad1fc2","686e379bc37a29ffa5cdc956","68776006826754b038605f6a","1","1","6743c8da977b0d274dad1fc2","1","1","2025-07-16T09:34:50.034Z","","","","","","","","","","","StressQ","","50","","","","","","","","","","","","","","","","","","","","","","","","","","","","",""
"4814","","<div style=""width:500px;"">
  <p>What best describes how you currently feel?</p>
  </div>","62","html-slider-response","23","4313882","0.0-5.0-4.2","52","1","2025-07-16 08:21:17","1f75c3e559b7213887762d5229550c2b","216.120.189.41","Mozilla/5.0 (Windows NT 10.0; Win64; x64) AppleWebKit/537.36 (KHTML, like Gecko) Chrome/138.0.0.0 Safari/537.36","WebKit","Chrome","138.0.0.0","Windows","10.0","https://app.prolific.com/","en-US,en;q=0.9","6743c8da977b0d274dad1fc2","686e379bc37a29ffa5cdc956","68776006826754b038605f6a","1","1","6743c8da977b0d274dad1fc2","1","1","2025-07-16T09:34:54.849Z","","","","","","","","","","","MotivationQ","","50","","","","","","","","","","","","","","","","","","","","","","","","","","","","",""
"","","","","ctl-task-cpt","24","4347168","0.0-5.0-0.3","52","1","2025-07-16 08:21:17","1f75c3e559b7213887762d5229550c2b","216.120.189.41","Mozilla/5.0 (Windows NT 10.0; Win64; x64) AppleWebKit/537.36 (KHTML, like Gecko) Chrome/138.0.0.0 Safari/537.36","WebKit","Chrome","138.0.0.0","Windows","10.0","https://app.prolific.com/","en-US,en;q=0.9","6743c8da977b0d274dad1fc2","686e379bc37a29ffa5cdc956","68776006826754b038605f6a","1","1","6743c8da977b0d274dad1fc2","1","1","2025-07-16T09:35:28.135Z","","","","","","","","","","","","","","win-only","2","g1:SE,g2:NW","0.7","4","0","4419119","1637.1","6647","30267.2","1","4","4","6","2","4","3","3","0","0.022727272727272728","1625.1","3000","130","[""left"",""up""]","{""num_key_presses"":8,""num_perfect"":6,""num_errors"":1,""num_randdir"":1,""num_randdir_good_moves"":0,""num_whilered"":0,""num_whileblue"":1,""num_blue"":1,""num_good_moves"":7}","[266.7857142857143,261.1919642857143,0.4,266.7857142857143,261.1919642857143,103.1,266.7857142857143,261.1919642857143,204.4,266.7857142857143,261.1919642857143,308.6,266.7857142857143,266.1919642857143,411.7,283.7857142857143,300.1919642857143,514.3,284.7857142857143,301.1919642857143,615,285.7857142857143,301.1919642857143,719.4,210.78571428571428,241.19196428571428,823.1,126.78571428571428,178.19196428571428,923.7,46.785714285714285,119.19196428571428,1030.5,24.785714285714285,103.19196428571428,1134.7,18.785714285714285,70.19196428571428,1239.7,25.785714285714285,39.191964285714285,1346.8,25.785714285714285,39.191964285714285,1449,25.785714285714285,39.191964285714285,1554,25.785714285714285,39.191964285714285,1654.7,25.785714285714285,39.191964285714285,1755.1,28.785714285714285,47.191964285714285,1859.5,85.78571428571428,147.19196428571428,1959.7,121.78571428571428,207.19196428571428,2059.9,146.78571428571428,254.19196428571428,2164.4,149.78571428571428,257.1919642857143,2264.6,149.78571428571428,257.1919642857143,2368.3,149.78571428571428,257.1919642857143,2468.8,149.78571428571428,257.1919642857143,2573.3,149.78571428571428,257.1919642857143,2673.8,149.78571428571428,255.19196428571428,2773.9,149.78571428571428,255.19196428571428,2878.6,149.78571428571428,255.19196428571428,2978.8,149.78571428571428,255.19196428571428,3080.8,149.78571428571428,255.19196428571428,3182.2,149.78571428571428,255.19196428571428,3284.1,149.78571428571428,255.19196428571428,3384.4,149.78571428571428,255.19196428571428,3489.3,149.78571428571428,255.19196428571428,3589.4,149.78571428571428,255.19196428571428,3689.4,149.78571428571428,255.19196428571428,3794.7,149.78571428571428,255.19196428571428,3899,149.78571428571428,255.19196428571428,3999.4,151.78571428571428,254.19196428571428,4103.3,151.78571428571428,254.19196428571428,4203.5,151.78571428571428,254.19196428571428,4304.8,151.78571428571428,254.19196428571428,4410.3,151.78571428571428,254.19196428571428,4512,151.78571428571428,254.19196428571428,4613.3,151.78571428571428,254.19196428571428,4715.3,151.78571428571428,254.19196428571428,4815.7,151.78571428571428,254.19196428571428,4916]","[1451.1,1451.1,1000,0,451.1,""smooth"",""up"",""up"",""good_move"",5278.8,3827.3,3404.2,1451.5,423.1,""smooth"",""up"",""up"",""good_move"",8622,3342.8,2893.9,5279.2,448.9,""smooth"",""up"",""up"",""good_move"",11270.4,2647.5,2225.1,8622.9,422.4,""oops"",""left"",""right"",""bad_move"",14621.5,3350,2628.9,11271.5,721.1,""smooth"",""left"",""left"",""good_move"",17156.3,2534.2,2076.1,14622.1,458.1,""smooth"",""left"",""left"",""good_move"",20392.7,3236.1,2949.7,17156.6,286.4,""smooth"",""left"",""left"",""good_move"",23527.9,3134.8,2865.3,20393.1,269.5,""while_blue"",""left"",""left"",""good_move""]","",""
"22121","","<div style=""width:500px;"">
  <p>What determined the result of this run?</p>
  </div>","100","html-slider-response","25","4369291","0.0-5.0-1.3","52","1","2025-07-16 08:21:17","1f75c3e559b7213887762d5229550c2b","216.120.189.41","Mozilla/5.0 (Windows NT 10.0; Win64; x64) AppleWebKit/537.36 (KHTML, like Gecko) Chrome/138.0.0.0 Safari/537.36","WebKit","Chrome","138.0.0.0","Windows","10.0","https://app.prolific.com/","en-US,en;q=0.9","6743c8da977b0d274dad1fc2","686e379bc37a29ffa5cdc956","68776006826754b038605f6a","1","1","6743c8da977b0d274dad1fc2","1","1","2025-07-16T09:35:50.258Z","","","","","","","","","","","AttribQ","","50","","","","","","","","","","","","","","","","","","","","","","","","","","","","",""
"21805","","<div style=""width:500px;"">
  <p>How much control did you have over the ball?</p>
  </div>","96","html-slider-response","26","4391098","0.0-5.0-2.3","52","1","2025-07-16 08:21:17","1f75c3e559b7213887762d5229550c2b","216.120.189.41","Mozilla/5.0 (Windows NT 10.0; Win64; x64) AppleWebKit/537.36 (KHTML, like Gecko) Chrome/138.0.0.0 Safari/537.36","WebKit","Chrome","138.0.0.0","Windows","10.0","https://app.prolific.com/","en-US,en;q=0.9","6743c8da977b0d274dad1fc2","686e379bc37a29ffa5cdc956","68776006826754b038605f6a","1","1","6743c8da977b0d274dad1fc2","1","1","2025-07-16T09:36:12.065Z","","","","","","","","","","","ControlQ","","50","","","","","","","","","","","","","","","","","","","","","","","","","","","","",""
"9815","","<div style=""width:500px;"">
  <p>How would you describe your current emotional state?</p>
  </div>","62","html-slider-response","27","4400914","0.0-5.0-3.3","52","1","2025-07-16 08:21:17","1f75c3e559b7213887762d5229550c2b","216.120.189.41","Mozilla/5.0 (Windows NT 10.0; Win64; x64) AppleWebKit/537.36 (KHTML, like Gecko) Chrome/138.0.0.0 Safari/537.36","WebKit","Chrome","138.0.0.0","Windows","10.0","https://app.prolific.com/","en-US,en;q=0.9","6743c8da977b0d274dad1fc2","686e379bc37a29ffa5cdc956","68776006826754b038605f6a","1","1","6743c8da977b0d274dad1fc2","1","1","2025-07-16T09:36:21.881Z","","","","","","","","","","","StressQ","","50","","","","","","","","","","","","","","","","","","","","","","","","","","","","",""
"8591","","<div style=""width:500px;"">
  <p>What best describes how you currently feel?</p>
  </div>","94","html-slider-response","28","4409506","0.0-5.0-4.3","52","1","2025-07-16 08:21:17","1f75c3e559b7213887762d5229550c2b","216.120.189.41","Mozilla/5.0 (Windows NT 10.0; Win64; x64) AppleWebKit/537.36 (KHTML, like Gecko) Chrome/138.0.0.0 Safari/537.36","WebKit","Chrome","138.0.0.0","Windows","10.0","https://app.prolific.com/","en-US,en;q=0.9","6743c8da977b0d274dad1fc2","686e379bc37a29ffa5cdc956","68776006826754b038605f6a","1","1","6743c8da977b0d274dad1fc2","1","1","2025-07-16T09:36:30.473Z","","","","","","","","","","","MotivationQ","","50","","","","","","","","","","","","","","","","","","","","","","","","","","","","",""
"","","","","ctl-task-cpt","29","4423607","0.0-5.0-0.4","52","1","2025-07-16 08:21:17","1f75c3e559b7213887762d5229550c2b","216.120.189.41","Mozilla/5.0 (Windows NT 10.0; Win64; x64) AppleWebKit/537.36 (KHTML, like Gecko) Chrome/138.0.0.0 Safari/537.36","WebKit","Chrome","138.0.0.0","Windows","10.0","https://app.prolific.com/","en-US,en;q=0.9","6743c8da977b0d274dad1fc2","686e379bc37a29ffa5cdc956","68776006826754b038605f6a","1","1","6743c8da977b0d274dad1fc2","1","1","2025-07-16T09:36:44.574Z","","","","","","","","","","","","","","win-only","0","g1:NW,g2:SE","0.6","5","0","4514743.6","1509.1","6511.7","11080.5","1","4","8","6","2","-8","-8","0","3","0","3199","3000","-2905","[""down"",""right""]","{""num_key_presses"":0,""num_perfect"":0,""num_errors"":0,""num_randdir"":0,""num_randdir_good_moves"":0,""num_whilered"":0,""num_whileblue"":0,""num_blue"":0,""num_good_moves"":0}","[266.7857142857143,257.1919642857143,0.2,266.7857142857143,257.1919642857143,101.4,266.7857142857143,257.1919642857143,202.5,266.7857142857143,257.1919642857143,306.5,266.7857142857143,257.1919642857143,412.6,266.7857142857143,257.1919642857143,522.1,266.7857142857143,257.1919642857143,622.5,266.7857142857143,257.1919642857143,727.3,266.7857142857143,257.1919642857143,832.5,266.7857142857143,257.1919642857143,936.5,266.7857142857143,257.1919642857143,1036.6,266.7857142857143,257.1919642857143,1142.2,266.7857142857143,257.1919642857143,1246.6,266.7857142857143,257.1919642857143,1347,266.7857142857143,257.1919642857143,1452.8,265.7857142857143,257.1919642857143,1556.7,264.7857142857143,257.1919642857143,1657.3,264.7857142857143,259.1919642857143,1763.2,264.7857142857143,259.1919642857143,1866.4,264.7857142857143,259.1919642857143,1971.7,264.7857142857143,259.1919642857143,2077.2,264.7857142857143,259.1919642857143,2178.1,264.7857142857143,259.1919642857143,2281.4,268.7857142857143,274.1919642857143,2382.6,268.7857142857143,278.1919642857143,2483.2,261.7857142857143,277.1919642857143,2586.8,311.7857142857143,374.1919642857143,2686.8,420.7857142857143,489.1919642857143,2792.2,420.7857142857143,488.1919642857143,2893.5,434.7857142857143,488.1919642857143,2995,455.7857142857143,488.1919642857143,3102.1,459.7857142857143,488.1919642857143,3211.3,459.7857142857143,488.1919642857143,3312.7,457.7857142857143,486.1919642857143,3416.6,455.7857142857143,483.1919642857143,3517,454.7857142857143,482.1919642857143,3617.8,453.7857142857143,480.1919642857143,3722.6,453.7857142857143,477.1919642857143,3827.3,450.7857142857143,469.1919642857143,3931,443.7857142857143,442.1919642857143,4032.8,424.7857142857143,377.1919642857143,4137.7,419.7857142857143,344.1919642857143,4245,418.7857142857143,341.1919642857143,4349.2,418.7857142857143,341.1919642857143,4449.8,418.7857142857143,341.1919642857143,4549.8,418.7857142857143,341.1919642857143,4652.3,418.7857142857143,341.1919642857143,4756.2,418.7857142857143,341.1919642857143,4856.8,418.7857142857143,341.1919642857143,4959.8]","[]","",""
"5937","","<div style=""width:500px;"">
  <p>What determined the result of this run?</p>
  </div>","32","html-slider-response","30","4429545","0.0-5.0-1.4","52","1","2025-07-16 08:21:17","1f75c3e559b7213887762d5229550c2b","216.120.189.41","Mozilla/5.0 (Windows NT 10.0; Win64; x64) AppleWebKit/537.36 (KHTML, like Gecko) Chrome/138.0.0.0 Safari/537.36","WebKit","Chrome","138.0.0.0","Windows","10.0","https://app.prolific.com/","en-US,en;q=0.9","6743c8da977b0d274dad1fc2","686e379bc37a29ffa5cdc956","68776006826754b038605f6a","1","1","6743c8da977b0d274dad1fc2","1","1","2025-07-16T09:36:50.513Z","","","","","","","","","","","AttribQ","","50","","","","","","","","","","","","","","","","","","","","","","","","","","","","",""
"4024","","<div style=""width:500px;"">
  <p>How much control did you have over the ball?</p>
  </div>","43","html-slider-response","31","4433570","0.0-5.0-2.4","52","1","2025-07-16 08:21:17","1f75c3e559b7213887762d5229550c2b","216.120.189.41","Mozilla/5.0 (Windows NT 10.0; Win64; x64) AppleWebKit/537.36 (KHTML, like Gecko) Chrome/138.0.0.0 Safari/537.36","WebKit","Chrome","138.0.0.0","Windows","10.0","https://app.prolific.com/","en-US,en;q=0.9","6743c8da977b0d274dad1fc2","686e379bc37a29ffa5cdc956","68776006826754b038605f6a","1","1","6743c8da977b0d274dad1fc2","1","1","2025-07-16T09:36:54.538Z","","","","","","","","","","","ControlQ","","50","","","","","","","","","","","","","","","","","","","","","","","","","","","","",""
"4222","","<div style=""width:500px;"">
  <p>How would you describe your current emotional state?</p>
  </div>","15","html-slider-response","32","4437793","0.0-5.0-3.4","52","1","2025-07-16 08:21:17","1f75c3e559b7213887762d5229550c2b","216.120.189.41","Mozilla/5.0 (Windows NT 10.0; Win64; x64) AppleWebKit/537.36 (KHTML, like Gecko) Chrome/138.0.0.0 Safari/537.36","WebKit","Chrome","138.0.0.0","Windows","10.0","https://app.prolific.com/","en-US,en;q=0.9","6743c8da977b0d274dad1fc2","686e379bc37a29ffa5cdc956","68776006826754b038605f6a","1","1","6743c8da977b0d274dad1fc2","1","1","2025-07-16T09:36:58.761Z","","","","","","","","","","","StressQ","","50","","","","","","","","","","","","","","","","","","","","","","","","","","","","",""
"3399","","<div style=""width:500px;"">
  <p>What best describes how you currently feel?</p>
  </div>","56","html-slider-response","33","4441193","0.0-5.0-4.4","52","1","2025-07-16 08:21:17","1f75c3e559b7213887762d5229550c2b","216.120.189.41","Mozilla/5.0 (Windows NT 10.0; Win64; x64) AppleWebKit/537.36 (KHTML, like Gecko) Chrome/138.0.0.0 Safari/537.36","WebKit","Chrome","138.0.0.0","Windows","10.0","https://app.prolific.com/","en-US,en;q=0.9","6743c8da977b0d274dad1fc2","686e379bc37a29ffa5cdc956","68776006826754b038605f6a","1","1","6743c8da977b0d274dad1fc2","1","1","2025-07-16T09:37:02.161Z","","","","","","","","","","","MotivationQ","","50","","","","","","","","","","","","","","","","","","","","","","","","","","","","",""
"","","","","ctl-task-cpt","34","4474421","0.0-5.0-0.5","52","1","2025-07-16 08:21:17","1f75c3e559b7213887762d5229550c2b","216.120.189.41","Mozilla/5.0 (Windows NT 10.0; Win64; x64) AppleWebKit/537.36 (KHTML, like Gecko) Chrome/138.0.0.0 Safari/537.36","WebKit","Chrome","138.0.0.0","Windows","10.0","https://app.prolific.com/","en-US,en;q=0.9","6743c8da977b0d274dad1fc2","686e379bc37a29ffa5cdc956","68776006826754b038605f6a","1","1","6743c8da977b0d274dad1fc2","1","1","2025-07-16T09:37:35.388Z","","","","","","","","","","","","","","win-only","3","g1:SW,g2:NE","0.5","6","0","4546429","1616.3","6618.1","30205.4","1","4","4","6","2","-4","-4","0","0","0","1383.4","3000","-2455","[""up"",""right""]","{""num_key_presses"":6,""num_perfect"":3,""num_errors"":0,""num_randdir"":3,""num_randdir_good_moves"":1,""num_whilered"":0,""num_whileblue"":0,""num_blue"":1,""num_good_moves"":4}","[259.7857142857143,265.1919642857143,0.3,259.7857142857143,265.1919642857143,106.4,259.7857142857143,265.1919642857143,209.8,259.7857142857143,266.1919642857143,312.3,260.7857142857143,275.1919642857143,413.9,254.78571428571428,288.1919642857143,515.2,250.78571428571428,292.1919642857143,618.6,272.7857142857143,249.19196428571428,719.1,371.7857142857143,150.19196428571428,824.1,408.7857142857143,122.19196428571428,925.2,411.7857142857143,120.19196428571428,1026.4,443.7857142857143,99.19196428571428,1129.6,473.7857142857143,59.191964285714285,1235,473.7857142857143,59.191964285714285,1352.1,473.7857142857143,59.191964285714285,1457.1,473.7857142857143,59.191964285714285,1559.7,470.7857142857143,81.19196428571428,1664,463.7857142857143,223.19196428571428,1769.5,458.7857142857143,270.1919642857143,1870.2,455.7857142857143,285.1919642857143,1972.4,455.7857142857143,285.1919642857143,2098.5,455.7857142857143,285.1919642857143,2203.7,455.7857142857143,285.1919642857143,2311.3,455.7857142857143,285.1919642857143,2425.8,455.7857142857143,285.1919642857143,2529.2,455.7857142857143,285.1919642857143,2630.4,455.7857142857143,285.1919642857143,2730.4,455.7857142857143,285.1919642857143,2834.5,455.7857142857143,285.1919642857143,2944,455.7857142857143,285.1919642857143,3045.2,455.7857142857143,285.1919642857143,3146.4,455.7857142857143,285.1919642857143,3256.5,455.7857142857143,285.1919642857143,3360.4,455.7857142857143,285.1919642857143,3467,455.7857142857143,285.1919642857143,3571.7,455.7857142857143,285.1919642857143,3674,455.7857142857143,285.1919642857143,3775.1,455.7857142857143,285.1919642857143,3882.9,455.7857142857143,285.1919642857143,3989.6,455.7857142857143,285.1919642857143,4090.6,455.7857142857143,285.1919642857143,4196.1,455.7857142857143,285.1919642857143,4300.2,455.7857142857143,285.1919642857143,4401.9,455.7857142857143,285.1919642857143,4504.6,455.7857142857143,285.1919642857143,4605.2,455.7857142857143,285.1919642857143,4706.2,455.7857142857143,285.1919642857143,4809.6,455.7857142857143,285.1919642857143,4919]","[1419.8,1419.8,1000,0,419.8,""smooth"",""right"",""right"",""good_move"",3768.3,2348,1932.2,1420.3,415.8,""smooth"",""right"",""right"",""good_move"",11108.2,7339.6,3264,7432.1,412.1,""smooth"",""up"",""up"",""good_move"",14338,3229.3,2691.3,11108.7,538,""oops"",""up"",""left"",""bad_move"",17498.9,3160.4,2617.6,14338.5,542.8,""oops"",""up"",""up"",""good_move"",20715.2,3215.7,2703,17499.5,512.7,""oops"",""up"",""left"",""bad_move""]","",""
"2683","","<div style=""width:500px;"">
  <p>What determined the result of this run?</p>
  </div>","66","html-slider-response","35","4477107","0.0-5.0-1.5","52","1","2025-07-16 08:21:17","1f75c3e559b7213887762d5229550c2b","216.120.189.41","Mozilla/5.0 (Windows NT 10.0; Win64; x64) AppleWebKit/537.36 (KHTML, like Gecko) Chrome/138.0.0.0 Safari/537.36","WebKit","Chrome","138.0.0.0","Windows","10.0","https://app.prolific.com/","en-US,en;q=0.9","6743c8da977b0d274dad1fc2","686e379bc37a29ffa5cdc956","68776006826754b038605f6a","1","1","6743c8da977b0d274dad1fc2","1","1","2025-07-16T09:37:38.074Z","","","","","","","","","","","AttribQ","","50","","","","","","","","","","","","","","","","","","","","","","","","","","","","",""
"2391","","<div style=""width:500px;"">
  <p>How much control did you have over the ball?</p>
  </div>","63","html-slider-response","36","4479499","0.0-5.0-2.5","52","1","2025-07-16 08:21:17","1f75c3e559b7213887762d5229550c2b","216.120.189.41","Mozilla/5.0 (Windows NT 10.0; Win64; x64) AppleWebKit/537.36 (KHTML, like Gecko) Chrome/138.0.0.0 Safari/537.36","WebKit","Chrome","138.0.0.0","Windows","10.0","https://app.prolific.com/","en-US,en;q=0.9","6743c8da977b0d274dad1fc2","686e379bc37a29ffa5cdc956","68776006826754b038605f6a","1","1","6743c8da977b0d274dad1fc2","1","1","2025-07-16T09:37:40.466Z","","","","","","","","","","","ControlQ","","50","","","","","","","","","","","","","","","","","","","","","","","","","","","","",""
"7205","","<div style=""width:500px;"">
  <p>How would you describe your current emotional state?</p>
  </div>","36","html-slider-response","37","4486706","0.0-5.0-3.5","52","1","2025-07-16 08:21:17","1f75c3e559b7213887762d5229550c2b","216.120.189.41","Mozilla/5.0 (Windows NT 10.0; Win64; x64) AppleWebKit/537.36 (KHTML, like Gecko) Chrome/138.0.0.0 Safari/537.36","WebKit","Chrome","138.0.0.0","Windows","10.0","https://app.prolific.com/","en-US,en;q=0.9","6743c8da977b0d274dad1fc2","686e379bc37a29ffa5cdc956","68776006826754b038605f6a","1","1","6743c8da977b0d274dad1fc2","1","1","2025-07-16T09:37:47.673Z","","","","","","","","","","","StressQ","","50","","","","","","","","","","","","","","","","","","","","","","","","","","","","",""
"4624","","<div style=""width:500px;"">
  <p>What best describes how you currently feel?</p>
  </div>","82","html-slider-response","38","4491331","0.0-5.0-4.5","52","1","2025-07-16 08:21:17","1f75c3e559b7213887762d5229550c2b","216.120.189.41","Mozilla/5.0 (Windows NT 10.0; Win64; x64) AppleWebKit/537.36 (KHTML, like Gecko) Chrome/138.0.0.0 Safari/537.36","WebKit","Chrome","138.0.0.0","Windows","10.0","https://app.prolific.com/","en-US,en;q=0.9","6743c8da977b0d274dad1fc2","686e379bc37a29ffa5cdc956","68776006826754b038605f6a","1","1","6743c8da977b0d274dad1fc2","1","1","2025-07-16T09:37:52.298Z","","","","","","","","","","","MotivationQ","","50","","","","","","","","","","","","","","","","","","","","","","","","","","","","",""
"","","","","ctl-task-cpt","39","4506116","0.0-5.0-0.6","52","1","2025-07-16 08:21:17","1f75c3e559b7213887762d5229550c2b","216.120.189.41","Mozilla/5.0 (Windows NT 10.0; Win64; x64) AppleWebKit/537.36 (KHTML, like Gecko) Chrome/138.0.0.0 Safari/537.36","WebKit","Chrome","138.0.0.0","Windows","10.0","https://app.prolific.com/","en-US,en;q=0.9","6743c8da977b0d274dad1fc2","686e379bc37a29ffa5cdc956","68776006826754b038605f6a","1","1","6743c8da977b0d274dad1fc2","1","1","2025-07-16T09:38:07.083Z","","","","","","","","","","","","","","win-only","2","g1:SE,g2:NW","0.4","7","0","4596567.5","2068.5","7071.3","11766.2","1","4","4","6","2","-4","-4","0","0","0","1280.7","3000","-2305","[""left"",""up""]","{""num_key_presses"":0,""num_perfect"":0,""num_errors"":0,""num_randdir"":0,""num_randdir_good_moves"":0,""num_whilered"":0,""num_whileblue"":0,""num_blue"":0,""num_good_moves"":0}","[259.7857142857143,260.1919642857143,0.3,259.7857142857143,260.1919642857143,104.3,259.7857142857143,260.1919642857143,207.5,259.7857142857143,260.1919642857143,314.4,259.7857142857143,260.1919642857143,418.3,262.7857142857143,284.1919642857143,530.9,259.7857142857143,290.1919642857143,632,198.78571428571428,225.19196428571428,733.7,139.78571428571428,134.19196428571428,839.8,106.78571428571428,85.19196428571428,958.7,96.78571428571428,78.19196428571428,1062.4,65.78571428571428,57.191964285714285,1167.4,58.785714285714285,49.191964285714285,1277.3,58.785714285714285,49.191964285714285,1381.6,58.785714285714285,49.191964285714285,1489.5,58.785714285714285,49.191964285714285,1598.1,58.785714285714285,49.191964285714285,1701.9,58.785714285714285,49.191964285714285,1806.3,58.785714285714285,49.191964285714285,1912.1,58.785714285714285,49.191964285714285,2012.7,58.785714285714285,49.191964285714285,2118.3,58.785714285714285,49.191964285714285,2218.4,58.785714285714285,49.191964285714285,2318.4,58.785714285714285,49.191964285714285,2423.7,58.785714285714285,49.191964285714285,2528.3,58.785714285714285,49.191964285714285,2632.9,58.785714285714285,49.191964285714285,2733.6,57.785714285714285,49.191964285714285,2833.6,-0.2142857142857153,20.191964285714285,2943.3,-0.2142857142857153,20.191964285714285,3043.8,-0.2142857142857153,20.191964285714285,3148.5,-0.2142857142857153,20.191964285714285,3252.7,-0.2142857142857153,20.191964285714285,3358.7,-0.2142857142857153,20.191964285714285,3460.7,-0.2142857142857153,20.191964285714285,3563.5,-0.2142857142857153,20.191964285714285,3663.5,-0.2142857142857153,20.191964285714285,3768.6,-0.2142857142857153,20.191964285714285,3873.8,-0.2142857142857153,20.191964285714285,3983.5,-0.2142857142857153,20.191964285714285,4090.6,-0.2142857142857153,20.191964285714285,4201.6,-0.2142857142857153,20.191964285714285,4310.1,-0.2142857142857153,20.191964285714285,4413.5,-0.2142857142857153,20.191964285714285,4517.3,-0.2142857142857153,20.191964285714285,4617.9,-0.2142857142857153,20.191964285714285,4723.2,-0.2142857142857153,20.191964285714285,4828.4,-0.2142857142857153,20.191964285714285,4932.1]","[]","",""
"3468","","<div style=""width:500px;"">
  <p>What determined the result of this run?</p>
  </div>","86","html-slider-response","40","4509585","0.0-5.0-1.6","52","1","2025-07-16 08:21:17","1f75c3e559b7213887762d5229550c2b","216.120.189.41","Mozilla/5.0 (Windows NT 10.0; Win64; x64) AppleWebKit/537.36 (KHTML, like Gecko) Chrome/138.0.0.0 Safari/537.36","WebKit","Chrome","138.0.0.0","Windows","10.0","https://app.prolific.com/","en-US,en;q=0.9","6743c8da977b0d274dad1fc2","686e379bc37a29ffa5cdc956","68776006826754b038605f6a","1","1","6743c8da977b0d274dad1fc2","1","1","2025-07-16T09:38:10.552Z","","","","","","","","","","","AttribQ","","50","","","","","","","","","","","","","","","","","","","","","","","","","","","","",""
"5192","","<div style=""width:500px;"">
  <p>How much control did you have over the ball?</p>
  </div>","0","html-slider-response","41","4514778","0.0-5.0-2.6","52","1","2025-07-16 08:21:17","1f75c3e559b7213887762d5229550c2b","216.120.189.41","Mozilla/5.0 (Windows NT 10.0; Win64; x64) AppleWebKit/537.36 (KHTML, like Gecko) Chrome/138.0.0.0 Safari/537.36","WebKit","Chrome","138.0.0.0","Windows","10.0","https://app.prolific.com/","en-US,en;q=0.9","6743c8da977b0d274dad1fc2","686e379bc37a29ffa5cdc956","68776006826754b038605f6a","1","1","6743c8da977b0d274dad1fc2","1","1","2025-07-16T09:38:15.745Z","","","","","","","","","","","ControlQ","","50","","","","","","","","","","","","","","","","","","","","","","","","","","","","",""
"4606","","<div style=""width:500px;"">
  <p>How would you describe your current emotional state?</p>
  </div>","95","html-slider-response","42","4519386","0.0-5.0-3.6","52","1","2025-07-16 08:21:17","1f75c3e559b7213887762d5229550c2b","216.120.189.41","Mozilla/5.0 (Windows NT 10.0; Win64; x64) AppleWebKit/537.36 (KHTML, like Gecko) Chrome/138.0.0.0 Safari/537.36","WebKit","Chrome","138.0.0.0","Windows","10.0","https://app.prolific.com/","en-US,en;q=0.9","6743c8da977b0d274dad1fc2","686e379bc37a29ffa5cdc956","68776006826754b038605f6a","1","1","6743c8da977b0d274dad1fc2","1","1","2025-07-16T09:38:20.353Z","","","","","","","","","","","StressQ","","50","","","","","","","","","","","","","","","","","","","","","","","","","","","","",""
"6895","","<div style=""width:500px;"">
  <p>What best describes how you currently feel?</p>
  </div>","61","html-slider-response","43","4526281","0.0-5.0-4.6","52","1","2025-07-16 08:21:17","1f75c3e559b7213887762d5229550c2b","216.120.189.41","Mozilla/5.0 (Windows NT 10.0; Win64; x64) AppleWebKit/537.36 (KHTML, like Gecko) Chrome/138.0.0.0 Safari/537.36","WebKit","Chrome","138.0.0.0","Windows","10.0","https://app.prolific.com/","en-US,en;q=0.9","6743c8da977b0d274dad1fc2","686e379bc37a29ffa5cdc956","68776006826754b038605f6a","1","1","6743c8da977b0d274dad1fc2","1","1","2025-07-16T09:38:27.248Z","","","","","","","","","","","MotivationQ","","50","","","","","","","","","","","","","","","","","","","","","","","","","","","","",""
"","","","","ctl-task-cpt","44","4557836","0.0-5.0-0.7","52","1","2025-07-16 08:21:17","1f75c3e559b7213887762d5229550c2b","216.120.189.41","Mozilla/5.0 (Windows NT 10.0; Win64; x64) AppleWebKit/537.36 (KHTML, like Gecko) Chrome/138.0.0.0 Safari/537.36","WebKit","Chrome","138.0.0.0","Windows","10.0","https://app.prolific.com/","en-US,en;q=0.9","6743c8da977b0d274dad1fc2","686e379bc37a29ffa5cdc956","68776006826754b038605f6a","1","1","6743c8da977b0d274dad1fc2","1","1","2025-07-16T09:38:58.803Z","","","","","","","","","","","","","","win-only","2","g1:SE,g2:NW","0.3","8","0","4631516.8","1095.6","6096.5","28526.3","1","4","8","6","2","8","8","8","0","0.06060606060606061","1241.6","3000","450","[""left"",""up""]","{""num_key_presses"":8,""num_perfect"":2,""num_errors"":0,""num_randdir"":6,""num_randdir_good_moves"":5,""num_whilered"":0,""num_whileblue"":0,""num_blue"":0,""num_good_moves"":7}","[266.7857142857143,264.1919642857143,1.2,266.7857142857143,264.1919642857143,100.6,267.7857142857143,264.1919642857143,209.6,314.7857142857143,335.1919642857143,315.8,355.7857142857143,390.1919642857143,417,356.7857142857143,391.1919642857143,521.9,335.7857142857143,375.1919642857143,626.7,246.78571428571428,283.1919642857143,730.6,131.78571428571428,143.19196428571428,835.8,82.78571428571428,77.19196428571428,940.8,51.785714285714285,43.191964285714285,1045.3,42.785714285714285,39.191964285714285,1150.6,42.785714285714285,39.191964285714285,1251,42.785714285714285,39.191964285714285,1353.3,46.785714285714285,46.191964285714285,1454.7,216.78571428571428,154.19196428571428,1557.3,243.78571428571428,163.19196428571428,1660.7,244.78571428571428,156.19196428571428,1767.1,244.78571428571428,155.19196428571428,1868.6,244.78571428571428,155.19196428571428,1971.5,244.78571428571428,155.19196428571428,2080.7,244.78571428571428,155.19196428571428,2180.7,244.78571428571428,155.19196428571428,2281.6,244.78571428571428,155.19196428571428,2381.6,244.78571428571428,155.19196428571428,2485.1,244.78571428571428,155.19196428571428,2585.5,244.78571428571428,155.19196428571428,2690.6,244.78571428571428,155.19196428571428,2791.9,244.78571428571428,155.19196428571428,2892.1,244.78571428571428,155.19196428571428,3001.9,244.78571428571428,155.19196428571428,3104.8,244.78571428571428,155.19196428571428,3205.1,244.78571428571428,155.19196428571428,3316.5,244.78571428571428,155.19196428571428,3420.8,244.78571428571428,155.19196428571428,3521.3,244.78571428571428,155.19196428571428,3631.6,244.78571428571428,155.19196428571428,3732.6,244.78571428571428,155.19196428571428,3837.9,244.78571428571428,155.19196428571428,3938.3,244.78571428571428,155.19196428571428,4040,244.78571428571428,155.19196428571428,4141.2,244.78571428571428,155.19196428571428,4253.1,244.78571428571428,155.19196428571428,4356.5,244.78571428571428,155.19196428571428,4460.7,244.78571428571428,155.19196428571428,4562.6,244.78571428571428,155.19196428571428,4670.9,244.78571428571428,155.19196428571428,4772.3,244.78571428571428,155.19196428571428,4880.5,244.78571428571428,155.19196428571428,4985]","[1334.6,1334.6,1000,0,334.6,""oops"",""up"",""left"",""good_move"",4014.4,2678.9,2256,1335.5,422.9,""oops"",""up"",""left"",""good_move"",7764.5,3749.6,3337.8,4014.9,411.9,""smooth"",""up"",""up"",""good_move"",11144.3,3378.8,2958.1,7765.5,420.7,""oops"",""up"",""up"",""good_move"",14066,2920.4,2483.1,11145.6,437.3,""oops"",""up"",""left"",""good_move"",16162,2095.3,1675.6,14066.7,419.7,""oops"",""up"",""right"",""bad_move"",18805.7,2643.3,2241.4,16162.4,401.9,""oops"",""up"",""left"",""good_move"",22316,3510.1,3110.7,18805.9,399.4,""smooth"",""up"",""up"",""good_move""]","",""
"3332","","<div style=""width:500px;"">
  <p>What determined the result of this run?</p>
  </div>","100","html-slider-response","45","4561170","0.0-5.0-1.7","52","1","2025-07-16 08:21:17","1f75c3e559b7213887762d5229550c2b","216.120.189.41","Mozilla/5.0 (Windows NT 10.0; Win64; x64) AppleWebKit/537.36 (KHTML, like Gecko) Chrome/138.0.0.0 Safari/537.36","WebKit","Chrome","138.0.0.0","Windows","10.0","https://app.prolific.com/","en-US,en;q=0.9","6743c8da977b0d274dad1fc2","686e379bc37a29ffa5cdc956","68776006826754b038605f6a","1","1","6743c8da977b0d274dad1fc2","1","1","2025-07-16T09:39:02.137Z","","","","","","","","","","","AttribQ","","50","","","","","","","","","","","","","","","","","","","","","","","","","","","","",""
"2198","","<div style=""width:500px;"">
  <p>How much control did you have over the ball?</p>
  </div>","86","html-slider-response","46","4563369","0.0-5.0-2.7","52","1","2025-07-16 08:21:17","1f75c3e559b7213887762d5229550c2b","216.120.189.41","Mozilla/5.0 (Windows NT 10.0; Win64; x64) AppleWebKit/537.36 (KHTML, like Gecko) Chrome/138.0.0.0 Safari/537.36","WebKit","Chrome","138.0.0.0","Windows","10.0","https://app.prolific.com/","en-US,en;q=0.9","6743c8da977b0d274dad1fc2","686e379bc37a29ffa5cdc956","68776006826754b038605f6a","1","1","6743c8da977b0d274dad1fc2","1","1","2025-07-16T09:39:04.337Z","","","","","","","","","","","ControlQ","","50","","","","","","","","","","","","","","","","","","","","","","","","","","","","",""
"11679","","<div style=""width:500px;"">
  <p>How would you describe your current emotional state?</p>
  </div>","12","html-slider-response","47","4575049","0.0-5.0-3.7","52","1","2025-07-16 08:21:17","1f75c3e559b7213887762d5229550c2b","216.120.189.41","Mozilla/5.0 (Windows NT 10.0; Win64; x64) AppleWebKit/537.36 (KHTML, like Gecko) Chrome/138.0.0.0 Safari/537.36","WebKit","Chrome","138.0.0.0","Windows","10.0","https://app.prolific.com/","en-US,en;q=0.9","6743c8da977b0d274dad1fc2","686e379bc37a29ffa5cdc956","68776006826754b038605f6a","1","1","6743c8da977b0d274dad1fc2","1","1","2025-07-16T09:39:16.016Z","","","","","","","","","","","StressQ","","50","","","","","","","","","","","","","","","","","","","","","","","","","","","","",""
"3304","","<div style=""width:500px;"">
  <p>What best describes how you currently feel?</p>
  </div>","96","html-slider-response","48","4578355","0.0-5.0-4.7","52","1","2025-07-16 08:21:17","1f75c3e559b7213887762d5229550c2b","216.120.189.41","Mozilla/5.0 (Windows NT 10.0; Win64; x64) AppleWebKit/537.36 (KHTML, like Gecko) Chrome/138.0.0.0 Safari/537.36","WebKit","Chrome","138.0.0.0","Windows","10.0","https://app.prolific.com/","en-US,en;q=0.9","6743c8da977b0d274dad1fc2","686e379bc37a29ffa5cdc956","68776006826754b038605f6a","1","1","6743c8da977b0d274dad1fc2","1","1","2025-07-16T09:39:19.322Z","","","","","","","","","","","MotivationQ","","50","","","","","","","","","","","","","","","","","","","","","","","","","","","","",""
"","","","","ctl-task-cpt","49","4617259","0.0-5.0-0.8","52","1","2025-07-16 08:21:17","1f75c3e559b7213887762d5229550c2b","216.120.189.41","Mozilla/5.0 (Windows NT 10.0; Win64; x64) AppleWebKit/537.36 (KHTML, like Gecko) Chrome/138.0.0.0 Safari/537.36","WebKit","Chrome","138.0.0.0","Windows","10.0","https://app.prolific.com/","en-US,en;q=0.9","6743c8da977b0d274dad1fc2","686e379bc37a29ffa5cdc956","68776006826754b038605f6a","1","1","6743c8da977b0d274dad1fc2","1","1","2025-07-16T09:39:58.226Z","","","","","","","","","","","","","","win-only","1","g1:NE,g2:SW","0.2","9","0","4683591.6","1492.6","6496.7","35882.3","1","4","4","6","2","-4","-4","4","8","0.030303030303030304","1064.1","3000","-2435","[""down"",""left""]","{""num_key_presses"":6,""num_perfect"":2,""num_errors"":0,""num_randdir"":4,""num_randdir_good_moves"":0,""num_whilered"":0,""num_whileblue"":0,""num_blue"":3,""num_good_moves"":2}","[259.7857142857143,260.1919642857143,0.4,259.7857142857143,260.1919642857143,113.4,261.7857142857143,261.1919642857143,214.7,275.7857142857143,283.1919642857143,318.4,291.7857142857143,303.1919642857143,426.2,291.7857142857143,303.1919642857143,528.4,250.78571428571428,306.1919642857143,628.7,148.78571428571428,420.1919642857143,731,106.78571428571428,465.1919642857143,831.7,66.78571428571428,485.1919642857143,933,58.785714285714285,488.1919642857143,1039.1,58.785714285714285,488.1919642857143,1139.7,58.785714285714285,486.1919642857143,1244.5,70.78571428571428,454.1919642857143,1351.6,198.78571428571428,375.1919642857143,1455.3,229.78571428571428,348.1919642857143,1563.7,229.78571428571428,347.1919642857143,1663.7,229.78571428571428,347.1919642857143,1764.4,229.78571428571428,346.1919642857143,1873.9,229.78571428571428,346.1919642857143,1979.6,229.78571428571428,346.1919642857143,2079.8,229.78571428571428,346.1919642857143,2180.6,229.78571428571428,346.1919642857143,2282.9,229.78571428571428,346.1919642857143,2384.3,229.78571428571428,346.1919642857143,2495.1,229.78571428571428,346.1919642857143,2600.3,229.78571428571428,346.1919642857143,2701.6,229.78571428571428,346.1919642857143,2809.5,229.78571428571428,346.1919642857143,2913.2,229.78571428571428,346.1919642857143,3014.5,229.78571428571428,346.1919642857143,3121.9,229.78571428571428,346.1919642857143,3249.8,229.78571428571428,346.1919642857143,3359.9,229.78571428571428,346.1919642857143,3462.8,229.78571428571428,346.1919642857143,3563.2,229.78571428571428,346.1919642857143,3668.7,229.78571428571428,346.1919642857143,3779.8,229.78571428571428,346.1919642857143,3883.9,229.78571428571428,346.1919642857143,3984.2,229.78571428571428,346.1919642857143,4084.8,229.78571428571428,346.1919642857143,4192.9,229.78571428571428,346.1919642857143,4294.8,229.78571428571428,346.1919642857143,4395.7,229.78571428571428,346.1919642857143,4499.8,229.78571428571428,346.1919642857143,4602.9,229.78571428571428,346.1919642857143,4702.9,229.78571428571428,346.1919642857143,4814.2,229.78571428571428,346.1919642857143,4920.6]","[4965.9,4965.9,2419.3,2024.9,521.7,""smooth"",""down"",""down"",""good_move"",11535.8,6568.7,3089.3,8001.2,445.4,""oops"",""down"",""up"",""bad_move"",15478.7,3941.8,3282.2,11536.9,659.6,""oops"",""down"",""right"",""bad_move"",18520,3040.4,2568.2,15479.6,472.2,""smooth"",""down"",""down"",""good_move"",20855.8,2335.4,1961.8,18520.4,373.6,""oops"",""down"",""right"",""bad_move"",22956.1,2099.7,1673.1,20856.4,426.6,""oops"",""down"",""up"",""bad_move""]","",""
"6214","","<div style=""width:500px;"">
  <p>What determined the result of this run?</p>
  </div>","76","html-slider-response","50","4623474","0.0-5.0-1.8","52","1","2025-07-16 08:21:17","1f75c3e559b7213887762d5229550c2b","216.120.189.41","Mozilla/5.0 (Windows NT 10.0; Win64; x64) AppleWebKit/537.36 (KHTML, like Gecko) Chrome/138.0.0.0 Safari/537.36","WebKit","Chrome","138.0.0.0","Windows","10.0","https://app.prolific.com/","en-US,en;q=0.9","6743c8da977b0d274dad1fc2","686e379bc37a29ffa5cdc956","68776006826754b038605f6a","1","1","6743c8da977b0d274dad1fc2","1","1","2025-07-16T09:40:04.441Z","","","","","","","","","","","AttribQ","","50","","","","","","","","","","","","","","","","","","","","","","","","","","","","",""
"3367","","<div style=""width:500px;"">
  <p>How much control did you have over the ball?</p>
  </div>","64","html-slider-response","51","4626843","0.0-5.0-2.8","52","1","2025-07-16 08:21:17","1f75c3e559b7213887762d5229550c2b","216.120.189.41","Mozilla/5.0 (Windows NT 10.0; Win64; x64) AppleWebKit/537.36 (KHTML, like Gecko) Chrome/138.0.0.0 Safari/537.36","WebKit","Chrome","138.0.0.0","Windows","10.0","https://app.prolific.com/","en-US,en;q=0.9","6743c8da977b0d274dad1fc2","686e379bc37a29ffa5cdc956","68776006826754b038605f6a","1","1","6743c8da977b0d274dad1fc2","1","1","2025-07-16T09:40:07.810Z","","","","","","","","","","","ControlQ","","50","","","","","","","","","","","","","","","","","","","","","","","","","","","","",""
"81429","","<div style=""width:500px;"">
  <p>How would you describe your current emotional state?</p>
  </div>","10","html-slider-response","52","4708274","0.0-5.0-3.8","52","1","2025-07-16 08:21:17","1f75c3e559b7213887762d5229550c2b","216.120.189.41","Mozilla/5.0 (Windows NT 10.0; Win64; x64) AppleWebKit/537.36 (KHTML, like Gecko) Chrome/138.0.0.0 Safari/537.36","WebKit","Chrome","138.0.0.0","Windows","10.0","https://app.prolific.com/","en-US,en;q=0.9","6743c8da977b0d274dad1fc2","686e379bc37a29ffa5cdc956","68776006826754b038605f6a","1","1","6743c8da977b0d274dad1fc2","1","1","2025-07-16T09:41:29.242Z","","","","","","","","","","","StressQ","","50","","","","","","","","","","","","","","","","","","","","","","","","","","","","",""
"4148","","<div style=""width:500px;"">
  <p>What best describes how you currently feel?</p>
  </div>","100","html-slider-response","53","4712425","0.0-5.0-4.8","52","1","2025-07-16 08:21:17","1f75c3e559b7213887762d5229550c2b","216.120.189.41","Mozilla/5.0 (Windows NT 10.0; Win64; x64) AppleWebKit/537.36 (KHTML, like Gecko) Chrome/138.0.0.0 Safari/537.36","WebKit","Chrome","138.0.0.0","Windows","10.0","https://app.prolific.com/","en-US,en;q=0.9","6743c8da977b0d274dad1fc2","686e379bc37a29ffa5cdc956","68776006826754b038605f6a","1","1","6743c8da977b0d274dad1fc2","1","1","2025-07-16T09:41:33.392Z","","","","","","","","","","","MotivationQ","","50","","","","","","","","","","","","","","","","","","","","","","","","","","","","",""
"","","","","ctl-task-cpt","54","4742622","0.0-5.0-0.9","52","1","2025-07-16 08:21:17","1f75c3e559b7213887762d5229550c2b","216.120.189.41","Mozilla/5.0 (Windows NT 10.0; Win64; x64) AppleWebKit/537.36 (KHTML, like Gecko) Chrome/138.0.0.0 Safari/537.36","WebKit","Chrome","138.0.0.0","Windows","10.0","https://app.prolific.com/","en-US,en;q=0.9","6743c8da977b0d274dad1fc2","686e379bc37a29ffa5cdc956","68776006826754b038605f6a","1","1","6743c8da977b0d274dad1fc2","1","1","2025-07-16T09:42:03.590Z","","","","","","","","","","","","","","win-only","2","g1:SE,g2:NW","0.4","10","0","4817661.1","2031","7032.4","27177.7","1","4","8","6","2","-8","-8","0","4","0","1176.1","3000","-2345","[""left"",""up""]","{""num_key_presses"":5,""num_perfect"":1,""num_errors"":0,""num_randdir"":4,""num_randdir_good_moves"":1,""num_whilered"":0,""num_whileblue"":0,""num_blue"":1,""num_good_moves"":2}","[256.7857142857143,258.1919642857143,0.2,256.7857142857143,258.1919642857143,105.9,256.7857142857143,258.1919642857143,211.7,260.7857142857143,267.1919642857143,314.1,313.7857142857143,344.1919642857143,420.6,316.7857142857143,347.1919642857143,527.8,316.7857142857143,347.1919642857143,632.1,138.78571428571428,134.19196428571428,737.3,74.78571428571428,59.191964285714285,839.9,74.78571428571428,59.191964285714285,940.7,74.78571428571428,59.191964285714285,1048.8,73.78571428571428,59.191964285714285,1150.2,73.78571428571428,59.191964285714285,1254.9,73.78571428571428,59.191964285714285,1361.3,73.78571428571428,59.191964285714285,1465.1,86.78571428571428,88.19196428571428,1565.4,145.78571428571428,153.19196428571428,1668.9,199.78571428571428,203.19196428571428,1769.5,236.78571428571428,244.19196428571428,1870,236.78571428571428,244.19196428571428,1970,237.78571428571428,244.19196428571428,2070.2,237.78571428571428,244.19196428571428,2175.1,237.78571428571428,244.19196428571428,2282,239.78571428571428,244.19196428571428,2383.5,260.7857142857143,254.19196428571428,2487,261.7857142857143,254.19196428571428,2591.3,261.7857142857143,254.19196428571428,2694.2,261.7857142857143,254.19196428571428,2803.7,261.7857142857143,254.19196428571428,2905.7,261.7857142857143,254.19196428571428,3012.5,261.7857142857143,254.19196428571428,3117.6,261.7857142857143,253.19196428571428,3220.5,261.7857142857143,253.19196428571428,3331.4,260.7857142857143,253.19196428571428,3436.1,260.7857142857143,253.19196428571428,3539.8,259.7857142857143,253.19196428571428,3640.7,259.7857142857143,253.19196428571428,3743.7,259.7857142857143,253.19196428571428,3846.7,259.7857142857143,253.19196428571428,3949.4,259.7857142857143,253.19196428571428,4050.7,259.7857142857143,253.19196428571428,4151.4,259.7857142857143,253.19196428571428,4252.1,259.7857142857143,253.19196428571428,4352.4,259.7857142857143,252.19196428571428,4454.8,259.7857142857143,252.19196428571428,4560.9,268.7857142857143,283.1919642857143,4663.1,261.7857142857143,345.1919642857143,4764.9,260.7857142857143,347.1919642857143,4869.4,251.78571428571428,341.1919642857143,4976.2]","[4651,4651,2206.7,2011.5,432.8,""smooth"",""up"",""up"",""good_move"",7813.7,3161.6,2724.9,4652.1,436.7,""oops"",""up"",""left"",""good_move"",10772.9,2958.8,2421.3,7814.1,537.5,""oops"",""up"",""right"",""bad_move"",13650.9,2877,2435.3,10773.9,441.7,""oops"",""left"",""down"",""bad_move"",16722.6,3069.7,2500,13652.9,569.7,""oops"",""left"",""down"",""bad_move""]","",""
"6299","","<div style=""width:500px;"">
  <p>What determined the result of this run?</p>
  </div>","61","html-slider-response","55","4748923","0.0-5.0-1.9","52","1","2025-07-16 08:21:17","1f75c3e559b7213887762d5229550c2b","216.120.189.41","Mozilla/5.0 (Windows NT 10.0; Win64; x64) AppleWebKit/537.36 (KHTML, like Gecko) Chrome/138.0.0.0 Safari/537.36","WebKit","Chrome","138.0.0.0","Windows","10.0","https://app.prolific.com/","en-US,en;q=0.9","6743c8da977b0d274dad1fc2","686e379bc37a29ffa5cdc956","68776006826754b038605f6a","1","1","6743c8da977b0d274dad1fc2","1","1","2025-07-16T09:42:09.890Z","","","","","","","","","","","AttribQ","","50","","","","","","","","","","","","","","","","","","","","","","","","","","","","",""
"3198","","<div style=""width:500px;"">
  <p>How much control did you have over the ball?</p>
  </div>","29","html-slider-response","56","4752122","0.0-5.0-2.9","52","1","2025-07-16 08:21:17","1f75c3e559b7213887762d5229550c2b","216.120.189.41","Mozilla/5.0 (Windows NT 10.0; Win64; x64) AppleWebKit/537.36 (KHTML, like Gecko) Chrome/138.0.0.0 Safari/537.36","WebKit","Chrome","138.0.0.0","Windows","10.0","https://app.prolific.com/","en-US,en;q=0.9","6743c8da977b0d274dad1fc2","686e379bc37a29ffa5cdc956","68776006826754b038605f6a","1","1","6743c8da977b0d274dad1fc2","1","1","2025-07-16T09:42:13.090Z","","","","","","","","","","","ControlQ","","50","","","","","","","","","","","","","","","","","","","","","","","","","","","","",""
"4830","","<div style=""width:500px;"">
  <p>How would you describe your current emotional state?</p>
  </div>","59","html-slider-response","57","4756954","0.0-5.0-3.9","52","1","2025-07-16 08:21:17","1f75c3e559b7213887762d5229550c2b","216.120.189.41","Mozilla/5.0 (Windows NT 10.0; Win64; x64) AppleWebKit/537.36 (KHTML, like Gecko) Chrome/138.0.0.0 Safari/537.36","WebKit","Chrome","138.0.0.0","Windows","10.0","https://app.prolific.com/","en-US,en;q=0.9","6743c8da977b0d274dad1fc2","686e379bc37a29ffa5cdc956","68776006826754b038605f6a","1","1","6743c8da977b0d274dad1fc2","1","1","2025-07-16T09:42:17.921Z","","","","","","","","","","","StressQ","","50","","","","","","","","","","","","","","","","","","","","","","","","","","","","",""
"25654","","<div style=""width:500px;"">
  <p>What best describes how you currently feel?</p>
  </div>","96","html-slider-response","58","4782610","0.0-5.0-4.9","52","1","2025-07-16 08:21:17","1f75c3e559b7213887762d5229550c2b","216.120.189.41","Mozilla/5.0 (Windows NT 10.0; Win64; x64) AppleWebKit/537.36 (KHTML, like Gecko) Chrome/138.0.0.0 Safari/537.36","WebKit","Chrome","138.0.0.0","Windows","10.0","https://app.prolific.com/","en-US,en;q=0.9","6743c8da977b0d274dad1fc2","686e379bc37a29ffa5cdc956","68776006826754b038605f6a","1","1","6743c8da977b0d274dad1fc2","1","1","2025-07-16T09:42:43.577Z","","","","","","","","","","","MotivationQ","","50","","","","","","","","","","","","","","","","","","","","","","","","","","","","",""
"","","","","ctl-task-cpt","59","4817378","0.0-5.0-0.10","52","1","2025-07-16 08:21:17","1f75c3e559b7213887762d5229550c2b","216.120.189.41","Mozilla/5.0 (Windows NT 10.0; Win64; x64) AppleWebKit/537.36 (KHTML, like Gecko) Chrome/138.0.0.0 Safari/537.36","WebKit","Chrome","138.0.0.0","Windows","10.0","https://app.prolific.com/","en-US,en;q=0.9","6743c8da977b0d274dad1fc2","686e379bc37a29ffa5cdc956","68776006826754b038605f6a","1","1","6743c8da977b0d274dad1fc2","1","1","2025-07-16T09:43:18.346Z","","","","","","","","","","","","","","win-only","3","g1:SW,g2:NE","0.5","11","0","4887845.8","1262.3","6274.8","31744.2","1","4","4","6","2","4","4","4","0","0.030303030303030304","1304.7","3000","370","[""up"",""right""]","{""num_key_presses"":6,""num_perfect"":5,""num_errors"":0,""num_randdir"":1,""num_randdir_good_moves"":1,""num_whilered"":0,""num_whileblue"":0,""num_blue"":2,""num_good_moves"":6}","[258.7857142857143,264.1919642857143,0.3,258.7857142857143,264.1919642857143,100,258.7857142857143,264.1919642857143,208.7,258.7857142857143,264.1919642857143,313.6,258.7857142857143,264.1919642857143,417.2,258.7857142857143,264.1919642857143,518.2,250.78571428571428,266.1919642857143,621.1,252.78571428571428,263.1919642857143,724.5,352.7857142857143,176.19196428571428,827.4,419.7857142857143,122.19196428571428,930,452.7857142857143,94.19196428571428,1034.5,473.7857142857143,72.19196428571428,1135.2,474.7857142857143,71.19196428571428,1236.4,474.7857142857143,71.19196428571428,1338,474.7857142857143,71.19196428571428,1449.5,474.7857142857143,71.19196428571428,1554,474.7857142857143,71.19196428571428,1655.9,474.7857142857143,71.19196428571428,1760.7,474.7857142857143,71.19196428571428,1863.7,474.7857142857143,71.19196428571428,1965.8,474.7857142857143,71.19196428571428,2072.5,474.7857142857143,71.19196428571428,2179.7,446.7857142857143,112.19196428571428,2281.4,326.7857142857143,202.19196428571428,2385,262.7857142857143,247.19196428571428,2487.2,237.78571428571428,267.1919642857143,2589.7,237.78571428571428,267.1919642857143,2696.6,236.78571428571428,267.1919642857143,2800,236.78571428571428,267.1919642857143,2903.7,236.78571428571428,267.1919642857143,3006,236.78571428571428,267.1919642857143,3120.5,236.78571428571428,267.1919642857143,3225.2,236.78571428571428,267.1919642857143,3327.4,236.78571428571428,266.1919642857143,3429.7,236.78571428571428,266.1919642857143,3531.3,236.78571428571428,266.1919642857143,3633.7,236.78571428571428,266.1919642857143,3733.9,236.78571428571428,266.1919642857143,3835.1,236.78571428571428,264.1919642857143,3940.3,236.78571428571428,264.1919642857143,4040.9,236.78571428571428,264.1919642857143,4141,236.78571428571428,264.1919642857143,4241,236.78571428571428,264.1919642857143,4345.5,236.78571428571428,263.1919642857143,4447.1,236.78571428571428,262.1919642857143,4549.3,236.78571428571428,262.1919642857143,4650.8,237.78571428571428,260.1919642857143,4754.4,237.78571428571428,258.1919642857143,4859.7,237.78571428571428,258.1919642857143,4962.9]","[1884.9,1884.9,1000,0,884.9,""smooth"",""up"",""up"",""good_move"",5073.2,3187.4,2780.1,1885.8,407.3,""smooth"",""up"",""up"",""good_move"",11457.6,6382.9,2595.6,8413.7,448.3,""smooth"",""right"",""right"",""good_move"",14476.8,3018.5,1990,11458.3,1028.5,""smooth"",""right"",""right"",""good_move"",18195.8,3718.6,3314.4,14477.2,404.2,""smooth"",""right"",""right"",""good_move"",25347,7150,3023.3,21885.8,437.9,""oops"",""up"",""up"",""good_move""]","",""
"44805","","<div style=""width:500px;"">
  <p>What determined the result of this run?</p>
  </div>","95","html-slider-response","60","4862186","0.0-5.0-1.10","52","1","2025-07-16 08:21:17","1f75c3e559b7213887762d5229550c2b","216.120.189.41","Mozilla/5.0 (Windows NT 10.0; Win64; x64) AppleWebKit/537.36 (KHTML, like Gecko) Chrome/138.0.0.0 Safari/537.36","WebKit","Chrome","138.0.0.0","Windows","10.0","https://app.prolific.com/","en-US,en;q=0.9","6743c8da977b0d274dad1fc2","686e379bc37a29ffa5cdc956","68776006826754b038605f6a","1","1","6743c8da977b0d274dad1fc2","1","1","2025-07-16T09:44:03.153Z","","","","","","","","","","","AttribQ","","50","","","","","","","","","","","","","","","","","","","","","","","","","","","","",""
"12904","","<div style=""width:500px;"">
  <p>How much control did you have over the ball?</p>
  </div>","81","html-slider-response","61","4875091","0.0-5.0-2.10","52","1","2025-07-16 08:21:17","1f75c3e559b7213887762d5229550c2b","216.120.189.41","Mozilla/5.0 (Windows NT 10.0; Win64; x64) AppleWebKit/537.36 (KHTML, like Gecko) Chrome/138.0.0.0 Safari/537.36","WebKit","Chrome","138.0.0.0","Windows","10.0","https://app.prolific.com/","en-US,en;q=0.9","6743c8da977b0d274dad1fc2","686e379bc37a29ffa5cdc956","68776006826754b038605f6a","1","1","6743c8da977b0d274dad1fc2","1","1","2025-07-16T09:44:16.058Z","","","","","","","","","","","ControlQ","","50","","","","","","","","","","","","","","","","","","","","","","","","","","","","",""
"9989","","<div style=""width:500px;"">
  <p>How would you describe your current emotional state?</p>
  </div>","32","html-slider-response","62","4885082","0.0-5.0-3.10","52","1","2025-07-16 08:21:17","1f75c3e559b7213887762d5229550c2b","216.120.189.41","Mozilla/5.0 (Windows NT 10.0; Win64; x64) AppleWebKit/537.36 (KHTML, like Gecko) Chrome/138.0.0.0 Safari/537.36","WebKit","Chrome","138.0.0.0","Windows","10.0","https://app.prolific.com/","en-US,en;q=0.9","6743c8da977b0d274dad1fc2","686e379bc37a29ffa5cdc956","68776006826754b038605f6a","1","1","6743c8da977b0d274dad1fc2","1","1","2025-07-16T09:44:26.049Z","","","","","","","","","","","StressQ","","50","","","","","","","","","","","","","","","","","","","","","","","","","","","","",""
"47582","","<div style=""width:500px;"">
  <p>What best describes how you currently feel?</p>
  </div>","86","html-slider-response","63","4932666","0.0-5.0-4.10","52","1","2025-07-16 08:21:17","1f75c3e559b7213887762d5229550c2b","216.120.189.41","Mozilla/5.0 (Windows NT 10.0; Win64; x64) AppleWebKit/537.36 (KHTML, like Gecko) Chrome/138.0.0.0 Safari/537.36","WebKit","Chrome","138.0.0.0","Windows","10.0","https://app.prolific.com/","en-US,en;q=0.9","6743c8da977b0d274dad1fc2","686e379bc37a29ffa5cdc956","68776006826754b038605f6a","1","1","6743c8da977b0d274dad1fc2","1","1","2025-07-16T09:45:13.634Z","","","","","","","","","","","MotivationQ","","50","","","","","","","","","","","","","","","","","","","","","","","","","","","","",""
"","","","","ctl-task-cpt","64","4978447","0.0-5.0-0.11","52","1","2025-07-16 08:21:17","1f75c3e559b7213887762d5229550c2b","216.120.189.41","Mozilla/5.0 (Windows NT 10.0; Win64; x64) AppleWebKit/537.36 (KHTML, like Gecko) Chrome/138.0.0.0 Safari/537.36","WebKit","Chrome","138.0.0.0","Windows","10.0","https://app.prolific.com/","en-US,en;q=0.9","6743c8da977b0d274dad1fc2","686e379bc37a29ffa5cdc956","68776006826754b038605f6a","1","1","6743c8da977b0d274dad1fc2","1","1","2025-07-16T09:45:59.414Z","","","","","","","","","","","","","","win-only","0","g1:NW,g2:SE","0.6","12","0","5037903.6","2196.7","7210.7","42758.5","1","4","8","6","2","-8","-9","0","4","0","1455.9","3000","-2070","[""down"",""right""]","{""num_key_presses"":10,""num_perfect"":5,""num_errors"":1,""num_randdir"":4,""num_randdir_good_moves"":2,""num_whilered"":0,""num_whileblue"":0,""num_blue"":1,""num_good_moves"":7}","[257.7857142857143,259.1919642857143,0.6,257.7857142857143,259.1919642857143,101,257.7857142857143,259.1919642857143,208.4,257.7857142857143,259.1919642857143,310.7,257.7857142857143,262.1919642857143,411.9,257.7857142857143,307.1919642857143,518.6,311.7857142857143,389.1919642857143,619,362.7857142857143,432.1919642857143,720.9,433.7857142857143,470.1919642857143,824,501.7857142857143,487.1919642857143,929.9,510.7857142857143,488.1919642857143,1034.3,510.7857142857143,488.1919642857143,1142.9,510.7857142857143,487.1919642857143,1244.3,498.7857142857143,478.1919642857143,1359.7,496.7857142857143,477.1919642857143,1466.4,496.7857142857143,477.1919642857143,1567.3,491.7857142857143,474.1919642857143,1672.9,483.7857142857143,449.1919642857143,1775.1,483.7857142857143,449.1919642857143,1882.3,483.7857142857143,449.1919642857143,1984.8,483.7857142857143,449.1919642857143,2088.4,483.7857142857143,449.1919642857143,2193.9,483.7857142857143,449.1919642857143,2296.7,483.7857142857143,449.1919642857143,2401,483.7857142857143,449.1919642857143,2501.5,483.7857142857143,449.1919642857143,2605.6,483.7857142857143,449.1919642857143,2706.9,483.7857142857143,449.1919642857143,2810.9,483.7857142857143,449.1919642857143,2916.4,483.7857142857143,449.1919642857143,3028.4,483.7857142857143,449.1919642857143,3133.9,483.7857142857143,449.1919642857143,3235.2,483.7857142857143,449.1919642857143,3338.2,483.7857142857143,449.1919642857143,3441.2,483.7857142857143,449.1919642857143,3541.6,483.7857142857143,449.1919642857143,3647,483.7857142857143,449.1919642857143,3749.5,483.7857142857143,449.1919642857143,3857.7,483.7857142857143,449.1919642857143,3963,483.7857142857143,449.1919642857143,4063.6,483.7857142857143,449.1919642857143,4164.4,483.7857142857143,449.1919642857143,4268.5,483.7857142857143,449.1919642857143,4370.2,483.7857142857143,449.1919642857143,4480.5,483.7857142857143,449.1919642857143,4585.4,483.7857142857143,449.1919642857143,4696.8,483.7857142857143,449.1919642857143,4801.8,483.7857142857143,449.1919642857143,4908.9]","[417.9,417.9,1000,0,-582.1,""error"",""-"",""-"",""no_move"",4602.9,4184.3,2615.9,1424.1,562.9,""smooth"",""down"",""down"",""good_move"",7297,2693.2,2182.2,4603.9,510.9,""smooth"",""down"",""down"",""good_move"",10178,2880.7,2480.6,7297.3,400.1,""oops"",""right"",""right"",""good_move"",13195.9,3017,2600,10178.9,417,""oops"",""right"",""up"",""bad_move"",16644,3446.8,2982.9,13197.2,463.9,""smooth"",""right"",""right"",""good_move"",19444.1,2799.3,2356.6,16644.8,442.7,""oops"",""right"",""up"",""bad_move"",22716.4,3271.5,2803.6,19444.9,467.9,""smooth"",""right"",""right"",""good_move"",30678.5,7961.8,3234.6,26988.8,455.1,""smooth"",""down"",""down"",""good_move"",33323.9,2645,2164.5,30679,480.5,""oops"",""down"",""down"",""good_move""]","",""
"5586","","<div style=""width:500px;"">
  <p>What determined the result of this run?</p>
  </div>","83","html-slider-response","65","4984034","0.0-5.0-1.11","52","1","2025-07-16 08:21:17","1f75c3e559b7213887762d5229550c2b","216.120.189.41","Mozilla/5.0 (Windows NT 10.0; Win64; x64) AppleWebKit/537.36 (KHTML, like Gecko) Chrome/138.0.0.0 Safari/537.36","WebKit","Chrome","138.0.0.0","Windows","10.0","https://app.prolific.com/","en-US,en;q=0.9","6743c8da977b0d274dad1fc2","686e379bc37a29ffa5cdc956","68776006826754b038605f6a","1","1","6743c8da977b0d274dad1fc2","1","1","2025-07-16T09:46:05.002Z","","","","","","","","","","","AttribQ","","50","","","","","","","","","","","","","","","","","","","","","","","","","","","","",""
"2205","","<div style=""width:500px;"">
  <p>How much control did you have over the ball?</p>
  </div>","78","html-slider-response","66","4986242","0.0-5.0-2.11","52","1","2025-07-16 08:21:17","1f75c3e559b7213887762d5229550c2b","216.120.189.41","Mozilla/5.0 (Windows NT 10.0; Win64; x64) AppleWebKit/537.36 (KHTML, like Gecko) Chrome/138.0.0.0 Safari/537.36","WebKit","Chrome","138.0.0.0","Windows","10.0","https://app.prolific.com/","en-US,en;q=0.9","6743c8da977b0d274dad1fc2","686e379bc37a29ffa5cdc956","68776006826754b038605f6a","1","1","6743c8da977b0d274dad1fc2","1","1","2025-07-16T09:46:07.210Z","","","","","","","","","","","ControlQ","","50","","","","","","","","","","","","","","","","","","","","","","","","","","","","",""
"5013","","<div style=""width:500px;"">
  <p>How would you describe your current emotional state?</p>
  </div>","12","html-slider-response","67","4991258","0.0-5.0-3.11","52","1","2025-07-16 08:21:17","1f75c3e559b7213887762d5229550c2b","216.120.189.41","Mozilla/5.0 (Windows NT 10.0; Win64; x64) AppleWebKit/537.36 (KHTML, like Gecko) Chrome/138.0.0.0 Safari/537.36","WebKit","Chrome","138.0.0.0","Windows","10.0","https://app.prolific.com/","en-US,en;q=0.9","6743c8da977b0d274dad1fc2","686e379bc37a29ffa5cdc956","68776006826754b038605f6a","1","1","6743c8da977b0d274dad1fc2","1","1","2025-07-16T09:46:12.225Z","","","","","","","","","","","StressQ","","50","","","","","","","","","","","","","","","","","","","","","","","","","","","","",""
"8359","","<div style=""width:500px;"">
  <p>What best describes how you currently feel?</p>
  </div>","87","html-slider-response","68","4999619","0.0-5.0-4.11","52","1","2025-07-16 08:21:17","1f75c3e559b7213887762d5229550c2b","216.120.189.41","Mozilla/5.0 (Windows NT 10.0; Win64; x64) AppleWebKit/537.36 (KHTML, like Gecko) Chrome/138.0.0.0 Safari/537.36","WebKit","Chrome","138.0.0.0","Windows","10.0","https://app.prolific.com/","en-US,en;q=0.9","6743c8da977b0d274dad1fc2","686e379bc37a29ffa5cdc956","68776006826754b038605f6a","1","1","6743c8da977b0d274dad1fc2","1","1","2025-07-16T09:46:20.586Z","","","","","","","","","","","MotivationQ","","50","","","","","","","","","","","","","","","","","","","","","","","","","","","","",""
"","","","","ctl-task-cpt","69","5044691","0.0-5.0-0.12","52","1","2025-07-16 08:21:17","1f75c3e559b7213887762d5229550c2b","216.120.189.41","Mozilla/5.0 (Windows NT 10.0; Win64; x64) AppleWebKit/537.36 (KHTML, like Gecko) Chrome/138.0.0.0 Safari/537.36","WebKit","Chrome","138.0.0.0","Windows","10.0","https://app.prolific.com/","en-US,en;q=0.9","6743c8da977b0d274dad1fc2","686e379bc37a29ffa5cdc956","68776006826754b038605f6a","1","1","6743c8da977b0d274dad1fc2","1","1","2025-07-16T09:47:05.658Z","","","","","","","","","","","","","","win-only","3","g1:SW,g2:NE","0.7","13","0","5104858.2","2883.6","7891.9","42029.4","1","4","4","6","2","4","4","4","0","0.030303030303030304","1478.1","3000","2115","[""up"",""right""]","{""num_key_presses"":8,""num_perfect"":5,""num_errors"":0,""num_randdir"":3,""num_randdir_good_moves"":2,""num_whilered"":0,""num_whileblue"":0,""num_blue"":0,""num_good_moves"":7}","[262.7857142857143,260.1919642857143,0.2,262.7857142857143,260.1919642857143,113.9,262.7857142857143,260.1919642857143,225.4,262.7857142857143,260.1919642857143,340.1,262.7857142857143,260.1919642857143,465.1,261.7857142857143,260.1919642857143,583.9,269.7857142857143,248.19196428571428,695.8,504.7857142857143,11.191964285714285,817,536.7857142857143,-13.808035714285715,931.8,536.7857142857143,-12.808035714285715,1045.1,477.7857142857143,58.191964285714285,1163.9,475.7857142857143,61.191964285714285,1279.1,475.7857142857143,57.191964285714285,1394.8,475.7857142857143,57.191964285714285,1510,475.7857142857143,57.191964285714285,1622.8,475.7857142857143,57.191964285714285,1738,475.7857142857143,57.191964285714285,1855.6,475.7857142857143,57.191964285714285,1967.3,475.7857142857143,62.191964285714285,2083.2,462.7857142857143,134.19196428571428,2204.5,459.7857142857143,171.19196428571428,2327.2,459.7857142857143,189.19196428571428,2445.4,445.7857142857143,289.1919642857143,2565.3,430.7857142857143,320.1919642857143,2682.3,429.7857142857143,320.1919642857143,2797.8,423.7857142857143,315.1919642857143,2917.2,420.7857142857143,271.1919642857143,3035,436.7857142857143,211.19196428571428,3158.8,450.7857142857143,154.19196428571428,3282.4,454.7857142857143,126.19196428571428,3402.4,459.7857142857143,87.19196428571428,3523.1,462.7857142857143,73.19196428571428,3640.6,462.7857142857143,73.19196428571428,3756.9,462.7857142857143,73.19196428571428,3876.8,462.7857142857143,73.19196428571428,3989.5,462.7857142857143,73.19196428571428,4106.3,463.7857142857143,71.19196428571428,4220.8,468.7857142857143,60.191964285714285,4342.4,472.7857142857143,52.191964285714285,4457.2,473.7857142857143,51.191964285714285,4574.3,473.7857142857143,51.191964285714285,4688,473.7857142857143,51.191964285714285,4804.1,473.7857142857143,51.191964285714285,4918.8]","[2177.3,2177.3,1000,0,1177.3,""smooth"",""up"",""up"",""good_move"",6716.7,4538.9,2810.9,2177.8,1728,""smooth"",""up"",""up"",""good_move"",11409.8,4692.6,2821.9,6717.2,1870.7,""smooth"",""up"",""up"",""good_move"",16955.7,5545.8,2688,11409.9,2857.8,""smooth"",""right"",""right"",""good_move"",20437,3481,2729.1,16956,751.9,""oops"",""right"",""left"",""bad_move"",27033.1,6595.7,2105.4,20437.4,4490.3,""oops"",""left"",""right"",""good_move"",29791.3,2758,1984.6,27033.3,773.4,""smooth"",""right"",""right"",""good_move"",33277.3,3485.7,2680.7,29791.6,805,""oops"",""right"",""right"",""good_move""]","",""
"7604","","<div style=""width:500px;"">
  <p>What determined the result of this run?</p>
  </div>","96","html-slider-response","70","5052299","0.0-5.0-1.12","52","1","2025-07-16 08:21:17","1f75c3e559b7213887762d5229550c2b","216.120.189.41","Mozilla/5.0 (Windows NT 10.0; Win64; x64) AppleWebKit/537.36 (KHTML, like Gecko) Chrome/138.0.0.0 Safari/537.36","WebKit","Chrome","138.0.0.0","Windows","10.0","https://app.prolific.com/","en-US,en;q=0.9","6743c8da977b0d274dad1fc2","686e379bc37a29ffa5cdc956","68776006826754b038605f6a","1","1","6743c8da977b0d274dad1fc2","1","1","2025-07-16T09:47:13.266Z","","","","","","","","","","","AttribQ","","50","","","","","","","","","","","","","","","","","","","","","","","","","","","","",""
"3268","","<div style=""width:500px;"">
  <p>How much control did you have over the ball?</p>
  </div>","88","html-slider-response","71","5055571","0.0-5.0-2.12","52","1","2025-07-16 08:21:17","1f75c3e559b7213887762d5229550c2b","216.120.189.41","Mozilla/5.0 (Windows NT 10.0; Win64; x64) AppleWebKit/537.36 (KHTML, like Gecko) Chrome/138.0.0.0 Safari/537.36","WebKit","Chrome","138.0.0.0","Windows","10.0","https://app.prolific.com/","en-US,en;q=0.9","6743c8da977b0d274dad1fc2","686e379bc37a29ffa5cdc956","68776006826754b038605f6a","1","1","6743c8da977b0d274dad1fc2","1","1","2025-07-16T09:47:16.538Z","","","","","","","","","","","ControlQ","","50","","","","","","","","","","","","","","","","","","","","","","","","","","","","",""
"518380","","<div style=""width:500px;"">
  <p>How would you describe your current emotional state?</p>
  </div>","40","html-slider-response","72","5573954","0.0-5.0-3.12","52","1","2025-07-16 08:21:17","1f75c3e559b7213887762d5229550c2b","216.120.189.41","Mozilla/5.0 (Windows NT 10.0; Win64; x64) AppleWebKit/537.36 (KHTML, like Gecko) Chrome/138.0.0.0 Safari/537.36","WebKit","Chrome","138.0.0.0","Windows","10.0","https://app.prolific.com/","en-US,en;q=0.9","6743c8da977b0d274dad1fc2","686e379bc37a29ffa5cdc956","68776006826754b038605f6a","1","1","6743c8da977b0d274dad1fc2","1","1","2025-07-16T09:55:54.921Z","","","","","","","","","","","StressQ","","50","","","","","","","","","","","","","","","","","","","","","","","","","","","","",""
"2750","","<div style=""width:500px;"">
  <p>What best describes how you currently feel?</p>
  </div>","77","html-slider-response","73","5576706","0.0-5.0-4.12","52","1","2025-07-16 08:21:17","1f75c3e559b7213887762d5229550c2b","216.120.189.41","Mozilla/5.0 (Windows NT 10.0; Win64; x64) AppleWebKit/537.36 (KHTML, like Gecko) Chrome/138.0.0.0 Safari/537.36","WebKit","Chrome","138.0.0.0","Windows","10.0","https://app.prolific.com/","en-US,en;q=0.9","6743c8da977b0d274dad1fc2","686e379bc37a29ffa5cdc956","68776006826754b038605f6a","1","1","6743c8da977b0d274dad1fc2","1","1","2025-07-16T09:55:57.673Z","","","","","","","","","","","MotivationQ","","50","","","","","","","","","","","","","","","","","","","","","","","","","","","","",""
"","","","","ctl-task-cpt","74","5602399","0.0-5.0-0.13","52","1","2025-07-16 08:21:17","1f75c3e559b7213887762d5229550c2b","216.120.189.41","Mozilla/5.0 (Windows NT 10.0; Win64; x64) AppleWebKit/537.36 (KHTML, like Gecko) Chrome/138.0.0.0 Safari/537.36","WebKit","Chrome","138.0.0.0","Windows","10.0","https://app.prolific.com/","en-US,en;q=0.9","6743c8da977b0d274dad1fc2","686e379bc37a29ffa5cdc956","68776006826754b038605f6a","1","1","6743c8da977b0d274dad1fc2","1","1","2025-07-16T09:56:23.366Z","","","","","","","","","","","","","","win-only","3","g1:SW,g2:NE","0.8","14","0","5681943.7","1739.6","6751.2","22653.1","1","4","8","6","2","8","8","12","4","0.09090909090909091","1240.2","3000","1905","[""up"",""right""]","{""num_key_presses"":6,""num_perfect"":5,""num_errors"":0,""num_randdir"":1,""num_randdir_good_moves"":1,""num_whilered"":0,""num_whileblue"":0,""num_blue"":0,""num_good_moves"":6}","[265.896875,263.303125,0.3,265.896875,263.303125,104.6,264.896875,264.303125,210.4,261.896875,261.303125,317.9,261.896875,261.303125,418.4,261.896875,261.303125,524,261.896875,266.303125,625.3,315.896875,210.303125,731.1,364.896875,164.303125,835.2,414.896875,116.303125,938.7,442.896875,92.303125,1045.3,475.896875,60.303125,1146.7,482.896875,52.303125,1257,482.896875,52.303125,1358.5,482.896875,52.303125,1464.9,476.896875,58.303125,1566.9,447.896875,108.303125,1671.8,423.896875,160.303125,1774.2,422.896875,161.303125,1884.9,422.896875,158.303125,1996.7,422.896875,158.303125,2098.3,422.896875,158.303125,2202.4,422.896875,158.303125,2303.6,422.896875,158.303125,2410.3,422.896875,158.303125,2517.1,422.896875,158.303125,2620.3,422.896875,158.303125,2730.5,422.896875,158.303125,2837.9,422.896875,158.303125,2937.9,422.896875,158.303125,3044.4,422.896875,158.303125,3148.9,422.896875,158.303125,3251.1,422.896875,158.303125,3352.1,422.896875,158.303125,3456.4,422.896875,158.303125,3558.3,422.896875,158.303125,3661.5,422.896875,158.303125,3764.9,422.896875,158.303125,3867.9,422.896875,158.303125,3969.4,422.896875,158.303125,4070.3,422.896875,158.303125,4172.6,422.896875,158.303125,4274.7,422.896875,158.303125,4377.3,422.896875,158.303125,4482.1,422.896875,158.303125,4588.8,422.896875,158.303125,4692.5,422.896875,158.303125,4796.4,422.896875,158.303125,4897.2,422.896875,158.303125,4999.5]","[1412.4,1412.4,1000,0,412.4,""smooth"",""up"",""up"",""good_move"",4165.1,2751.3,2333,1413.8,418.3,""smooth"",""up"",""up"",""good_move"",7084.7,2919.4,2553.7,4165.3,365.7,""oops"",""right"",""right"",""good_move"",9909.8,2824.5,2434.9,7085.3,389.6,""smooth"",""right"",""right"",""good_move"",12500.1,2589.8,2111.9,9910.3,477.9,""smooth"",""up"",""up"",""good_move"",15581.8,3081.4,2136.5,12500.4,944.9,""smooth"",""right"",""right"",""good_move""]","",""
"4841","","<div style=""width:500px;"">
  <p>What determined the result of this run?</p>
  </div>","100","html-slider-response","75","5607243","0.0-5.0-1.13","52","1","2025-07-16 08:21:17","1f75c3e559b7213887762d5229550c2b","216.120.189.41","Mozilla/5.0 (Windows NT 10.0; Win64; x64) AppleWebKit/537.36 (KHTML, like Gecko) Chrome/138.0.0.0 Safari/537.36","WebKit","Chrome","138.0.0.0","Windows","10.0","https://app.prolific.com/","en-US,en;q=0.9","6743c8da977b0d274dad1fc2","686e379bc37a29ffa5cdc956","68776006826754b038605f6a","1","1","6743c8da977b0d274dad1fc2","1","1","2025-07-16T09:56:28.210Z","","","","","","","","","","","AttribQ","","50","","","","","","","","","","","","","","","","","","","","","","","","","","","","",""
"1806","","<div style=""width:500px;"">
  <p>How much control did you have over the ball?</p>
  </div>","100","html-slider-response","76","5609051","0.0-5.0-2.13","52","1","2025-07-16 08:21:17","1f75c3e559b7213887762d5229550c2b","216.120.189.41","Mozilla/5.0 (Windows NT 10.0; Win64; x64) AppleWebKit/537.36 (KHTML, like Gecko) Chrome/138.0.0.0 Safari/537.36","WebKit","Chrome","138.0.0.0","Windows","10.0","https://app.prolific.com/","en-US,en;q=0.9","6743c8da977b0d274dad1fc2","686e379bc37a29ffa5cdc956","68776006826754b038605f6a","1","1","6743c8da977b0d274dad1fc2","1","1","2025-07-16T09:56:30.018Z","","","","","","","","","","","ControlQ","","50","","","","","","","","","","","","","","","","","","","","","","","","","","","","",""
"3596","","<div style=""width:500px;"">
  <p>How would you describe your current emotional state?</p>
