"rt","response_timestamp","stimulus","response","trial_type","trial_index","time_elapsed","internal_node_id","run_id","condition","recorded_at","source_code_version","ip","user_agent","device","browser","browser_version","platform","platform_version","referer","accept_language","PROLIFIC_PID","STUDY_ID","SESSION_ID","WEEK","BATCH","prolific_id","week","batch","realtime","success","responses","item_order","radio_event_ids","radio_event_times","key_event_times","mouse_event_times","straightlining","zigzagging","honeypot","eventType","view_history","slider_start","which_type","canvas_config","goals_layout","control_level","trial_number","tutorial_trial_number","trial_start_time","phase1_start_time","phase2_start_time","phase3_start_time","goal_1_value","goal_1_distance","goal_2_value","goal_2_distance","goal_selected","outcome","outcome_total","participant_final_score","participant_initial_score","participant_final_score_prop","goal_choice_rt","allocated_time","allocated_time_remaining","goal_direction","counts","mouse_movements","key_presses","question_order","question_id"
"20025","1752658107276","<p style='font-size:40px;line-height:1.25'><strong>Welcome to the experiment!</strong></p><p style='font-size:1.1em;line-height:1.25'>Thank you for participanting in our experiment again! You will be asked to play the Dysfunctional Ball Game again. We will briefly recap the rules before we start.</p><p style='font-size:1.1em;line-height:1.25'>Press <strong>Next</strong> to continue.</p>","0","custom-html-button-response","0","20028","0.0-0.0","90","1","2025-07-16 09:28:01","1f75c3e559b7213887762d5229550c2b","41.114.188.132","Mozilla/5.0 (Windows NT 10.0; Win64; x64) AppleWebKit/537.36 (KHTML, like Gecko) Chrome/138.0.0.0 Safari/537.36","WebKit","Chrome","138.0.0.0","Windows","10.0","https://app.prolific.com/","en-US,en;q=0.9","665f10dc49cd980fdf304c19","68764874ac79eee8c1d4cb03","6877706e750003f669c7c8a2","2","0","665f10dc49cd980fdf304c19","2","0","2025-07-16T09:28:27.277Z","","","","","","","","","","","","","","","","","","","","","","","","","","","","","","","","","","","","","","","","","",""
"1979","","","","fullscreen","1","23019","0.0-1.0","90","1","2025-07-16 09:28:01","1f75c3e559b7213887762d5229550c2b","41.114.188.132","Mozilla/5.0 (Windows NT 10.0; Win64; x64) AppleWebKit/537.36 (KHTML, like Gecko) Chrome/138.0.0.0 Safari/537.36","WebKit","Chrome","138.0.0.0","Windows","10.0","https://app.prolific.com/","en-US,en;q=0.9","665f10dc49cd980fdf304c19","68764874ac79eee8c1d4cb03","6877706e750003f669c7c8a2","2","0","665f10dc49cd980fdf304c19","2","0","","true","","","","","","","","","","","","","","","","","","","","","","","","","","","","","","","","","","","","","","","","",""
"1872","1752658112141","<p style='font-size:1.1em;line-height:1.25'>In the following, we will ask you a few questions relating to your feelings in the last 24 hours.<br></p><p style='font-size:1.1em;line-height:1.25'>Press the <strong>Next</strong> button to continue.</p>","0","custom-html-button-response","2","24894","0.0-2.0-0.0","90","1","2025-07-16 09:28:01","1f75c3e559b7213887762d5229550c2b","41.114.188.132","Mozilla/5.0 (Windows NT 10.0; Win64; x64) AppleWebKit/537.36 (KHTML, like Gecko) Chrome/138.0.0.0 Safari/537.36","WebKit","Chrome","138.0.0.0","Windows","10.0","https://app.prolific.com/","en-US,en;q=0.9","665f10dc49cd980fdf304c19","68764874ac79eee8c1d4cb03","6877706e750003f669c7c8a2","2","0","665f10dc49cd980fdf304c19","2","0","2025-07-16T09:28:32.143Z","","","","","","","","","","","","","","","","","","","","","","","","","","","","","","","","","","","","","","","","","",""
"69291.30000001192","","","","survey-template","3","94216","0.0-2.0-1.0","90","1","2025-07-16 09:28:01","1f75c3e559b7213887762d5229550c2b","41.114.188.132","Mozilla/5.0 (Windows NT 10.0; Win64; x64) AppleWebKit/537.36 (KHTML, like Gecko) Chrome/138.0.0.0 Safari/537.36","WebKit","Chrome","138.0.0.0","Windows","10.0","https://app.prolific.com/","en-US,en;q=0.9","665f10dc49cd980fdf304c19","68764874ac79eee8c1d4cb03","6877706e750003f669c7c8a2","2","0","665f10dc49cd980fdf304c19","2","0","2025-07-16T09:29:41.465Z","","{""Q01"":""4"",""Q02"":""3"",""Q03"":""4"",""Q04"":""4"",""Q05"":""5"",""Q06"":""5"",""Q07"":""2"",""Q08"":""3"",""Q09"":""3"",""Q10"":""4"",""Q11"":""4"",""Q12"":""2"",""Q13"":""5"",""Q14"":""3"",""Q15"":""3"",""Q16"":""2"",""Q17"":""4"",""Q18"":""4"",""Q19"":""1"",""Q20"":""3"",""Q21"":""2"",""Q22"":""2""}","[0,1,2,3,4,5,6,7,8,9,10,11,12,13,14,15,16,17,18,19,20,21]","[""Q01"",""Q02"",""Q03"",""Q04"",""Q05"",""Q06"",""Q07"",""Q08"",""Q09"",""Q10"",""Q11"",""Q12"",""Q13"",""Q14"",""Q15"",""Q16"",""Q17"",""Q18"",""Q19"",""Q20"",""Q21"",""Q22""]","[3425.400000035763,6001.699999988079,7581.699999988079,9004.900000035763,10720.100000023842,15775.699999988079,18826.600000023842,20244,27311.80000001192,30093.900000035763,33157.69999998808,36274.60000002384,37765.19999998808,41907.5,43924.80000001192,50497.10000002384,51901.5,53300.10000002384,56705,59606.40000003576,64015.40000003576,68047.69999998808]","[]","[8.900000035762787,3425.400000035763,6001.699999988079,7581.699999988079,9004.900000035763,10720.100000023842,15775.699999988079,17597.19999998808,18826.600000023842,20244,27311.80000001192,30093.900000035763,33157.69999998808,35101.80000001192,36274.60000002384,37765.19999998808,40639.90000003576,41907.5,43924.80000001192,50497.10000002384,51901.5,53300.10000002384,55082,56705,59606.40000003576,62659.10000002384,64015.40000003576,68047.69999998808,69262.10000002384]","0.3181818181818182","0.3333333333333333","0","drsp","","","","","","","","","","","","","","","","","","","","","","","","","","","","","","",""
"14864","","","","survey-template","4","109088","0.0-2.0-2.0","90","1","2025-07-16 09:28:01","1f75c3e559b7213887762d5229550c2b","41.114.188.132","Mozilla/5.0 (Windows NT 10.0; Win64; x64) AppleWebKit/537.36 (KHTML, like Gecko) Chrome/138.0.0.0 Safari/537.36","WebKit","Chrome","138.0.0.0","Windows","10.0","https://app.prolific.com/","en-US,en;q=0.9","665f10dc49cd980fdf304c19","68764874ac79eee8c1d4cb03","6877706e750003f669c7c8a2","2","0","665f10dc49cd980fdf304c19","2","0","2025-07-16T09:29:56.338Z","","{""Q01"":""5"",""Q02"":""4"",""Q03"":""4""}","[0,1,2]","[""Q01"",""Q02"",""Q03"",""Q03""]","[6304.199999988079,9725.899999976158,11775.099999964237,13831]","[]","[6304.199999988079,9725.899999976158,11775.099999964237,12872.399999976158,13831,14859.199999988079]","0.3333333333333333","0","0","stress","","","","","","","","","","","","","","","","","","","","","","","","","","","","","","",""
"30118","","","","instructions","5","139211","0.0-3.0-0.0","90","1","2025-07-16 09:28:01","1f75c3e559b7213887762d5229550c2b","41.114.188.132","Mozilla/5.0 (Windows NT 10.0; Win64; x64) AppleWebKit/537.36 (KHTML, like Gecko) Chrome/138.0.0.0 Safari/537.36","WebKit","Chrome","138.0.0.0","Windows","10.0","https://app.prolific.com/","en-US,en;q=0.9","665f10dc49cd980fdf304c19","68764874ac79eee8c1d4cb03","6877706e750003f669c7c8a2","2","0","665f10dc49cd980fdf304c19","2","0","","","","","","","","","","","","","[{""page_index"":0,""viewing_time"":30117}]","","","","","","","","","","","","","","","","","","","","","","","","","","","","","",""
"73941","","<p>Before you start with this game please answer the following three questions yourself. </p>
  <p>Through this game, we measure several aspects of your cognitive performance, such as reaction times, multi-tasking capabilities </p>
  <p>and the ability to assess the situation you are in.</p>
  <p></p>
  <p><b>How good do you usually are in such tasks?</b></p>","53","html-slider-response","6","213169","0.0-4.0-0.0","90","1","2025-07-16 09:28:01","1f75c3e559b7213887762d5229550c2b","41.114.188.132","Mozilla/5.0 (Windows NT 10.0; Win64; x64) AppleWebKit/537.36 (KHTML, like Gecko) Chrome/138.0.0.0 Safari/537.36","WebKit","Chrome","138.0.0.0","Windows","10.0","https://app.prolific.com/","en-US,en;q=0.9","665f10dc49cd980fdf304c19","68764874ac79eee8c1d4cb03","6877706e750003f669c7c8a2","2","0","665f10dc49cd980fdf304c19","2","0","2025-07-16T09:31:40.418Z","","","","","","","","","","","PreSkillQ","","50","","","","","","","","","","","","","","","","","","","","","","","","","","","","",""
"25471","","<div style=""width:500px;"">
  <p>How well do you think you will perform in this task compared to other participants?</p>
  </div>","53","html-slider-response","7","238645","0.0-4.0-1.0","90","1","2025-07-16 09:28:01","1f75c3e559b7213887762d5229550c2b","41.114.188.132","Mozilla/5.0 (Windows NT 10.0; Win64; x64) AppleWebKit/537.36 (KHTML, like Gecko) Chrome/138.0.0.0 Safari/537.36","WebKit","Chrome","138.0.0.0","Windows","10.0","https://app.prolific.com/","en-US,en;q=0.9","665f10dc49cd980fdf304c19","68764874ac79eee8c1d4cb03","6877706e750003f669c7c8a2","2","0","665f10dc49cd980fdf304c19","2","0","2025-07-16T09:32:05.894Z","","","","","","","","","","","PrePerfQ","","50","","","","","","","","","","","","","","","","","","","","","","","","","","","","",""
"5137","","<div style=""width:500px;"">
  <p>What best describes how you currently feel?</p>
  </div>","50","html-slider-response","8","243784","0.0-4.0-2.0","90","1","2025-07-16 09:28:01","1f75c3e559b7213887762d5229550c2b","41.114.188.132","Mozilla/5.0 (Windows NT 10.0; Win64; x64) AppleWebKit/537.36 (KHTML, like Gecko) Chrome/138.0.0.0 Safari/537.36","WebKit","Chrome","138.0.0.0","Windows","10.0","https://app.prolific.com/","en-US,en;q=0.9","665f10dc49cd980fdf304c19","68764874ac79eee8c1d4cb03","6877706e750003f669c7c8a2","2","0","665f10dc49cd980fdf304c19","2","0","2025-07-16T09:32:11.033Z","","","","","","","","","","","PreMotivationQ","","50","","","","","","","","","","","","","","","","","","","","","","","","","","","","",""
"","","","","ctl-task-cpt","9","321858","0.0-5.0-0.0","90","1","2025-07-16 09:28:01","1f75c3e559b7213887762d5229550c2b","41.114.188.132","Mozilla/5.0 (Windows NT 10.0; Win64; x64) AppleWebKit/537.36 (KHTML, like Gecko) Chrome/138.0.0.0 Safari/537.36","WebKit","Chrome","138.0.0.0","Windows","10.0","https://app.prolific.com/","en-US,en;q=0.9","665f10dc49cd980fdf304c19","68764874ac79eee8c1d4cb03","6877706e750003f669c7c8a2","2","0","665f10dc49cd980fdf304c19","2","0","2025-07-16T09:33:29.107Z","","","","","","","","","","","","","","win-only","2","g1:SE,g2:NW","1","1","0","246496","55444.9","60448.8","75059.4","1","4","4","6","1","1","0","0","0","0","3361.6","3000","1455","[""down"",""right""]","{""num_key_presses"":5,""num_perfect"":4,""num_errors"":1,""num_randdir"":0,""num_randdir_good_moves"":0,""num_whilered"":0,""num_whileblue"":0,""num_blue"":0,""num_good_moves"":4}","[419.57142857142856,417.6808016640799,5.8,419.57142857142856,417.6808016640799,106.1,419.57142857142856,417.6808016640799,212.1,419.57142857142856,417.6808016640799,316.9,419.57142857142856,417.6808016640799,419.6,419.57142857142856,417.6808016640799,521.6,419.57142857142856,417.6808016640799,622.2,419.57142857142856,417.6808016640799,734.1,419.57142857142856,417.6808016640799,837.1,419.57142857142856,417.6808016640799,937.8,419.57142857142856,417.6808016640799,1039.9,419.57142857142856,417.6808016640799,1146.6,419.57142857142856,417.6808016640799,1249.5,419.57142857142856,417.6808016640799,1350.5,419.57142857142856,417.6808016640799,1456.6,460.07142857142856,458.1808016640799,1558.1,581.5714285714286,572.1808016640799,1661.1,595.0714285714286,572.1808016640799,1767.3,598.0714285714286,572.1808016640799,1871.2,602.5714285714286,579.6808016640799,1972.4,665.5714285714286,647.1808016640799,2077.2,743.5714285714286,719.1808016640799,2178.4,878.5714285714286,839.1808016640799,2284.4,878.5714285714286,842.1808016640799,2386.7,878.5714285714286,842.1808016640799,2486.6,878.5714285714286,842.1808016640799,2592.9,878.5714285714286,842.1808016640799,2700.3,878.5714285714286,842.1808016640799,2800.6,878.5714285714286,842.1808016640799,2902.2,799.0714285714286,786.6808016640799,3007.4,781.0714285714286,780.6808016640799,3110.5,781.0714285714286,779.1808016640799,3213.9,781.0714285714286,779.1808016640799,3320.4,781.0714285714286,779.1808016640799,3421.2,781.0714285714286,779.1808016640799,3523.1,781.0714285714286,779.1808016640799,3629.3,781.0714285714286,779.1808016640799,3729.7,781.0714285714286,779.1808016640799,3837.2,781.0714285714286,779.1808016640799,3951.9,781.0714285714286,779.1808016640799,4057.5,781.0714285714286,779.1808016640799,4164.8,781.0714285714286,779.1808016640799,4264.9,781.0714285714286,779.1808016640799,4387.3,781.0714285714286,779.1808016640799,4488.9,781.0714285714286,779.1808016640799,4592.6,781.0714285714286,779.1808016640799,4695.6,781.0714285714286,779.1808016640799,4803,781.0714285714286,779.1808016640799,4908.5]","[1619.1,1618.9,1000,0.2,618.9,""smooth"",""down"",""down"",""good_move"",4541.1,2921.5,2604.9,1619.7,316.5,""smooth"",""down"",""down"",""good_move"",6852.3,2310.9,2370.4,4541.4,-59.5,""error"",""-"",""-"",""no_move"",11210.5,4357.6,2495.7,7857.9,856.9,""smooth"",""right"",""right"",""good_move"",14487.3,3276.3,2811.4,11211,464.9,""smooth"",""right"",""right"",""good_move""]","",""
"12897","","<div style=""width:500px;"">
  <p>What determined the result of this run?</p>
  </div>","62","html-slider-response","10","334758","0.0-5.0-1.0","90","1","2025-07-16 09:28:01","1f75c3e559b7213887762d5229550c2b","41.114.188.132","Mozilla/5.0 (Windows NT 10.0; Win64; x64) AppleWebKit/537.36 (KHTML, like Gecko) Chrome/138.0.0.0 Safari/537.36","WebKit","Chrome","138.0.0.0","Windows","10.0","https://app.prolific.com/","en-US,en;q=0.9","665f10dc49cd980fdf304c19","68764874ac79eee8c1d4cb03","6877706e750003f669c7c8a2","2","0","665f10dc49cd980fdf304c19","2","0","2025-07-16T09:33:42.007Z","","","","","","","","","","","AttribQ","","50","","","","","","","","","","","","","","","","","","","","","","","","","","","","",""
"8873","","<div style=""width:500px;"">
  <p>How much control did you have over the ball?</p>
  </div>","88","html-slider-response","11","343638","0.0-5.0-2.0","90","1","2025-07-16 09:28:01","1f75c3e559b7213887762d5229550c2b","41.114.188.132","Mozilla/5.0 (Windows NT 10.0; Win64; x64) AppleWebKit/537.36 (KHTML, like Gecko) Chrome/138.0.0.0 Safari/537.36","WebKit","Chrome","138.0.0.0","Windows","10.0","https://app.prolific.com/","en-US,en;q=0.9","665f10dc49cd980fdf304c19","68764874ac79eee8c1d4cb03","6877706e750003f669c7c8a2","2","0","665f10dc49cd980fdf304c19","2","0","2025-07-16T09:33:50.887Z","","","","","","","","","","","ControlQ","","50","","","","","","","","","","","","","","","","","","","","","","","","","","","","",""
"8527","","<div style=""width:500px;"">
  <p>How would you describe your current emotional state?</p>
  </div>","54","html-slider-response","12","352171","0.0-5.0-3.0","90","1","2025-07-16 09:28:01","1f75c3e559b7213887762d5229550c2b","41.114.188.132","Mozilla/5.0 (Windows NT 10.0; Win64; x64) AppleWebKit/537.36 (KHTML, like Gecko) Chrome/138.0.0.0 Safari/537.36","WebKit","Chrome","138.0.0.0","Windows","10.0","https://app.prolific.com/","en-US,en;q=0.9","665f10dc49cd980fdf304c19","68764874ac79eee8c1d4cb03","6877706e750003f669c7c8a2","2","0","665f10dc49cd980fdf304c19","2","0","2025-07-16T09:33:59.421Z","","","","","","","","","","","StressQ","","50","","","","","","","","","","","","","","","","","","","","","","","","","","","","",""
"54035","","<div style=""width:500px;"">
  <p>What best describes how you currently feel?</p>
  </div>","55","html-slider-response","13","402954","0.0-5.0-4.0","90","1","2025-07-16 09:28:01","1f75c3e559b7213887762d5229550c2b","41.114.188.132","Mozilla/5.0 (Windows NT 10.0; Win64; x64) AppleWebKit/537.36 (KHTML, like Gecko) Chrome/138.0.0.0 Safari/537.36","WebKit","Chrome","138.0.0.0","Windows","10.0","https://app.prolific.com/","en-US,en;q=0.9","665f10dc49cd980fdf304c19","68764874ac79eee8c1d4cb03","6877706e750003f669c7c8a2","2","0","665f10dc49cd980fdf304c19","2","0","2025-07-16T09:34:50.204Z","","","","","","","","","","","MotivationQ","","50","","","","","","","","","","","","","","","","","","","","","","","","","","","","",""
"","","","","ctl-task-cpt","14","464550","0.0-5.0-0.1","90","1","2025-07-16 09:28:01","1f75c3e559b7213887762d5229550c2b","41.114.188.132","Mozilla/5.0 (Windows NT 10.0; Win64; x64) AppleWebKit/537.36 (KHTML, like Gecko) Chrome/138.0.0.0 Safari/537.36","WebKit","Chrome","138.0.0.0","Windows","10.0","https://app.prolific.com/","en-US,en;q=0.9","665f10dc49cd980fdf304c19","68764874ac79eee8c1d4cb03","6877706e750003f669c7c8a2","2","0","665f10dc49cd980fdf304c19","2","0","2025-07-16T09:35:51.800Z","","","","","","","","","","","","","","win-only","2","g1:SE,g2:NW","0.9","2","0","408933","23695.9","28697.3","58562.2","1","4","8","6","2","-8","-8","0","0","0","2366.6","3000","-2125","[""left"",""up""]","{""num_key_presses"":5,""num_perfect"":4,""num_errors"":0,""num_randdir"":1,""num_randdir_good_moves"":0,""num_whilered"":0,""num_whileblue"":0,""num_blue"":4,""num_good_moves"":4}","[407.57142857142856,422.1808016640799,0.5,407.57142857142856,422.1808016640799,102.8,407.57142857142856,422.1808016640799,204.6,407.57142857142856,422.1808016640799,309.4,407.57142857142856,422.1808016640799,411.6,407.57142857142856,422.1808016640799,521.5,407.57142857142856,422.1808016640799,624.3,407.57142857142856,422.1808016640799,726.8,407.57142857142856,422.1808016640799,830,407.57142857142856,422.1808016640799,930.3,407.57142857142856,422.1808016640799,1031.9,407.57142857142856,422.1808016640799,1133.2,407.57142857142856,422.1808016640799,1241.9,266.57142857142856,311.1808016640799,1343.3,197.57142857142856,275.1808016640799,1445.6,166.07142857142856,227.18080166407992,1546.7,56.57142857142857,102.68080166407994,1658.7,37.07142857142857,80.18080166407994,1760.8,37.07142857142857,80.18080166407994,1861.9,37.07142857142857,80.18080166407994,1969.2,59.57142857142857,86.18080166407994,2072.8,71.57142857142857,86.18080166407994,2182.3,71.57142857142857,86.18080166407994,2288.9,71.57142857142857,86.18080166407994,2399.3,71.57142857142857,86.18080166407994,2504,71.57142857142857,86.18080166407994,2606,71.57142857142857,86.18080166407994,2712.3,71.57142857142857,86.18080166407994,2813.4,71.57142857142857,86.18080166407994,2916,71.57142857142857,86.18080166407994,3016.7,71.57142857142857,86.18080166407994,3125.5,71.57142857142857,86.18080166407994,3226.4,71.57142857142857,86.18080166407994,3330.8,71.57142857142857,86.18080166407994,3436.9,71.57142857142857,86.18080166407994,3545,71.57142857142857,86.18080166407994,3646.3,71.57142857142857,86.18080166407994,3748.8,71.57142857142857,86.18080166407994,3851.8,71.57142857142857,86.18080166407994,3957.8,71.57142857142857,86.18080166407994,4064.5,71.57142857142857,86.18080166407994,4170.5,71.57142857142857,86.18080166407994,4273.1,71.57142857142857,86.18080166407994,4373.6,71.57142857142857,86.18080166407994,4480.8,71.57142857142857,86.18080166407994,4589.3,71.57142857142857,86.18080166407994,4689.7,71.57142857142857,86.18080166407994,4789.7,71.57142857142857,86.18080166407994,4890.3]","[1448.9,1449,1000,0,449,""smooth"",""up"",""up"",""good_move"",4177.6,2727.4,1615.7,1450.3,1111.6,""smooth"",""up"",""up"",""good_move"",9993.1,5815.3,2111.2,7298.7,583.2,""smooth"",""up"",""up"",""good_move"",15816.8,5823.2,1807.9,13207.2,801.7,""smooth"",""left"",""left"",""good_move"",23065.9,7248,2569.7,19958.6,537.6,""oops"",""left"",""right"",""bad_move""]","",""
"8828","","<div style=""width:500px;"">
  <p>What determined the result of this run?</p>
  </div>","45","html-slider-response","15","473382","0.0-5.0-1.1","90","1","2025-07-16 09:28:01","1f75c3e559b7213887762d5229550c2b","41.114.188.132","Mozilla/5.0 (Windows NT 10.0; Win64; x64) AppleWebKit/537.36 (KHTML, like Gecko) Chrome/138.0.0.0 Safari/537.36","WebKit","Chrome","138.0.0.0","Windows","10.0","https://app.prolific.com/","en-US,en;q=0.9","665f10dc49cd980fdf304c19","68764874ac79eee8c1d4cb03","6877706e750003f669c7c8a2","2","0","665f10dc49cd980fdf304c19","2","0","2025-07-16T09:36:00.631Z","","","","","","","","","","","AttribQ","","50","","","","","","","","","","","","","","","","","","","","","","","","","","","","",""
"3229","","<div style=""width:500px;"">
  <p>How much control did you have over the ball?</p>
  </div>","46","html-slider-response","16","476614","0.0-5.0-2.1","90","1","2025-07-16 09:28:01","1f75c3e559b7213887762d5229550c2b","41.114.188.132","Mozilla/5.0 (Windows NT 10.0; Win64; x64) AppleWebKit/537.36 (KHTML, like Gecko) Chrome/138.0.0.0 Safari/537.36","WebKit","Chrome","138.0.0.0","Windows","10.0","https://app.prolific.com/","en-US,en;q=0.9","665f10dc49cd980fdf304c19","68764874ac79eee8c1d4cb03","6877706e750003f669c7c8a2","2","0","665f10dc49cd980fdf304c19","2","0","2025-07-16T09:36:03.863Z","","","","","","","","","","","ControlQ","","50","","","","","","","","","","","","","","","","","","","","","","","","","","","","",""
"10734","","<div style=""width:500px;"">
  <p>How would you describe your current emotional state?</p>
  </div>","53","html-slider-response","17","487351","0.0-5.0-3.1","90","1","2025-07-16 09:28:01","1f75c3e559b7213887762d5229550c2b","41.114.188.132","Mozilla/5.0 (Windows NT 10.0; Win64; x64) AppleWebKit/537.36 (KHTML, like Gecko) Chrome/138.0.0.0 Safari/537.36","WebKit","Chrome","138.0.0.0","Windows","10.0","https://app.prolific.com/","en-US,en;q=0.9","665f10dc49cd980fdf304c19","68764874ac79eee8c1d4cb03","6877706e750003f669c7c8a2","2","0","665f10dc49cd980fdf304c19","2","0","2025-07-16T09:36:14.600Z","","","","","","","","","","","StressQ","","50","","","","","","","","","","","","","","","","","","","","","","","","","","","","",""
"4370","","<div style=""width:500px;"">
  <p>What best describes how you currently feel?</p>
  </div>","54","html-slider-response","18","491723","0.0-5.0-4.1","90","1","2025-07-16 09:28:01","1f75c3e559b7213887762d5229550c2b","41.114.188.132","Mozilla/5.0 (Windows NT 10.0; Win64; x64) AppleWebKit/537.36 (KHTML, like Gecko) Chrome/138.0.0.0 Safari/537.36","WebKit","Chrome","138.0.0.0","Windows","10.0","https://app.prolific.com/","en-US,en;q=0.9","665f10dc49cd980fdf304c19","68764874ac79eee8c1d4cb03","6877706e750003f669c7c8a2","2","0","665f10dc49cd980fdf304c19","2","0","2025-07-16T09:36:18.972Z","","","","","","","","","","","MotivationQ","","50","","","","","","","","","","","","","","","","","","","","","","","","","","","","",""
"","","","","ctl-task-cpt","19","533226","0.0-5.0-0.2","90","1","2025-07-16 09:28:01","1f75c3e559b7213887762d5229550c2b","41.114.188.132","Mozilla/5.0 (Windows NT 10.0; Win64; x64) AppleWebKit/537.36 (KHTML, like Gecko) Chrome/138.0.0.0 Safari/537.36","WebKit","Chrome","138.0.0.0","Windows","10.0","https://app.prolific.com/","en-US,en;q=0.9","665f10dc49cd980fdf304c19","68764874ac79eee8c1d4cb03","6877706e750003f669c7c8a2","2","0","665f10dc49cd980fdf304c19","2","0","2025-07-16T09:37:00.475Z","","","","","","","","","","","","","","win-only","3","g1:SW,g2:NE","0.8","3","0","497690.1","8280.3","13281.5","38489","1","4","4","6","2","-4","-5","0","0","0","2820.7","3000","-2140","[""up"",""right""]","{""num_key_presses"":6,""num_perfect"":4,""num_errors"":1,""num_randdir"":1,""num_randdir_good_moves"":0,""num_whilered"":0,""num_whileblue"":1,""num_blue"":2,""num_good_moves"":4}","[410.57142857142856,419.1808016640799,0.3,410.57142857142856,419.1808016640799,100.9,410.57142857142856,419.1808016640799,211.1,410.57142857142856,419.1808016640799,319.7,410.57142857142856,419.1808016640799,425.3,410.57142857142856,419.1808016640799,526.3,410.57142857142856,419.1808016640799,630.8,410.57142857142856,419.1808016640799,734.6,410.57142857142856,419.1808016640799,841,410.57142857142856,419.1808016640799,950.9,494.57142857142856,362.1808016640799,1053.4,643.0714285714286,203.18080166407992,1158.1,665.5714285714286,171.68080166407992,1261,686.5714285714286,153.68080166407992,1368.6,700.0714285714286,147.68080166407992,1474.3,710.5714285714286,138.68080166407992,1577.1,710.5714285714286,140.18080166407992,1688.7,710.5714285714286,140.18080166407992,1789.8,710.5714285714286,140.18080166407992,1891.1,710.5714285714286,140.18080166407992,1999.6,710.5714285714286,140.18080166407992,2107.2,710.5714285714286,140.18080166407992,2208.6,710.5714285714286,140.18080166407992,2313.9,710.5714285714286,140.18080166407992,2413.9,710.5714285714286,140.18080166407992,2519,725.5714285714286,116.18080166407994,2620.3,725.5714285714286,116.18080166407994,2723.3,725.5714285714286,116.18080166407994,2825,725.5714285714286,116.18080166407994,2925.9,725.5714285714286,116.18080166407994,3032.9,725.5714285714286,116.18080166407994,3143.9,725.5714285714286,116.18080166407994,3250.2,725.5714285714286,116.18080166407994,3351.6,725.5714285714286,116.18080166407994,3454.4,725.5714285714286,116.18080166407994,3556.1,725.5714285714286,116.18080166407994,3658.9,725.5714285714286,116.18080166407994,3766.8,725.5714285714286,116.18080166407994,3873.4,725.5714285714286,116.18080166407994,3976.4,725.5714285714286,116.18080166407994,4077.8,725.5714285714286,116.18080166407994,4184.8,725.5714285714286,116.18080166407994,4287.3,725.5714285714286,116.18080166407994,4394.3,725.5714285714286,116.18080166407994,4495.6,725.5714285714286,116.18080166407994,4596.4,725.5714285714286,116.18080166407994,4706,725.5714285714286,116.18080166407994,4813.7,725.5714285714286,116.18080166407994,4918.8]","[2396.6,2396.6,1000,0,1396.6,""smooth"",""up"",""up"",""good_move"",6318.1,3920.5,3454.9,2397.6,465.6,""smooth"",""up"",""up"",""good_move"",13294,6975.5,2630.6,10069.3,594.1,""smooth"",""up"",""up"",""good_move"",16700.8,3406.4,2702.8,13294.4,703.6,""oops"",""right"",""left"",""bad_move"",19311.6,2609.9,1886.9,16701.7,723,""smooth"",""right"",""right"",""good_move"",22029.2,2716,2319.5,19313.2,396.5,""while_blue"",""right"",""down"",""bad_move""]","",""
"55480","","<div style=""width:500px;"">
  <p>What determined the result of this run?</p>
  </div>","55","html-slider-response","20","588709","0.0-5.0-1.2","90","1","2025-07-16 09:28:01","1f75c3e559b7213887762d5229550c2b","41.114.188.132","Mozilla/5.0 (Windows NT 10.0; Win64; x64) AppleWebKit/537.36 (KHTML, like Gecko) Chrome/138.0.0.0 Safari/537.36","WebKit","Chrome","138.0.0.0","Windows","10.0","https://app.prolific.com/","en-US,en;q=0.9","665f10dc49cd980fdf304c19","68764874ac79eee8c1d4cb03","6877706e750003f669c7c8a2","2","0","665f10dc49cd980fdf304c19","2","0","2025-07-16T09:37:55.958Z","","","","","","","","","","","AttribQ","","50","","","","","","","","","","","","","","","","","","","","","","","","","","","","",""
"18267","","<div style=""width:500px;"">
  <p>How much control did you have over the ball?</p>
  </div>","40","html-slider-response","21","606980","0.0-5.0-2.2","90","1","2025-07-16 09:28:01","1f75c3e559b7213887762d5229550c2b","41.114.188.132","Mozilla/5.0 (Windows NT 10.0; Win64; x64) AppleWebKit/537.36 (KHTML, like Gecko) Chrome/138.0.0.0 Safari/537.36","WebKit","Chrome","138.0.0.0","Windows","10.0","https://app.prolific.com/","en-US,en;q=0.9","665f10dc49cd980fdf304c19","68764874ac79eee8c1d4cb03","6877706e750003f669c7c8a2","2","0","665f10dc49cd980fdf304c19","2","0","2025-07-16T09:38:14.229Z","","","","","","","","","","","ControlQ","","50","","","","","","","","","","","","","","","","","","","","","","","","","","","","",""
"7176","","<div style=""width:500px;"">
  <p>How would you describe your current emotional state?</p>
  </div>","62","html-slider-response","22","614159","0.0-5.0-3.2","90","1","2025-07-16 09:28:01","1f75c3e559b7213887762d5229550c2b","41.114.188.132","Mozilla/5.0 (Windows NT 10.0; Win64; x64) AppleWebKit/537.36 (KHTML, like Gecko) Chrome/138.0.0.0 Safari/537.36","WebKit","Chrome","138.0.0.0","Windows","10.0","https://app.prolific.com/","en-US,en;q=0.9","665f10dc49cd980fdf304c19","68764874ac79eee8c1d4cb03","6877706e750003f669c7c8a2","2","0","665f10dc49cd980fdf304c19","2","0","2025-07-16T09:38:21.408Z","","","","","","","","","","","StressQ","","50","","","","","","","","","","","","","","","","","","","","","","","","","","","","",""
"3993","","<div style=""width:500px;"">
  <p>What best describes how you currently feel?</p>
  </div>","54","html-slider-response","23","618154","0.0-5.0-4.2","90","1","2025-07-16 09:28:01","1f75c3e559b7213887762d5229550c2b","41.114.188.132","Mozilla/5.0 (Windows NT 10.0; Win64; x64) AppleWebKit/537.36 (KHTML, like Gecko) Chrome/138.0.0.0 Safari/537.36","WebKit","Chrome","138.0.0.0","Windows","10.0","https://app.prolific.com/","en-US,en;q=0.9","665f10dc49cd980fdf304c19","68764874ac79eee8c1d4cb03","6877706e750003f669c7c8a2","2","0","665f10dc49cd980fdf304c19","2","0","2025-07-16T09:38:25.404Z","","","","","","","","","","","MotivationQ","","50","","","","","","","","","","","","","","","","","","","","","","","","","","","","",""
"","","","","ctl-task-cpt","24","768033","0.0-5.0-0.3","90","1","2025-07-16 09:28:01","1f75c3e559b7213887762d5229550c2b","41.114.188.132","Mozilla/5.0 (Windows NT 10.0; Win64; x64) AppleWebKit/537.36 (KHTML, like Gecko) Chrome/138.0.0.0 Safari/537.36","WebKit","Chrome","138.0.0.0","Windows","10.0","https://app.prolific.com/","en-US,en;q=0.9","665f10dc49cd980fdf304c19","68764874ac79eee8c1d4cb03","6877706e750003f669c7c8a2","2","0","665f10dc49cd980fdf304c19","2","0","2025-07-16T09:40:55.283Z","","","","","","","","","","","","","","win-only","0","g1:NW,g2:SE","0.7","4","0","624125.1","112475.4","117479.2","146852.5","1","4","8","6","2","8","8","8","0","0.06060606060606061","3107.9","3000","350","[""down"",""right""]","{""num_key_presses"":8,""num_perfect"":5,""num_errors"":0,""num_randdir"":3,""num_randdir_good_moves"":2,""num_whilered"":0,""num_whileblue"":0,""num_blue"":2,""num_good_moves"":7}","[410.0714133126395,409.07142857142856,0.7,410.0714133126395,409.07142857142856,107.3,410.0714133126395,409.07142857142856,208.5,410.0714133126395,409.07142857142856,309.3,410.0714133126395,409.07142857142856,414.9,410.0714133126395,409.07142857142856,523.3,410.0714133126395,409.07142857142856,628.9,410.0714133126395,409.07142857142856,736.2,410.0714133126395,409.07142857142856,843.4,410.0714133126395,409.07142857142856,947.2,410.0714133126395,409.07142857142856,1047.8,578.0714133126395,536.5714285714286,1158.9,696.5714133126395,617.5714285714286,1267.6,696.5714133126395,617.5714285714286,1370.7,696.5714133126395,617.5714285714286,1477.2,734.0714133126395,676.0714285714286,1578.4,743.0714133126395,683.5714285714286,1678.9,743.0714133126395,682.0714285714286,1781.3,743.0714133126395,682.0714285714286,1882.5,743.0714133126395,682.0714285714286,1983.8,743.0714133126395,689.5714285714286,2093.3,743.0714133126395,694.0714285714286,2194.1,743.0714133126395,697.0714285714286,2294.6,741.5714133126395,703.0714285714286,2406,711.5714133126395,661.0714285714286,2509.4,711.5714133126395,667.0714285714286,2616.4,725.0714133126395,697.0714285714286,2722.3,726.5714133126395,700.0714285714286,2824.4,728.0714133126395,700.0714285714286,2928.9,728.0714133126395,700.0714285714286,3034,728.0714133126395,700.0714285714286,3135.1,728.0714133126395,700.0714285714286,3237.7,728.0714133126395,700.0714285714286,3338,728.0714133126395,700.0714285714286,3442.5,728.0714133126395,700.0714285714286,3544.6,728.0714133126395,700.0714285714286,3646.9,728.0714133126395,700.0714285714286,3753.9,728.0714133126395,700.0714285714286,3860.5,728.0714133126395,700.0714285714286,3962.2,728.0714133126395,700.0714285714286,4069.1,728.0714133126395,700.0714285714286,4178.3,728.0714133126395,700.0714285714286,4283.7,728.0714133126395,700.0714285714286,4386.5,728.0714133126395,700.0714285714286,4490.3,728.0714133126395,700.0714285714286,4593.4,728.0714133126395,700.0714285714286,4702.8,728.0714133126395,700.0714285714286,4808.7,728.0714133126395,700.0714285714286,4912.9]","[1617,1617,1000,0,617,""smooth"",""right"",""right"",""good_move"",4930.3,3312.3,2724.3,1618.1,588,""oops"",""right"",""down"",""good_move"",8067.7,3136.2,2636,4931.5,500.2,""oops"",""right"",""left"",""bad_move"",11299.9,3231.8,2837,8068.1,394.8,""smooth"",""right"",""right"",""good_move"",14408,3107.6,2652.8,11300.4,454.8,""smooth"",""right"",""right"",""good_move"",20245.8,5837.3,2128.9,17752.1,364.9,""oops"",""right"",""right"",""good_move"",25814.1,5568,2649,22663.9,501.3,""smooth"",""down"",""down"",""good_move"",29245.1,3430.1,2953.1,25815,477.1,""smooth"",""down"",""down"",""good_move""]","",""
"5683","","<div style=""width:500px;"">
  <p>What determined the result of this run?</p>
  </div>","56","html-slider-response","25","773720","0.0-5.0-1.3","90","1","2025-07-16 09:28:01","1f75c3e559b7213887762d5229550c2b","41.114.188.132","Mozilla/5.0 (Windows NT 10.0; Win64; x64) AppleWebKit/537.36 (KHTML, like Gecko) Chrome/138.0.0.0 Safari/537.36","WebKit","Chrome","138.0.0.0","Windows","10.0","https://app.prolific.com/","en-US,en;q=0.9","665f10dc49cd980fdf304c19","68764874ac79eee8c1d4cb03","6877706e750003f669c7c8a2","2","0","665f10dc49cd980fdf304c19","2","0","2025-07-16T09:41:00.969Z","","","","","","","","","","","AttribQ","","50","","","","","","","","","","","","","","","","","","","","","","","","","","","","",""
"4641","","<div style=""width:500px;"">
  <p>How much control did you have over the ball?</p>
  </div>","60","html-slider-response","26","778363","0.0-5.0-2.3","90","1","2025-07-16 09:28:01","1f75c3e559b7213887762d5229550c2b","41.114.188.132","Mozilla/5.0 (Windows NT 10.0; Win64; x64) AppleWebKit/537.36 (KHTML, like Gecko) Chrome/138.0.0.0 Safari/537.36","WebKit","Chrome","138.0.0.0","Windows","10.0","https://app.prolific.com/","en-US,en;q=0.9","665f10dc49cd980fdf304c19","68764874ac79eee8c1d4cb03","6877706e750003f669c7c8a2","2","0","665f10dc49cd980fdf304c19","2","0","2025-07-16T09:41:05.613Z","","","","","","","","","","","ControlQ","","50","","","","","","","","","","","","","","","","","","","","","","","","","","","","",""
"4052","","<div style=""width:500px;"">
  <p>How would you describe your current emotional state?</p>
  </div>","65","html-slider-response","27","782417","0.0-5.0-3.3","90","1","2025-07-16 09:28:01","1f75c3e559b7213887762d5229550c2b","41.114.188.132","Mozilla/5.0 (Windows NT 10.0; Win64; x64) AppleWebKit/537.36 (KHTML, like Gecko) Chrome/138.0.0.0 Safari/537.36","WebKit","Chrome","138.0.0.0","Windows","10.0","https://app.prolific.com/","en-US,en;q=0.9","665f10dc49cd980fdf304c19","68764874ac79eee8c1d4cb03","6877706e750003f669c7c8a2","2","0","665f10dc49cd980fdf304c19","2","0","2025-07-16T09:41:09.666Z","","","","","","","","","","","StressQ","","50","","","","","","","","","","","","","","","","","","","","","","","","","","","","",""
"4002","","<div style=""width:500px;"">
  <p>What best describes how you currently feel?</p>
  </div>","56","html-slider-response","28","786421","0.0-5.0-4.3","90","1","2025-07-16 09:28:01","1f75c3e559b7213887762d5229550c2b","41.114.188.132","Mozilla/5.0 (Windows NT 10.0; Win64; x64) AppleWebKit/537.36 (KHTML, like Gecko) Chrome/138.0.0.0 Safari/537.36","WebKit","Chrome","138.0.0.0","Windows","10.0","https://app.prolific.com/","en-US,en;q=0.9","665f10dc49cd980fdf304c19","68764874ac79eee8c1d4cb03","6877706e750003f669c7c8a2","2","0","665f10dc49cd980fdf304c19","2","0","2025-07-16T09:41:13.670Z","","","","","","","","","","","MotivationQ","","50","","","","","","","","","","","","","","","","","","","","","","","","","","","","",""
"","","","","ctl-task-cpt","29","855571","0.0-5.0-0.4","90","1","2025-07-16 09:28:01","1f75c3e559b7213887762d5229550c2b","41.114.188.132","Mozilla/5.0 (Windows NT 10.0; Win64; x64) AppleWebKit/537.36 (KHTML, like Gecko) Chrome/138.0.0.0 Safari/537.36","WebKit","Chrome","138.0.0.0","Windows","10.0","https://app.prolific.com/","en-US,en;q=0.9","665f10dc49cd980fdf304c19","68764874ac79eee8c1d4cb03","6877706e750003f669c7c8a2","2","0","665f10dc49cd980fdf304c19","2","0","2025-07-16T09:42:22.820Z","","","","","","","","","","","","","","win-only","0","g1:NW,g2:SE","0.6","5","0","792390.4","44579.1","49581","66119.9","1","4","8","6","1","1","0","8","8","0.06060606060606061","2566.3","3000","1665","[""left"",""up""]","{""num_key_presses"":5,""num_perfect"":3,""num_errors"":1,""num_randdir"":1,""num_randdir_good_moves"":1,""num_whilered"":0,""num_whileblue"":0,""num_blue"":1,""num_good_moves"":4}","[324.78971688406807,315.8991052355085,0.5,324.78971688406807,315.8991052355085,101,324.78971688406807,315.8991052355085,206.7,324.78971688406807,315.8991052355085,309.3,324.78971688406807,315.8991052355085,419.8,324.78971688406807,315.8991052355085,520.6,324.78971688406807,315.8991052355085,622.9,324.78971688406807,315.8991052355085,722.9,324.78971688406807,315.8991052355085,826.8,324.78971688406807,315.8991052355085,928.9,324.78971688406807,315.8991052355085,1037.4,324.78971688406807,315.8991052355085,1138.6,324.78971688406807,315.8991052355085,1239.7,324.78971688406807,315.8991052355085,1342.1,324.78971688406807,315.8991052355085,1444.5,324.78971688406807,315.8991052355085,1554,324.78971688406807,315.8991052355085,1654,324.78971688406807,315.8991052355085,1761.3,324.78971688406807,315.8991052355085,1862.9,318.78971688406807,299.3991052355085,1970.8,117.78971688406807,81.8991052355085,2073.3,45.78971688406808,68.3991052355085,2176.1,33.78971688406808,65.3991052355085,2280.5,33.78971688406808,65.3991052355085,2385.8,33.78971688406808,65.3991052355085,2497.1,33.78971688406808,65.3991052355085,2599.3,33.78971688406808,65.3991052355085,2703.5,33.78971688406808,65.3991052355085,2804.3,33.78971688406808,65.3991052355085,2908,33.78971688406808,65.3991052355085,3010.8,33.78971688406808,65.3991052355085,3117.1,33.78971688406808,65.3991052355085,3218.7,33.78971688406808,65.3991052355085,3320.4,33.78971688406808,65.3991052355085,3426,33.78971688406808,65.3991052355085,3530.5,33.78971688406808,65.3991052355085,3636,33.78971688406808,65.3991052355085,3737.8,33.78971688406808,65.3991052355085,3851.2,33.78971688406808,65.3991052355085,3954,33.78971688406808,65.3991052355085,4065.3,33.78971688406808,65.3991052355085,4184,33.78971688406808,65.3991052355085,4285.5,33.78971688406808,65.3991052355085,4397.5,33.78971688406808,65.3991052355085,4506.7,33.78971688406808,65.3991052355085,4608.2,33.78971688406808,65.3991052355085,4715.1,33.78971688406808,65.3991052355085,4818,33.78971688406808,65.3991052355085,4918.7]","[352.5,352.4,1000,0.1,-647.6,""error"",""-"",""-"",""no_move"",3843.2,3490.4,1987.2,1354.4,501.7,""smooth"",""up"",""up"",""good_move"",10529.7,6685.1,2705.8,7360.9,463,""oops"",""up"",""left"",""good_move"",13823.3,3293.1,2746.9,10530.2,546.2,""smooth"",""up"",""up"",""good_move"",16406.5,2582.8,2087.9,13823.7,494.9,""smooth"",""left"",""left"",""good_move""]","",""
"2892","","<div style=""width:500px;"">
  <p>What determined the result of this run?</p>
  </div>","59","html-slider-response","30","858467","0.0-5.0-1.4","90","1","2025-07-16 09:28:01","1f75c3e559b7213887762d5229550c2b","41.114.188.132","Mozilla/5.0 (Windows NT 10.0; Win64; x64) AppleWebKit/537.36 (KHTML, like Gecko) Chrome/138.0.0.0 Safari/537.36","WebKit","Chrome","138.0.0.0","Windows","10.0","https://app.prolific.com/","en-US,en;q=0.9","665f10dc49cd980fdf304c19","68764874ac79eee8c1d4cb03","6877706e750003f669c7c8a2","2","0","665f10dc49cd980fdf304c19","2","0","2025-07-16T09:42:25.716Z","","","","","","","","","","","AttribQ","","50","","","","","","","","","","","","","","","","","","","","","","","","","","","","",""
"2667","","<div style=""width:500px;"">
  <p>How much control did you have over the ball?</p>
  </div>","60","html-slider-response","31","861136","0.0-5.0-2.4","90","1","2025-07-16 09:28:01","1f75c3e559b7213887762d5229550c2b","41.114.188.132","Mozilla/5.0 (Windows NT 10.0; Win64; x64) AppleWebKit/537.36 (KHTML, like Gecko) Chrome/138.0.0.0 Safari/537.36","WebKit","Chrome","138.0.0.0","Windows","10.0","https://app.prolific.com/","en-US,en;q=0.9","665f10dc49cd980fdf304c19","68764874ac79eee8c1d4cb03","6877706e750003f669c7c8a2","2","0","665f10dc49cd980fdf304c19","2","0","2025-07-16T09:42:28.385Z","","","","","","","","","","","ControlQ","","50","","","","","","","","","","","","","","","","","","","","","","","","","","","","",""
"2679","","<div style=""width:500px;"">
  <p>How would you describe your current emotional state?</p>
  </div>","59","html-slider-response","32","863817","0.0-5.0-3.4","90","1","2025-07-16 09:28:01","1f75c3e559b7213887762d5229550c2b","41.114.188.132","Mozilla/5.0 (Windows NT 10.0; Win64; x64) AppleWebKit/537.36 (KHTML, like Gecko) Chrome/138.0.0.0 Safari/537.36","WebKit","Chrome","138.0.0.0","Windows","10.0","https://app.prolific.com/","en-US,en;q=0.9","665f10dc49cd980fdf304c19","68764874ac79eee8c1d4cb03","6877706e750003f669c7c8a2","2","0","665f10dc49cd980fdf304c19","2","0","2025-07-16T09:42:31.066Z","","","","","","","","","","","StressQ","","50","","","","","","","","","","","","","","","","","","","","","","","","","","","","",""
"2981","","<div style=""width:500px;"">
  <p>What best describes how you currently feel?</p>
  </div>","65","html-slider-response","33","866799","0.0-5.0-4.4","90","1","2025-07-16 09:28:01","1f75c3e559b7213887762d5229550c2b","41.114.188.132","Mozilla/5.0 (Windows NT 10.0; Win64; x64) AppleWebKit/537.36 (KHTML, like Gecko) Chrome/138.0.0.0 Safari/537.36","WebKit","Chrome","138.0.0.0","Windows","10.0","https://app.prolific.com/","en-US,en;q=0.9","665f10dc49cd980fdf304c19","68764874ac79eee8c1d4cb03","6877706e750003f669c7c8a2","2","0","665f10dc49cd980fdf304c19","2","0","2025-07-16T09:42:34.049Z","","","","","","","","","","","MotivationQ","","50","","","","","","","","","","","","","","","","","","","","","","","","","","","","",""
"","","","","ctl-task-cpt","34","911966","0.0-5.0-0.5","90","1","2025-07-16 09:28:01","1f75c3e559b7213887762d5229550c2b","41.114.188.132","Mozilla/5.0 (Windows NT 10.0; Win64; x64) AppleWebKit/537.36 (KHTML, like Gecko) Chrome/138.0.0.0 Safari/537.36","WebKit","Chrome","138.0.0.0","Windows","10.0","https://app.prolific.com/","en-US,en;q=0.9","665f10dc49cd980fdf304c19","68764874ac79eee8c1d4cb03","6877706e750003f669c7c8a2","2","0","665f10dc49cd980fdf304c19","2","0","2025-07-16T09:43:19.215Z","","","","","","","","","","","","","","win-only","3","g1:SW,g2:NE","0.5","6","0","872767.4","1766.7","6768.5","42135.4","1","4","4","6","1","-1","-1","7","8","0.05303030303030303","2318.1","3000","-2005","[""down"",""left""]","{""num_key_presses"":7,""num_perfect"":3,""num_errors"":0,""num_randdir"":4,""num_randdir_good_moves"":1,""num_whilered"":0,""num_whileblue"":0,""num_blue"":3,""num_good_moves"":4}","[327.78971688406807,321.8991052355085,0.5,327.78971688406807,321.8991052355085,101.4,327.78971688406807,321.8991052355085,201.6,327.78971688406807,321.8991052355085,304.5,327.78971688406807,321.8991052355085,421.9,327.78971688406807,321.8991052355085,526.2,327.78971688406807,321.8991052355085,629.5,327.78971688406807,321.8991052355085,730.1,327.78971688406807,321.8991052355085,830.5,327.78971688406807,321.8991052355085,936.5,351.78971688406807,296.3991052355085,1044.9,404.28971688406807,261.8991052355085,1148.4,369.78971688406807,300.8991052355085,1256,365.28971688406807,308.3991052355085,1356.7,324.78971688406807,350.3991052355085,1457.5,263.28971688406807,399.8991052355085,1559.6,173.28971688406807,506.3991052355085,1660.6,158.28971688406807,524.3991052355085,1766.2,158.28971688406807,524.3991052355085,1867.4,147.78971688406807,530.3991052355085,1972.4,69.78971688406807,572.3991052355085,2072.8,63.78971688406808,579.8991052355085,2175.8,63.78971688406808,579.8991052355085,2279.2,63.78971688406808,579.8991052355085,2382.9,63.78971688406808,579.8991052355085,2498.7,63.78971688406808,579.8991052355085,2606.4,63.78971688406808,579.8991052355085,2706.4,63.78971688406808,579.8991052355085,2807.1,63.78971688406808,579.8991052355085,2913.6,63.78971688406808,579.8991052355085,3013.8,63.78971688406808,579.8991052355085,3116.6,63.78971688406808,579.8991052355085,3222.6,63.78971688406808,579.8991052355085,3328.4,63.78971688406808,579.8991052355085,3429.5,63.78971688406808,579.8991052355085,3536.8,63.78971688406808,579.8991052355085,3637.6,63.78971688406808,579.8991052355085,3740.9,63.78971688406808,579.8991052355085,3845.6,63.78971688406808,579.8991052355085,3945.9,63.78971688406808,579.8991052355085,4047.8,63.78971688406808,579.8991052355085,4156.6,63.78971688406808,579.8991052355085,4260,63.78971688406808,579.8991052355085,4365.1,63.78971688406808,579.8991052355085,4471.5,63.78971688406808,579.8991052355085,4572.9,63.78971688406808,579.8991052355085,4675.4,63.78971688406808,579.8991052355085,4781.5,63.78971688406808,579.8991052355085,4884,63.78971688406808,579.8991052355085,4984.4]","[4495.3,4495.3,1930.8,2005.2,559.3,""smooth"",""down"",""down"",""good_move"",8003.5,3507.3,2836.8,4496.2,670.5,""oops"",""down"",""down"",""good_move"",14484.4,6480.6,2364.5,11591.8,528.1,""oops"",""left"",""up"",""bad_move"",18096,3611.3,2910.9,14484.8,700.3,""oops"",""left"",""right"",""bad_move"",21646.6,3549.5,2947.8,18097.1,601.7,""smooth"",""left"",""left"",""good_move"",28739.3,7092.3,2277.8,25950.5,511.1,""smooth"",""left"",""left"",""good_move"",31680.5,2940.9,2268,28739.6,672.9,""oops"",""left"",""right"",""bad_move""]","",""
"3139","","<div style=""width:500px;"">
  <p>What determined the result of this run?</p>
  </div>","41","html-slider-response","35","915107","0.0-5.0-1.5","90","1","2025-07-16 09:28:01","1f75c3e559b7213887762d5229550c2b","41.114.188.132","Mozilla/5.0 (Windows NT 10.0; Win64; x64) AppleWebKit/537.36 (KHTML, like Gecko) Chrome/138.0.0.0 Safari/537.36","WebKit","Chrome","138.0.0.0","Windows","10.0","https://app.prolific.com/","en-US,en;q=0.9","665f10dc49cd980fdf304c19","68764874ac79eee8c1d4cb03","6877706e750003f669c7c8a2","2","0","665f10dc49cd980fdf304c19","2","0","2025-07-16T09:43:22.356Z","","","","","","","","","","","AttribQ","","50","","","","","","","","","","","","","","","","","","","","","","","","","","","","",""
"2307","","<div style=""width:500px;"">
  <p>How much control did you have over the ball?</p>
  </div>","38","html-slider-response","36","917416","0.0-5.0-2.5","90","1","2025-07-16 09:28:01","1f75c3e559b7213887762d5229550c2b","41.114.188.132","Mozilla/5.0 (Windows NT 10.0; Win64; x64) AppleWebKit/537.36 (KHTML, like Gecko) Chrome/138.0.0.0 Safari/537.36","WebKit","Chrome","138.0.0.0","Windows","10.0","https://app.prolific.com/","en-US,en;q=0.9","665f10dc49cd980fdf304c19","68764874ac79eee8c1d4cb03","6877706e750003f669c7c8a2","2","0","665f10dc49cd980fdf304c19","2","0","2025-07-16T09:43:24.665Z","","","","","","","","","","","ControlQ","","50","","","","","","","","","","","","","","","","","","","","","","","","","","","","",""
"4630","","<div style=""width:500px;"">
  <p>How would you describe your current emotional state?</p>
  </div>","65","html-slider-response","37","922048","0.0-5.0-3.5","90","1","2025-07-16 09:28:01","1f75c3e559b7213887762d5229550c2b","41.114.188.132","Mozilla/5.0 (Windows NT 10.0; Win64; x64) AppleWebKit/537.36 (KHTML, like Gecko) Chrome/138.0.0.0 Safari/537.36","WebKit","Chrome","138.0.0.0","Windows","10.0","https://app.prolific.com/","en-US,en;q=0.9","665f10dc49cd980fdf304c19","68764874ac79eee8c1d4cb03","6877706e750003f669c7c8a2","2","0","665f10dc49cd980fdf304c19","2","0","2025-07-16T09:43:29.297Z","","","","","","","","","","","StressQ","","50","","","","","","","","","","","","","","","","","","","","","","","","","","","","",""
"3717","","<div style=""width:500px;"">
  <p>What best describes how you currently feel?</p>
  </div>","59","html-slider-response","38","925766","0.0-5.0-4.5","90","1","2025-07-16 09:28:01","1f75c3e559b7213887762d5229550c2b","41.114.188.132","Mozilla/5.0 (Windows NT 10.0; Win64; x64) AppleWebKit/537.36 (KHTML, like Gecko) Chrome/138.0.0.0 Safari/537.36","WebKit","Chrome","138.0.0.0","Windows","10.0","https://app.prolific.com/","en-US,en;q=0.9","665f10dc49cd980fdf304c19","68764874ac79eee8c1d4cb03","6877706e750003f669c7c8a2","2","0","665f10dc49cd980fdf304c19","2","0","2025-07-16T09:43:33.016Z","","","","","","","","","","","MotivationQ","","50","","","","","","","","","","","","","","","","","","","","","","","","","","","","",""
"","","","","ctl-task-cpt","39","1054484","0.0-5.0-0.6","90","1","2025-07-16 09:28:01","1f75c3e559b7213887762d5229550c2b","41.114.188.132","Mozilla/5.0 (Windows NT 10.0; Win64; x64) AppleWebKit/537.36 (KHTML, like Gecko) Chrome/138.0.0.0 Safari/537.36","WebKit","Chrome","138.0.0.0","Windows","10.0","https://app.prolific.com/","en-US,en;q=0.9","665f10dc49cd980fdf304c19","68764874ac79eee8c1d4cb03","6877706e750003f669c7c8a2","2","0","665f10dc49cd980fdf304c19","2","0","2025-07-16T09:45:41.733Z","","","","","","","","","","","","","","win-only","2","g1:SE,g2:NW","0.4","7","0","931733.7","89373.9","94376.6","125694.4","1","4","4","6","1","-1","-1","6","7","0.045454545454545456","2075","3000","-2095","[""down"",""right""]","{""num_key_presses"":8,""num_perfect"":3,""num_errors"":0,""num_randdir"":5,""num_randdir_good_moves"":2,""num_whilered"":0,""num_whileblue"":0,""num_blue"":2,""num_good_moves"":5}","[320.28971688406807,317.3991052355085,0.6,320.28971688406807,317.3991052355085,102.8,320.28971688406807,317.3991052355085,209,320.28971688406807,317.3991052355085,316.1,320.28971688406807,317.3991052355085,419.7,320.28971688406807,317.3991052355085,520.1,320.28971688406807,317.3991052355085,624.8,320.28971688406807,317.3991052355085,730.3,320.28971688406807,317.3991052355085,832.5,320.28971688406807,317.3991052355085,934.6,320.28971688406807,317.3991052355085,1040.5,320.28971688406807,317.3991052355085,1141.3,320.28971688406807,317.3991052355085,1241.9,320.28971688406807,317.3991052355085,1343.4,522.7897168840681,453.8991052355085,1447.9,570.7897168840681,506.3991052355085,1554,570.7897168840681,506.3991052355085,1656,588.7897168840681,563.3991052355085,1756.6,588.7897168840681,560.3991052355085,1858.3,588.7897168840681,563.3991052355085,1966.3,588.7897168840681,563.3991052355085,2071.3,588.7897168840681,563.3991052355085,2174.5,588.7897168840681,563.3991052355085,2278.2,588.7897168840681,563.3991052355085,2380.6,588.7897168840681,563.3991052355085,2482.7,588.7897168840681,563.3991052355085,2588.4,588.7897168840681,563.3991052355085,2692.4,588.7897168840681,563.3991052355085,2798.5,588.7897168840681,563.3991052355085,2903.6,588.7897168840681,563.3991052355085,3006.4,588.7897168840681,563.3991052355085,3112.8,588.7897168840681,563.3991052355085,3216.4,588.7897168840681,563.3991052355085,3330.4,588.7897168840681,563.3991052355085,3431.8,588.7897168840681,563.3991052355085,3534.3,588.7897168840681,563.3991052355085,3637.8,588.7897168840681,563.3991052355085,3739.7,588.7897168840681,563.3991052355085,3841.9,588.7897168840681,563.3991052355085,3945.9,588.7897168840681,563.3991052355085,4055.7,588.7897168840681,563.3991052355085,4160.9,588.7897168840681,563.3991052355085,4271.5,588.7897168840681,563.3991052355085,4372.6,588.7897168840681,563.3991052355085,4475.1,588.7897168840681,563.3991052355085,4580.2,588.7897168840681,563.3991052355085,4691,588.7897168840681,563.3991052355085,4792.7,588.7897168840681,563.3991052355085,4892.8,588.7897168840681,563.3991052355085,4998.7]","[1594.1,1594.1,1000,0,594.1,""smooth"",""right"",""right"",""good_move"",4015.1,2420.2,1832.6,1594.9,587.6,""smooth"",""right"",""right"",""good_move"",7215.9,3200.2,2778.5,4015.7,421.7,""oops"",""down"",""down"",""good_move"",13403.9,6187,2287.2,10636.9,479.8,""oops"",""down"",""left"",""bad_move"",16337.6,2933.1,2447.8,13404.5,485.3,""oops"",""down"",""up"",""bad_move"",22193.5,5855.1,2271.4,19443.7,478.4,""oops"",""down"",""left"",""bad_move"",25575.1,3381.3,2824.2,22193.8,557.1,""oops"",""down"",""right"",""good_move"",28684.7,3109.1,2559.5,25575.6,549.6,""smooth"",""down"",""down"",""good_move""]","",""
"16453","","<div style=""width:500px;"">
  <p>What determined the result of this run?</p>
  </div>","36","html-slider-response","40","1070939","0.0-5.0-1.6","90","1","2025-07-16 09:28:01","1f75c3e559b7213887762d5229550c2b","41.114.188.132","Mozilla/5.0 (Windows NT 10.0; Win64; x64) AppleWebKit/537.36 (KHTML, like Gecko) Chrome/138.0.0.0 Safari/537.36","WebKit","Chrome","138.0.0.0","Windows","10.0","https://app.prolific.com/","en-US,en;q=0.9","665f10dc49cd980fdf304c19","68764874ac79eee8c1d4cb03","6877706e750003f669c7c8a2","2","0","665f10dc49cd980fdf304c19","2","0","2025-07-16T09:45:58.188Z","","","","","","","","","","","AttribQ","","50","","","","","","","","","","","","","","","","","","","","","","","","","","","","",""
"4715","","<div style=""width:500px;"">
  <p>How much control did you have over the ball?</p>
  </div>","31","html-slider-response","41","1075655","0.0-5.0-2.6","90","1","2025-07-16 09:28:01","1f75c3e559b7213887762d5229550c2b","41.114.188.132","Mozilla/5.0 (Windows NT 10.0; Win64; x64) AppleWebKit/537.36 (KHTML, like Gecko) Chrome/138.0.0.0 Safari/537.36","WebKit","Chrome","138.0.0.0","Windows","10.0","https://app.prolific.com/","en-US,en;q=0.9","665f10dc49cd980fdf304c19","68764874ac79eee8c1d4cb03","6877706e750003f669c7c8a2","2","0","665f10dc49cd980fdf304c19","2","0","2025-07-16T09:46:02.905Z","","","","","","","","","","","ControlQ","","50","","","","","","","","","","","","","","","","","","","","","","","","","","","","",""
"4278","","<div style=""width:500px;"">
  <p>How would you describe your current emotional state?</p>
  </div>","70","html-slider-response","42","1079935","0.0-5.0-3.6","90","1","2025-07-16 09:28:01","1f75c3e559b7213887762d5229550c2b","41.114.188.132","Mozilla/5.0 (Windows NT 10.0; Win64; x64) AppleWebKit/537.36 (KHTML, like Gecko) Chrome/138.0.0.0 Safari/537.36","WebKit","Chrome","138.0.0.0","Windows","10.0","https://app.prolific.com/","en-US,en;q=0.9","665f10dc49cd980fdf304c19","68764874ac79eee8c1d4cb03","6877706e750003f669c7c8a2","2","0","665f10dc49cd980fdf304c19","2","0","2025-07-16T09:46:07.184Z","","","","","","","","","","","StressQ","","50","","","","","","","","","","","","","","","","","","","","","","","","","","","","",""
"7997","","<div style=""width:500px;"">
  <p>What best describes how you currently feel?</p>
  </div>","60","html-slider-response","43","1087933","0.0-5.0-4.6","90","1","2025-07-16 09:28:01","1f75c3e559b7213887762d5229550c2b","41.114.188.132","Mozilla/5.0 (Windows NT 10.0; Win64; x64) AppleWebKit/537.36 (KHTML, like Gecko) Chrome/138.0.0.0 Safari/537.36","WebKit","Chrome","138.0.0.0","Windows","10.0","https://app.prolific.com/","en-US,en;q=0.9","665f10dc49cd980fdf304c19","68764874ac79eee8c1d4cb03","6877706e750003f669c7c8a2","2","0","665f10dc49cd980fdf304c19","2","0","2025-07-16T09:46:15.182Z","","","","","","","","","","","MotivationQ","","50","","","","","","","","","","","","","","","","","","","","","","","","","","","","",""
"","","","","ctl-task-cpt","44","1150001","0.0-5.0-0.7","90","1","2025-07-16 09:28:01","1f75c3e559b7213887762d5229550c2b","41.114.188.132","Mozilla/5.0 (Windows NT 10.0; Win64; x64) AppleWebKit/537.36 (KHTML, like Gecko) Chrome/138.0.0.0 Safari/537.36","WebKit","Chrome","138.0.0.0","Windows","10.0","https://app.prolific.com/","en-US,en;q=0.9","665f10dc49cd980fdf304c19","68764874ac79eee8c1d4cb03","6877706e750003f669c7c8a2","2","0","665f10dc49cd980fdf304c19","2","0","2025-07-16T09:47:17.251Z","","","","","","","","","","","","","","win-only","0","g1:NW,g2:SE","0.3","8","0","1093900.7","8591.4","13592","59044","1","4","8","6","2","-8","-8","0","6","0","2479.5","3000","-1980","[""down"",""right""]","{""num_key_presses"":10,""num_perfect"":3,""num_errors"":0,""num_randdir"":7,""num_randdir_good_moves"":4,""num_whilered"":0,""num_whileblue"":0,""num_blue"":4,""num_good_moves"":7}","[312.78971688406807,314.3991052355085,0.6,312.78971688406807,314.3991052355085,103.8,312.78971688406807,314.3991052355085,204.6,312.78971688406807,314.3991052355085,305.7,312.78971688406807,314.3991052355085,414.9,312.78971688406807,314.3991052355085,519.6,312.78971688406807,314.3991052355085,621.7,312.78971688406807,314.3991052355085,740.9,312.78971688406807,314.3991052355085,844.4,312.78971688406807,314.3991052355085,954,312.78971688406807,314.3991052355085,1055.8,312.78971688406807,314.3991052355085,1157.7,357.78971688406807,356.3991052355085,1258.7,503.28971688406807,503.3991052355085,1359.8,509.28971688406807,518.3991052355085,1474.4,509.28971688406807,518.3991052355085,1583.8,512.2897168840681,519.8991052355085,1688.7,560.2897168840681,551.3991052355085,1797.3,567.7897168840681,554.3991052355085,1901.8,573.7897168840681,563.3991052355085,2003.1,573.7897168840681,563.3991052355085,2104.6,573.7897168840681,563.3991052355085,2207.1,573.7897168840681,563.3991052355085,2307.3,573.7897168840681,563.3991052355085,2413.2,573.7897168840681,563.3991052355085,2520.4,573.7897168840681,563.3991052355085,2622.4,573.7897168840681,563.3991052355085,2729.4,573.7897168840681,563.3991052355085,2829.4,573.7897168840681,563.3991052355085,2931.7,573.7897168840681,563.3991052355085,3040.6,573.7897168840681,563.3991052355085,3143.9,573.7897168840681,563.3991052355085,3246,573.7897168840681,563.3991052355085,3346.9,573.7897168840681,563.3991052355085,3452,573.7897168840681,563.3991052355085,3562.6,573.7897168840681,563.3991052355085,3672.2,573.7897168840681,563.3991052355085,3786,573.7897168840681,563.3991052355085,3888.1,573.7897168840681,563.3991052355085,3995.6,573.7897168840681,563.3991052355085,4102.5,573.7897168840681,563.3991052355085,4213,573.7897168840681,563.3991052355085,4314.8,573.7897168840681,563.3991052355085,4415.1,573.7897168840681,563.3991052355085,4515.8,573.7897168840681,563.3991052355085,4619.6,573.7897168840681,563.3991052355085,4727.5,573.7897168840681,563.3991052355085,4828.2,573.7897168840681,563.3991052355085,4929.5]","[4793.3,4793.3,2277.3,2015.3,500.7,""smooth"",""right"",""right"",""good_move"",7711.3,2917,2353.2,4794.3,563.8,""smooth"",""right"",""right"",""good_move"",14220.1,6508.5,2274.5,11427.7,517.9,""smooth"",""right"",""right"",""good_move"",17173.8,2953.5,2523.9,14220.5,429.5,""oops"",""down"",""down"",""good_move"",20036.7,2862,2477.1,17174.7,384.9,""oops"",""down"",""up"",""bad_move"",23133.6,3096.4,2720.9,20037.2,375.5,""oops"",""down"",""left"",""bad_move"",29908.1,6773.7,2231.4,27226.7,450.1,""oops"",""down"",""right"",""good_move"",36059.4,6150.7,2489.1,33125,445.3,""oops"",""down"",""down"",""good_move"",38707.9,2648.2,2156.2,36059.8,492,""oops"",""down"",""down"",""good_move"",42105.9,3397.3,2973.3,38708.6,424,""oops"",""down"",""left"",""bad_move""]","",""
"4934","","<div style=""width:500px;"">
  <p>What determined the result of this run?</p>
  </div>","21","html-slider-response","45","1154938","0.0-5.0-1.7","90","1","2025-07-16 09:28:01","1f75c3e559b7213887762d5229550c2b","41.114.188.132","Mozilla/5.0 (Windows NT 10.0; Win64; x64) AppleWebKit/537.36 (KHTML, like Gecko) Chrome/138.0.0.0 Safari/537.36","WebKit","Chrome","138.0.0.0","Windows","10.0","https://app.prolific.com/","en-US,en;q=0.9","665f10dc49cd980fdf304c19","68764874ac79eee8c1d4cb03","6877706e750003f669c7c8a2","2","0","665f10dc49cd980fdf304c19","2","0","2025-07-16T09:47:22.187Z","","","","","","","","","","","AttribQ","","50","","","","","","","","","","","","","","","","","","","","","","","","","","","","",""
"3539","","<div style=""width:500px;"">
  <p>How much control did you have over the ball?</p>
  </div>","13","html-slider-response","46","1158479","0.0-5.0-2.7","90","1","2025-07-16 09:28:01","1f75c3e559b7213887762d5229550c2b","41.114.188.132","Mozilla/5.0 (Windows NT 10.0; Win64; x64) AppleWebKit/537.36 (KHTML, like Gecko) Chrome/138.0.0.0 Safari/537.36","WebKit","Chrome","138.0.0.0","Windows","10.0","https://app.prolific.com/","en-US,en;q=0.9","665f10dc49cd980fdf304c19","68764874ac79eee8c1d4cb03","6877706e750003f669c7c8a2","2","0","665f10dc49cd980fdf304c19","2","0","2025-07-16T09:47:25.728Z","","","","","","","","","","","ControlQ","","50","","","","","","","","","","","","","","","","","","","","","","","","","","","","",""
"4134","","<div style=""width:500px;"">
  <p>How would you describe your current emotional state?</p>
  </div>","81","html-slider-response","47","1162614","0.0-5.0-3.7","90","1","2025-07-16 09:28:01","1f75c3e559b7213887762d5229550c2b","41.114.188.132","Mozilla/5.0 (Windows NT 10.0; Win64; x64) AppleWebKit/537.36 (KHTML, like Gecko) Chrome/138.0.0.0 Safari/537.36","WebKit","Chrome","138.0.0.0","Windows","10.0","https://app.prolific.com/","en-US,en;q=0.9","665f10dc49cd980fdf304c19","68764874ac79eee8c1d4cb03","6877706e750003f669c7c8a2","2","0","665f10dc49cd980fdf304c19","2","0","2025-07-16T09:47:29.863Z","","","","","","","","","","","StressQ","","50","","","","","","","","","","","","","","","","","","","","","","","","","","","","",""
"4061","","<div style=""width:500px;"">
  <p>What best describes how you currently feel?</p>
  </div>","56","html-slider-response","48","1166676","0.0-5.0-4.7","90","1","2025-07-16 09:28:01","1f75c3e559b7213887762d5229550c2b","41.114.188.132","Mozilla/5.0 (Windows NT 10.0; Win64; x64) AppleWebKit/537.36 (KHTML, like Gecko) Chrome/138.0.0.0 Safari/537.36","WebKit","Chrome","138.0.0.0","Windows","10.0","https://app.prolific.com/","en-US,en;q=0.9","665f10dc49cd980fdf304c19","68764874ac79eee8c1d4cb03","6877706e750003f669c7c8a2","2","0","665f10dc49cd980fdf304c19","2","0","2025-07-16T09:47:33.925Z","","","","","","","","","","","MotivationQ","","50","","","","","","","","","","","","","","","","","","","","","","","","","","","","",""
"","","","","ctl-task-cpt","49","1203592","0.0-5.0-0.8","90","1","2025-07-16 09:28:01","1f75c3e559b7213887762d5229550c2b","41.114.188.132","Mozilla/5.0 (Windows NT 10.0; Win64; x64) AppleWebKit/537.36 (KHTML, like Gecko) Chrome/138.0.0.0 Safari/537.36","WebKit","Chrome","138.0.0.0","Windows","10.0","https://app.prolific.com/","en-US,en;q=0.9","665f10dc49cd980fdf304c19","68764874ac79eee8c1d4cb03","6877706e750003f669c7c8a2","2","0","665f10dc49cd980fdf304c19","2","0","2025-07-16T09:48:10.841Z","","","","","","","","","","","","","","win-only","1","g1:NE,g2:SW","0.2","9","0","1172643.3","16051.7","21056.5","33888.8","1","4","8","6","1","1","1","1","0","0.007575757575757576","1756.9","3000","1710","[""up"",""right""]","{""num_key_presses"":4,""num_perfect"":1,""num_errors"":0,""num_randdir"":3,""num_randdir_good_moves"":3,""num_whilered"":0,""num_whileblue"":0,""num_blue"":1,""num_good_moves"":4}","[315.78971688406807,314.3991052355085,0.3,315.78971688406807,314.3991052355085,101.4,315.78971688406807,314.3991052355085,205.8,315.78971688406807,314.3991052355085,312.7,315.78971688406807,314.3991052355085,420.3,315.78971688406807,314.3991052355085,529.6,315.78971688406807,314.3991052355085,637.8,315.78971688406807,314.3991052355085,741.8,315.78971688406807,314.3991052355085,850.6,315.78971688406807,314.3991052355085,951.5,315.78971688406807,314.3991052355085,1057.7,633.7897168840681,30.899105235508507,1160.2,633.7897168840681,30.899105235508507,1269.5,633.7897168840681,29.399105235508507,1376.5,576.7897168840681,65.3991052355085,1479.4,576.7897168840681,65.3991052355085,1582.1,576.7897168840681,65.3991052355085,1686.2,576.7897168840681,65.3991052355085,1788.8,576.7897168840681,65.3991052355085,1893.4,576.7897168840681,65.3991052355085,1996.6,576.7897168840681,65.3991052355085,2098.6,576.7897168840681,65.3991052355085,2208.4,576.7897168840681,65.3991052355085,2310.2,576.7897168840681,65.3991052355085,2411.4,576.7897168840681,65.3991052355085,2516.1,576.7897168840681,65.3991052355085,2621.3,576.7897168840681,65.3991052355085,2726.1,576.7897168840681,65.3991052355085,2829,576.7897168840681,65.3991052355085,2930.5,576.7897168840681,65.3991052355085,3035.1,576.7897168840681,65.3991052355085,3146,576.7897168840681,65.3991052355085,3256.8,576.7897168840681,65.3991052355085,3363.6,576.7897168840681,65.3991052355085,3465,576.7897168840681,65.3991052355085,3578.4,576.7897168840681,65.3991052355085,3681.2,576.7897168840681,65.3991052355085,3782.5,576.7897168840681,65.3991052355085,3891,576.7897168840681,65.3991052355085,3991,576.7897168840681,65.3991052355085,4099.9,576.7897168840681,65.3991052355085,4200.4,576.7897168840681,65.3991052355085,4302.6,576.7897168840681,65.3991052355085,4405.9,576.7897168840681,65.3991052355085,4506.4,576.7897168840681,65.3991052355085,4608.4,576.7897168840681,65.3991052355085,4722.7,576.7897168840681,65.3991052355085,4828.6,576.7897168840681,65.3991052355085,4931.5]","[1551.4,1551.5,1000,0,551.5,""oops"",""up"",""up"",""good_move"",3906.7,2354.6,1712.8,1552.1,641.8,""oops"",""up"",""up"",""good_move"",10292.6,6385.5,2243.5,7681.1,368,""oops"",""right"",""right"",""good_move"",12706.2,2413.1,2012.7,10293.1,400.4,""smooth"",""right"",""right"",""good_move""]","",""
"9745","","<div style=""width:500px;"">
  <p>What determined the result of this run?</p>
  </div>","73","html-slider-response","50","1213340","0.0-5.0-1.8","90","1","2025-07-16 09:28:01","1f75c3e559b7213887762d5229550c2b","41.114.188.132","Mozilla/5.0 (Windows NT 10.0; Win64; x64) AppleWebKit/537.36 (KHTML, like Gecko) Chrome/138.0.0.0 Safari/537.36","WebKit","Chrome","138.0.0.0","Windows","10.0","https://app.prolific.com/","en-US,en;q=0.9","665f10dc49cd980fdf304c19","68764874ac79eee8c1d4cb03","6877706e750003f669c7c8a2","2","0","665f10dc49cd980fdf304c19","2","0","2025-07-16T09:48:20.589Z","","","","","","","","","","","AttribQ","","50","","","","","","","","","","","","","","","","","","","","","","","","","","","","",""
"7134","","<div style=""width:500px;"">
  <p>How much control did you have over the ball?</p>
  </div>","79","html-slider-response","51","1220476","0.0-5.0-2.8","90","1","2025-07-16 09:28:01","1f75c3e559b7213887762d5229550c2b","41.114.188.132","Mozilla/5.0 (Windows NT 10.0; Win64; x64) AppleWebKit/537.36 (KHTML, like Gecko) Chrome/138.0.0.0 Safari/537.36","WebKit","Chrome","138.0.0.0","Windows","10.0","https://app.prolific.com/","en-US,en;q=0.9","665f10dc49cd980fdf304c19","68764874ac79eee8c1d4cb03","6877706e750003f669c7c8a2","2","0","665f10dc49cd980fdf304c19","2","0","2025-07-16T09:48:27.725Z","","","","","","","","","","","ControlQ","","50","","","","","","","","","","","","","","","","","","","","","","","","","","","","",""
"38589","","<div style=""width:500px;"">
  <p>How would you describe your current emotional state?</p>
  </div>","69","html-slider-response","52","1259066","0.0-5.0-3.8","90","1","2025-07-16 09:28:01","1f75c3e559b7213887762d5229550c2b","41.114.188.132","Mozilla/5.0 (Windows NT 10.0; Win64; x64) AppleWebKit/537.36 (KHTML, like Gecko) Chrome/138.0.0.0 Safari/537.36","WebKit","Chrome","138.0.0.0","Windows","10.0","https://app.prolific.com/","en-US,en;q=0.9","665f10dc49cd980fdf304c19","68764874ac79eee8c1d4cb03","6877706e750003f669c7c8a2","2","0","665f10dc49cd980fdf304c19","2","0","2025-07-16T09:49:06.316Z","","","","","","","","","","","StressQ","","50","","","","","","","","","","","","","","","","","","","","","","","","","","","","",""
"9935","","<div style=""width:500px;"">
  <p>What best describes how you currently feel?</p>
  </div>","65","html-slider-response","53","1269004","0.0-5.0-4.8","90","1","2025-07-16 09:28:01","1f75c3e559b7213887762d5229550c2b","41.114.188.132","Mozilla/5.0 (Windows NT 10.0; Win64; x64) AppleWebKit/537.36 (KHTML, like Gecko) Chrome/138.0.0.0 Safari/537.36","WebKit","Chrome","138.0.0.0","Windows","10.0","https://app.prolific.com/","en-US,en;q=0.9","665f10dc49cd980fdf304c19","68764874ac79eee8c1d4cb03","6877706e750003f669c7c8a2","2","0","665f10dc49cd980fdf304c19","2","0","2025-07-16T09:49:16.253Z","","","","","","","","","","","MotivationQ","","50","","","","","","","","","","","","","","","","","","","","","","","","","","","","",""
"","","","","ctl-task-cpt","54","1312590","0.0-5.0-0.9","90","1","2025-07-16 09:28:01","1f75c3e559b7213887762d5229550c2b","41.114.188.132","Mozilla/5.0 (Windows NT 10.0; Win64; x64) AppleWebKit/537.36 (KHTML, like Gecko) Chrome/138.0.0.0 Safari/537.36","WebKit","Chrome","138.0.0.0","Windows","10.0","https://app.prolific.com/","en-US,en;q=0.9","665f10dc49cd980fdf304c19","68764874ac79eee8c1d4cb03","6877706e750003f669c7c8a2","2","0","665f10dc49cd980fdf304c19","2","0","2025-07-16T09:49:59.840Z","","","","","","","","","","","","","","win-only","1","g1:NE,g2:SW","0.4","10","0","1274973","2699.3","7706.1","40559.7","1","4","4","6","2","-4","-4","0","1","0","2048.4","3000","-2045","[""down"",""left""]","{""num_key_presses"":9,""num_perfect"":3,""num_errors"":0,""num_randdir"":6,""num_randdir_good_moves"":3,""num_whilered"":0,""num_whileblue"":0,""num_blue"":1,""num_good_moves"":6}","[324.78971688406807,320.3991052355085,0.4,324.78971688406807,320.3991052355085,104.4,324.78971688406807,320.3991052355085,208.7,324.78971688406807,320.3991052355085,313.7,324.78971688406807,320.3991052355085,417,324.78971688406807,320.3991052355085,518.7,324.78971688406807,320.3991052355085,620.9,324.78971688406807,320.3991052355085,720.8,324.78971688406807,320.3991052355085,824,324.78971688406807,320.3991052355085,932.4,324.78971688406807,320.3991052355085,1032.6,324.78971688406807,320.3991052355085,1134.4,324.78971688406807,320.3991052355085,1240.4,366.78971688406807,270.8991052355085,1340.4,312.78971688406807,341.3991052355085,1442,135.78971688406807,540.8991052355085,1545.8,63.78971688406808,581.3991052355085,1649.3,54.78971688406808,584.3991052355085,1756.3,54.78971688406808,584.3991052355085,1860.4,54.78971688406808,584.3991052355085,1970.2,54.78971688406808,584.3991052355085,2080.3,54.78971688406808,584.3991052355085,2182.7,54.78971688406808,584.3991052355085,2290.7,54.78971688406808,584.3991052355085,2398.6,54.78971688406808,584.3991052355085,2501.4,54.78971688406808,584.3991052355085,2615.2,54.78971688406808,584.3991052355085,2716,54.78971688406808,584.3991052355085,2817.5,54.78971688406808,584.3991052355085,2918.2,54.78971688406808,584.3991052355085,3023.5,54.78971688406808,584.3991052355085,3129.4,54.78971688406808,584.3991052355085,3245.2,54.78971688406808,584.3991052355085,3345.8,54.78971688406808,584.3991052355085,3448.8,54.78971688406808,584.3991052355085,3550.8,54.78971688406808,584.3991052355085,3652,54.78971688406808,584.3991052355085,3752.7,54.78971688406808,584.3991052355085,3863.5,54.78971688406808,584.3991052355085,3965.2,54.78971688406808,584.3991052355085,4068.2,54.78971688406808,584.3991052355085,4178.2,54.78971688406808,584.3991052355085,4284.8,54.78971688406808,584.3991052355085,4390.2,54.78971688406808,584.3991052355085,4496.5,54.78971688406808,584.3991052355085,4599.7,54.78971688406808,584.3991052355085,4702.4,54.78971688406808,584.3991052355085,4813.3,54.78971688406808,584.3991052355085,4918.2]","[1910.2,1910.2,1000,0,910.2,""smooth"",""down"",""down"",""good_move"",5263,3352.3,2905.1,1910.7,447.2,""smooth"",""down"",""down"",""good_move"",8398.7,3135,2567.9,5263.7,567.1,""oops"",""down"",""left"",""good_move"",11955.8,3556.4,2985.8,8399.4,570.6,""oops"",""down"",""up"",""bad_move"",18386.4,6429.8,2223.4,15778.6,384.4,""oops"",""left"",""right"",""bad_move"",21483,3096,2642.8,18387.1,453.2,""oops"",""left"",""up"",""bad_move"",24217.7,2733.3,2253.2,21484.4,480.1,""oops"",""left"",""left"",""good_move"",26816.9,2598.3,2187.8,24218.6,410.5,""oops"",""left"",""down"",""good_move"",29893.3,3075.7,2635.9,26817.7,439.8,""smooth"",""left"",""left"",""good_move""]","",""
"5425","","<div style=""width:500px;"">
  <p>What determined the result of this run?</p>
  </div>","17","html-slider-response","55","1318017","0.0-5.0-1.9","90","1","2025-07-16 09:28:01","1f75c3e559b7213887762d5229550c2b","41.114.188.132","Mozilla/5.0 (Windows NT 10.0; Win64; x64) AppleWebKit/537.36 (KHTML, like Gecko) Chrome/138.0.0.0 Safari/537.36","WebKit","Chrome","138.0.0.0","Windows","10.0","https://app.prolific.com/","en-US,en;q=0.9","665f10dc49cd980fdf304c19","68764874ac79eee8c1d4cb03","6877706e750003f669c7c8a2","2","0","665f10dc49cd980fdf304c19","2","0","2025-07-16T09:50:05.266Z","","","","","","","","","","","AttribQ","","50","","","","","","","","","","","","","","","","","","","","","","","","","","","","",""
"2427","","<div style=""width:500px;"">
  <p>How much control did you have over the ball?</p>
  </div>","5","html-slider-response","56","1320446","0.0-5.0-2.9","90","1","2025-07-16 09:28:01","1f75c3e559b7213887762d5229550c2b","41.114.188.132","Mozilla/5.0 (Windows NT 10.0; Win64; x64) AppleWebKit/537.36 (KHTML, like Gecko) Chrome/138.0.0.0 Safari/537.36","WebKit","Chrome","138.0.0.0","Windows","10.0","https://app.prolific.com/","en-US,en;q=0.9","665f10dc49cd980fdf304c19","68764874ac79eee8c1d4cb03","6877706e750003f669c7c8a2","2","0","665f10dc49cd980fdf304c19","2","0","2025-07-16T09:50:07.695Z","","","","","","","","","","","ControlQ","","50","","","","","","","","","","","","","","","","","","","","","","","","","","","","",""
"6785","","<div style=""width:500px;"">
  <p>How would you describe your current emotional state?</p>
  </div>","75","html-slider-response","57","1327233","0.0-5.0-3.9","90","1","2025-07-16 09:28:01","1f75c3e559b7213887762d5229550c2b","41.114.188.132","Mozilla/5.0 (Windows NT 10.0; Win64; x64) AppleWebKit/537.36 (KHTML, like Gecko) Chrome/138.0.0.0 Safari/537.36","WebKit","Chrome","138.0.0.0","Windows","10.0","https://app.prolific.com/","en-US,en;q=0.9","665f10dc49cd980fdf304c19","68764874ac79eee8c1d4cb03","6877706e750003f669c7c8a2","2","0","665f10dc49cd980fdf304c19","2","0","2025-07-16T09:50:14.482Z","","","","","","","","","","","StressQ","","50","","","","","","","","","","","","","","","","","","","","","","","","","","","","",""
"3197","","<div style=""width:500px;"">
  <p>What best describes how you currently feel?</p>
  </div>","63","html-slider-response","58","1330431","0.0-5.0-4.9","90","1","2025-07-16 09:28:01","1f75c3e559b7213887762d5229550c2b","41.114.188.132","Mozilla/5.0 (Windows NT 10.0; Win64; x64) AppleWebKit/537.36 (KHTML, like Gecko) Chrome/138.0.0.0 Safari/537.36","WebKit","Chrome","138.0.0.0","Windows","10.0","https://app.prolific.com/","en-US,en;q=0.9","665f10dc49cd980fdf304c19","68764874ac79eee8c1d4cb03","6877706e750003f669c7c8a2","2","0","665f10dc49cd980fdf304c19","2","0","2025-07-16T09:50:17.681Z","","","","","","","","","","","MotivationQ","","50","","","","","","","","","","","","","","","","","","","","","","","","","","","","",""
"","","","","ctl-task-cpt","59","1369765","0.0-5.0-0.10","90","1","2025-07-16 09:28:01","1f75c3e559b7213887762d5229550c2b","41.114.188.132","Mozilla/5.0 (Windows NT 10.0; Win64; x64) AppleWebKit/537.36 (KHTML, like Gecko) Chrome/138.0.0.0 Safari/537.36","WebKit","Chrome","138.0.0.0","Windows","10.0","https://app.prolific.com/","en-US,en;q=0.9","665f10dc49cd980fdf304c19","68764874ac79eee8c1d4cb03","6877706e750003f669c7c8a2","2","0","665f10dc49cd980fdf304c19","2","0","2025-07-16T09:50:57.014Z","","","","","","","","","","","","","","win-only","0","g1:NW,g2:SE","0.5","11","0","1336399.4","3345.9","8347.9","36319","1","4","4","6","2","4","3","3","0","0.022727272727272728","2348.7","3000","660","[""down"",""right""]","{""num_key_presses"":8,""num_perfect"":4,""num_errors"":1,""num_randdir"":3,""num_randdir_good_moves"":3,""num_whilered"":0,""num_whileblue"":1,""num_blue"":2,""num_good_moves"":7}","[320.28971688406807,317.3991052355085,0.3,320.28971688406807,317.3991052355085,100.4,320.28971688406807,317.3991052355085,217.6,320.28971688406807,317.3991052355085,322,320.28971688406807,317.3991052355085,425,320.28971688406807,317.3991052355085,526.6,320.28971688406807,317.3991052355085,638.2,320.28971688406807,317.3991052355085,743.3,320.28971688406807,317.3991052355085,848,320.28971688406807,317.3991052355085,949.6,320.28971688406807,317.3991052355085,1051.8,320.28971688406807,317.3991052355085,1160.9,320.28971688406807,317.3991052355085,1267.3,320.28971688406807,317.3991052355085,1371.5,320.28971688406807,317.3991052355085,1472.5,476.28971688406807,510.8991052355085,1575.9,530.2897168840681,572.3991052355085,1680.1,540.7897168840681,581.3991052355085,1787.5,557.2897168840681,566.3991052355085,1889,585.7897168840681,584.3991052355085,1990.7,585.7897168840681,584.3991052355085,2092.8,585.7897168840681,584.3991052355085,2196.9,585.7897168840681,584.3991052355085,2301.3,585.7897168840681,584.3991052355085,2401.8,585.7897168840681,584.3991052355085,2506.2,585.7897168840681,584.3991052355085,2607.2,585.7897168840681,584.3991052355085,2721.5,585.7897168840681,584.3991052355085,2826.2,585.7897168840681,584.3991052355085,2927.1,585.7897168840681,584.3991052355085,3032.6,585.7897168840681,584.3991052355085,3139.6,585.7897168840681,584.3991052355085,3246.1,585.7897168840681,584.3991052355085,3346.5,585.7897168840681,584.3991052355085,3450.9,585.7897168840681,584.3991052355085,3552.5,585.7897168840681,584.3991052355085,3654.1,585.7897168840681,584.3991052355085,3760.4,585.7897168840681,584.3991052355085,3868.1,585.7897168840681,584.3991052355085,3968.4,585.7897168840681,584.3991052355085,4073.1,585.7897168840681,584.3991052355085,4175.5,585.7897168840681,584.3991052355085,4278.6,585.7897168840681,584.3991052355085,4383.5,585.7897168840681,584.3991052355085,4493.8,585.7897168840681,584.3991052355085,4595.4,585.7897168840681,584.3991052355085,4697.8,585.7897168840681,584.3991052355085,4802,585.7897168840681,584.3991052355085,4902.4]","[5292.8,5292.8,2828.7,2012.3,451.8,""smooth"",""right"",""right"",""good_move"",8428,3134.7,2701.7,5293.3,433,""while_blue"",""right"",""up"",""bad_move"",11059.6,2631.1,2079.5,8428.5,551.6,""oops"",""right"",""down"",""good_move"",14983.8,3923.6,3141.6,11060.2,782.1,""smooth"",""right"",""right"",""good_move"",18431.6,3447.4,2982.8,14984.2,464.6,""oops"",""right"",""right"",""good_move"",21688.7,3256.6,2805.8,18432.1,450.8,""oops"",""down"",""down"",""good_move"",24652.1,2962.9,2181.4,21689.2,781.5,""smooth"",""down"",""down"",""good_move"",27805.8,3153.4,2522.9,24652.4,630.5,""smooth"",""down"",""down"",""good_move""]","",""
"10004","","<div style=""width:500px;"">
  <p>What determined the result of this run?</p>
  </div>","64","html-slider-response","60","1379772","0.0-5.0-1.10","90","1","2025-07-16 09:28:01","1f75c3e559b7213887762d5229550c2b","41.114.188.132","Mozilla/5.0 (Windows NT 10.0; Win64; x64) AppleWebKit/537.36 (KHTML, like Gecko) Chrome/138.0.0.0 Safari/537.36","WebKit","Chrome","138.0.0.0","Windows","10.0","https://app.prolific.com/","en-US,en;q=0.9","665f10dc49cd980fdf304c19","68764874ac79eee8c1d4cb03","6877706e750003f669c7c8a2","2","0","665f10dc49cd980fdf304c19","2","0","2025-07-16T09:51:07.021Z","","","","","","","","","","","AttribQ","","50","","","","","","","","","","","","","","","","","","","","","","","","","","","","",""
"9116","","<div style=""width:500px;"">
  <p>How much control did you have over the ball?</p>
  </div>","58","html-slider-response","61","1388890","0.0-5.0-2.10","90","1","2025-07-16 09:28:01","1f75c3e559b7213887762d5229550c2b","41.114.188.132","Mozilla/5.0 (Windows NT 10.0; Win64; x64) AppleWebKit/537.36 (KHTML, like Gecko) Chrome/138.0.0.0 Safari/537.36","WebKit","Chrome","138.0.0.0","Windows","10.0","https://app.prolific.com/","en-US,en;q=0.9","665f10dc49cd980fdf304c19","68764874ac79eee8c1d4cb03","6877706e750003f669c7c8a2","2","0","665f10dc49cd980fdf304c19","2","0","2025-07-16T09:51:16.139Z","","","","","","","","","","","ControlQ","","50","","","","","","","","","","","","","","","","","","","","","","","","","","","","",""
"6025","","<div style=""width:500px;"">
  <p>How would you describe your current emotional state?</p>
  </div>","71","html-slider-response","62","1394917","0.0-5.0-3.10","90","1","2025-07-16 09:28:01","1f75c3e559b7213887762d5229550c2b","41.114.188.132","Mozilla/5.0 (Windows NT 10.0; Win64; x64) AppleWebKit/537.36 (KHTML, like Gecko) Chrome/138.0.0.0 Safari/537.36","WebKit","Chrome","138.0.0.0","Windows","10.0","https://app.prolific.com/","en-US,en;q=0.9","665f10dc49cd980fdf304c19","68764874ac79eee8c1d4cb03","6877706e750003f669c7c8a2","2","0","665f10dc49cd980fdf304c19","2","0","2025-07-16T09:51:22.166Z","","","","","","","","","","","StressQ","","50","","","","","","","","","","","","","","","","","","","","","","","","","","","","",""
"16148","","<div style=""width:500px;"">
  <p>What best describes how you currently feel?</p>
  </div>","63","html-slider-response","63","1411067","0.0-5.0-4.10","90","1","2025-07-16 09:28:01","1f75c3e559b7213887762d5229550c2b","41.114.188.132","Mozilla/5.0 (Windows NT 10.0; Win64; x64) AppleWebKit/537.36 (KHTML, like Gecko) Chrome/138.0.0.0 Safari/537.36","WebKit","Chrome","138.0.0.0","Windows","10.0","https://app.prolific.com/","en-US,en;q=0.9","665f10dc49cd980fdf304c19","68764874ac79eee8c1d4cb03","6877706e750003f669c7c8a2","2","0","665f10dc49cd980fdf304c19","2","0","2025-07-16T09:51:38.316Z","","","","","","","","","","","MotivationQ","","50","","","","","","","","","","","","","","","","","","","","","","","","","","","","",""
"","","","","ctl-task-cpt","64","1461448","0.0-5.0-0.11","90","1","2025-07-16 09:28:01","1f75c3e559b7213887762d5229550c2b","41.114.188.132","Mozilla/5.0 (Windows NT 10.0; Win64; x64) AppleWebKit/537.36 (KHTML, like Gecko) Chrome/138.0.0.0 Safari/537.36","WebKit","Chrome","138.0.0.0","Windows","10.0","https://app.prolific.com/","en-US,en;q=0.9","665f10dc49cd980fdf304c19","68764874ac79eee8c1d4cb03","6877706e750003f669c7c8a2","2","0","665f10dc49cd980fdf304c19","2","0","2025-07-16T09:52:28.697Z","","","","","","","","","","","","","","win-only","3","g1:SW,g2:NE","0.6","12","0","1417035","1795.7","6803.9","47366.6","1","4","8","6","2","8","8","11","3","0.08333333333333333","2131.4","3000","705","[""up"",""right""]","{""num_key_presses"":8,""num_perfect"":6,""num_errors"":0,""num_randdir"":2,""num_randdir_good_moves"":1,""num_whilered"":0,""num_whileblue"":0,""num_blue"":4,""num_good_moves"":7}","[321.78971688406807,320.3991052355085,0.2,321.78971688406807,320.3991052355085,102,321.78971688406807,320.3991052355085,215.6,321.78971688406807,320.3991052355085,326.9,321.78971688406807,320.3991052355085,429.2,321.78971688406807,320.3991052355085,537.2,321.78971688406807,320.3991052355085,640.9,321.78971688406807,320.3991052355085,741.4,321.78971688406807,320.3991052355085,841.5,321.78971688406807,320.3991052355085,948.8,231.78971688406807,426.8991052355085,1058.9,224.28971688406807,464.3991052355085,1160.6,224.28971688406807,464.3991052355085,1261.2,224.28971688406807,464.3991052355085,1366.6,365.28971688406807,243.8991052355085,1469.9,540.7897168840681,114.8991052355085,1572.7,540.7897168840681,114.8991052355085,1679.1,540.7897168840681,114.8991052355085,1785.9,608.2897168840681,30.899105235508507,1890.7,608.2897168840681,33.89910523550851,1992.3,608.2897168840681,33.89910523550851,2104.7,608.2897168840681,33.89910523550851,2208.5,608.2897168840681,33.89910523550851,2318.2,608.2897168840681,33.89910523550851,2420.2,608.2897168840681,33.89910523550851,2520.9,608.2897168840681,33.89910523550851,2626.8,608.2897168840681,33.89910523550851,2735.8,608.2897168840681,33.89910523550851,2837.1,608.2897168840681,33.89910523550851,2942.1,608.2897168840681,33.89910523550851,3048.3,608.2897168840681,33.89910523550851,3155.4,608.2897168840681,33.89910523550851,3265.2,608.2897168840681,33.89910523550851,3366.2,608.2897168840681,33.89910523550851,3470.7,608.2897168840681,33.89910523550851,3573.8,608.2897168840681,33.89910523550851,3673.8,608.2897168840681,33.89910523550851,3779.9,608.2897168840681,33.89910523550851,3882.9,608.2897168840681,33.89910523550851,3983,608.2897168840681,33.89910523550851,4094,608.2897168840681,33.89910523550851,4195,608.2897168840681,33.89910523550851,4301.1,608.2897168840681,33.89910523550851,4408.1,608.2897168840681,33.89910523550851,4511,608.2897168840681,33.89910523550851,4615.7,608.2897168840681,33.89910523550851,4721,608.2897168840681,33.89910523550851,4830.4,608.2897168840681,33.89910523550851,4933.7]","[4591.4,4591.4,2088.2,2006.9,496.3,""smooth"",""up"",""up"",""good_move"",11214.2,6622.4,2275,8480.4,458.8,""oops"",""up"",""down"",""bad_move"",14486.5,3271.9,2072,11214.6,1199.9,""smooth"",""up"",""up"",""good_move"",18215,3728.1,2500.3,14486.9,1227.8,""smooth"",""up"",""up"",""good_move"",21586,3370.9,2730.9,18215.1,640,""smooth"",""up"",""up"",""good_move"",33412,11825.6,3035.8,29829.4,546.8,""smooth"",""right"",""right"",""good_move"",36962.8,3550.4,2840.9,33412.4,709.5,""smooth"",""right"",""right"",""good_move"",40371.4,3407.9,2736.5,36963.5,671.4,""oops"",""right"",""right"",""good_move""]","",""
"9552","","<div style=""width:500px;"">
  <p>What determined the result of this run?</p>
  </div>","81","html-slider-response","65","1471003","0.0-5.0-1.11","90","1","2025-07-16 09:28:01","1f75c3e559b7213887762d5229550c2b","41.114.188.132","Mozilla/5.0 (Windows NT 10.0; Win64; x64) AppleWebKit/537.36 (KHTML, like Gecko) Chrome/138.0.0.0 Safari/537.36","WebKit","Chrome","138.0.0.0","Windows","10.0","https://app.prolific.com/","en-US,en;q=0.9","665f10dc49cd980fdf304c19","68764874ac79eee8c1d4cb03","6877706e750003f669c7c8a2","2","0","665f10dc49cd980fdf304c19","2","0","2025-07-16T09:52:38.252Z","","","","","","","","","","","AttribQ","","50","","","","","","","","","","","","","","","","","","","","","","","","","","","","",""
"5769","","<div style=""width:500px;"">
  <p>How much control did you have over the ball?</p>
  </div>","72","html-slider-response","66","1476773","0.0-5.0-2.11","90","1","2025-07-16 09:28:01","1f75c3e559b7213887762d5229550c2b","41.114.188.132","Mozilla/5.0 (Windows NT 10.0; Win64; x64) AppleWebKit/537.36 (KHTML, like Gecko) Chrome/138.0.0.0 Safari/537.36","WebKit","Chrome","138.0.0.0","Windows","10.0","https://app.prolific.com/","en-US,en;q=0.9","665f10dc49cd980fdf304c19","68764874ac79eee8c1d4cb03","6877706e750003f669c7c8a2","2","0","665f10dc49cd980fdf304c19","2","0","2025-07-16T09:52:44.022Z","","","","","","","","","","","ControlQ","","50","","","","","","","","","","","","","","","","","","","","","","","","","","","","",""
"2838","","<div style=""width:500px;"">
  <p>How would you describe your current emotional state?</p>
  </div>","70","html-slider-response","67","1479612","0.0-5.0-3.11","90","1","2025-07-16 09:28:01","1f75c3e559b7213887762d5229550c2b","41.114.188.132","Mozilla/5.0 (Windows NT 10.0; Win64; x64) AppleWebKit/537.36 (KHTML, like Gecko) Chrome/138.0.0.0 Safari/537.36","WebKit","Chrome","138.0.0.0","Windows","10.0","https://app.prolific.com/","en-US,en;q=0.9","665f10dc49cd980fdf304c19","68764874ac79eee8c1d4cb03","6877706e750003f669c7c8a2","2","0","665f10dc49cd980fdf304c19","2","0","2025-07-16T09:52:46.861Z","","","","","","","","","","","StressQ","","50","","","","","","","","","","","","","","","","","","","","","","","","","","","","",""
"2970","","<div style=""width:500px;"">
  <p>What best describes how you currently feel?</p>
  </div>","66","html-slider-response","68","1482583","0.0-5.0-4.11","90","1","2025-07-16 09:28:01","1f75c3e559b7213887762d5229550c2b","41.114.188.132","Mozilla/5.0 (Windows NT 10.0; Win64; x64) AppleWebKit/537.36 (KHTML, like Gecko) Chrome/138.0.0.0 Safari/537.36","WebKit","Chrome","138.0.0.0","Windows","10.0","https://app.prolific.com/","en-US,en;q=0.9","665f10dc49cd980fdf304c19","68764874ac79eee8c1d4cb03","6877706e750003f669c7c8a2","2","0","665f10dc49cd980fdf304c19","2","0","2025-07-16T09:52:49.833Z","","","","","","","","","","","MotivationQ","","50","","","","","","","","","","","","","","","","","","","","","","","","","","","","",""
"","","","","ctl-task-cpt","69","1512828","0.0-5.0-0.12","90","1","2025-07-16 09:28:01","1f75c3e559b7213887762d5229550c2b","41.114.188.132","Mozilla/5.0 (Windows NT 10.0; Win64; x64) AppleWebKit/537.36 (KHTML, like Gecko) Chrome/138.0.0.0 Safari/537.36","WebKit","Chrome","138.0.0.0","Windows","10.0","https://app.prolific.com/","en-US,en;q=0.9","665f10dc49cd980fdf304c19","68764874ac79eee8c1d4cb03","6877706e750003f669c7c8a2","2","0","665f10dc49cd980fdf304c19","2","0","2025-07-16T09:53:20.077Z","","","","","","","","","","","","","","win-only","0","g1:NW,g2:SE","0.7","13","0","1488549.9","5392.9","10402.6","27231.4","1","4","8","6","1","1","1","12","11","0.09090909090909091","2334.9","3000","1500","[""left"",""up""]","{""num_key_presses"":6,""num_perfect"":5,""num_errors"":0,""num_randdir"":1,""num_randdir_good_moves"":0,""num_whilered"":0,""num_whileblue"":0,""num_blue"":0,""num_good_moves"":5}","[315.78971688406807,323.3991052355085,0.4,315.78971688406807,323.3991052355085,102.3,315.78971688406807,323.3991052355085,206.1,315.78971688406807,323.3991052355085,311.3,315.78971688406807,323.3991052355085,419.1,315.78971688406807,323.3991052355085,521.2,315.78971688406807,323.3991052355085,626.5,315.78971688406807,323.3991052355085,733,315.78971688406807,323.3991052355085,833.1,315.78971688406807,323.3991052355085,935.7,315.78971688406807,323.3991052355085,1045.4,315.78971688406807,323.3991052355085,1152.7,315.78971688406807,323.3991052355085,1253,315.78971688406807,323.3991052355085,1359.5,315.78971688406807,323.3991052355085,1464.5,315.78971688406807,323.3991052355085,1565.9,290.28971688406807,302.3991052355085,1674.6,90.78971688406807,125.3991052355085,1784.1,71.28971688406807,98.3991052355085,1884.4,66.78971688406807,89.3991052355085,1996.9,63.78971688406808,84.8991052355085,2098.5,63.78971688406808,74.3991052355085,2201.1,63.78971688406808,74.3991052355085,2308.6,63.78971688406808,74.3991052355085,2414.1,63.78971688406808,74.3991052355085,2516.6,63.78971688406808,74.3991052355085,2617.1,63.78971688406808,74.3991052355085,2718,63.78971688406808,74.3991052355085,2821.5,63.78971688406808,74.3991052355085,2924.7,63.78971688406808,74.3991052355085,3031.6,63.78971688406808,74.3991052355085,3133.6,63.78971688406808,74.3991052355085,3236.9,63.78971688406808,74.3991052355085,3346.6,63.78971688406808,74.3991052355085,3450.5,63.78971688406808,74.3991052355085,3551.1,63.78971688406808,74.3991052355085,3652.3,63.78971688406808,74.3991052355085,3753.5,63.78971688406808,74.3991052355085,3861.1,63.78971688406808,74.3991052355085,3961.2,63.78971688406808,74.3991052355085,4063.9,63.78971688406808,74.3991052355085,4164.4,63.78971688406808,74.3991052355085,4265,63.78971688406808,74.3991052355085,4368.6,63.78971688406808,74.3991052355085,4480.2,63.78971688406808,74.3991052355085,4583.7,63.78971688406808,74.3991052355085,4685,63.78971688406808,74.3991052355085,4792.5,63.78971688406808,74.3991052355085,4896.7,63.78971688406808,74.3991052355085,4998.6]","[1932.8,1932.8,1000,0,932.8,""oops"",""up"",""down"",""bad_move"",4840.8,2907.6,2429.2,1933.2,478.4,""smooth"",""up"",""up"",""good_move"",7793.2,2951.2,2574.9,4842,376.3,""smooth"",""up"",""up"",""good_move"",10426.4,2632.7,2152.2,7793.7,480.5,""smooth"",""up"",""up"",""good_move"",13689.3,3262.6,2888.9,10426.7,373.7,""smooth"",""left"",""left"",""good_move"",16584.8,2894.8,2527.9,13690,366.9,""smooth"",""left"",""left"",""good_move""]","",""
"5501","","<div style=""width:500px;"">
  <p>What determined the result of this run?</p>
  </div>","82","html-slider-response","70","1518331","0.0-5.0-1.12","90","1","2025-07-16 09:28:01","1f75c3e559b7213887762d5229550c2b","41.114.188.132","Mozilla/5.0 (Windows NT 10.0; Win64; x64) AppleWebKit/537.36 (KHTML, like Gecko) Chrome/138.0.0.0 Safari/537.36","WebKit","Chrome","138.0.0.0","Windows","10.0","https://app.prolific.com/","en-US,en;q=0.9","665f10dc49cd980fdf304c19","68764874ac79eee8c1d4cb03","6877706e750003f669c7c8a2","2","0","665f10dc49cd980fdf304c19","2","0","2025-07-16T09:53:25.580Z","","","","","","","","","","","AttribQ","","50","","","","","","","","","","","","","","","","","","","","","","","","","","","","",""
"3091","","<div style=""width:500px;"">
  <p>How much control did you have over the ball?</p>
  </div>","75","html-slider-response","71","1521424","0.0-5.0-2.12","90","1","2025-07-16 09:28:01","1f75c3e559b7213887762d5229550c2b","41.114.188.132","Mozilla/5.0 (Windows NT 10.0; Win64; x64) AppleWebKit/537.36 (KHTML, like Gecko) Chrome/138.0.0.0 Safari/537.36","WebKit","Chrome","138.0.0.0","Windows","10.0","https://app.prolific.com/","en-US,en;q=0.9","665f10dc49cd980fdf304c19","68764874ac79eee8c1d4cb03","6877706e750003f669c7c8a2","2","0","665f10dc49cd980fdf304c19","2","0","2025-07-16T09:53:28.673Z","","","","","","","","","","","ControlQ","","50","","","","","","","","","","","","","","","","","","","","","","","","","","","","",""
"4514","","<div style=""width:500px;"">
  <p>How would you describe your current emotional state?</p>
  </div>","74","html-slider-response","72","1525940","0.0-5.0-3.12","90","1","2025-07-16 09:28:01","1f75c3e559b7213887762d5229550c2b","41.114.188.132","Mozilla/5.0 (Windows NT 10.0; Win64; x64) AppleWebKit/537.36 (KHTML, like Gecko) Chrome/138.0.0.0 Safari/537.36","WebKit","Chrome","138.0.0.0","Windows","10.0","https://app.prolific.com/","en-US,en;q=0.9","665f10dc49cd980fdf304c19","68764874ac79eee8c1d4cb03","6877706e750003f669c7c8a2","2","0","665f10dc49cd980fdf304c19","2","0","2025-07-16T09:53:33.189Z","","","","","","","","","","","StressQ","","50","","","","","","","","","","","","","","","","","","","","","","","","","","","","",""
"3640","","<div style=""width:500px;"">
  <p>What best describes how you currently feel?</p>
  </div>","67","html-slider-response","73","1529582","0.0-5.0-4.12","90","1","2025-07-16 09:28:01","1f75c3e559b7213887762d5229550c2b","41.114.188.132","Mozilla/5.0 (Windows NT 10.0; Win64; x64) AppleWebKit/537.36 (KHTML, like Gecko) Chrome/138.0.0.0 Safari/537.36","WebKit","Chrome","138.0.0.0","Windows","10.0","https://app.prolific.com/","en-US,en;q=0.9","665f10dc49cd980fdf304c19","68764874ac79eee8c1d4cb03","6877706e750003f669c7c8a2","2","0","665f10dc49cd980fdf304c19","2","0","2025-07-16T09:53:36.831Z","","","","","","","","","","","MotivationQ","","50","","","","","","","","","","","","","","","","","","","","","","","","","","","","",""
"","","","","ctl-task-cpt","74","1564386","0.0-5.0-0.13","90","1","2025-07-16 09:28:01","1f75c3e559b7213887762d5229550c2b","41.114.188.132","Mozilla/5.0 (Windows NT 10.0; Win64; x64) AppleWebKit/537.36 (KHTML, like Gecko) Chrome/138.0.0.0 Safari/537.36","WebKit","Chrome","138.0.0.0","Windows","10.0","https://app.prolific.com/","en-US,en;q=0.9","665f10dc49cd980fdf304c19","68764874ac79eee8c1d4cb03","6877706e750003f669c7c8a2","2","0","665f10dc49cd980fdf304c19","2","0","2025-07-16T09:54:11.635Z","","","","","","","","","","","","","","win-only","0","g1:NW,g2:SE","0.8","14","0","1535548.8","2634.7","7643.6","31777.1","1","4","4","6","2","4","4","16","12","0.12121212121212122","2042.1","3000","1230","[""down"",""right""]","{""num_key_presses"":8,""num_perfect"":6,""num_errors"":0,""num_randdir"":2,""num_randdir_good_moves"":1,""num_whilered"":0,""num_whileblue"":0,""num_blue"":0,""num_good_moves"":7}","[323.28971688406807,320.3991052355085,0.3,323.28971688406807,320.3991052355085,107.3,323.28971688406807,320.3991052355085,209.1,323.28971688406807,320.3991052355085,316.6,323.28971688406807,320.3991052355085,429.2,323.28971688406807,320.3991052355085,540.9,323.28971688406807,320.3991052355085,643.8,323.28971688406807,320.3991052355085,749.2,323.28971688406807,320.3991052355085,856.7,323.28971688406807,320.3991052355085,961.1,323.28971688406807,320.3991052355085,1066.4,323.28971688406807,320.3991052355085,1172.2,339.78971688406807,335.3991052355085,1276.8,486.78971688406807,497.3991052355085,1391.4,528.7897168840681,554.3991052355085,1510,540.7897168840681,557.3991052355085,1614.2,588.7897168840681,588.8991052355085,1716.1,578.2897168840681,578.3991052355085,1821.7,578.2897168840681,578.3991052355085,1930.4,578.2897168840681,578.3991052355085,2035.5,578.2897168840681,578.3991052355085,2139.4,578.2897168840681,578.3991052355085,2244.5,578.2897168840681,578.3991052355085,2348.1,578.2897168840681,578.3991052355085,2457.4,578.2897168840681,578.3991052355085,2560.5,578.2897168840681,578.3991052355085,2668.3,578.2897168840681,578.3991052355085,2773.5,578.2897168840681,578.3991052355085,2878.8,578.2897168840681,578.3991052355085,2979.4,578.2897168840681,578.3991052355085,3086.1,578.2897168840681,578.3991052355085,3196.9,578.2897168840681,578.3991052355085,3300.3,578.2897168840681,578.3991052355085,3408.4,578.2897168840681,578.3991052355085,3518.7,578.2897168840681,578.3991052355085,3622.8,578.2897168840681,578.3991052355085,3725.4,578.2897168840681,578.3991052355085,3831.6,578.2897168840681,578.3991052355085,3938.6,578.2897168840681,578.3991052355085,4042.6,578.2897168840681,578.3991052355085,4148.3,578.2897168840681,578.3991052355085,4252.1,578.2897168840681,578.3991052355085,4353.1,578.2897168840681,578.3991052355085,4457.4,578.2897168840681,578.3991052355085,4559.9,578.2897168840681,578.3991052355085,4665.3,578.2897168840681,578.3991052355085,4769.6,578.2897168840681,578.3991052355085,4876.5,578.2897168840681,578.3991052355085,4987.6]","[1800.3,1800.3,1000,0,800.3,""smooth"",""right"",""right"",""good_move"",4363.4,2562.8,2059.5,1800.6,503.3,""smooth"",""right"",""right"",""good_move"",7324.6,2961,2484.8,4363.6,476.2,""smooth"",""down"",""down"",""good_move"",11082.4,3757.4,3263.6,7325,493.8,""oops"",""down"",""left"",""bad_move"",14371.2,3288.3,2594.4,11082.9,693.9,""smooth"",""down"",""down"",""good_move"",17823.7,3452.1,3019.3,14371.6,432.8,""smooth"",""right"",""right"",""good_move"",20912.6,3088.2,2402,17824.4,686.2,""smooth"",""right"",""right"",""good_move"",23962.5,3049.8,2569.8,20912.8,479.9,""oops"",""down"",""down"",""good_move""]","",""
"3301","","<div style=""width:500px;"">
  <p>What determined the result of this run?</p>
  </div>","88","html-slider-response","75","1567690","0.0-5.0-1.13","90","1","2025-07-16 09:28:01","1f75c3e559b7213887762d5229550c2b","41.114.188.132","Mozilla/5.0 (Windows NT 10.0; Win64; x64) AppleWebKit/537.36 (KHTML, like Gecko) Chrome/138.0.0.0 Safari/537.36","WebKit","Chrome","138.0.0.0","Windows","10.0","https://app.prolific.com/","en-US,en;q=0.9","665f10dc49cd980fdf304c19","68764874ac79eee8c1d4cb03","6877706e750003f669c7c8a2","2","0","665f10dc49cd980fdf304c19","2","0","2025-07-16T09:54:14.939Z","","","","","","","","","","","AttribQ","","50","","","","","","","","","","","","","","","","","","","","","","","","","","","","",""
"3616","","<div style=""width:500px;"">
  <p>How much control did you have over the ball?</p>
  </div>","63","html-slider-response","76","1571308","0.0-5.0-2.13","90","1","2025-07-16 09:28:01","1f75c3e559b7213887762d5229550c2b","41.114.188.132","Mozilla/5.0 (Windows NT 10.0; Win64; x64) AppleWebKit/537.36 (KHTML, like Gecko) Chrome/138.0.0.0 Safari/537.36","WebKit","Chrome","138.0.0.0","Windows","10.0","https://app.prolific.com/","en-US,en;q=0.9","665f10dc49cd980fdf304c19","68764874ac79eee8c1d4cb03","6877706e750003f669c7c8a2","2","0","665f10dc49cd980fdf304c19","2","0","2025-07-16T09:54:18.557Z","","","","","","","","","","","ControlQ","","50","","","","","","","","","","","","","","","","","","","","","","","","","","","","",""
"4093","","<div style=""width:500px;"">
  <p>How would you describe your current emotional state?</p>
  </div>","70","html-slider-response","77","1575404","0.0-5.0-3.13","90","1","2025-07-16 09:28:01","1f75c3e559b7213887762d5229550c2b","41.114.188.132","Mozilla/5.0 (Windows NT 10.0; Win64; x64) AppleWebKit/537.36 (KHTML, like Gecko) Chrome/138.0.0.0 Safari/537.36","WebKit","Chrome","138.0.0.0","Windows","10.0","https://app.prolific.com/","en-US,en;q=0.9","665f10dc49cd980fdf304c19","68764874ac79eee8c1d4cb03","6877706e750003f669c7c8a2","2","0","665f10dc49cd980fdf304c19","2","0","2025-07-16T09:54:22.653Z","","","","","","","","","","","StressQ","","50","","","","","","","","","","","","","","","","","","","","","","","","","","","","",""
"2200","","<div style=""width:500px;"">
  <p>What best describes how you currently feel?</p>
