"rt","response_timestamp","stimulus","response","trial_type","trial_index","time_elapsed","internal_node_id","run_id","condition","recorded_at","source_code_version","ip","user_agent","device","browser","browser_version","platform","platform_version","referer","accept_language","PROLIFIC_PID","STUDY_ID","SESSION_ID","WEEK","BATCH","prolific_id","week","batch","realtime","success","responses","item_order","radio_event_ids","radio_event_times","key_event_times","mouse_event_times","straightlining","zigzagging","honeypot","eventType","view_history","slider_start","which_type","canvas_config","goals_layout","control_level","trial_number","tutorial_trial_number","trial_start_time","phase1_start_time","phase2_start_time","phase3_start_time","goal_1_value","goal_1_distance","goal_2_value","goal_2_distance","goal_selected","outcome","outcome_total","participant_final_score","participant_initial_score","participant_final_score_prop","goal_choice_rt","allocated_time","allocated_time_remaining","goal_direction","counts","mouse_movements","key_presses","question_order","question_id"
"8835","1752654055479","<p style='font-size:40px;line-height:1.25'><strong>Welcome to the experiment!</strong></p><p style='font-size:1.1em;line-height:1.25'>Thank you for participanting in our experiment again! You will be asked to play the Dysfunctional Ball Game again. We will briefly recap the rules before we start.</p><p style='font-size:1.1em;line-height:1.25'>Press <strong>Next</strong> to continue.</p>","0","custom-html-button-response","0","8840","0.0-0.0","50","1","2025-07-16 08:20:41","1f75c3e559b7213887762d5229550c2b","41.114.229.5","Mozilla/5.0 (Windows NT 10.0; Win64; x64) AppleWebKit/537.36 (KHTML, like Gecko) Chrome/138.0.0.0 Safari/537.36","WebKit","Chrome","138.0.0.0","Windows","10.0","https://app.prolific.com/","en-GB,en-US;q=0.9,en;q=0.8","6744814c173b9afac78cf039","686e379bc37a29ffa5cdc956","6877601c2e090ae7fa9b45a7","1","1","6744814c173b9afac78cf039","1","1","2025-07-16T08:20:55.484Z","","","","","","","","","","","","","","","","","","","","","","","","","","","","","","","","","","","","","","","","","",""
"7544","","","","fullscreen","1","17412","0.0-1.0","50","1","2025-07-16 08:20:41","1f75c3e559b7213887762d5229550c2b","41.114.229.5","Mozilla/5.0 (Windows NT 10.0; Win64; x64) AppleWebKit/537.36 (KHTML, like Gecko) Chrome/138.0.0.0 Safari/537.36","WebKit","Chrome","138.0.0.0","Windows","10.0","https://app.prolific.com/","en-GB,en-US;q=0.9,en;q=0.8","6744814c173b9afac78cf039","686e379bc37a29ffa5cdc956","6877601c2e090ae7fa9b45a7","1","1","6744814c173b9afac78cf039","1","1","","true","","","","","","","","","","","","","","","","","","","","","","","","","","","","","","","","","","","","","","","","",""
"3865","1752654067922","<p style='font-size:1.1em;line-height:1.25'>In the following, we will ask you a few questions relating to your feelings in the last 24 hours.<br></p><p style='font-size:1.1em;line-height:1.25'>Press the <strong>Next</strong> button to continue.</p>","0","custom-html-button-response","2","21280","0.0-2.0-0.0","50","1","2025-07-16 08:20:41","1f75c3e559b7213887762d5229550c2b","41.114.229.5","Mozilla/5.0 (Windows NT 10.0; Win64; x64) AppleWebKit/537.36 (KHTML, like Gecko) Chrome/138.0.0.0 Safari/537.36","WebKit","Chrome","138.0.0.0","Windows","10.0","https://app.prolific.com/","en-GB,en-US;q=0.9,en;q=0.8","6744814c173b9afac78cf039","686e379bc37a29ffa5cdc956","6877601c2e090ae7fa9b45a7","1","1","6744814c173b9afac78cf039","1","1","2025-07-16T08:21:07.924Z","","","","","","","","","","","","","","","","","","","","","","","","","","","","","","","","","","","","","","","","","",""
"85401.20000000298","","","","survey-template","3","106700","0.0-2.0-1.0","50","1","2025-07-16 08:20:41","1f75c3e559b7213887762d5229550c2b","41.114.229.5","Mozilla/5.0 (Windows NT 10.0; Win64; x64) AppleWebKit/537.36 (KHTML, like Gecko) Chrome/138.0.0.0 Safari/537.36","WebKit","Chrome","138.0.0.0","Windows","10.0","https://app.prolific.com/","en-GB,en-US;q=0.9,en;q=0.8","6744814c173b9afac78cf039","686e379bc37a29ffa5cdc956","6877601c2e090ae7fa9b45a7","1","1","6744814c173b9afac78cf039","1","1","2025-07-16T08:22:33.343Z","","{""Q01"":""3"",""Q02"":""5"",""Q03"":""2"",""Q04"":""2"",""Q05"":""3"",""Q06"":""4"",""Q07"":""4"",""Q08"":""3"",""Q09"":""4"",""Q10"":""3"",""Q11"":""3"",""Q12"":""2"",""Q13"":""5"",""Q14"":""3"",""Q15"":""2"",""Q16"":""3"",""Q17"":""2"",""Q18"":""3"",""Q19"":""0"",""Q20"":""0"",""Q21"":""1"",""Q22"":""1""}","[0,1,2,3,4,5,6,7,8,9,10,11,12,13,14,15,16,17,18,19,20,21]","[""Q01"",""Q02"",""Q03"",""Q04"",""Q05"",""Q06"",""Q07"",""Q08"",""Q09"",""Q10"",""Q11"",""Q12"",""Q13"",""Q14"",""Q15"",""Q16"",""Q17"",""Q18"",""Q19"",""Q20"",""Q21"",""Q22""]","[13234,15051,17606.20000000298,19196,20519.5,24508.40000000596,26387.29999999702,28006.79999999702,30595.5,32510.20000000298,34912.29999999702,36193.60000000894,45149.29999999702,50232.60000000894,52204.10000000894,55627.40000000596,61125.40000000596,65225.60000000894,69349.40000000596,72364.10000000894,75454.5,78669.90000000596]","[]","[0.20000000298023224,11528.70000000298,13234,15051,17606.20000000298,19196,20519.5,22315.40000000596,24508.40000000596,26387.29999999702,28006.79999999702,30595.5,32510.20000000298,34912.29999999702,36193.60000000894,45149.29999999702,50232.60000000894,52204.10000000894,55627.40000000596,59401.10000000894,61125.40000000596,63817.20000000298,65225.60000000894,69349.40000000596,72364.10000000894,75454.5,78669.90000000596,85383]","0.36363636363636365","0.5238095238095238","0","drsp","","","","","","","","","","","","","","","","","","","","","","","","","","","","","","",""
"16633.90000000596","","","","survey-template","4","123340","0.0-2.0-2.0","50","1","2025-07-16 08:20:41","1f75c3e559b7213887762d5229550c2b","41.114.229.5","Mozilla/5.0 (Windows NT 10.0; Win64; x64) AppleWebKit/537.36 (KHTML, like Gecko) Chrome/138.0.0.0 Safari/537.36","WebKit","Chrome","138.0.0.0","Windows","10.0","https://app.prolific.com/","en-GB,en-US;q=0.9,en;q=0.8","6744814c173b9afac78cf039","686e379bc37a29ffa5cdc956","6877601c2e090ae7fa9b45a7","1","1","6744814c173b9afac78cf039","1","1","2025-07-16T08:22:49.983Z","","{""Q01"":""3"",""Q02"":""0"",""Q03"":""1""}","[0,1,2]","[""Q01"",""Q02"",""Q03""]","[8207.29999999702,9934.10000000894,14645.90000000596]","[]","[5166.100000008941,7072,8207.29999999702,9934.10000000894,13473.40000000596,14645.90000000596,16629.79999999702]","0.3333333333333333","0","0","stress","","","","","","","","","","","","","","","","","","","","","","","","","","","","","","",""
"13773","","","","instructions","5","137117","0.0-3.0-0.0","50","1","2025-07-16 08:20:41","1f75c3e559b7213887762d5229550c2b","41.114.229.5","Mozilla/5.0 (Windows NT 10.0; Win64; x64) AppleWebKit/537.36 (KHTML, like Gecko) Chrome/138.0.0.0 Safari/537.36","WebKit","Chrome","138.0.0.0","Windows","10.0","https://app.prolific.com/","en-GB,en-US;q=0.9,en;q=0.8","6744814c173b9afac78cf039","686e379bc37a29ffa5cdc956","6877601c2e090ae7fa9b45a7","1","1","6744814c173b9afac78cf039","1","1","","","","","","","","","","","","","[{""page_index"":0,""viewing_time"":13773}]","","","","","","","","","","","","","","","","","","","","","","","","","","","","","",""
"19610","","<p>Before you start with this game please answer the following three questions yourself. </p>
  <p>Through this game, we measure several aspects of your cognitive performance, such as reaction times, multi-tasking capabilities </p>
  <p>and the ability to assess the situation you are in.</p>
  <p></p>
  <p><b>How good do you usually are in such tasks?</b></p>","56","html-slider-response","6","156732","0.0-4.0-0.0","50","1","2025-07-16 08:20:41","1f75c3e559b7213887762d5229550c2b","41.114.229.5","Mozilla/5.0 (Windows NT 10.0; Win64; x64) AppleWebKit/537.36 (KHTML, like Gecko) Chrome/138.0.0.0 Safari/537.36","WebKit","Chrome","138.0.0.0","Windows","10.0","https://app.prolific.com/","en-GB,en-US;q=0.9,en;q=0.8","6744814c173b9afac78cf039","686e379bc37a29ffa5cdc956","6877601c2e090ae7fa9b45a7","1","1","6744814c173b9afac78cf039","1","1","2025-07-16T08:23:23.376Z","","","","","","","","","","","PreSkillQ","","50","","","","","","","","","","","","","","","","","","","","","","","","","","","","",""
"7170","","<div style=""width:500px;"">
  <p>How well do you think you will perform in this task compared to other participants?</p>
  </div>","63","html-slider-response","7","163910","0.0-4.0-1.0","50","1","2025-07-16 08:20:41","1f75c3e559b7213887762d5229550c2b","41.114.229.5","Mozilla/5.0 (Windows NT 10.0; Win64; x64) AppleWebKit/537.36 (KHTML, like Gecko) Chrome/138.0.0.0 Safari/537.36","WebKit","Chrome","138.0.0.0","Windows","10.0","https://app.prolific.com/","en-GB,en-US;q=0.9,en;q=0.8","6744814c173b9afac78cf039","686e379bc37a29ffa5cdc956","6877601c2e090ae7fa9b45a7","1","1","6744814c173b9afac78cf039","1","1","2025-07-16T08:23:30.553Z","","","","","","","","","","","PrePerfQ","","50","","","","","","","","","","","","","","","","","","","","","","","","","","","","",""
"4749","","<div style=""width:500px;"">
  <p>What best describes how you currently feel?</p>
  </div>","100","html-slider-response","8","168663","0.0-4.0-2.0","50","1","2025-07-16 08:20:41","1f75c3e559b7213887762d5229550c2b","41.114.229.5","Mozilla/5.0 (Windows NT 10.0; Win64; x64) AppleWebKit/537.36 (KHTML, like Gecko) Chrome/138.0.0.0 Safari/537.36","WebKit","Chrome","138.0.0.0","Windows","10.0","https://app.prolific.com/","en-GB,en-US;q=0.9,en;q=0.8","6744814c173b9afac78cf039","686e379bc37a29ffa5cdc956","6877601c2e090ae7fa9b45a7","1","1","6744814c173b9afac78cf039","1","1","2025-07-16T08:23:35.306Z","","","","","","","","","","","PreMotivationQ","","50","","","","","","","","","","","","","","","","","","","","","","","","","","","","",""
"","","","","ctl-task-cpt","9","205453","0.0-5.0-0.0","50","1","2025-07-16 08:20:41","1f75c3e559b7213887762d5229550c2b","41.114.229.5","Mozilla/5.0 (Windows NT 10.0; Win64; x64) AppleWebKit/537.36 (KHTML, like Gecko) Chrome/138.0.0.0 Safari/537.36","WebKit","Chrome","138.0.0.0","Windows","10.0","https://app.prolific.com/","en-GB,en-US;q=0.9,en;q=0.8","6744814c173b9afac78cf039","686e379bc37a29ffa5cdc956","6877601c2e090ae7fa9b45a7","1","1","6744814c173b9afac78cf039","1","1","2025-07-16T08:24:12.096Z","","","","","","","","","","","","","","win-only","2","g1:SE,g2:NW","1","1","0","178319.4","4648.7","9661.7","33766.8","1","4","4","6","2","4","4","4","0","0.030303030303030304","5013","3000","1270","[""left"",""up""]","{""num_key_presses"":6,""num_perfect"":6,""num_errors"":0,""num_randdir"":0,""num_randdir_good_moves"":0,""num_whilered"":0,""num_whileblue"":0,""num_blue"":2,""num_good_moves"":6}","[296.22232142857143,301.12857142857143,0.8,296.22232142857143,301.12857142857143,124.1,296.22232142857143,301.12857142857143,226.4,296.22232142857143,301.12857142857143,336.6,296.22232142857143,301.12857142857143,439.6,296.22232142857143,301.12857142857143,545.6,296.22232142857143,301.12857142857143,646,296.22232142857143,301.12857142857143,754,296.22232142857143,301.12857142857143,864.6,296.22232142857143,301.12857142857143,964.7,296.22232142857143,301.12857142857143,1065.8,296.22232142857143,301.12857142857143,1166,296.22232142857143,301.12857142857143,1270.6,296.22232142857143,301.12857142857143,1370.7,296.22232142857143,301.12857142857143,1474.9,296.22232142857143,301.12857142857143,1585.3,296.22232142857143,301.12857142857143,1690.1,296.22232142857143,301.12857142857143,1790.1,296.22232142857143,301.12857142857143,1895.4,296.22232142857143,301.12857142857143,1995.5,296.22232142857143,301.12857142857143,2104.2,296.22232142857143,301.12857142857143,2206.2,296.22232142857143,301.12857142857143,2306.6,296.22232142857143,301.12857142857143,2407.7,296.22232142857143,301.12857142857143,2508.8,296.22232142857143,301.12857142857143,2615.8,296.22232142857143,301.12857142857143,2716.2,296.22232142857143,301.12857142857143,2823.9,296.22232142857143,301.12857142857143,2925.1,296.22232142857143,301.12857142857143,3030.5,296.22232142857143,301.12857142857143,3135.1,296.22232142857143,301.12857142857143,3243.3,296.22232142857143,301.12857142857143,3343.5,296.22232142857143,301.12857142857143,3443.7,296.22232142857143,301.12857142857143,3546,296.22232142857143,301.12857142857143,3646.9,296.22232142857143,301.12857142857143,3755.4,296.22232142857143,301.12857142857143,3865.4,296.22232142857143,301.12857142857143,3965.4,296.22232142857143,301.12857142857143,4071.7,296.22232142857143,301.12857142857143,4172,296.22232142857143,301.12857142857143,4273.6,296.22232142857143,301.12857142857143,4385.2,296.22232142857143,301.12857142857143,4486.2,296.22232142857143,301.12857142857143,4586.2,296.22232142857143,301.12857142857143,4689.9,296.22232142857143,301.12857142857143,4795.7,296.22232142857143,301.12857142857143,4906.5]","[8502.1,8502.1,2683.2,4961.8,857.2,""smooth"",""left"",""left"",""good_move"",11405.8,2900.7,2328.4,8505.2,572.2,""smooth"",""left"",""left"",""good_move"",14521.3,3113.9,2611.6,11407.4,502.3,""smooth"",""left"",""left"",""good_move"",17680.4,3153.5,2739.8,14526.9,413.7,""smooth"",""up"",""up"",""good_move"",21305.2,3618.3,3174,17687.1,444.2,""smooth"",""up"",""up"",""good_move"",23927.2,2621.1,2252,21306.1,369.1,""smooth"",""up"",""up"",""good_move""]","",""
"7486","","<div style=""width:500px;"">
  <p>What determined the result of this run?</p>
  </div>","100","html-slider-response","10","212947","0.0-5.0-1.0","50","1","2025-07-16 08:20:41","1f75c3e559b7213887762d5229550c2b","41.114.229.5","Mozilla/5.0 (Windows NT 10.0; Win64; x64) AppleWebKit/537.36 (KHTML, like Gecko) Chrome/138.0.0.0 Safari/537.36","WebKit","Chrome","138.0.0.0","Windows","10.0","https://app.prolific.com/","en-GB,en-US;q=0.9,en;q=0.8","6744814c173b9afac78cf039","686e379bc37a29ffa5cdc956","6877601c2e090ae7fa9b45a7","1","1","6744814c173b9afac78cf039","1","1","2025-07-16T08:24:19.591Z","","","","","","","","","","","AttribQ","","50","","","","","","","","","","","","","","","","","","","","","","","","","","","","",""
"5025","","<div style=""width:500px;"">
  <p>How much control did you have over the ball?</p>
  </div>","100","html-slider-response","11","217979","0.0-5.0-2.0","50","1","2025-07-16 08:20:41","1f75c3e559b7213887762d5229550c2b","41.114.229.5","Mozilla/5.0 (Windows NT 10.0; Win64; x64) AppleWebKit/537.36 (KHTML, like Gecko) Chrome/138.0.0.0 Safari/537.36","WebKit","Chrome","138.0.0.0","Windows","10.0","https://app.prolific.com/","en-GB,en-US;q=0.9,en;q=0.8","6744814c173b9afac78cf039","686e379bc37a29ffa5cdc956","6877601c2e090ae7fa9b45a7","1","1","6744814c173b9afac78cf039","1","1","2025-07-16T08:24:24.623Z","","","","","","","","","","","ControlQ","","50","","","","","","","","","","","","","","","","","","","","","","","","","","","","",""
"4683","","<div style=""width:500px;"">
  <p>How would you describe your current emotional state?</p>
  </div>","29","html-slider-response","12","222668","0.0-5.0-3.0","50","1","2025-07-16 08:20:41","1f75c3e559b7213887762d5229550c2b","41.114.229.5","Mozilla/5.0 (Windows NT 10.0; Win64; x64) AppleWebKit/537.36 (KHTML, like Gecko) Chrome/138.0.0.0 Safari/537.36","WebKit","Chrome","138.0.0.0","Windows","10.0","https://app.prolific.com/","en-GB,en-US;q=0.9,en;q=0.8","6744814c173b9afac78cf039","686e379bc37a29ffa5cdc956","6877601c2e090ae7fa9b45a7","1","1","6744814c173b9afac78cf039","1","1","2025-07-16T08:24:29.311Z","","","","","","","","","","","StressQ","","50","","","","","","","","","","","","","","","","","","","","","","","","","","","","",""
"3665","","<div style=""width:500px;"">
  <p>What best describes how you currently feel?</p>
  </div>","78","html-slider-response","13","226338","0.0-5.0-4.0","50","1","2025-07-16 08:20:41","1f75c3e559b7213887762d5229550c2b","41.114.229.5","Mozilla/5.0 (Windows NT 10.0; Win64; x64) AppleWebKit/537.36 (KHTML, like Gecko) Chrome/138.0.0.0 Safari/537.36","WebKit","Chrome","138.0.0.0","Windows","10.0","https://app.prolific.com/","en-GB,en-US;q=0.9,en;q=0.8","6744814c173b9afac78cf039","686e379bc37a29ffa5cdc956","6877601c2e090ae7fa9b45a7","1","1","6744814c173b9afac78cf039","1","1","2025-07-16T08:24:32.981Z","","","","","","","","","","","MotivationQ","","50","","","","","","","","","","","","","","","","","","","","","","","","","","","","",""
"","","","","ctl-task-cpt","14","252114","0.0-5.0-0.1","50","1","2025-07-16 08:20:41","1f75c3e559b7213887762d5229550c2b","41.114.229.5","Mozilla/5.0 (Windows NT 10.0; Win64; x64) AppleWebKit/537.36 (KHTML, like Gecko) Chrome/138.0.0.0 Safari/537.36","WebKit","Chrome","138.0.0.0","Windows","10.0","https://app.prolific.com/","en-GB,en-US;q=0.9,en;q=0.8","6744814c173b9afac78cf039","686e379bc37a29ffa5cdc956","6877601c2e090ae7fa9b45a7","1","1","6744814c173b9afac78cf039","1","1","2025-07-16T08:24:58.757Z","","","","","","","","","","","","","","win-only","1","g1:NE,g2:SW","0.9","2","0","235988","3727.6","8735","22768","1","4","8","6","1","1","1","5","4","0.03787878787878788","5007.3","3000","1820","[""up"",""right""]","{""num_key_presses"":4,""num_perfect"":4,""num_errors"":0,""num_randdir"":0,""num_randdir_good_moves"":0,""num_whilered"":0,""num_whileblue"":0,""num_blue"":1,""num_good_moves"":4}","[298.22232142857143,295.12857142857143,0.8,298.22232142857143,295.12857142857143,112.1,298.22232142857143,295.12857142857143,214.2,298.22232142857143,295.12857142857143,319.4,298.22232142857143,295.12857142857143,420.1,298.22232142857143,295.12857142857143,521.5,298.22232142857143,295.12857142857143,622.1,298.22232142857143,295.12857142857143,731.7,298.22232142857143,295.12857142857143,831.8,298.22232142857143,295.12857142857143,933.8,298.22232142857143,295.12857142857143,1034.2,298.22232142857143,295.12857142857143,1142,298.22232142857143,295.12857142857143,1247.9,298.22232142857143,295.12857142857143,1354.3,298.22232142857143,295.12857142857143,1454.4,298.22232142857143,295.12857142857143,1554.9,298.22232142857143,295.12857142857143,1656.2,298.22232142857143,295.12857142857143,1761.6,298.22232142857143,295.12857142857143,1865.7,298.22232142857143,295.12857142857143,1965.7,298.22232142857143,295.12857142857143,2071.8,298.22232142857143,295.12857142857143,2172.2,298.22232142857143,295.12857142857143,2272.6,298.22232142857143,295.12857142857143,2373.4,298.22232142857143,295.12857142857143,2482.3,298.22232142857143,295.12857142857143,2583.8,298.22232142857143,295.12857142857143,2687.1,298.22232142857143,295.12857142857143,2789.6,298.22232142857143,295.12857142857143,2894.9,298.22232142857143,295.12857142857143,2999.4,298.22232142857143,295.12857142857143,3099.8,298.22232142857143,295.12857142857143,3211.7,298.22232142857143,295.12857142857143,3312.6,298.22232142857143,295.12857142857143,3416.3,298.22232142857143,295.12857142857143,3522.2,298.22232142857143,295.12857142857143,3622.9,298.22232142857143,295.12857142857143,3722.9,298.22232142857143,295.12857142857143,3831.9,298.22232142857143,295.12857142857143,3939.8,298.22232142857143,295.12857142857143,4042.6,298.22232142857143,295.12857142857143,4150,298.22232142857143,295.12857142857143,4250,298.22232142857143,295.12857142857143,4350.3,298.22232142857143,295.12857142857143,4457.5,298.22232142857143,295.12857142857143,4562.7,298.22232142857143,295.12857142857143,4663.1,298.22232142857143,295.12857142857143,4763.4,298.22232142857143,295.12857142857143,4866.5,298.22232142857143,295.12857142857143,4967.1]","[1515.5,1515.5,1000,0,515.5,""smooth"",""right"",""right"",""good_move"",7884.9,6368.5,2594,4874.4,416.5,""smooth"",""right"",""right"",""good_move"",11062.3,3176.8,2770,7885.5,406.8,""smooth"",""up"",""up"",""good_move"",13904.7,2838.9,2425.9,11065.8,413,""smooth"",""up"",""up"",""good_move""]","",""
"3989","","<div style=""width:500px;"">
  <p>What determined the result of this run?</p>
  </div>","100","html-slider-response","15","256105","0.0-5.0-1.1","50","1","2025-07-16 08:20:41","1f75c3e559b7213887762d5229550c2b","41.114.229.5","Mozilla/5.0 (Windows NT 10.0; Win64; x64) AppleWebKit/537.36 (KHTML, like Gecko) Chrome/138.0.0.0 Safari/537.36","WebKit","Chrome","138.0.0.0","Windows","10.0","https://app.prolific.com/","en-GB,en-US;q=0.9,en;q=0.8","6744814c173b9afac78cf039","686e379bc37a29ffa5cdc956","6877601c2e090ae7fa9b45a7","1","1","6744814c173b9afac78cf039","1","1","2025-07-16T08:25:02.748Z","","","","","","","","","","","AttribQ","","50","","","","","","","","","","","","","","","","","","","","","","","","","","","","",""
"3276","","<div style=""width:500px;"">
  <p>How much control did you have over the ball?</p>
  </div>","100","html-slider-response","16","259384","0.0-5.0-2.1","50","1","2025-07-16 08:20:41","1f75c3e559b7213887762d5229550c2b","41.114.229.5","Mozilla/5.0 (Windows NT 10.0; Win64; x64) AppleWebKit/537.36 (KHTML, like Gecko) Chrome/138.0.0.0 Safari/537.36","WebKit","Chrome","138.0.0.0","Windows","10.0","https://app.prolific.com/","en-GB,en-US;q=0.9,en;q=0.8","6744814c173b9afac78cf039","686e379bc37a29ffa5cdc956","6877601c2e090ae7fa9b45a7","1","1","6744814c173b9afac78cf039","1","1","2025-07-16T08:25:06.028Z","","","","","","","","","","","ControlQ","","50","","","","","","","","","","","","","","","","","","","","","","","","","","","","",""
"4073","","<div style=""width:500px;"">
  <p>How would you describe your current emotional state?</p>
  </div>","21","html-slider-response","17","263460","0.0-5.0-3.1","50","1","2025-07-16 08:20:41","1f75c3e559b7213887762d5229550c2b","41.114.229.5","Mozilla/5.0 (Windows NT 10.0; Win64; x64) AppleWebKit/537.36 (KHTML, like Gecko) Chrome/138.0.0.0 Safari/537.36","WebKit","Chrome","138.0.0.0","Windows","10.0","https://app.prolific.com/","en-GB,en-US;q=0.9,en;q=0.8","6744814c173b9afac78cf039","686e379bc37a29ffa5cdc956","6877601c2e090ae7fa9b45a7","1","1","6744814c173b9afac78cf039","1","1","2025-07-16T08:25:10.103Z","","","","","","","","","","","StressQ","","50","","","","","","","","","","","","","","","","","","","","","","","","","","","","",""
"4939","","<div style=""width:500px;"">
  <p>What best describes how you currently feel?</p>
  </div>","100","html-slider-response","18","268404","0.0-5.0-4.1","50","1","2025-07-16 08:20:41","1f75c3e559b7213887762d5229550c2b","41.114.229.5","Mozilla/5.0 (Windows NT 10.0; Win64; x64) AppleWebKit/537.36 (KHTML, like Gecko) Chrome/138.0.0.0 Safari/537.36","WebKit","Chrome","138.0.0.0","Windows","10.0","https://app.prolific.com/","en-GB,en-US;q=0.9,en;q=0.8","6744814c173b9afac78cf039","686e379bc37a29ffa5cdc956","6877601c2e090ae7fa9b45a7","1","1","6744814c173b9afac78cf039","1","1","2025-07-16T08:25:15.048Z","","","","","","","","","","","MotivationQ","","50","","","","","","","","","","","","","","","","","","","","","","","","","","","","",""
"","","","","ctl-task-cpt","19","294373","0.0-5.0-0.2","50","1","2025-07-16 08:20:41","1f75c3e559b7213887762d5229550c2b","41.114.229.5","Mozilla/5.0 (Windows NT 10.0; Win64; x64) AppleWebKit/537.36 (KHTML, like Gecko) Chrome/138.0.0.0 Safari/537.36","WebKit","Chrome","138.0.0.0","Windows","10.0","https://app.prolific.com/","en-GB,en-US;q=0.9,en;q=0.8","6744814c173b9afac78cf039","686e379bc37a29ffa5cdc956","6877601c2e090ae7fa9b45a7","1","1","6744814c173b9afac78cf039","1","1","2025-07-16T08:25:41.017Z","","","","","","","","","","","","","","win-only","0","g1:NW,g2:SE","0.8","3","0","278059.7","2346.1","7347.4","22945.6","1","4","4","6","2","4","4","9","5","0.06818181818181818","5001.3","3000","1420","[""down"",""right""]","{""num_key_presses"":6,""num_perfect"":6,""num_errors"":0,""num_randdir"":0,""num_randdir_good_moves"":0,""num_whilered"":0,""num_whileblue"":0,""num_blue"":0,""num_good_moves"":6}","[299.22232142857143,295.12857142857143,0.6,299.22232142857143,295.12857142857143,101.8,299.22232142857143,295.12857142857143,206.1,299.22232142857143,295.12857142857143,310.3,299.22232142857143,295.12857142857143,421,299.22232142857143,295.12857142857143,527.1,299.22232142857143,295.12857142857143,628.6,299.22232142857143,295.12857142857143,730.3,299.22232142857143,295.12857142857143,836.9,299.22232142857143,295.12857142857143,940.5,299.22232142857143,295.12857142857143,1052.6,299.22232142857143,295.12857142857143,1153.2,299.22232142857143,295.12857142857143,1255.9,299.22232142857143,295.12857142857143,1358,299.22232142857143,295.12857142857143,1460.4,299.22232142857143,295.12857142857143,1566,299.22232142857143,295.12857142857143,1670.3,299.22232142857143,295.12857142857143,1776.6,299.22232142857143,295.12857142857143,1886.7,299.22232142857143,295.12857142857143,1994,299.22232142857143,295.12857142857143,2095.9,299.22232142857143,295.12857142857143,2196.9,299.22232142857143,295.12857142857143,2306.5,299.22232142857143,295.12857142857143,2412.2,299.22232142857143,295.12857142857143,2517.8,299.22232142857143,295.12857142857143,2621.3,299.22232142857143,295.12857142857143,2725.3,299.22232142857143,295.12857142857143,2836.7,299.22232142857143,295.12857142857143,2937.4,299.22232142857143,295.12857142857143,3039.3,299.22232142857143,295.12857142857143,3145.2,299.22232142857143,295.12857142857143,3250.3,299.22232142857143,295.12857142857143,3390.5,299.22232142857143,295.12857142857143,3838.7,299.22232142857143,295.12857142857143,3953.7,299.22232142857143,295.12857142857143,4056,299.22232142857143,295.12857142857143,4160.4,299.22232142857143,295.12857142857143,4262,299.22232142857143,295.12857142857143,4364.8,299.22232142857143,295.12857142857143,4465.9,299.22232142857143,295.12857142857143,4571,299.22232142857143,295.12857142857143,4675.8,299.22232142857143,295.12857142857143,4778.1,299.22232142857143,295.12857142857143,4884.1,299.22232142857143,295.12857142857143,4988.6]","[1544.8,1544.8,1000,0,544.8,""smooth"",""right"",""right"",""good_move"",4722,3171.7,2769.8,1550.3,401.9,""smooth"",""right"",""right"",""good_move"",7177.8,2454.8,2065.1,4723,389.7,""smooth"",""right"",""right"",""good_move"",9857.6,2674.9,2239.8,7182.8,435,""smooth"",""down"",""down"",""good_move"",12392.9,2533.2,2194.1,9859.8,339.1,""smooth"",""down"",""down"",""good_move"",15461.9,3067.9,2739.6,12394,328.3,""smooth"",""down"",""down"",""good_move""]","",""
"5125","","<div style=""width:500px;"">
  <p>What determined the result of this run?</p>
  </div>","100","html-slider-response","20","299502","0.0-5.0-1.2","50","1","2025-07-16 08:20:41","1f75c3e559b7213887762d5229550c2b","41.114.229.5","Mozilla/5.0 (Windows NT 10.0; Win64; x64) AppleWebKit/537.36 (KHTML, like Gecko) Chrome/138.0.0.0 Safari/537.36","WebKit","Chrome","138.0.0.0","Windows","10.0","https://app.prolific.com/","en-GB,en-US;q=0.9,en;q=0.8","6744814c173b9afac78cf039","686e379bc37a29ffa5cdc956","6877601c2e090ae7fa9b45a7","1","1","6744814c173b9afac78cf039","1","1","2025-07-16T08:25:46.145Z","","","","","","","","","","","AttribQ","","50","","","","","","","","","","","","","","","","","","","","","","","","","","","","",""
"3633","","<div style=""width:500px;"">
  <p>How much control did you have over the ball?</p>
  </div>","100","html-slider-response","21","303138","0.0-5.0-2.2","50","1","2025-07-16 08:20:41","1f75c3e559b7213887762d5229550c2b","41.114.229.5","Mozilla/5.0 (Windows NT 10.0; Win64; x64) AppleWebKit/537.36 (KHTML, like Gecko) Chrome/138.0.0.0 Safari/537.36","WebKit","Chrome","138.0.0.0","Windows","10.0","https://app.prolific.com/","en-GB,en-US;q=0.9,en;q=0.8","6744814c173b9afac78cf039","686e379bc37a29ffa5cdc956","6877601c2e090ae7fa9b45a7","1","1","6744814c173b9afac78cf039","1","1","2025-07-16T08:25:49.782Z","","","","","","","","","","","ControlQ","","50","","","","","","","","","","","","","","","","","","","","","","","","","","","","",""
"4206","","<div style=""width:500px;"">
  <p>How would you describe your current emotional state?</p>
  </div>","1","html-slider-response","22","307348","0.0-5.0-3.2","50","1","2025-07-16 08:20:41","1f75c3e559b7213887762d5229550c2b","41.114.229.5","Mozilla/5.0 (Windows NT 10.0; Win64; x64) AppleWebKit/537.36 (KHTML, like Gecko) Chrome/138.0.0.0 Safari/537.36","WebKit","Chrome","138.0.0.0","Windows","10.0","https://app.prolific.com/","en-GB,en-US;q=0.9,en;q=0.8","6744814c173b9afac78cf039","686e379bc37a29ffa5cdc956","6877601c2e090ae7fa9b45a7","1","1","6744814c173b9afac78cf039","1","1","2025-07-16T08:25:53.991Z","","","","","","","","","","","StressQ","","50","","","","","","","","","","","","","","","","","","","","","","","","","","","","",""
"3727","","<div style=""width:500px;"">
  <p>What best describes how you currently feel?</p>
  </div>","88","html-slider-response","23","311079","0.0-5.0-4.2","50","1","2025-07-16 08:20:41","1f75c3e559b7213887762d5229550c2b","41.114.229.5","Mozilla/5.0 (Windows NT 10.0; Win64; x64) AppleWebKit/537.36 (KHTML, like Gecko) Chrome/138.0.0.0 Safari/537.36","WebKit","Chrome","138.0.0.0","Windows","10.0","https://app.prolific.com/","en-GB,en-US;q=0.9,en;q=0.8","6744814c173b9afac78cf039","686e379bc37a29ffa5cdc956","6877601c2e090ae7fa9b45a7","1","1","6744814c173b9afac78cf039","1","1","2025-07-16T08:25:57.722Z","","","","","","","","","","","MotivationQ","","50","","","","","","","","","","","","","","","","","","","","","","","","","","","","",""
"","","","","ctl-task-cpt","24","334462","0.0-5.0-0.3","50","1","2025-07-16 08:20:41","1f75c3e559b7213887762d5229550c2b","41.114.229.5","Mozilla/5.0 (Windows NT 10.0; Win64; x64) AppleWebKit/537.36 (KHTML, like Gecko) Chrome/138.0.0.0 Safari/537.36","WebKit","Chrome","138.0.0.0","Windows","10.0","https://app.prolific.com/","en-GB,en-US;q=0.9,en;q=0.8","6744814c173b9afac78cf039","686e379bc37a29ffa5cdc956","6877601c2e090ae7fa9b45a7","1","1","6744814c173b9afac78cf039","1","1","2025-07-16T08:26:21.105Z","","","","","","","","","","","","","","win-only","0","g1:NW,g2:SE","0.7","4","0","320731.5","2327.6","7333.2","20359.2","1","4","8","6","1","1","1","10","9","0.07575757575757576","5005.6","3000","1890","[""left"",""up""]","{""num_key_presses"":4,""num_perfect"":4,""num_errors"":0,""num_randdir"":0,""num_randdir_good_moves"":0,""num_whilered"":0,""num_whileblue"":0,""num_blue"":1,""num_good_moves"":4}","[298.22232142857143,300.12857142857143,0.8,298.22232142857143,300.12857142857143,101.9,298.22232142857143,300.12857142857143,203.6,298.22232142857143,300.12857142857143,304.2,298.22232142857143,300.12857142857143,406,298.22232142857143,300.12857142857143,511.2,298.22232142857143,300.12857142857143,613.6,298.22232142857143,300.12857142857143,713.9,298.22232142857143,300.12857142857143,815.6,298.22232142857143,300.12857142857143,921.5,298.22232142857143,300.12857142857143,1035.4,298.22232142857143,300.12857142857143,1142.5,298.22232142857143,300.12857142857143,1248.5,298.22232142857143,300.12857142857143,1354.1,298.22232142857143,300.12857142857143,1459.1,298.22232142857143,300.12857142857143,1565.7,298.22232142857143,300.12857142857143,1672.3,298.22232142857143,300.12857142857143,1776,298.22232142857143,300.12857142857143,1887.5,298.22232142857143,300.12857142857143,1993,298.22232142857143,300.12857142857143,2094.1,298.22232142857143,300.12857142857143,2202.4,298.22232142857143,300.12857142857143,2303.9,298.22232142857143,300.12857142857143,2410.2,298.22232142857143,300.12857142857143,2510.2,298.22232142857143,300.12857142857143,2620.7,298.22232142857143,300.12857142857143,2722.9,298.22232142857143,300.12857142857143,2826.2,298.22232142857143,300.12857142857143,2936.6,298.22232142857143,300.12857142857143,3038.8,298.22232142857143,300.12857142857143,3142.9,298.22232142857143,300.12857142857143,3253.2,298.22232142857143,300.12857142857143,3357.9,298.22232142857143,300.12857142857143,3460.6,298.22232142857143,300.12857142857143,3562.1,298.22232142857143,300.12857142857143,3672.5,298.22232142857143,300.12857142857143,3774,298.22232142857143,300.12857142857143,3874.3,298.22232142857143,300.12857142857143,3979.1,298.22232142857143,300.12857142857143,4079.3,298.22232142857143,300.12857142857143,4180.9,298.22232142857143,300.12857142857143,4284.9,298.22232142857143,300.12857142857143,4393.6,298.22232142857143,300.12857142857143,4495.1,298.22232142857143,300.12857142857143,4610.5,298.22232142857143,300.12857142857143,4713.2,298.22232142857143,300.12857142857143,4814.1,298.22232142857143,300.12857142857143,4924]","[1445.3,1445.3,1000,0,445.3,""smooth"",""left"",""left"",""good_move"",3844.9,2398.9,2046.7,1446,352.2,""smooth"",""left"",""left"",""good_move"",9652.3,5805.9,2029.6,7237.4,385.3,""smooth"",""up"",""up"",""good_move"",12899.3,3246.1,2803.5,9653.3,442.6,""smooth"",""up"",""up"",""good_move""]","",""
"11143","","<div style=""width:500px;"">
  <p>What determined the result of this run?</p>
  </div>","100","html-slider-response","25","345609","0.0-5.0-1.3","50","1","2025-07-16 08:20:41","1f75c3e559b7213887762d5229550c2b","41.114.229.5","Mozilla/5.0 (Windows NT 10.0; Win64; x64) AppleWebKit/537.36 (KHTML, like Gecko) Chrome/138.0.0.0 Safari/537.36","WebKit","Chrome","138.0.0.0","Windows","10.0","https://app.prolific.com/","en-GB,en-US;q=0.9,en;q=0.8","6744814c173b9afac78cf039","686e379bc37a29ffa5cdc956","6877601c2e090ae7fa9b45a7","1","1","6744814c173b9afac78cf039","1","1","2025-07-16T08:26:32.252Z","","","","","","","","","","","AttribQ","","50","","","","","","","","","","","","","","","","","","","","","","","","","","","","",""
"4651","","<div style=""width:500px;"">
  <p>How much control did you have over the ball?</p>
  </div>","100","html-slider-response","26","350263","0.0-5.0-2.3","50","1","2025-07-16 08:20:41","1f75c3e559b7213887762d5229550c2b","41.114.229.5","Mozilla/5.0 (Windows NT 10.0; Win64; x64) AppleWebKit/537.36 (KHTML, like Gecko) Chrome/138.0.0.0 Safari/537.36","WebKit","Chrome","138.0.0.0","Windows","10.0","https://app.prolific.com/","en-GB,en-US;q=0.9,en;q=0.8","6744814c173b9afac78cf039","686e379bc37a29ffa5cdc956","6877601c2e090ae7fa9b45a7","1","1","6744814c173b9afac78cf039","1","1","2025-07-16T08:26:36.907Z","","","","","","","","","","","ControlQ","","50","","","","","","","","","","","","","","","","","","","","","","","","","","","","",""
"6507","","<div style=""width:500px;"">
  <p>How would you describe your current emotional state?</p>
  </div>","0","html-slider-response","27","356776","0.0-5.0-3.3","50","1","2025-07-16 08:20:41","1f75c3e559b7213887762d5229550c2b","41.114.229.5","Mozilla/5.0 (Windows NT 10.0; Win64; x64) AppleWebKit/537.36 (KHTML, like Gecko) Chrome/138.0.0.0 Safari/537.36","WebKit","Chrome","138.0.0.0","Windows","10.0","https://app.prolific.com/","en-GB,en-US;q=0.9,en;q=0.8","6744814c173b9afac78cf039","686e379bc37a29ffa5cdc956","6877601c2e090ae7fa9b45a7","1","1","6744814c173b9afac78cf039","1","1","2025-07-16T08:26:43.419Z","","","","","","","","","","","StressQ","","50","","","","","","","","","","","","","","","","","","","","","","","","","","","","",""
"14711","","<div style=""width:500px;"">
  <p>What best describes how you currently feel?</p>
  </div>","100","html-slider-response","28","371489","0.0-5.0-4.3","50","1","2025-07-16 08:20:41","1f75c3e559b7213887762d5229550c2b","41.114.229.5","Mozilla/5.0 (Windows NT 10.0; Win64; x64) AppleWebKit/537.36 (KHTML, like Gecko) Chrome/138.0.0.0 Safari/537.36","WebKit","Chrome","138.0.0.0","Windows","10.0","https://app.prolific.com/","en-GB,en-US;q=0.9,en;q=0.8","6744814c173b9afac78cf039","686e379bc37a29ffa5cdc956","6877601c2e090ae7fa9b45a7","1","1","6744814c173b9afac78cf039","1","1","2025-07-16T08:26:58.133Z","","","","","","","","","","","MotivationQ","","50","","","","","","","","","","","","","","","","","","","","","","","","","","","","",""
"","","","","ctl-task-cpt","29","427179","0.0-5.0-0.4","50","1","2025-07-16 08:20:41","1f75c3e559b7213887762d5229550c2b","41.114.229.5","Mozilla/5.0 (Windows NT 10.0; Win64; x64) AppleWebKit/537.36 (KHTML, like Gecko) Chrome/138.0.0.0 Safari/537.36","WebKit","Chrome","138.0.0.0","Windows","10.0","https://app.prolific.com/","en-GB,en-US;q=0.9,en;q=0.8","6744814c173b9afac78cf039","686e379bc37a29ffa5cdc956","6877601c2e090ae7fa9b45a7","1","1","6744814c173b9afac78cf039","1","1","2025-07-16T08:27:53.822Z","","","","","","","","","","","","","","win-only","1","g1:NE,g2:SW","0.6","5","0","381144.2","2072.9","7079.3","52660.3","1","4","4","6","1","1","1","11","10","0.08333333333333333","5006.3","3000","585","[""up"",""right""]","{""num_key_presses"":10,""num_perfect"":6,""num_errors"":0,""num_randdir"":4,""num_randdir_good_moves"":1,""num_whilered"":0,""num_whileblue"":0,""num_blue"":5,""num_good_moves"":7}","[300.22232142857143,303.12857142857143,0.5,300.22232142857143,303.12857142857143,107.6,300.22232142857143,303.12857142857143,208.9,300.22232142857143,303.12857142857143,313.7,300.22232142857143,303.12857142857143,419.2,300.22232142857143,303.12857142857143,525.8,300.22232142857143,303.12857142857143,630.5,300.22232142857143,303.12857142857143,734.5,300.22232142857143,303.12857142857143,834.6,300.22232142857143,303.12857142857143,940.4,300.22232142857143,303.12857142857143,1046.5,300.22232142857143,303.12857142857143,1150.8,300.22232142857143,303.12857142857143,1254,300.22232142857143,303.12857142857143,1355.9,300.22232142857143,303.12857142857143,1464.7,300.22232142857143,303.12857142857143,1573.1,300.22232142857143,303.12857142857143,1676.6,300.22232142857143,303.12857142857143,1780,300.22232142857143,303.12857142857143,1883,300.22232142857143,303.12857142857143,1985.2,300.22232142857143,303.12857142857143,2088.3,300.22232142857143,303.12857142857143,2193,300.22232142857143,303.12857142857143,2297.8,300.22232142857143,303.12857142857143,2398.8,300.22232142857143,303.12857142857143,2506.3,300.22232142857143,303.12857142857143,2610.7,300.22232142857143,303.12857142857143,2713,300.22232142857143,303.12857142857143,2820.1,300.22232142857143,303.12857142857143,2923.9,300.22232142857143,303.12857142857143,3026.3,300.22232142857143,303.12857142857143,3136.1,300.22232142857143,303.12857142857143,3243.9,300.22232142857143,303.12857142857143,3353.4,300.22232142857143,303.12857142857143,3454.2,300.22232142857143,303.12857142857143,3555.1,300.22232142857143,303.12857142857143,3658.9,300.22232142857143,303.12857142857143,3765.7,300.22232142857143,303.12857142857143,3867.9,300.22232142857143,303.12857142857143,3968.2,300.22232142857143,303.12857142857143,4071.2,300.22232142857143,303.12857142857143,4174.1,300.22232142857143,303.12857142857143,4274.4,300.22232142857143,303.12857142857143,4382.5,300.22232142857143,303.12857142857143,4489.2,300.22232142857143,303.12857142857143,4591.2,300.22232142857143,303.12857142857143,4703.5,300.22232142857143,303.12857142857143,4812.1,300.22232142857143,303.12857142857143,4915.6]","[1431.3,1431.4,1000,0,431.4,""smooth"",""right"",""right"",""good_move"",3966.2,2534,2059.3,1432.2,474.7,""oops"",""right"",""right"",""good_move"",6551.4,2583.9,2207.6,3967.5,376.3,""smooth"",""up"",""up"",""good_move"",20967.9,14415.1,3222.7,17361.7,383.5,""oops"",""up"",""down"",""bad_move"",23553.3,2584.4,2144.5,20968.9,439.9,""oops"",""up"",""down"",""bad_move"",26592.1,3037.7,2726.1,23554.5,311.5,""smooth"",""up"",""up"",""good_move"",36580.4,9987.5,2086.4,34082.1,411.9,""smooth"",""up"",""up"",""good_move"",39547.7,2966.8,2547.7,36581,419,""oops"",""up"",""down"",""bad_move"",42443.9,2895.6,2474.5,39548.3,421.1,""smooth"",""up"",""up"",""good_move"",45434.3,2989.3,2685.2,42445,304.1,""smooth"",""up"",""up"",""good_move""]","",""
"5869","","<div style=""width:500px;"">
  <p>What determined the result of this run?</p>
  </div>","100","html-slider-response","30","433050","0.0-5.0-1.4","50","1","2025-07-16 08:20:41","1f75c3e559b7213887762d5229550c2b","41.114.229.5","Mozilla/5.0 (Windows NT 10.0; Win64; x64) AppleWebKit/537.36 (KHTML, like Gecko) Chrome/138.0.0.0 Safari/537.36","WebKit","Chrome","138.0.0.0","Windows","10.0","https://app.prolific.com/","en-GB,en-US;q=0.9,en;q=0.8","6744814c173b9afac78cf039","686e379bc37a29ffa5cdc956","6877601c2e090ae7fa9b45a7","1","1","6744814c173b9afac78cf039","1","1","2025-07-16T08:27:59.693Z","","","","","","","","","","","AttribQ","","50","","","","","","","","","","","","","","","","","","","","","","","","","","","","",""
"3556","","<div style=""width:500px;"">
  <p>How much control did you have over the ball?</p>
  </div>","100","html-slider-response","31","436608","0.0-5.0-2.4","50","1","2025-07-16 08:20:41","1f75c3e559b7213887762d5229550c2b","41.114.229.5","Mozilla/5.0 (Windows NT 10.0; Win64; x64) AppleWebKit/537.36 (KHTML, like Gecko) Chrome/138.0.0.0 Safari/537.36","WebKit","Chrome","138.0.0.0","Windows","10.0","https://app.prolific.com/","en-GB,en-US;q=0.9,en;q=0.8","6744814c173b9afac78cf039","686e379bc37a29ffa5cdc956","6877601c2e090ae7fa9b45a7","1","1","6744814c173b9afac78cf039","1","1","2025-07-16T08:28:03.251Z","","","","","","","","","","","ControlQ","","50","","","","","","","","","","","","","","","","","","","","","","","","","","","","",""
"3266","","<div style=""width:500px;"">
  <p>How would you describe your current emotional state?</p>
  </div>","60","html-slider-response","32","439880","0.0-5.0-3.4","50","1","2025-07-16 08:20:41","1f75c3e559b7213887762d5229550c2b","41.114.229.5","Mozilla/5.0 (Windows NT 10.0; Win64; x64) AppleWebKit/537.36 (KHTML, like Gecko) Chrome/138.0.0.0 Safari/537.36","WebKit","Chrome","138.0.0.0","Windows","10.0","https://app.prolific.com/","en-GB,en-US;q=0.9,en;q=0.8","6744814c173b9afac78cf039","686e379bc37a29ffa5cdc956","6877601c2e090ae7fa9b45a7","1","1","6744814c173b9afac78cf039","1","1","2025-07-16T08:28:06.524Z","","","","","","","","","","","StressQ","","50","","","","","","","","","","","","","","","","","","","","","","","","","","","","",""
"4951","","<div style=""width:500px;"">
  <p>What best describes how you currently feel?</p>
  </div>","99","html-slider-response","33","444834","0.0-5.0-4.4","50","1","2025-07-16 08:20:41","1f75c3e559b7213887762d5229550c2b","41.114.229.5","Mozilla/5.0 (Windows NT 10.0; Win64; x64) AppleWebKit/537.36 (KHTML, like Gecko) Chrome/138.0.0.0 Safari/537.36","WebKit","Chrome","138.0.0.0","Windows","10.0","https://app.prolific.com/","en-GB,en-US;q=0.9,en;q=0.8","6744814c173b9afac78cf039","686e379bc37a29ffa5cdc956","6877601c2e090ae7fa9b45a7","1","1","6744814c173b9afac78cf039","1","1","2025-07-16T08:28:11.477Z","","","","","","","","","","","MotivationQ","","50","","","","","","","","","","","","","","","","","","","","","","","","","","","","",""
"","","","","ctl-task-cpt","34","482823","0.0-5.0-0.5","50","1","2025-07-16 08:20:41","1f75c3e559b7213887762d5229550c2b","41.114.229.5","Mozilla/5.0 (Windows NT 10.0; Win64; x64) AppleWebKit/537.36 (KHTML, like Gecko) Chrome/138.0.0.0 Safari/537.36","WebKit","Chrome","138.0.0.0","Windows","10.0","https://app.prolific.com/","en-GB,en-US;q=0.9,en;q=0.8","6744814c173b9afac78cf039","686e379bc37a29ffa5cdc956","6877601c2e090ae7fa9b45a7","1","1","6744814c173b9afac78cf039","1","1","2025-07-16T08:28:49.467Z","","","","","","","","","","","","","","win-only","3","g1:SW,g2:NE","0.5","6","0","454483.6","1696.1","6706.3","34954.8","1","4","8","6","1","1","1","12","11","0.09090909090909091","5010.2","3000","1180","[""down"",""left""]","{""num_key_presses"":8,""num_perfect"":5,""num_errors"":0,""num_randdir"":3,""num_randdir_good_moves"":1,""num_whilered"":0,""num_whileblue"":0,""num_blue"":2,""num_good_moves"":6}","[298.22232142857143,294.12857142857143,0.7,298.22232142857143,294.12857142857143,119,298.22232142857143,294.12857142857143,219.8,298.22232142857143,294.12857142857143,326.1,298.22232142857143,294.12857142857143,464.2,298.22232142857143,294.12857142857143,566.6,298.22232142857143,294.12857142857143,666.7,298.22232142857143,294.12857142857143,788.7,298.22232142857143,294.12857142857143,904.2,298.22232142857143,294.12857142857143,1004.5,298.22232142857143,294.12857142857143,1116.2,298.22232142857143,294.12857142857143,1224.2,298.22232142857143,294.12857142857143,1325.3,298.22232142857143,294.12857142857143,1451.5,298.22232142857143,294.12857142857143,1554.6,298.22232142857143,294.12857142857143,1675.4,298.22232142857143,294.12857142857143,1777.2,298.22232142857143,294.12857142857143,1882,298.22232142857143,294.12857142857143,1986.6,298.22232142857143,294.12857142857143,2087.5,298.22232142857143,294.12857142857143,2191.7,298.22232142857143,294.12857142857143,2296,298.22232142857143,294.12857142857143,2402.4,298.22232142857143,294.12857142857143,2509,298.22232142857143,294.12857142857143,2610.4,298.22232142857143,294.12857142857143,2715.3,298.22232142857143,294.12857142857143,2816.6,298.22232142857143,294.12857142857143,2925.7,298.22232142857143,294.12857142857143,3040.9,298.22232142857143,294.12857142857143,3147.6,298.22232142857143,294.12857142857143,3248.2,298.22232142857143,294.12857142857143,3348.6,298.22232142857143,294.12857142857143,3450.1,298.22232142857143,294.12857142857143,3550.6,298.22232142857143,294.12857142857143,3671.2,298.22232142857143,294.12857142857143,3774.3,298.22232142857143,294.12857142857143,3887.3,298.22232142857143,294.12857142857143,4005.1,298.22232142857143,294.12857142857143,4105.1,298.22232142857143,294.12857142857143,4231.7,298.22232142857143,294.12857142857143,4338.3,298.22232142857143,294.12857142857143,4444.2,298.22232142857143,294.12857142857143,4544.7,298.22232142857143,294.12857142857143,4649.9,298.22232142857143,294.12857142857143,4751,298.22232142857143,294.12857142857143,4862.3,298.22232142857143,294.12857142857143,4966.3]","[1423.3,1423.3,1000,0,423.3,""oops"",""left"",""up"",""bad_move"",6963.5,5537.7,2176.5,4372.2,414.8,""smooth"",""down"",""down"",""good_move"",9728.1,2759.4,2286.7,6968.7,472.7,""smooth"",""down"",""down"",""good_move"",13031.2,3301.3,2913.2,9729.9,388.1,""oops"",""down"",""right"",""bad_move"",18800.5,5756.1,2511,15966.4,323.1,""smooth"",""down"",""down"",""good_move"",21612.2,2804.1,2330.3,18808.1,473.8,""smooth"",""left"",""left"",""good_move"",24688.1,3074.7,2604.9,21613.4,469.8,""smooth"",""left"",""left"",""good_move"",28093,3403.9,2973.6,24689.1,430.3,""oops"",""left"",""left"",""good_move""]","",""
"6057","","<div style=""width:500px;"">
  <p>What determined the result of this run?</p>
  </div>","100","html-slider-response","35","488886","0.0-5.0-1.5","50","1","2025-07-16 08:20:41","1f75c3e559b7213887762d5229550c2b","41.114.229.5","Mozilla/5.0 (Windows NT 10.0; Win64; x64) AppleWebKit/537.36 (KHTML, like Gecko) Chrome/138.0.0.0 Safari/537.36","WebKit","Chrome","138.0.0.0","Windows","10.0","https://app.prolific.com/","en-GB,en-US;q=0.9,en;q=0.8","6744814c173b9afac78cf039","686e379bc37a29ffa5cdc956","6877601c2e090ae7fa9b45a7","1","1","6744814c173b9afac78cf039","1","1","2025-07-16T08:28:55.529Z","","","","","","","","","","","AttribQ","","50","","","","","","","","","","","","","","","","","","","","","","","","","","","","",""
"5184","","<div style=""width:500px;"">
  <p>How much control did you have over the ball?</p>
  </div>","100","html-slider-response","36","494072","0.0-5.0-2.5","50","1","2025-07-16 08:20:41","1f75c3e559b7213887762d5229550c2b","41.114.229.5","Mozilla/5.0 (Windows NT 10.0; Win64; x64) AppleWebKit/537.36 (KHTML, like Gecko) Chrome/138.0.0.0 Safari/537.36","WebKit","Chrome","138.0.0.0","Windows","10.0","https://app.prolific.com/","en-GB,en-US;q=0.9,en;q=0.8","6744814c173b9afac78cf039","686e379bc37a29ffa5cdc956","6877601c2e090ae7fa9b45a7","1","1","6744814c173b9afac78cf039","1","1","2025-07-16T08:29:00.715Z","","","","","","","","","","","ControlQ","","50","","","","","","","","","","","","","","","","","","","","","","","","","","","","",""
"7043","","<div style=""width:500px;"">
  <p>How would you describe your current emotional state?</p>
  </div>","33","html-slider-response","37","501117","0.0-5.0-3.5","50","1","2025-07-16 08:20:41","1f75c3e559b7213887762d5229550c2b","41.114.229.5","Mozilla/5.0 (Windows NT 10.0; Win64; x64) AppleWebKit/537.36 (KHTML, like Gecko) Chrome/138.0.0.0 Safari/537.36","WebKit","Chrome","138.0.0.0","Windows","10.0","https://app.prolific.com/","en-GB,en-US;q=0.9,en;q=0.8","6744814c173b9afac78cf039","686e379bc37a29ffa5cdc956","6877601c2e090ae7fa9b45a7","1","1","6744814c173b9afac78cf039","1","1","2025-07-16T08:29:07.760Z","","","","","","","","","","","StressQ","","50","","","","","","","","","","","","","","","","","","","","","","","","","","","","",""
"5327","","<div style=""width:500px;"">
  <p>What best describes how you currently feel?</p>
  </div>","100","html-slider-response","38","506446","0.0-5.0-4.5","50","1","2025-07-16 08:20:41","1f75c3e559b7213887762d5229550c2b","41.114.229.5","Mozilla/5.0 (Windows NT 10.0; Win64; x64) AppleWebKit/537.36 (KHTML, like Gecko) Chrome/138.0.0.0 Safari/537.36","WebKit","Chrome","138.0.0.0","Windows","10.0","https://app.prolific.com/","en-GB,en-US;q=0.9,en;q=0.8","6744814c173b9afac78cf039","686e379bc37a29ffa5cdc956","6877601c2e090ae7fa9b45a7","1","1","6744814c173b9afac78cf039","1","1","2025-07-16T08:29:13.089Z","","","","","","","","","","","MotivationQ","","50","","","","","","","","","","","","","","","","","","","","","","","","","","","","",""
"","","","","ctl-task-cpt","39","563573","0.0-5.0-0.6","50","1","2025-07-16 08:20:41","1f75c3e559b7213887762d5229550c2b","41.114.229.5","Mozilla/5.0 (Windows NT 10.0; Win64; x64) AppleWebKit/537.36 (KHTML, like Gecko) Chrome/138.0.0.0 Safari/537.36","WebKit","Chrome","138.0.0.0","Windows","10.0","https://app.prolific.com/","en-GB,en-US;q=0.9,en;q=0.8","6744814c173b9afac78cf039","686e379bc37a29ffa5cdc956","6877601c2e090ae7fa9b45a7","1","1","6744814c173b9afac78cf039","1","1","2025-07-16T08:30:10.217Z","","","","","","","","","","","","","","win-only","3","g1:SW,g2:NE","0.4","7","0","516095.6","2438.5","7441","54101.3","1","4","8","6","2","-8","-9","3","12","0.022727272727272728","5002.5","3000","-1525","[""up"",""right""]","{""num_key_presses"":13,""num_perfect"":5,""num_errors"":1,""num_randdir"":7,""num_randdir_good_moves"":3,""num_whilered"":0,""num_whileblue"":1,""num_blue"":3,""num_good_moves"":8}","[305.22232142857143,295.12857142857143,0.8,305.22232142857143,295.12857142857143,114.2,305.22232142857143,295.12857142857143,226.2,305.22232142857143,295.12857142857143,327.2,305.22232142857143,295.12857142857143,449,305.22232142857143,295.12857142857143,587.4,305.22232142857143,295.12857142857143,688.8,305.22232142857143,295.12857142857143,793,305.22232142857143,295.12857142857143,915.2,305.22232142857143,295.12857142857143,1034.2,305.22232142857143,295.12857142857143,1137.6,305.22232142857143,295.12857142857143,1238.9,305.22232142857143,295.12857142857143,1340.7,305.22232142857143,295.12857142857143,1442.5,305.22232142857143,295.12857142857143,1542.8,305.22232142857143,295.12857142857143,1666.9,305.22232142857143,295.12857142857143,1768.4,305.22232142857143,295.12857142857143,1878.2,305.22232142857143,295.12857142857143,1993.5,305.22232142857143,295.12857142857143,2098.2,305.22232142857143,295.12857142857143,2210.6,305.22232142857143,295.12857142857143,2313,305.22232142857143,295.12857142857143,2470,305.22232142857143,295.12857142857143,2606.3,305.22232142857143,295.12857142857143,2736.3,305.22232142857143,295.12857142857143,2876.1,305.22232142857143,295.12857142857143,3009.3,305.22232142857143,295.12857142857143,3137.9,305.22232142857143,295.12857142857143,3243.2,305.22232142857143,295.12857142857143,3346.5,305.22232142857143,295.12857142857143,3465.7,305.22232142857143,295.12857142857143,3567.5,305.22232142857143,295.12857142857143,3668.1,305.22232142857143,295.12857142857143,3778,305.22232142857143,295.12857142857143,3880.6,305.22232142857143,295.12857142857143,3995,305.22232142857143,295.12857142857143,4097,305.22232142857143,295.12857142857143,4197.1,305.22232142857143,295.12857142857143,4304.3,305.22232142857143,295.12857142857143,4422.1,305.22232142857143,295.12857142857143,4524.8,305.22232142857143,295.12857142857143,4636.9,305.22232142857143,295.12857142857143,4751.1,305.22232142857143,295.12857142857143,4860.6,305.22232142857143,295.12857142857143,4963.2]","[4910,4910,2423.9,2012.2,473.9,""oops"",""right"",""left"",""bad_move"",8034.2,3122.6,2478.6,4911.6,644,""oops"",""right"",""right"",""good_move"",11091.6,3056.3,2726.5,8035.3,329.8,""smooth"",""right"",""right"",""good_move"",13255.5,2159.5,1782.4,11096,377.1,""smooth"",""right"",""right"",""good_move"",16372.4,3115.3,2703.1,13257.3,412,""smooth"",""right"",""right"",""good_move"",18799.7,2425.5,1963.1,16374.3,462.4,""oops"",""up"",""down"",""bad_move"",21511.3,2710.4,2317.8,18800.9,392.6,""oops"",""up"",""down"",""bad_move"",23793.7,2276.1,1858.6,21517.6,417.6,""while_blue"",""up"",""left"",""bad_move"",26197.4,2402.4,1314.3,23795,1088.1,""smooth"",""up"",""up"",""good_move"",29523.9,3325.3,2889.1,26198.6,436.2,""oops"",""up"",""down"",""bad_move"",36278.2,6753.4,3143.4,32763.5,371.3,""oops"",""up"",""up"",""good_move"",39792.4,3513.7,2991.5,36278.8,522.2,""smooth"",""up"",""up"",""good_move"",43501.1,3707.9,3106.3,39793.2,601.6,""oops"",""up"",""right"",""good_move""]","",""
"41206","","<div style=""width:500px;"">
  <p>What determined the result of this run?</p>
  </div>","100","html-slider-response","40","604783","0.0-5.0-1.6","50","1","2025-07-16 08:20:41","1f75c3e559b7213887762d5229550c2b","41.114.229.5","Mozilla/5.0 (Windows NT 10.0; Win64; x64) AppleWebKit/537.36 (KHTML, like Gecko) Chrome/138.0.0.0 Safari/537.36","WebKit","Chrome","138.0.0.0","Windows","10.0","https://app.prolific.com/","en-GB,en-US;q=0.9,en;q=0.8","6744814c173b9afac78cf039","686e379bc37a29ffa5cdc956","6877601c2e090ae7fa9b45a7","1","1","6744814c173b9afac78cf039","1","1","2025-07-16T08:30:51.426Z","","","","","","","","","","","AttribQ","","50","","","","","","","","","","","","","","","","","","","","","","","","","","","","",""
"9949","","<div style=""width:500px;"">
  <p>How much control did you have over the ball?</p>
  </div>","46","html-slider-response","41","614735","0.0-5.0-2.6","50","1","2025-07-16 08:20:41","1f75c3e559b7213887762d5229550c2b","41.114.229.5","Mozilla/5.0 (Windows NT 10.0; Win64; x64) AppleWebKit/537.36 (KHTML, like Gecko) Chrome/138.0.0.0 Safari/537.36","WebKit","Chrome","138.0.0.0","Windows","10.0","https://app.prolific.com/","en-GB,en-US;q=0.9,en;q=0.8","6744814c173b9afac78cf039","686e379bc37a29ffa5cdc956","6877601c2e090ae7fa9b45a7","1","1","6744814c173b9afac78cf039","1","1","2025-07-16T08:31:01.378Z","","","","","","","","","","","ControlQ","","50","","","","","","","","","","","","","","","","","","","","","","","","","","","","",""
"5836","","<div style=""width:500px;"">
  <p>How would you describe your current emotional state?</p>
  </div>","40","html-slider-response","42","620573","0.0-5.0-3.6","50","1","2025-07-16 08:20:41","1f75c3e559b7213887762d5229550c2b","41.114.229.5","Mozilla/5.0 (Windows NT 10.0; Win64; x64) AppleWebKit/537.36 (KHTML, like Gecko) Chrome/138.0.0.0 Safari/537.36","WebKit","Chrome","138.0.0.0","Windows","10.0","https://app.prolific.com/","en-GB,en-US;q=0.9,en;q=0.8","6744814c173b9afac78cf039","686e379bc37a29ffa5cdc956","6877601c2e090ae7fa9b45a7","1","1","6744814c173b9afac78cf039","1","1","2025-07-16T08:31:07.216Z","","","","","","","","","","","StressQ","","50","","","","","","","","","","","","","","","","","","","","","","","","","","","","",""
"8195","","<div style=""width:500px;"">
  <p>What best describes how you currently feel?</p>
  </div>","100","html-slider-response","43","628771","0.0-5.0-4.6","50","1","2025-07-16 08:20:41","1f75c3e559b7213887762d5229550c2b","41.114.229.5","Mozilla/5.0 (Windows NT 10.0; Win64; x64) AppleWebKit/537.36 (KHTML, like Gecko) Chrome/138.0.0.0 Safari/537.36","WebKit","Chrome","138.0.0.0","Windows","10.0","https://app.prolific.com/","en-GB,en-US;q=0.9,en;q=0.8","6744814c173b9afac78cf039","686e379bc37a29ffa5cdc956","6877601c2e090ae7fa9b45a7","1","1","6744814c173b9afac78cf039","1","1","2025-07-16T08:31:15.414Z","","","","","","","","","","","MotivationQ","","50","","","","","","","","","","","","","","","","","","","","","","","","","","","","",""
"","","","","ctl-task-cpt","44","689476","0.0-5.0-0.7","50","1","2025-07-16 08:20:41","1f75c3e559b7213887762d5229550c2b","41.114.229.5","Mozilla/5.0 (Windows NT 10.0; Win64; x64) AppleWebKit/537.36 (KHTML, like Gecko) Chrome/138.0.0.0 Safari/537.36","WebKit","Chrome","138.0.0.0","Windows","10.0","https://app.prolific.com/","en-GB,en-US;q=0.9,en;q=0.8","6744814c173b9afac78cf039","686e379bc37a29ffa5cdc956","6877601c2e090ae7fa9b45a7","1","1","6744814c173b9afac78cf039","1","1","2025-07-16T08:32:16.120Z","","","","","","","","","","","","","","win-only","3","g1:SW,g2:NE","0.3","8","0","638421.6","5099.8","10104.8","57595.7","1","4","4","6","2","4","4","7","3","0.05303030303030303","5004.9","3000","405","[""up"",""right""]","{""num_key_presses"":14,""num_perfect"":5,""num_errors"":0,""num_randdir"":9,""num_randdir_good_moves"":5,""num_whilered"":0,""num_whileblue"":0,""num_blue"":2,""num_good_moves"":10}","[294.22232142857143,300.12857142857143,0.6,294.22232142857143,300.12857142857143,101,294.22232142857143,300.12857142857143,207.9,294.22232142857143,300.12857142857143,380.9,294.22232142857143,300.12857142857143,495,294.22232142857143,300.12857142857143,610.8,294.22232142857143,300.12857142857143,712,294.22232142857143,300.12857142857143,817.2,294.22232142857143,300.12857142857143,934.7,294.22232142857143,300.12857142857143,1036.5,294.22232142857143,300.12857142857143,1152.7,294.22232142857143,300.12857142857143,1294,294.22232142857143,300.12857142857143,1426.4,294.22232142857143,300.12857142857143,1566,294.22232142857143,300.12857142857143,1709.9,294.22232142857143,300.12857142857143,1811.8,294.22232142857143,300.12857142857143,1950.8,294.22232142857143,300.12857142857143,2072.4,294.22232142857143,300.12857142857143,2207.9,294.22232142857143,300.12857142857143,2309.5,294.22232142857143,300.12857142857143,2411.5,294.22232142857143,300.12857142857143,2529.4,294.22232142857143,300.12857142857143,2636.2,294.22232142857143,300.12857142857143,2749.2,294.22232142857143,300.12857142857143,2850.1,294.22232142857143,300.12857142857143,2959.3,294.22232142857143,300.12857142857143,3064.8,294.22232142857143,300.12857142857143,3167.1,294.22232142857143,300.12857142857143,3282.7,294.22232142857143,300.12857142857143,3386.4,294.22232142857143,300.12857142857143,3504.9,294.22232142857143,300.12857142857143,3611.8,294.22232142857143,300.12857142857143,3720.7,294.22232142857143,300.12857142857143,3824.5,294.22232142857143,300.12857142857143,3939,294.22232142857143,300.12857142857143,4044.7,294.22232142857143,300.12857142857143,4181.4,294.22232142857143,300.12857142857143,4293.6,294.22232142857143,300.12857142857143,4395.4,294.22232142857143,300.12857142857143,4499,294.22232142857143,300.12857142857143,4603.5,294.22232142857143,300.12857142857143,4713.2,294.22232142857143,300.12857142857143,4813.6,294.22232142857143,300.12857142857143,4919.5]","[1560.1,1560.1,1000,0,560.1,""smooth"",""right"",""right"",""good_move"",4862.9,3301.8,2706.7,1561.1,595.1,""smooth"",""right"",""right"",""good_move"",8298.9,3435.3,2959,4863.8,476.2,""oops"",""right"",""down"",""bad_move"",10765.4,2465.2,1934.3,8300.2,530.9,""oops"",""right"",""right"",""good_move"",13164,2394.9,1965.1,10769.1,429.8,""oops"",""up"",""up"",""good_move"",16381.2,3215,2729.3,13166.2,485.7,""oops"",""up"",""left"",""bad_move"",19381.9,2999.6,2563.1,16382.3,436.5,""smooth"",""up"",""up"",""good_move"",21956.9,2574.1,2185.5,19382.9,388.5,""oops"",""up"",""down"",""bad_move"",25406,3448.1,3076.7,21957.9,371.4,""oops"",""up"",""down"",""bad_move"",27912.6,2505.7,2043.9,25407,461.7,""oops"",""up"",""up"",""good_move"",31074.6,3161.2,2807.4,27913.5,353.7,""smooth"",""up"",""up"",""good_move"",37436.7,6360.5,2633.9,34411,391.8,""oops"",""up"",""up"",""good_move"",44494.9,7057.5,2754,41292.1,448.8,""oops"",""up"",""up"",""good_move"",47314.7,2819,2406.2,44495.8,412.7,""smooth"",""right"",""right"",""good_move""]","",""
"6906","","<div style=""width:500px;"">
  <p>What determined the result of this run?</p>
  </div>","99","html-slider-response","45","696387","0.0-5.0-1.7","50","1","2025-07-16 08:20:41","1f75c3e559b7213887762d5229550c2b","41.114.229.5","Mozilla/5.0 (Windows NT 10.0; Win64; x64) AppleWebKit/537.36 (KHTML, like Gecko) Chrome/138.0.0.0 Safari/537.36","WebKit","Chrome","138.0.0.0","Windows","10.0","https://app.prolific.com/","en-GB,en-US;q=0.9,en;q=0.8","6744814c173b9afac78cf039","686e379bc37a29ffa5cdc956","6877601c2e090ae7fa9b45a7","1","1","6744814c173b9afac78cf039","1","1","2025-07-16T08:32:23.031Z","","","","","","","","","","","AttribQ","","50","","","","","","","","","","","","","","","","","","","","","","","","","","","","",""
"5915","","<div style=""width:500px;"">
  <p>How much control did you have over the ball?</p>
  </div>","54","html-slider-response","46","702305","0.0-5.0-2.7","50","1","2025-07-16 08:20:41","1f75c3e559b7213887762d5229550c2b","41.114.229.5","Mozilla/5.0 (Windows NT 10.0; Win64; x64) AppleWebKit/537.36 (KHTML, like Gecko) Chrome/138.0.0.0 Safari/537.36","WebKit","Chrome","138.0.0.0","Windows","10.0","https://app.prolific.com/","en-GB,en-US;q=0.9,en;q=0.8","6744814c173b9afac78cf039","686e379bc37a29ffa5cdc956","6877601c2e090ae7fa9b45a7","1","1","6744814c173b9afac78cf039","1","1","2025-07-16T08:32:28.948Z","","","","","","","","","","","ControlQ","","50","","","","","","","","","","","","","","","","","","","","","","","","","","","","",""
"5356","","<div style=""width:500px;"">
  <p>How would you describe your current emotional state?</p>
  </div>","42","html-slider-response","47","707663","0.0-5.0-3.7","50","1","2025-07-16 08:20:41","1f75c3e559b7213887762d5229550c2b","41.114.229.5","Mozilla/5.0 (Windows NT 10.0; Win64; x64) AppleWebKit/537.36 (KHTML, like Gecko) Chrome/138.0.0.0 Safari/537.36","WebKit","Chrome","138.0.0.0","Windows","10.0","https://app.prolific.com/","en-GB,en-US;q=0.9,en;q=0.8","6744814c173b9afac78cf039","686e379bc37a29ffa5cdc956","6877601c2e090ae7fa9b45a7","1","1","6744814c173b9afac78cf039","1","1","2025-07-16T08:32:34.307Z","","","","","","","","","","","StressQ","","50","","","","","","","","","","","","","","","","","","","","","","","","","","","","",""
"6561","","<div style=""width:500px;"">
  <p>What best describes how you currently feel?</p>
  </div>","80","html-slider-response","48","714231","0.0-5.0-4.7","50","1","2025-07-16 08:20:41","1f75c3e559b7213887762d5229550c2b","41.114.229.5","Mozilla/5.0 (Windows NT 10.0; Win64; x64) AppleWebKit/537.36 (KHTML, like Gecko) Chrome/138.0.0.0 Safari/537.36","WebKit","Chrome","138.0.0.0","Windows","10.0","https://app.prolific.com/","en-GB,en-US;q=0.9,en;q=0.8","6744814c173b9afac78cf039","686e379bc37a29ffa5cdc956","6877601c2e090ae7fa9b45a7","1","1","6744814c173b9afac78cf039","1","1","2025-07-16T08:32:40.874Z","","","","","","","","","","","MotivationQ","","50","","","","","","","","","","","","","","","","","","","","","","","","","","","","",""
"","","","","ctl-task-cpt","49","746763","0.0-5.0-0.8","50","1","2025-07-16 08:20:41","1f75c3e559b7213887762d5229550c2b","41.114.229.5","Mozilla/5.0 (Windows NT 10.0; Win64; x64) AppleWebKit/537.36 (KHTML, like Gecko) Chrome/138.0.0.0 Safari/537.36","WebKit","Chrome","138.0.0.0","Windows","10.0","https://app.prolific.com/","en-GB,en-US;q=0.9,en;q=0.8","6744814c173b9afac78cf039","686e379bc37a29ffa5cdc956","6877601c2e090ae7fa9b45a7","1","1","6744814c173b9afac78cf039","1","1","2025-07-16T08:33:13.406Z","","","","","","","","","","","","","","win-only","2","g1:SE,g2:NW","0.2","9","0","723880.4","8826.5","13847.1","29510.5","1","4","4","6","1","1","1","8","7","0.06060606060606061","5020.6","3000","2000","[""down"",""right""]","{""num_key_presses"":6,""num_perfect"":1,""num_errors"":0,""num_randdir"":5,""num_randdir_good_moves"":4,""num_whilered"":0,""num_whileblue"":0,""num_blue"":0,""num_good_moves"":5}","[299.22232142857143,290.12857142857143,0.6,299.22232142857143,290.12857142857143,145.8,299.22232142857143,290.12857142857143,279.4,299.22232142857143,290.12857142857143,381.5,299.22232142857143,290.12857142857143,484.9,299.22232142857143,290.12857142857143,587.9,299.22232142857143,290.12857142857143,702.5,299.22232142857143,290.12857142857143,809.4,299.22232142857143,290.12857142857143,932.4,299.22232142857143,290.12857142857143,1056.7,299.22232142857143,290.12857142857143,1167.9,299.22232142857143,290.12857142857143,1272.4,299.22232142857143,290.12857142857143,1377.5,299.22232142857143,290.12857142857143,1480.3,299.22232142857143,290.12857142857143,1592,299.22232142857143,290.12857142857143,1695,299.22232142857143,290.12857142857143,1815.6,299.22232142857143,290.12857142857143,1937,299.22232142857143,290.12857142857143,2041.4,299.22232142857143,290.12857142857143,2147.6,299.22232142857143,290.12857142857143,2251.8,299.22232142857143,290.12857142857143,2410.4,299.22232142857143,290.12857142857143,2511,299.22232142857143,290.12857142857143,2643.9,299.22232142857143,290.12857142857143,2745.6,299.22232142857143,290.12857142857143,2863.1,299.22232142857143,290.12857142857143,2964.2,299.22232142857143,290.12857142857143,3100.7,299.22232142857143,290.12857142857143,3201.3,299.22232142857143,290.12857142857143,3305.3,299.22232142857143,290.12857142857143,3430.8,299.22232142857143,290.12857142857143,3538.6,299.22232142857143,290.12857142857143,3659.1,299.22232142857143,290.12857142857143,3761.5,299.22232142857143,290.12857142857143,3870.8,299.22232142857143,290.12857142857143,3975.1,299.22232142857143,290.12857142857143,4079.1,299.22232142857143,290.12857142857143,4211.4,299.22232142857143,290.12857142857143,4318.4,299.22232142857143,290.12857142857143,4422.1,299.22232142857143,290.12857142857143,4527.8,299.22232142857143,290.12857142857143,4629.6,299.22232142857143,290.12857142857143,4732.8,299.22232142857143,290.12857142857143,4833.1,299.22232142857143,290.12857142857143,4941.8]","[1469.9,1469.9,1000,0,469.9,""oops"",""right"",""up"",""bad_move"",4350.7,2879.9,2394.2,1470.9,485.7,""oops"",""right"",""right"",""good_move"",7140.3,2787.1,2340.1,4353.2,447.1,""oops"",""right"",""right"",""good_move"",10334.8,3193.2,2818.7,7141.6,374.5,""oops"",""down"",""down"",""good_move"",12723.9,2388,1930.5,10336,457.5,""oops"",""down"",""down"",""good_move"",15461.2,2735,2302.5,12726.3,432.5,""smooth"",""down"",""down"",""good_move""]","",""
"5281","","<div style=""width:500px;"">
  <p>What determined the result of this run?</p>
  </div>","96","html-slider-response","50","752046","0.0-5.0-1.8","50","1","2025-07-16 08:20:41","1f75c3e559b7213887762d5229550c2b","41.114.229.5","Mozilla/5.0 (Windows NT 10.0; Win64; x64) AppleWebKit/537.36 (KHTML, like Gecko) Chrome/138.0.0.0 Safari/537.36","WebKit","Chrome","138.0.0.0","Windows","10.0","https://app.prolific.com/","en-GB,en-US;q=0.9,en;q=0.8","6744814c173b9afac78cf039","686e379bc37a29ffa5cdc956","6877601c2e090ae7fa9b45a7","1","1","6744814c173b9afac78cf039","1","1","2025-07-16T08:33:18.690Z","","","","","","","","","","","AttribQ","","50","","","","","","","","","","","","","","","","","","","","","","","","","","","","",""
"4655","","<div style=""width:500px;"">
  <p>How much control did you have over the ball?</p>
  </div>","54","html-slider-response","51","756704","0.0-5.0-2.8","50","1","2025-07-16 08:20:41","1f75c3e559b7213887762d5229550c2b","41.114.229.5","Mozilla/5.0 (Windows NT 10.0; Win64; x64) AppleWebKit/537.36 (KHTML, like Gecko) Chrome/138.0.0.0 Safari/537.36","WebKit","Chrome","138.0.0.0","Windows","10.0","https://app.prolific.com/","en-GB,en-US;q=0.9,en;q=0.8","6744814c173b9afac78cf039","686e379bc37a29ffa5cdc956","6877601c2e090ae7fa9b45a7","1","1","6744814c173b9afac78cf039","1","1","2025-07-16T08:33:23.347Z","","","","","","","","","","","ControlQ","","50","","","","","","","","","","","","","","","","","","","","","","","","","","","","",""
"6756","","<div style=""width:500px;"">
  <p>How would you describe your current emotional state?</p>
  </div>","38","html-slider-response","52","763465","0.0-5.0-3.8","50","1","2025-07-16 08:20:41","1f75c3e559b7213887762d5229550c2b","41.114.229.5","Mozilla/5.0 (Windows NT 10.0; Win64; x64) AppleWebKit/537.36 (KHTML, like Gecko) Chrome/138.0.0.0 Safari/537.36","WebKit","Chrome","138.0.0.0","Windows","10.0","https://app.prolific.com/","en-GB,en-US;q=0.9,en;q=0.8","6744814c173b9afac78cf039","686e379bc37a29ffa5cdc956","6877601c2e090ae7fa9b45a7","1","1","6744814c173b9afac78cf039","1","1","2025-07-16T08:33:30.108Z","","","","","","","","","","","StressQ","","50","","","","","","","","","","","","","","","","","","","","","","","","","","","","",""
"4898","","<div style=""width:500px;"">
  <p>What best describes how you currently feel?</p>
  </div>","74","html-slider-response","53","768365","0.0-5.0-4.8","50","1","2025-07-16 08:20:41","1f75c3e559b7213887762d5229550c2b","41.114.229.5","Mozilla/5.0 (Windows NT 10.0; Win64; x64) AppleWebKit/537.36 (KHTML, like Gecko) Chrome/138.0.0.0 Safari/537.36","WebKit","Chrome","138.0.0.0","Windows","10.0","https://app.prolific.com/","en-GB,en-US;q=0.9,en;q=0.8","6744814c173b9afac78cf039","686e379bc37a29ffa5cdc956","6877601c2e090ae7fa9b45a7","1","1","6744814c173b9afac78cf039","1","1","2025-07-16T08:33:35.009Z","","","","","","","","","","","MotivationQ","","50","","","","","","","","","","","","","","","","","","","","","","","","","","","","",""
"","","","","ctl-task-cpt","54","823715","0.0-5.0-0.9","50","1","2025-07-16 08:20:41","1f75c3e559b7213887762d5229550c2b","41.114.229.5","Mozilla/5.0 (Windows NT 10.0; Win64; x64) AppleWebKit/537.36 (KHTML, like Gecko) Chrome/138.0.0.0 Safari/537.36","WebKit","Chrome","138.0.0.0","Windows","10.0","https://app.prolific.com/","en-GB,en-US;q=0.9,en;q=0.8","6744814c173b9afac78cf039","686e379bc37a29ffa5cdc956","6877601c2e090ae7fa9b45a7","1","1","6744814c173b9afac78cf039","1","1","2025-07-16T08:34:30.359Z","","","","","","","","","","","","","","win-only","2","g1:SE,g2:NW","0.4","10","0","778016.2","9998.3","14999.9","52324.3","1","4","8","6","2","8","8","16","8","0.12121212121212122","5001.6","3000","2175","[""left"",""up""]","{""num_key_presses"":8,""num_perfect"":3,""num_errors"":0,""num_randdir"":5,""num_randdir_good_moves"":4,""num_whilered"":0,""num_whileblue"":0,""num_blue"":2,""num_good_moves"":7}","[297.22232142857143,300.12857142857143,0.8,297.22232142857143,300.12857142857143,115.6,297.22232142857143,300.12857142857143,222,297.22232142857143,300.12857142857143,325.2,297.22232142857143,300.12857142857143,515.7,297.22232142857143,300.12857142857143,619.4,297.22232142857143,300.12857142857143,722.1,297.22232142857143,300.12857142857143,830.2,297.22232142857143,300.12857142857143,937.2,297.22232142857143,300.12857142857143,1040.7,297.22232142857143,300.12857142857143,1153.4,297.22232142857143,300.12857142857143,1258.4,297.22232142857143,300.12857142857143,1374.4,297.22232142857143,300.12857142857143,1477.3,297.22232142857143,300.12857142857143,1578.9,297.22232142857143,300.12857142857143,1717.5,297.22232142857143,300.12857142857143,1820.5,297.22232142857143,300.12857142857143,1927.2,297.22232142857143,300.12857142857143,2068,297.22232142857143,300.12857142857143,2174.4,297.22232142857143,300.12857142857143,2339.7,297.22232142857143,300.12857142857143,2445.7,297.22232142857143,300.12857142857143,2553.8,297.22232142857143,300.12857142857143,2757.9,297.22232142857143,300.12857142857143,2863.2,297.22232142857143,300.12857142857143,3086.7,297.22232142857143,300.12857142857143,3190.1,297.22232142857143,300.12857142857143,3294.5,297.22232142857143,300.12857142857143,3485.2,297.22232142857143,300.12857142857143,3591.5,297.22232142857143,300.12857142857143,3773.6,297.22232142857143,300.12857142857143,3875,297.22232142857143,300.12857142857143,3975.2,297.22232142857143,300.12857142857143,4135.8,297.22232142857143,300.12857142857143,4244.9,297.22232142857143,300.12857142857143,4349.4,297.22232142857143,300.12857142857143,4520.2,297.22232142857143,300.12857142857143,4620.2,297.22232142857143,300.12857142857143,4726.3,297.22232142857143,300.12857142857143,4842.9,297.22232142857143,300.12857142857143,4945.1]","[5256.6,5256.6,2739.4,2012.9,504.3,""oops"",""left"",""up"",""good_move"",9339,4081.2,2701.9,5257.8,1379.3,""oops"",""left"",""left"",""good_move"",14857.4,5517.3,2836.1,9340.1,2681.2,""smooth"",""left"",""left"",""good_move"",18210.2,3352.2,2955.5,14858,396.7,""oops"",""left"",""right"",""bad_move"",21081.6,2870.2,2237.1,18211.4,633.1,""oops"",""left"",""left"",""good_move"",28185.2,7102.5,2306.2,25467.2,411.8,""smooth"",""up"",""up"",""good_move"",33940.5,5754.7,2049.4,28185.9,3705.2,""smooth"",""up"",""up"",""good_move"",37110.8,3169.6,2278.5,33941.3,891.1,""oops"",""left"",""left"",""good_move""]","",""
"4321","","<div style=""width:500px;"">
  <p>What determined the result of this run?</p>
  </div>","100","html-slider-response","55","828041","0.0-5.0-1.9","50","1","2025-07-16 08:20:41","1f75c3e559b7213887762d5229550c2b","41.114.229.5","Mozilla/5.0 (Windows NT 10.0; Win64; x64) AppleWebKit/537.36 (KHTML, like Gecko) Chrome/138.0.0.0 Safari/537.36","WebKit","Chrome","138.0.0.0","Windows","10.0","https://app.prolific.com/","en-GB,en-US;q=0.9,en;q=0.8","6744814c173b9afac78cf039","686e379bc37a29ffa5cdc956","6877601c2e090ae7fa9b45a7","1","1","6744814c173b9afac78cf039","1","1","2025-07-16T08:34:34.685Z","","","","","","","","","","","AttribQ","","50","","","","","","","","","","","","","","","","","","","","","","","","","","","","",""
"3347","","<div style=""width:500px;"">
  <p>How much control did you have over the ball?</p>
  </div>","89","html-slider-response","56","831392","0.0-5.0-2.9","50","1","2025-07-16 08:20:41","1f75c3e559b7213887762d5229550c2b","41.114.229.5","Mozilla/5.0 (Windows NT 10.0; Win64; x64) AppleWebKit/537.36 (KHTML, like Gecko) Chrome/138.0.0.0 Safari/537.36","WebKit","Chrome","138.0.0.0","Windows","10.0","https://app.prolific.com/","en-GB,en-US;q=0.9,en;q=0.8","6744814c173b9afac78cf039","686e379bc37a29ffa5cdc956","6877601c2e090ae7fa9b45a7","1","1","6744814c173b9afac78cf039","1","1","2025-07-16T08:34:38.036Z","","","","","","","","","","","ControlQ","","50","","","","","","","","","","","","","","","","","","","","","","","","","","","","",""
"8319","","<div style=""width:500px;"">
  <p>How would you describe your current emotional state?</p>
  </div>","19","html-slider-response","57","839715","0.0-5.0-3.9","50","1","2025-07-16 08:20:41","1f75c3e559b7213887762d5229550c2b","41.114.229.5","Mozilla/5.0 (Windows NT 10.0; Win64; x64) AppleWebKit/537.36 (KHTML, like Gecko) Chrome/138.0.0.0 Safari/537.36","WebKit","Chrome","138.0.0.0","Windows","10.0","https://app.prolific.com/","en-GB,en-US;q=0.9,en;q=0.8","6744814c173b9afac78cf039","686e379bc37a29ffa5cdc956","6877601c2e090ae7fa9b45a7","1","1","6744814c173b9afac78cf039","1","1","2025-07-16T08:34:46.358Z","","","","","","","","","","","StressQ","","50","","","","","","","","","","","","","","","","","","","","","","","","","","","","",""
"3659","","<div style=""width:500px;"">
  <p>What best describes how you currently feel?</p>
  </div>","78","html-slider-response","58","843379","0.0-5.0-4.9","50","1","2025-07-16 08:20:41","1f75c3e559b7213887762d5229550c2b","41.114.229.5","Mozilla/5.0 (Windows NT 10.0; Win64; x64) AppleWebKit/537.36 (KHTML, like Gecko) Chrome/138.0.0.0 Safari/537.36","WebKit","Chrome","138.0.0.0","Windows","10.0","https://app.prolific.com/","en-GB,en-US;q=0.9,en;q=0.8","6744814c173b9afac78cf039","686e379bc37a29ffa5cdc956","6877601c2e090ae7fa9b45a7","1","1","6744814c173b9afac78cf039","1","1","2025-07-16T08:34:50.023Z","","","","","","","","","","","MotivationQ","","50","","","","","","","","","","","","","","","","","","","","","","","","","","","","",""
"","","","","ctl-task-cpt","59","867267","0.0-5.0-0.10","50","1","2025-07-16 08:20:41","1f75c3e559b7213887762d5229550c2b","41.114.229.5","Mozilla/5.0 (Windows NT 10.0; Win64; x64) AppleWebKit/537.36 (KHTML, like Gecko) Chrome/138.0.0.0 Safari/537.36","WebKit","Chrome","138.0.0.0","Windows","10.0","https://app.prolific.com/","en-GB,en-US;q=0.9,en;q=0.8","6744814c173b9afac78cf039","686e379bc37a29ffa5cdc956","6877601c2e090ae7fa9b45a7","1","1","6744814c173b9afac78cf039","1","1","2025-07-16T08:35:13.910Z","","","","","","","","","","","","","","win-only","3","g1:SW,g2:NE","0.5","11","0","853031.5","1630.8","6665.8","20846.4","1","4","8","6","1","1","1","17","16","0.12878787878787878","5034.8","3000","2330","[""down"",""left""]","{""num_key_presses"":4,""num_perfect"":3,""num_errors"":0,""num_randdir"":1,""num_randdir_good_moves"":1,""num_whilered"":0,""num_whileblue"":0,""num_blue"":1,""num_good_moves"":4}","[296.22232142857143,302.12857142857143,0.5,296.22232142857143,302.12857142857143,134.4,296.22232142857143,302.12857142857143,242.4,296.22232142857143,302.12857142857143,355.7,296.22232142857143,302.12857142857143,467.7,296.22232142857143,302.12857142857143,574.1,296.22232142857143,302.12857142857143,683.9,296.22232142857143,302.12857142857143,792.6,296.22232142857143,302.12857142857143,900.4,296.22232142857143,302.12857142857143,1006.2,296.22232142857143,302.12857142857143,1114.9,296.22232142857143,302.12857142857143,1221.8,296.22232142857143,302.12857142857143,1331.9,296.22232142857143,302.12857142857143,1438.3,296.22232142857143,302.12857142857143,1557,296.22232142857143,302.12857142857143,1669.4,296.22232142857143,302.12857142857143,1774.4,296.22232142857143,302.12857142857143,1881.3,296.22232142857143,302.12857142857143,1984.7,296.22232142857143,302.12857142857143,2105.9,296.22232142857143,302.12857142857143,2213.1,296.22232142857143,302.12857142857143,2315,296.22232142857143,302.12857142857143,2427.9,296.22232142857143,302.12857142857143,2601.1,296.22232142857143,302.12857142857143,2710.4,296.22232142857143,302.12857142857143,2815.7,296.22232142857143,302.12857142857143,2928.7,296.22232142857143,302.12857142857143,3038.7,296.22232142857143,302.12857142857143,3139,296.22232142857143,302.12857142857143,3239.2,296.22232142857143,302.12857142857143,3343.9,296.22232142857143,302.12857142857143,3518.7,296.22232142857143,302.12857142857143,3624.9,296.22232142857143,302.12857142857143,3734.1,296.22232142857143,302.12857142857143,3844.3,296.22232142857143,302.12857142857143,3946,296.22232142857143,302.12857142857143,4075.2,296.22232142857143,302.12857142857143,4185.7,296.22232142857143,302.12857142857143,4296,296.22232142857143,302.12857142857143,4399.4,296.22232142857143,302.12857142857143,4506.3,296.22232142857143,302.12857142857143,4621.7,296.22232142857143,302.12857142857143,4727.9,296.22232142857143,302.12857142857143,4833]","[1488.9,1488.9,1000,0,488.9,""smooth"",""left"",""left"",""good_move"",4337.8,2846.7,2284.5,1491.2,562.2,""smooth"",""left"",""left"",""good_move"",7855.4,3515.6,2031.1,4339.8,1484.5,""oops"",""down"",""down"",""good_move"",13753.7,5896,2163.4,11071.4,518.9,""smooth"",""down"",""down"",""good_move""]","",""
"3044","","<div style=""width:500px;"">
  <p>What determined the result of this run?</p>
  </div>","98","html-slider-response","60","870315","0.0-5.0-1.10","50","1","2025-07-16 08:20:41","1f75c3e559b7213887762d5229550c2b","41.114.229.5","Mozilla/5.0 (Windows NT 10.0; Win64; x64) AppleWebKit/537.36 (KHTML, like Gecko) Chrome/138.0.0.0 Safari/537.36","WebKit","Chrome","138.0.0.0","Windows","10.0","https://app.prolific.com/","en-GB,en-US;q=0.9,en;q=0.8","6744814c173b9afac78cf039","686e379bc37a29ffa5cdc956","6877601c2e090ae7fa9b45a7","1","1","6744814c173b9afac78cf039","1","1","2025-07-16T08:35:16.958Z","","","","","","","","","","","AttribQ","","50","","","","","","","","","","","","","","","","","","","","","","","","","","","","",""
"2824","","<div style=""width:500px;"">
  <p>How much control did you have over the ball?</p>
  </div>","83","html-slider-response","61","873144","0.0-5.0-2.10","50","1","2025-07-16 08:20:41","1f75c3e559b7213887762d5229550c2b","41.114.229.5","Mozilla/5.0 (Windows NT 10.0; Win64; x64) AppleWebKit/537.36 (KHTML, like Gecko) Chrome/138.0.0.0 Safari/537.36","WebKit","Chrome","138.0.0.0","Windows","10.0","https://app.prolific.com/","en-GB,en-US;q=0.9,en;q=0.8","6744814c173b9afac78cf039","686e379bc37a29ffa5cdc956","6877601c2e090ae7fa9b45a7","1","1","6744814c173b9afac78cf039","1","1","2025-07-16T08:35:19.787Z","","","","","","","","","","","ControlQ","","50","","","","","","","","","","","","","","","","","","","","","","","","","","","","",""
"5073","","<div style=""width:500px;"">
  <p>How would you describe your current emotional state?</p>
  </div>","11","html-slider-response","62","878221","0.0-5.0-3.10","50","1","2025-07-16 08:20:41","1f75c3e559b7213887762d5229550c2b","41.114.229.5","Mozilla/5.0 (Windows NT 10.0; Win64; x64) AppleWebKit/537.36 (KHTML, like Gecko) Chrome/138.0.0.0 Safari/537.36","WebKit","Chrome","138.0.0.0","Windows","10.0","https://app.prolific.com/","en-GB,en-US;q=0.9,en;q=0.8","6744814c173b9afac78cf039","686e379bc37a29ffa5cdc956","6877601c2e090ae7fa9b45a7","1","1","6744814c173b9afac78cf039","1","1","2025-07-16T08:35:24.864Z","","","","","","","","","","","StressQ","","50","","","","","","","","","","","","","","","","","","","","","","","","","","","","",""
"4223","","<div style=""width:500px;"">
  <p>What best describes how you currently feel?</p>
  </div>","91","html-slider-response","63","882448","0.0-5.0-4.10","50","1","2025-07-16 08:20:41","1f75c3e559b7213887762d5229550c2b","41.114.229.5","Mozilla/5.0 (Windows NT 10.0; Win64; x64) AppleWebKit/537.36 (KHTML, like Gecko) Chrome/138.0.0.0 Safari/537.36","WebKit","Chrome","138.0.0.0","Windows","10.0","https://app.prolific.com/","en-GB,en-US;q=0.9,en;q=0.8","6744814c173b9afac78cf039","686e379bc37a29ffa5cdc956","6877601c2e090ae7fa9b45a7","1","1","6744814c173b9afac78cf039","1","1","2025-07-16T08:35:29.092Z","","","","","","","","","","","MotivationQ","","50","","","","","","","","","","","","","","","","","","","","","","","","","","","","",""
"","","","","ctl-task-cpt","64","946187","0.0-5.0-0.11","50","1","2025-07-16 08:20:41","1f75c3e559b7213887762d5229550c2b","41.114.229.5","Mozilla/5.0 (Windows NT 10.0; Win64; x64) AppleWebKit/537.36 (KHTML, like Gecko) Chrome/138.0.0.0 Safari/537.36","WebKit","Chrome","138.0.0.0","Windows","10.0","https://app.prolific.com/","en-GB,en-US;q=0.9,en;q=0.8","6744814c173b9afac78cf039","686e379bc37a29ffa5cdc956","6877601c2e090ae7fa9b45a7","1","1","6744814c173b9afac78cf039","1","1","2025-07-16T08:36:32.831Z","","","","","","","","","","","","","","win-only","2","g1:SE,g2:NW","0.6","12","0","892100.3","1734.4","6738.1","60662.8","1","4","4","6","2","4","4","21","17","0.1590909090909091","5003.7","3000","1800","[""left"",""up""]","{""num_key_presses"":10,""num_perfect"":6,""num_errors"":0,""num_randdir"":4,""num_randdir_good_moves"":2,""num_whilered"":0,""num_whileblue"":0,""num_blue"":5,""num_good_moves"":8}","[304.22232142857143,294.12857142857143,1.8,304.22232142857143,294.12857142857143,134.1,304.22232142857143,294.12857142857143,253.5,304.22232142857143,294.12857142857143,367.7,304.22232142857143,294.12857142857143,489.3,304.22232142857143,294.12857142857143,605.9,304.22232142857143,294.12857142857143,720.8,304.22232142857143,294.12857142857143,837.4,304.22232142857143,294.12857142857143,954.4,304.22232142857143,294.12857142857143,1070.9,304.22232142857143,294.12857142857143,1189.1,304.22232142857143,294.12857142857143,1304.4,304.22232142857143,294.12857142857143,1423.2,304.22232142857143,294.12857142857143,1536.8,304.22232142857143,294.12857142857143,1655.8,304.22232142857143,294.12857142857143,1770.7,304.22232142857143,294.12857142857143,1883.6,304.22232142857143,294.12857142857143,2000.9,304.22232142857143,294.12857142857143,2129.8,304.22232142857143,294.12857142857143,2242.7,304.22232142857143,294.12857142857143,2371.1,304.22232142857143,294.12857142857143,2495.9,304.22232142857143,294.12857142857143,2624.6,304.22232142857143,294.12857142857143,2750.1,304.22232142857143,294.12857142857143,2889.1,304.22232142857143,294.12857142857143,3024,304.22232142857143,294.12857142857143,3158.5,304.22232142857143,294.12857142857143,3284.9,304.22232142857143,294.12857142857143,3404,304.22232142857143,294.12857142857143,3530.6,304.22232142857143,294.12857142857143,3656.9,304.22232142857143,294.12857142857143,3784.1,304.22232142857143,294.12857142857143,3910.7,304.22232142857143,294.12857142857143,4040.3,304.22232142857143,294.12857142857143,4170.7,304.22232142857143,294.12857142857143,4292,304.22232142857143,294.12857142857143,4407,304.22232142857143,294.12857142857143,4527.2,304.22232142857143,294.12857142857143,4645.3,304.22232142857143,294.12857142857143,4763.3,304.22232142857143,294.12857142857143,4883.9]","[1514.1,1514.1,1000,0,514.1,""oops"",""left"",""up"",""good_move"",7119.6,5604.5,2537.9,1515.1,3066.6,""oops"",""left"",""down"",""bad_move"",16711.4,9590.8,2082.4,14169.2,459.9,""oops"",""left"",""up"",""good_move"",31467.7,14751,2664.3,28304.3,499.1,""smooth"",""left"",""left"",""good_move"",35144,3671.6,3043.3,31472.4,628.3,""smooth"",""left"",""left"",""good_move"",38892.3,3747.5,2824.1,35144.8,923.4,""smooth"",""left"",""left"",""good_move"",43419,4516.3,2174.7,38902.7,2341.6,""smooth"",""up"",""up"",""good_move"",47363.9,3943.5,2046.4,43420.6,1897,""oops"",""up"",""down"",""bad_move"",49777.8,2412.1,1750.8,47365.7,661.7,""smooth"",""up"",""up"",""good_move"",53597.7,3817.7,2243.6,49780.1,1574,""smooth"",""up"",""up"",""good_move""]","",""
"4430","","<div style=""width:500px;"">
  <p>What determined the result of this run?</p>
  </div>","99","html-slider-response","65","950624","0.0-5.0-1.11","50","1","2025-07-16 08:20:41","1f75c3e559b7213887762d5229550c2b","41.114.229.5","Mozilla/5.0 (Windows NT 10.0; Win64; x64) AppleWebKit/537.36 (KHTML, like Gecko) Chrome/138.0.0.0 Safari/537.36","WebKit","Chrome","138.0.0.0","Windows","10.0","https://app.prolific.com/","en-GB,en-US;q=0.9,en;q=0.8","6744814c173b9afac78cf039","686e379bc37a29ffa5cdc956","6877601c2e090ae7fa9b45a7","1","1","6744814c173b9afac78cf039","1","1","2025-07-16T08:36:37.267Z","","","","","","","","","","","AttribQ","","50","","","","","","","","","","","","","","","","","","","","","","","","","","","","",""
"3289","","<div style=""width:500px;"">
  <p>How much control did you have over the ball?</p>
  </div>","81","html-slider-response","66","953919","0.0-5.0-2.11","50","1","2025-07-16 08:20:41","1f75c3e559b7213887762d5229550c2b","41.114.229.5","Mozilla/5.0 (Windows NT 10.0; Win64; x64) AppleWebKit/537.36 (KHTML, like Gecko) Chrome/138.0.0.0 Safari/537.36","WebKit","Chrome","138.0.0.0","Windows","10.0","https://app.prolific.com/","en-GB,en-US;q=0.9,en;q=0.8","6744814c173b9afac78cf039","686e379bc37a29ffa5cdc956","6877601c2e090ae7fa9b45a7","1","1","6744814c173b9afac78cf039","1","1","2025-07-16T08:36:40.562Z","","","","","","","","","","","ControlQ","","50","","","","","","","","","","","","","","","","","","","","","","","","","","","","",""
"5962","","<div style=""width:500px;"">
  <p>How would you describe your current emotional state?</p>
  </div>","10","html-slider-response","67","959885","0.0-5.0-3.11","50","1","2025-07-16 08:20:41","1f75c3e559b7213887762d5229550c2b","41.114.229.5","Mozilla/5.0 (Windows NT 10.0; Win64; x64) AppleWebKit/537.36 (KHTML, like Gecko) Chrome/138.0.0.0 Safari/537.36","WebKit","Chrome","138.0.0.0","Windows","10.0","https://app.prolific.com/","en-GB,en-US;q=0.9,en;q=0.8","6744814c173b9afac78cf039","686e379bc37a29ffa5cdc956","6877601c2e090ae7fa9b45a7","1","1","6744814c173b9afac78cf039","1","1","2025-07-16T08:36:46.528Z","","","","","","","","","","","StressQ","","50","","","","","","","","","","","","","","","","","","","","","","","","","","","","",""
"8390","","<div style=""width:500px;"">
  <p>What best describes how you currently feel?</p>
  </div>","93","html-slider-response","68","968278","0.0-5.0-4.11","50","1","2025-07-16 08:20:41","1f75c3e559b7213887762d5229550c2b","41.114.229.5","Mozilla/5.0 (Windows NT 10.0; Win64; x64) AppleWebKit/537.36 (KHTML, like Gecko) Chrome/138.0.0.0 Safari/537.36","WebKit","Chrome","138.0.0.0","Windows","10.0","https://app.prolific.com/","en-GB,en-US;q=0.9,en;q=0.8","6744814c173b9afac78cf039","686e379bc37a29ffa5cdc956","6877601c2e090ae7fa9b45a7","1","1","6744814c173b9afac78cf039","1","1","2025-07-16T08:36:54.922Z","","","","","","","","","","","MotivationQ","","50","","","","","","","","","","","","","","","","","","","","","","","","","","","","",""
"","","","","ctl-task-cpt","69","1003594","0.0-5.0-0.12","50","1","2025-07-16 08:20:41","1f75c3e559b7213887762d5229550c2b","41.114.229.5","Mozilla/5.0 (Windows NT 10.0; Win64; x64) AppleWebKit/537.36 (KHTML, like Gecko) Chrome/138.0.0.0 Safari/537.36","WebKit","Chrome","138.0.0.0","Windows","10.0","https://app.prolific.com/","en-GB,en-US;q=0.9,en;q=0.8","6744814c173b9afac78cf039","686e379bc37a29ffa5cdc956","6877601c2e090ae7fa9b45a7","1","1","6744814c173b9afac78cf039","1","1","2025-07-16T08:37:30.237Z","","","","","","","","","","","","","","win-only","3","g1:SW,g2:NE","0.7","13","0","977930.6","10267.8","15415.8","32263","1","4","4","6","1","1","1","22","21","0.16666666666666666","5147.8","3000","2675","[""down"",""left""]","{""num_key_presses"":4,""num_perfect"":4,""num_errors"":0,""num_randdir"":0,""num_randdir_good_moves"":0,""num_whilered"":0,""num_whileblue"":0,""num_blue"":0,""num_good_moves"":4}","[295.22232142857143,289.12857142857143,1.2,295.22232142857143,289.12857142857143,233.9,295.22232142857143,289.12857142857143,335.2,295.22232142857143,289.12857142857143,613.7,295.22232142857143,289.12857142857143,716.2,295.22232142857143,289.12857142857143,946.8,295.22232142857143,289.12857142857143,1116.5,295.22232142857143,289.12857142857143,1222.4,295.22232142857143,289.12857142857143,1418.4,295.22232142857143,289.12857142857143,1519.3,295.22232142857143,289.12857142857143,1623,295.22232142857143,289.12857142857143,1807.4,295.22232142857143,289.12857142857143,1915.3,295.22232142857143,289.12857142857143,2155.4,295.22232142857143,289.12857142857143,2268.6,295.22232142857143,289.12857142857143,2508.9,295.22232142857143,289.12857142857143,2618.5,295.22232142857143,289.12857142857143,2845.6,295.22232142857143,289.12857142857143,2951.1,295.22232142857143,289.12857142857143,3051.7,295.22232142857143,289.12857142857143,3226.5,295.22232142857143,289.12857142857143,3335.2,295.22232142857143,289.12857142857143,3437.7,295.22232142857143,289.12857142857143,3604.7,295.22232142857143,289.12857142857143,3715.1,295.22232142857143,289.12857142857143,3955.8,295.22232142857143,289.12857142857143,4064.7,295.22232142857143,289.12857142857143,4324.6,295.22232142857143,289.12857142857143,4430.2,295.22232142857143,289.12857142857143,4545.4,295.22232142857143,289.12857142857143,4872.9,295.22232142857143,289.12857142857143,4978.4]","[1556.9,1556.9,1000,0,556.9,""smooth"",""left"",""left"",""good_move"",7137.5,5577.9,2288.8,1559.7,3289.1,""smooth"",""left"",""left"",""good_move"",12884.2,5745.7,2304.8,7138.7,3440.7,""smooth"",""down"",""down"",""good_move"",15983,3097.5,2496,12885.6,601.5,""smooth"",""down"",""down"",""good_move""]","",""
"4897","","<div style=""width:500px;"">
  <p>What determined the result of this run?</p>
  </div>","98","html-slider-response","70","1008495","0.0-5.0-1.12","50","1","2025-07-16 08:20:41","1f75c3e559b7213887762d5229550c2b","41.114.229.5","Mozilla/5.0 (Windows NT 10.0; Win64; x64) AppleWebKit/537.36 (KHTML, like Gecko) Chrome/138.0.0.0 Safari/537.36","WebKit","Chrome","138.0.0.0","Windows","10.0","https://app.prolific.com/","en-GB,en-US;q=0.9,en;q=0.8","6744814c173b9afac78cf039","686e379bc37a29ffa5cdc956","6877601c2e090ae7fa9b45a7","1","1","6744814c173b9afac78cf039","1","1","2025-07-16T08:37:35.138Z","","","","","","","","","","","AttribQ","","50","","","","","","","","","","","","","","","","","","","","","","","","","","","","",""
"3879","","<div style=""width:500px;"">
  <p>How much control did you have over the ball?</p>
  </div>","57","html-slider-response","71","1012378","0.0-5.0-2.12","50","1","2025-07-16 08:20:41","1f75c3e559b7213887762d5229550c2b","41.114.229.5","Mozilla/5.0 (Windows NT 10.0; Win64; x64) AppleWebKit/537.36 (KHTML, like Gecko) Chrome/138.0.0.0 Safari/537.36","WebKit","Chrome","138.0.0.0","Windows","10.0","https://app.prolific.com/","en-GB,en-US;q=0.9,en;q=0.8","6744814c173b9afac78cf039","686e379bc37a29ffa5cdc956","6877601c2e090ae7fa9b45a7","1","1","6744814c173b9afac78cf039","1","1","2025-07-16T08:37:39.021Z","","","","","","","","","","","ControlQ","","50","","","","","","","","","","","","","","","","","","","","","","","","","","","","",""
"3681","","<div style=""width:500px;"">
  <p>How would you describe your current emotional state?</p>
  </div>","9","html-slider-response","72","1016064","0.0-5.0-3.12","50","1","2025-07-16 08:20:41","1f75c3e559b7213887762d5229550c2b","41.114.229.5","Mozilla/5.0 (Windows NT 10.0; Win64; x64) AppleWebKit/537.36 (KHTML, like Gecko) Chrome/138.0.0.0 Safari/537.36","WebKit","Chrome","138.0.0.0","Windows","10.0","https://app.prolific.com/","en-GB,en-US;q=0.9,en;q=0.8","6744814c173b9afac78cf039","686e379bc37a29ffa5cdc956","6877601c2e090ae7fa9b45a7","1","1","6744814c173b9afac78cf039","1","1","2025-07-16T08:37:42.707Z","","","","","","","","","","","StressQ","","50","","","","","","","","","","","","","","","","","","","","","","","","","","","","",""
"4828","","<div style=""width:500px;"">
  <p>What best describes how you currently feel?</p>
  </div>","86","html-slider-response","73","1020896","0.0-5.0-4.12","50","1","2025-07-16 08:20:41","1f75c3e559b7213887762d5229550c2b","41.114.229.5","Mozilla/5.0 (Windows NT 10.0; Win64; x64) AppleWebKit/537.36 (KHTML, like Gecko) Chrome/138.0.0.0 Safari/537.36","WebKit","Chrome","138.0.0.0","Windows","10.0","https://app.prolific.com/","en-GB,en-US;q=0.9,en;q=0.8","6744814c173b9afac78cf039","686e379bc37a29ffa5cdc956","6877601c2e090ae7fa9b45a7","1","1","6744814c173b9afac78cf039","1","1","2025-07-16T08:37:47.539Z","","","","","","","","","","","MotivationQ","","50","","","","","","","","","","","","","","","","","","","","","","","","","","","","",""
"","","","","ctl-task-cpt","74","1088785","0.0-5.0-0.13","50","1","2025-07-16 08:20:41","1f75c3e559b7213887762d5229550c2b","41.114.229.5","Mozilla/5.0 (Windows NT 10.0; Win64; x64) AppleWebKit/537.36 (KHTML, like Gecko) Chrome/138.0.0.0 Safari/537.36","WebKit","Chrome","138.0.0.0","Windows","10.0","https://app.prolific.com/","en-GB,en-US;q=0.9,en;q=0.8","6744814c173b9afac78cf039","686e379bc37a29ffa5cdc956","6877601c2e090ae7fa9b45a7","1","1","6744814c173b9afac78cf039","1","1","2025-07-16T08:38:55.428Z","","","","","","","","","","","","","","win-only","1","g1:NE,g2:SW","0.8","14","0","1030548.7","1717.1","6786.2","64806.2","1","4","8","6","1","1","1","23","22","0.17424242424242425","5069","3000","2295","[""up"",""right""]","{""num_key_presses"":8,""num_perfect"":6,""num_errors"":0,""num_randdir"":2,""num_randdir_good_moves"":0,""num_whilered"":0,""num_whileblue"":0,""num_blue"":6,""num_good_moves"":6}","[300.22232142857143,291.12857142857143,0.9,300.22232142857143,291.12857142857143,107.5,300.22232142857143,291.12857142857143,273.1,300.22232142857143,291.12857142857143,374.7,300.22232142857143,291.12857142857143,479,300.22232142857143,291.12857142857143,579.4,300.22232142857143,291.12857142857143,723.1,300.22232142857143,291.12857142857143,874.1,300.22232142857143,291.12857142857143,1016.9,300.22232142857143,291.12857142857143,1168.9,300.22232142857143,291.12857142857143,1314.5,300.22232142857143,291.12857142857143,1461.6,300.22232142857143,291.12857142857143,1563.9,300.22232142857143,291.12857142857143,1708.6,300.22232142857143,291.12857142857143,1876.1,300.22232142857143,291.12857142857143,2015.7,300.22232142857143,291.12857142857143,2161.4,300.22232142857143,291.12857142857143,2315.9,300.22232142857143,291.12857142857143,2464.8,300.22232142857143,291.12857142857143,2604,300.22232142857143,291.12857142857143,2743.4,300.22232142857143,291.12857142857143,2888.2,300.22232142857143,291.12857142857143,3026.2,300.22232142857143,291.12857142857143,3174,300.22232142857143,291.12857142857143,3312.2,300.22232142857143,291.12857142857143,3452.1,300.22232142857143,291.12857142857143,3589.2,300.22232142857143,291.12857142857143,3730.4,300.22232142857143,291.12857142857143,3872.4,300.22232142857143,291.12857142857143,4013.8,300.22232142857143,291.12857142857143,4152.8,300.22232142857143,291.12857142857143,4298.5,300.22232142857143,291.12857142857143,4440.7,300.22232142857143,291.12857142857143,4578.7,300.22232142857143,291.12857142857143,4719,300.22232142857143,291.12857142857143,4855.6,300.22232142857143,291.12857142857143,4998]","[1562.8,1562.8,1000,0,562.8,""smooth"",""right"",""right"",""good_move"",7664.8,6100.3,2328,4806.2,530.6,""smooth"",""right"",""right"",""good_move"",10748.4,3082.9,2496.4,7665.5,586.5,""smooth"",""up"",""up"",""good_move"",15245.9,4496.4,2166.2,10749.5,2330.2,""oops"",""up"",""left"",""bad_move"",19939.4,4691.4,1785.9,15248,2905.5,""smooth"",""up"",""up"",""good_move"",27275.8,7335.3,2401.2,19940.6,4934,""oops"",""right"",""left"",""bad_move"",52710.7,25434.1,1892.6,50209.6,608.5,""smooth"",""right"",""right"",""good_move"",55587.2,2872.7,2264,52714.5,608.7,""smooth"",""right"",""right"",""good_move""]","",""
"3854","","<div style=""width:500px;"">
  <p>What determined the result of this run?</p>
  </div>","100","html-slider-response","75","1092645","0.0-5.0-1.13","50","1","2025-07-16 08:20:41","1f75c3e559b7213887762d5229550c2b","41.114.229.5","Mozilla/5.0 (Windows NT 10.0; Win64; x64) AppleWebKit/537.36 (KHTML, like Gecko) Chrome/138.0.0.0 Safari/537.36","WebKit","Chrome","138.0.0.0","Windows","10.0","https://app.prolific.com/","en-GB,en-US;q=0.9,en;q=0.8","6744814c173b9afac78cf039","686e379bc37a29ffa5cdc956","6877601c2e090ae7fa9b45a7","1","1","6744814c173b9afac78cf039","1","1","2025-07-16T08:38:59.288Z","","","","","","","","","","","AttribQ","","50","","","","","","","","","","","","","","","","","","","","","","","","","","","","",""
"3784","","<div style=""width:500px;"">
  <p>How much control did you have over the ball?</p>
  </div>","31","html-slider-response","76","1096437","0.0-5.0-2.13","50","1","2025-07-16 08:20:41","1f75c3e559b7213887762d5229550c2b","41.114.229.5","Mozilla/5.0 (Windows NT 10.0; Win64; x64) AppleWebKit/537.36 (KHTML, like Gecko) Chrome/138.0.0.0 Safari/537.36","WebKit","Chrome","138.0.0.0","Windows","10.0","https://app.prolific.com/","en-GB,en-US;q=0.9,en;q=0.8","6744814c173b9afac78cf039","686e379bc37a29ffa5cdc956","6877601c2e090ae7fa9b45a7","1","1","6744814c173b9afac78cf039","1","1","2025-07-16T08:39:03.080Z","","","","","","","","","","","ControlQ","","50","","","","","","","","","","","","","","","","","","","","","","","","","","","","",""
"3179","","<div style=""width:500px;"">
  <p>How would you describe your current emotional state?</p>
  </div>","19","html-slider-response","77","1099625","0.0-5.0-3.13","50","1","2025-07-16 08:20:41","1f75c3e559b7213887762d5229550c2b","41.114.229.5","Mozilla/5.0 (Windows NT 10.0; Win64; x64) AppleWebKit/537.36 (KHTML, like Gecko) Chrome/138.0.0.0 Safari/537.36","WebKit","Chrome","138.0.0.0","Windows","10.0","https://app.prolific.com/","en-GB,en-US;q=0.9,en;q=0.8","6744814c173b9afac78cf039","686e379bc37a29ffa5cdc956","6877601c2e090ae7fa9b45a7","1","1","6744814c173b9afac78cf039","1","1","2025-07-16T08:39:06.268Z","","","","","","","","","","","StressQ","","50","","","","","","","","","","","","","","","","","","","","","","","","","","","","",""
"3620","","<div style=""width:500px;"">
  <p>What best describes how you currently feel?</p>
  </div>","79","html-slider-response","78","1103255","0.0-5.0-4.13","50","1","2025-07-16 08:20:41","1f75c3e559b7213887762d5229550c2b","41.114.229.5","Mozilla/5.0 (Windows NT 10.0; Win64; x64) AppleWebKit/537.36 (KHTML, like Gecko) Chrome/138.0.0.0 Safari/537.36","WebKit","Chrome","138.0.0.0","Windows","10.0","https://app.prolific.com/","en-GB,en-US;q=0.9,en;q=0.8","6744814c173b9afac78cf039","686e379bc37a29ffa5cdc956","6877601c2e090ae7fa9b45a7","1","1","6744814c173b9afac78cf039","1","1","2025-07-16T08:39:09.898Z","","","","","","","","","","","MotivationQ","","50","","","","","","","","","","","","","","","","","","","","","","","","","","","","",""
