"rt","response_timestamp","stimulus","response","trial_type","trial_index","time_elapsed","internal_node_id","run_id","condition","recorded_at","source_code_version","ip","user_agent","device","browser","browser_version","platform","platform_version","referer","accept_language","PROLIFIC_PID","STUDY_ID","SESSION_ID","WEEK","BATCH","prolific_id","week","batch","realtime","success","responses","item_order","radio_event_ids","radio_event_times","key_event_times","mouse_event_times","straightlining","zigzagging","honeypot","eventType","view_history","slider_start","which_type","canvas_config","goals_layout","control_level","trial_number","tutorial_trial_number","trial_start_time","phase1_start_time","phase2_start_time","phase3_start_time","goal_1_value","goal_1_distance","goal_2_value","goal_2_distance","goal_selected","outcome","outcome_total","participant_final_score","participant_initial_score","participant_final_score_prop","goal_choice_rt","allocated_time","allocated_time_remaining","goal_direction","counts","mouse_movements","key_presses","question_order","question_id"
"63045","1753252222697","<p style='font-size:40px;line-height:1.25'><strong>Welcome to the experiment!</strong></p><p style='font-size:1.1em;line-height:1.25'>Thank you for participanting in our experiment again! You will be asked to play the Dysfunctional Ball Game again. We will briefly recap the rules before we start.</p><p style='font-size:1.1em;line-height:1.25'>Press <strong>Next</strong> to continue.</p>","0","custom-html-button-response","0","63047","0.0-0.0","138","1","2025-07-23 06:29:18","1f75c3e559b7213887762d5229550c2b","197.245.162.70","Mozilla/5.0 (Windows NT 10.0; Win64; x64) AppleWebKit/537.36 (KHTML, like Gecko) Chrome/138.0.0.0 Safari/537.36","WebKit","Chrome","138.0.0.0","Windows","10.0","https://app.prolific.com/","en-ZA,en-GB;q=0.9,en-US;q=0.8,en;q=0.7","614e1c414dff2e589169f360","683db9eb0562dbf637994deb","6880813880672b1d487750ca","2","1","614e1c414dff2e589169f360","2","1","2025-07-23T06:30:22.699Z","","","","","","","","","","","","","","","","","","","","","","","","","","","","","","","","","","","","","","","","","",""
"1196","","","","fullscreen","1","65254","0.0-1.0","138","1","2025-07-23 06:29:18","1f75c3e559b7213887762d5229550c2b","197.245.162.70","Mozilla/5.0 (Windows NT 10.0; Win64; x64) AppleWebKit/537.36 (KHTML, like Gecko) Chrome/138.0.0.0 Safari/537.36","WebKit","Chrome","138.0.0.0","Windows","10.0","https://app.prolific.com/","en-ZA,en-GB;q=0.9,en-US;q=0.8,en;q=0.7","614e1c414dff2e589169f360","683db9eb0562dbf637994deb","6880813880672b1d487750ca","2","1","614e1c414dff2e589169f360","2","1","","true","","","","","","","","","","","","","","","","","","","","","","","","","","","","","","","","","","","","","","","","",""
"12284","1753252237190","<p style='font-size:1.1em;line-height:1.25'>In the following, we will ask you a few questions relating to your feelings in the last 24 hours.<br></p><p style='font-size:1.1em;line-height:1.25'>Press the <strong>Next</strong> button to continue.</p>","0","custom-html-button-response","2","77539","0.0-2.0-0.0","138","1","2025-07-23 06:29:18","1f75c3e559b7213887762d5229550c2b","197.245.162.70","Mozilla/5.0 (Windows NT 10.0; Win64; x64) AppleWebKit/537.36 (KHTML, like Gecko) Chrome/138.0.0.0 Safari/537.36","WebKit","Chrome","138.0.0.0","Windows","10.0","https://app.prolific.com/","en-ZA,en-GB;q=0.9,en-US;q=0.8,en;q=0.7","614e1c414dff2e589169f360","683db9eb0562dbf637994deb","6880813880672b1d487750ca","2","1","614e1c414dff2e589169f360","2","1","2025-07-23T06:30:37.190Z","","","","","","","","","","","","","","","","","","","","","","","","","","","","","","","","","","","","","","","","","",""
"72297.8999999999","","","","survey-template","3","149844","0.0-2.0-1.0","138","1","2025-07-23 06:29:18","1f75c3e559b7213887762d5229550c2b","197.245.162.70","Mozilla/5.0 (Windows NT 10.0; Win64; x64) AppleWebKit/537.36 (KHTML, like Gecko) Chrome/138.0.0.0 Safari/537.36","WebKit","Chrome","138.0.0.0","Windows","10.0","https://app.prolific.com/","en-ZA,en-GB;q=0.9,en-US;q=0.8,en;q=0.7","614e1c414dff2e589169f360","683db9eb0562dbf637994deb","6880813880672b1d487750ca","2","1","614e1c414dff2e589169f360","2","1","2025-07-23T06:31:49.495Z","","{""Q01"":""0"",""Q02"":""0"",""Q03"":""0"",""Q04"":""0"",""Q05"":""1"",""Q06"":""1"",""Q07"":""2"",""Q08"":""0"",""Q09"":""0"",""Q10"":""0"",""Q11"":""0"",""Q12"":""2"",""Q13"":""5"",""Q14"":""1"",""Q15"":""2"",""Q16"":""0"",""Q17"":""0"",""Q18"":""1"",""Q19"":""2"",""Q20"":""0"",""Q21"":""0"",""Q22"":""0""}","[0,1,2,3,4,5,6,7,8,9,10,11,12,13,14,15,16,17,18,19,20,21]","[""Q01"",""Q02"",""Q03"",""Q04"",""Q05"",""Q06"",""Q07"",""Q08"",""Q09"",""Q10"",""Q11"",""Q12"",""Q13"",""Q14"",""Q15"",""Q16"",""Q17"",""Q18"",""Q19"",""Q20"",""Q21"",""Q22""]","[11594.899999999907,12626.799999999814,13863.100000000093,22006.600000000093,23524.600000000093,26603.899999999907,36219.39999999991,38659.89999999991,40178,41617.799999999814,43658.10000000009,45514.700000000186,48168.5,50577.299999999814,54169.299999999814,56635.89999999991,58487.89999999991,59803.89999999991,63957.89999999991,68206.8999999999,69442.70000000019,71005.20000000019]","[]","[0.20000000018626451,10330.799999999814,11594.899999999907,12626.799999999814,13863.100000000093,22006.600000000093,23524.600000000093,26603.899999999907,36219.39999999991,38659.89999999991,40178,41617.799999999814,43658.10000000009,45514.700000000186,48168.5,50577.299999999814,54169.299999999814,56635.89999999991,58487.89999999991,59803.89999999991,63957.89999999991,68206.8999999999,69442.70000000019,71005.20000000019,72285.6000000001]","0.5909090909090909","0.23809523809523808","0","drsp","","","","","","","","","","","","","","","","","","","","","","","","","","","","","","",""
"10866.5","","","","survey-template","4","160714","0.0-2.0-2.0","138","1","2025-07-23 06:29:18","1f75c3e559b7213887762d5229550c2b","197.245.162.70","Mozilla/5.0 (Windows NT 10.0; Win64; x64) AppleWebKit/537.36 (KHTML, like Gecko) Chrome/138.0.0.0 Safari/537.36","WebKit","Chrome","138.0.0.0","Windows","10.0","https://app.prolific.com/","en-ZA,en-GB;q=0.9,en-US;q=0.8,en;q=0.7","614e1c414dff2e589169f360","683db9eb0562dbf637994deb","6880813880672b1d487750ca","2","1","614e1c414dff2e589169f360","2","1","2025-07-23T06:32:00.365Z","","{""Q01"":""1"",""Q02"":""2"",""Q03"":""0""}","[0,1,2]","[""Q01"",""Q02"",""Q03""]","[3705.899999999907,7868.600000000093,9957]","[]","[3705.899999999907,7868.600000000093,9957,10864.899999999907]","0.3333333333333333","0","0","stress","","","","","","","","","","","","","","","","","","","","","","","","","","","","","","",""
"31776","","","","instructions","5","192491","0.0-3.0-0.0","138","1","2025-07-23 06:29:18","1f75c3e559b7213887762d5229550c2b","197.245.162.70","Mozilla/5.0 (Windows NT 10.0; Win64; x64) AppleWebKit/537.36 (KHTML, like Gecko) Chrome/138.0.0.0 Safari/537.36","WebKit","Chrome","138.0.0.0","Windows","10.0","https://app.prolific.com/","en-ZA,en-GB;q=0.9,en-US;q=0.8,en;q=0.7","614e1c414dff2e589169f360","683db9eb0562dbf637994deb","6880813880672b1d487750ca","2","1","614e1c414dff2e589169f360","2","1","","","","","","","","","","","","","[{""page_index"":0,""viewing_time"":31776}]","","","","","","","","","","","","","","","","","","","","","","","","","","","","","",""
"4052","","<p>Before you start with this game please answer the following three questions yourself. </p>
  <p>Through this game, we measure several aspects of your cognitive performance, such as reaction times, multi-tasking capabilities </p>
  <p>and the ability to assess the situation you are in.</p>
  <p></p>
  <p><b>How good do you usually are in such tasks?</b></p>","65","html-slider-response","6","196545","0.0-4.0-0.0","138","1","2025-07-23 06:29:18","1f75c3e559b7213887762d5229550c2b","197.245.162.70","Mozilla/5.0 (Windows NT 10.0; Win64; x64) AppleWebKit/537.36 (KHTML, like Gecko) Chrome/138.0.0.0 Safari/537.36","WebKit","Chrome","138.0.0.0","Windows","10.0","https://app.prolific.com/","en-ZA,en-GB;q=0.9,en-US;q=0.8,en;q=0.7","614e1c414dff2e589169f360","683db9eb0562dbf637994deb","6880813880672b1d487750ca","2","1","614e1c414dff2e589169f360","2","1","2025-07-23T06:32:36.196Z","","","","","","","","","","","PreSkillQ","","50","","","","","","","","","","","","","","","","","","","","","","","","","","","","",""
"3955","","<div style=""width:500px;"">
  <p>How well do you think you will perform in this task compared to other participants?</p>
  </div>","64","html-slider-response","7","200501","0.0-4.0-1.0","138","1","2025-07-23 06:29:18","1f75c3e559b7213887762d5229550c2b","197.245.162.70","Mozilla/5.0 (Windows NT 10.0; Win64; x64) AppleWebKit/537.36 (KHTML, like Gecko) Chrome/138.0.0.0 Safari/537.36","WebKit","Chrome","138.0.0.0","Windows","10.0","https://app.prolific.com/","en-ZA,en-GB;q=0.9,en-US;q=0.8,en;q=0.7","614e1c414dff2e589169f360","683db9eb0562dbf637994deb","6880813880672b1d487750ca","2","1","614e1c414dff2e589169f360","2","1","2025-07-23T06:32:40.152Z","","","","","","","","","","","PrePerfQ","","50","","","","","","","","","","","","","","","","","","","","","","","","","","","","",""
"3225","","<div style=""width:500px;"">
  <p>What best describes how you currently feel?</p>
  </div>","54","html-slider-response","8","203728","0.0-4.0-2.0","138","1","2025-07-23 06:29:18","1f75c3e559b7213887762d5229550c2b","197.245.162.70","Mozilla/5.0 (Windows NT 10.0; Win64; x64) AppleWebKit/537.36 (KHTML, like Gecko) Chrome/138.0.0.0 Safari/537.36","WebKit","Chrome","138.0.0.0","Windows","10.0","https://app.prolific.com/","en-ZA,en-GB;q=0.9,en-US;q=0.8,en;q=0.7","614e1c414dff2e589169f360","683db9eb0562dbf637994deb","6880813880672b1d487750ca","2","1","614e1c414dff2e589169f360","2","1","2025-07-23T06:32:43.379Z","","","","","","","","","","","PreMotivationQ","","50","","","","","","","","","","","","","","","","","","","","","","","","","","","","",""
"","","","","ctl-task-cpt","9","271824","0.0-5.0-0.0","138","1","2025-07-23 06:29:18","1f75c3e559b7213887762d5229550c2b","197.245.162.70","Mozilla/5.0 (Windows NT 10.0; Win64; x64) AppleWebKit/537.36 (KHTML, like Gecko) Chrome/138.0.0.0 Safari/537.36","WebKit","Chrome","138.0.0.0","Windows","10.0","https://app.prolific.com/","en-ZA,en-GB;q=0.9,en-US;q=0.8,en;q=0.7","614e1c414dff2e589169f360","683db9eb0562dbf637994deb","6880813880672b1d487750ca","2","1","614e1c414dff2e589169f360","2","1","2025-07-23T06:33:51.475Z","","","","","","","","","","","","","","win-only","0","g1:NW,g2:SE","1","1","0","206059.5","42306.8","47312.4","65075.8","1","4","4","6","2","4","4","4","0","0.030303030303030304","1527.5","3000","1220","[""down"",""right""]","{""num_key_presses"":6,""num_perfect"":6,""num_errors"":0,""num_randdir"":0,""num_randdir_good_moves"":0,""num_whilered"":0,""num_whileblue"":0,""num_blue"":1,""num_good_moves"":6}","[346.14285714285717,354.04910714285717,0.6,346.14285714285717,354.04910714285717,104.3,346.14285714285717,354.04910714285717,204.9,346.14285714285717,354.04910714285717,310.5,346.14285714285717,354.04910714285717,415.1,346.14285714285717,354.04910714285717,518.8,346.14285714285717,354.04910714285717,619.1,747.1428571428571,481.04910714285717,725,891.1428571428571,702.0491071428571,829.2,1146.142857142857,799.0491071428571,929.5,1122.142857142857,713.0491071428571,1034,779.1428571428571,628.0491071428571,1134.3,747.1428571428571,660.0491071428571,1234.3,739.1428571428571,670.0491071428571,1338.8,615.1428571428571,667.0491071428571,1441.2,614.1428571428571,665.0491071428571,1542,614.1428571428571,665.0491071428571,1645.6,622.1428571428571,665.0491071428571,1748.9,625.1428571428571,661.0491071428571,1849.3,623.1428571428571,657.0491071428571,1955.1,622.1428571428571,654.0491071428571,2060.3,622.1428571428571,653.0491071428571,2165.1,634.1428571428571,653.0491071428571,2270.1,750.1428571428571,654.0491071428571,2373.8,790.1428571428571,645.0491071428571,2473.9,790.1428571428571,645.0491071428571,2576.4,790.1428571428571,645.0491071428571,2679.9,790.1428571428571,645.0491071428571,2785.1,790.1428571428571,645.0491071428571,2889,790.1428571428571,645.0491071428571,2990.9,790.1428571428571,645.0491071428571,3094.7,790.1428571428571,645.0491071428571,3198.8,790.1428571428571,645.0491071428571,3299.9,790.1428571428571,645.0491071428571,3400,790.1428571428571,645.0491071428571,3505.9,790.1428571428571,645.0491071428571,3606.2,790.1428571428571,645.0491071428571,3711,790.1428571428571,645.0491071428571,3814.8,790.1428571428571,645.0491071428571,3919.7,790.1428571428571,645.0491071428571,4024.6,790.1428571428571,645.0491071428571,4128.8,790.1428571428571,645.0491071428571,4229.5,790.1428571428571,645.0491071428571,4329.7,790.1428571428571,645.0491071428571,4434.1,790.1428571428571,645.0491071428571,4539.3,790.1428571428571,645.0491071428571,4639.3,790.1428571428571,645.0491071428571,4739.7,790.1428571428571,645.0491071428571,4844.7,790.1428571428571,645.0491071428571,4949.8]","[4305.1,4304.9,1869.3,2010.1,425.7,""smooth"",""right"",""right"",""good_move"",6708,2401.3,2010.1,4306.7,391.2,""smooth"",""right"",""right"",""good_move"",9511.6,2803.4,2400.6,6708.2,402.8,""smooth"",""right"",""right"",""good_move"",12284.4,2772.4,2457.9,9512,314.5,""smooth"",""down"",""down"",""good_move"",14415.9,2131.1,1767.2,12284.9,363.9,""smooth"",""down"",""down"",""good_move"",17660.5,3244.4,2816.5,14416.2,427.8,""smooth"",""down"",""down"",""good_move""]","",""
"4190","","<div style=""width:500px;"">
  <p>What determined the result of this run?</p>
  </div>","66","html-slider-response","10","276017","0.0-5.0-1.0","138","1","2025-07-23 06:29:18","1f75c3e559b7213887762d5229550c2b","197.245.162.70","Mozilla/5.0 (Windows NT 10.0; Win64; x64) AppleWebKit/537.36 (KHTML, like Gecko) Chrome/138.0.0.0 Safari/537.36","WebKit","Chrome","138.0.0.0","Windows","10.0","https://app.prolific.com/","en-ZA,en-GB;q=0.9,en-US;q=0.8,en;q=0.7","614e1c414dff2e589169f360","683db9eb0562dbf637994deb","6880813880672b1d487750ca","2","1","614e1c414dff2e589169f360","2","1","2025-07-23T06:33:55.668Z","","","","","","","","","","","AttribQ","","50","","","","","","","","","","","","","","","","","","","","","","","","","","","","",""
"3317","","<div style=""width:500px;"">
  <p>How much control did you have over the ball?</p>
  </div>","75","html-slider-response","11","279336","0.0-5.0-2.0","138","1","2025-07-23 06:29:18","1f75c3e559b7213887762d5229550c2b","197.245.162.70","Mozilla/5.0 (Windows NT 10.0; Win64; x64) AppleWebKit/537.36 (KHTML, like Gecko) Chrome/138.0.0.0 Safari/537.36","WebKit","Chrome","138.0.0.0","Windows","10.0","https://app.prolific.com/","en-ZA,en-GB;q=0.9,en-US;q=0.8,en;q=0.7","614e1c414dff2e589169f360","683db9eb0562dbf637994deb","6880813880672b1d487750ca","2","1","614e1c414dff2e589169f360","2","1","2025-07-23T06:33:58.988Z","","","","","","","","","","","ControlQ","","50","","","","","","","","","","","","","","","","","","","","","","","","","","","","",""
"12236","","<div style=""width:500px;"">
  <p>How would you describe your current emotional state?</p>
  </div>","29","html-slider-response","12","291574","0.0-5.0-3.0","138","1","2025-07-23 06:29:18","1f75c3e559b7213887762d5229550c2b","197.245.162.70","Mozilla/5.0 (Windows NT 10.0; Win64; x64) AppleWebKit/537.36 (KHTML, like Gecko) Chrome/138.0.0.0 Safari/537.36","WebKit","Chrome","138.0.0.0","Windows","10.0","https://app.prolific.com/","en-ZA,en-GB;q=0.9,en-US;q=0.8,en;q=0.7","614e1c414dff2e589169f360","683db9eb0562dbf637994deb","6880813880672b1d487750ca","2","1","614e1c414dff2e589169f360","2","1","2025-07-23T06:34:11.225Z","","","","","","","","","","","StressQ","","50","","","","","","","","","","","","","","","","","","","","","","","","","","","","",""
"9677","","<div style=""width:500px;"">
  <p>What best describes how you currently feel?</p>
  </div>","68","html-slider-response","13","301253","0.0-5.0-4.0","138","1","2025-07-23 06:29:18","1f75c3e559b7213887762d5229550c2b","197.245.162.70","Mozilla/5.0 (Windows NT 10.0; Win64; x64) AppleWebKit/537.36 (KHTML, like Gecko) Chrome/138.0.0.0 Safari/537.36","WebKit","Chrome","138.0.0.0","Windows","10.0","https://app.prolific.com/","en-ZA,en-GB;q=0.9,en-US;q=0.8,en;q=0.7","614e1c414dff2e589169f360","683db9eb0562dbf637994deb","6880813880672b1d487750ca","2","1","614e1c414dff2e589169f360","2","1","2025-07-23T06:34:20.905Z","","","","","","","","","","","MotivationQ","","50","","","","","","","","","","","","","","","","","","","","","","","","","","","","",""
"","","","","ctl-task-cpt","14","328084","0.0-5.0-0.1","138","1","2025-07-23 06:29:18","1f75c3e559b7213887762d5229550c2b","197.245.162.70","Mozilla/5.0 (Windows NT 10.0; Win64; x64) AppleWebKit/537.36 (KHTML, like Gecko) Chrome/138.0.0.0 Safari/537.36","WebKit","Chrome","138.0.0.0","Windows","10.0","https://app.prolific.com/","en-ZA,en-GB;q=0.9,en-US;q=0.8,en;q=0.7","614e1c414dff2e589169f360","683db9eb0562dbf637994deb","6880813880672b1d487750ca","2","1","614e1c414dff2e589169f360","2","1","2025-07-23T06:34:47.735Z","","","","","","","","","","","","","","win-only","3","g1:SW,g2:NE","0.9","2","0","303585.7","1130","6131.4","23823.8","1","4","8","6","2","8","8","12","4","0.09090909090909091","1200.3","3000","1135","[""up"",""right""]","{""num_key_presses"":6,""num_perfect"":5,""num_errors"":0,""num_randdir"":1,""num_randdir_good_moves"":1,""num_whilered"":0,""num_whileblue"":0,""num_blue"":0,""num_good_moves"":6}","[350.14285714285717,350.04910714285717,0.2,350.14285714285717,350.04910714285717,101.1,351.14285714285717,349.04910714285717,201.4,373.14285714285717,392.04910714285717,306.4,408.14285714285717,436.04910714285717,410.8,408.14285714285717,436.04910714285717,511.4,408.14285714285717,436.04910714285717,617.3,408.14285714285717,436.04910714285717,720.5,623.1428571428571,326.04910714285717,820.6,721.1428571428571,117.04910714285714,922,708.1428571428571,98.04910714285714,1022.2,647.1428571428571,86.04910714285714,1122.5,647.1428571428571,82.04910714285714,1225.9,647.1428571428571,85.04910714285714,1334.9,665.1428571428571,115.04910714285714,1435.5,799.1428571428571,218.04910714285714,1536.1,825.1428571428571,246.04910714285714,1636.8,825.1428571428571,246.04910714285714,1740.6,825.1428571428571,246.04910714285714,1841,825.1428571428571,246.04910714285714,1946.1,825.1428571428571,246.04910714285714,2050.6,825.1428571428571,246.04910714285714,2150.6,825.1428571428571,246.04910714285714,2255.7,825.1428571428571,246.04910714285714,2368.9,825.1428571428571,246.04910714285714,2469.4,825.1428571428571,246.04910714285714,2570.1,825.1428571428571,246.04910714285714,2670.3,825.1428571428571,246.04910714285714,2770.9,825.1428571428571,246.04910714285714,2877.1,825.1428571428571,246.04910714285714,2985.2,825.1428571428571,246.04910714285714,3085.8,825.1428571428571,246.04910714285714,3186.5,825.1428571428571,246.04910714285714,3290.5,825.1428571428571,246.04910714285714,3390.8,825.1428571428571,246.04910714285714,3495.8,825.1428571428571,246.04910714285714,3600.7,825.1428571428571,246.04910714285714,3702.8,825.1428571428571,246.04910714285714,3805.6,825.1428571428571,246.04910714285714,3906.5,825.1428571428571,246.04910714285714,4019.9,825.1428571428571,246.04910714285714,4120.5,825.1428571428571,246.04910714285714,4226.1,825.1428571428571,246.04910714285714,4326.6,825.1428571428571,246.04910714285714,4436.8,825.1428571428571,246.04910714285714,4541.8,825.1428571428571,246.04910714285714,4645.7,825.1428571428571,246.04910714285714,4753.6,825.1428571428571,246.04910714285714,4853.6,825.1428571428571,246.04910714285714,4954]","[1486.2,1486.2,1000,0,486.2,""oops"",""up"",""up"",""good_move"",4803.6,3316.9,2886.5,1486.7,430.4,""smooth"",""right"",""right"",""good_move"",8259.2,3455.3,3108,4804.1,347.2,""smooth"",""up"",""up"",""good_move"",11106.8,2847.2,2516.4,8259.6,330.8,""smooth"",""right"",""right"",""good_move"",14448.7,3341.5,2966.5,11107.2,375,""smooth"",""up"",""up"",""good_move"",17592.8,3143.8,2785.6,14449,358.2,""smooth"",""right"",""right"",""good_move""]","",""
"2541","","<div style=""width:500px;"">
  <p>What determined the result of this run?</p>
  </div>","82","html-slider-response","15","330627","0.0-5.0-1.1","138","1","2025-07-23 06:29:18","1f75c3e559b7213887762d5229550c2b","197.245.162.70","Mozilla/5.0 (Windows NT 10.0; Win64; x64) AppleWebKit/537.36 (KHTML, like Gecko) Chrome/138.0.0.0 Safari/537.36","WebKit","Chrome","138.0.0.0","Windows","10.0","https://app.prolific.com/","en-ZA,en-GB;q=0.9,en-US;q=0.8,en;q=0.7","614e1c414dff2e589169f360","683db9eb0562dbf637994deb","6880813880672b1d487750ca","2","1","614e1c414dff2e589169f360","2","1","2025-07-23T06:34:50.278Z","","","","","","","","","","","AttribQ","","50","","","","","","","","","","","","","","","","","","","","","","","","","","","","",""
"2235","","<div style=""width:500px;"">
  <p>How much control did you have over the ball?</p>
  </div>","77","html-slider-response","16","332863","0.0-5.0-2.1","138","1","2025-07-23 06:29:18","1f75c3e559b7213887762d5229550c2b","197.245.162.70","Mozilla/5.0 (Windows NT 10.0; Win64; x64) AppleWebKit/537.36 (KHTML, like Gecko) Chrome/138.0.0.0 Safari/537.36","WebKit","Chrome","138.0.0.0","Windows","10.0","https://app.prolific.com/","en-ZA,en-GB;q=0.9,en-US;q=0.8,en;q=0.7","614e1c414dff2e589169f360","683db9eb0562dbf637994deb","6880813880672b1d487750ca","2","1","614e1c414dff2e589169f360","2","1","2025-07-23T06:34:52.514Z","","","","","","","","","","","ControlQ","","50","","","","","","","","","","","","","","","","","","","","","","","","","","","","",""
"2935","","<div style=""width:500px;"">
  <p>How would you describe your current emotional state?</p>
  </div>","15","html-slider-response","17","335800","0.0-5.0-3.1","138","1","2025-07-23 06:29:18","1f75c3e559b7213887762d5229550c2b","197.245.162.70","Mozilla/5.0 (Windows NT 10.0; Win64; x64) AppleWebKit/537.36 (KHTML, like Gecko) Chrome/138.0.0.0 Safari/537.36","WebKit","Chrome","138.0.0.0","Windows","10.0","https://app.prolific.com/","en-ZA,en-GB;q=0.9,en-US;q=0.8,en;q=0.7","614e1c414dff2e589169f360","683db9eb0562dbf637994deb","6880813880672b1d487750ca","2","1","614e1c414dff2e589169f360","2","1","2025-07-23T06:34:55.451Z","","","","","","","","","","","StressQ","","50","","","","","","","","","","","","","","","","","","","","","","","","","","","","",""
"2637","","<div style=""width:500px;"">
  <p>What best describes how you currently feel?</p>
  </div>","79","html-slider-response","18","338438","0.0-5.0-4.1","138","1","2025-07-23 06:29:18","1f75c3e559b7213887762d5229550c2b","197.245.162.70","Mozilla/5.0 (Windows NT 10.0; Win64; x64) AppleWebKit/537.36 (KHTML, like Gecko) Chrome/138.0.0.0 Safari/537.36","WebKit","Chrome","138.0.0.0","Windows","10.0","https://app.prolific.com/","en-ZA,en-GB;q=0.9,en-US;q=0.8,en;q=0.7","614e1c414dff2e589169f360","683db9eb0562dbf637994deb","6880813880672b1d487750ca","2","1","614e1c414dff2e589169f360","2","1","2025-07-23T06:34:58.089Z","","","","","","","","","","","MotivationQ","","50","","","","","","","","","","","","","","","","","","","","","","","","","","","","",""
"","","","","ctl-task-cpt","19","364088","0.0-5.0-0.2","138","1","2025-07-23 06:29:18","1f75c3e559b7213887762d5229550c2b","197.245.162.70","Mozilla/5.0 (Windows NT 10.0; Win64; x64) AppleWebKit/537.36 (KHTML, like Gecko) Chrome/138.0.0.0 Safari/537.36","WebKit","Chrome","138.0.0.0","Windows","10.0","https://app.prolific.com/","en-ZA,en-GB;q=0.9,en-US;q=0.8,en;q=0.7","614e1c414dff2e589169f360","683db9eb0562dbf637994deb","6880813880672b1d487750ca","2","1","614e1c414dff2e589169f360","2","1","2025-07-23T06:35:23.739Z","","","","","","","","","","","","","","win-only","0","g1:NW,g2:SE","0.8","3","0","340783.3","1181.8","6186","22629.3","1","4","8","6","2","8","7","19","12","0.14393939393939395","1080","3000","1260","[""down"",""right""]","{""num_key_presses"":6,""num_perfect"":4,""num_errors"":1,""num_randdir"":1,""num_randdir_good_moves"":1,""num_whilered"":0,""num_whileblue"":1,""num_blue"":1,""num_good_moves"":6}","[346.14285714285717,351.04910714285717,0.2,347.14285714285717,350.04910714285717,104.6,347.14285714285717,353.04910714285717,209.1,345.14285714285717,396.04910714285717,310.2,371.14285714285717,509.04910714285717,413.4,371.14285714285717,510.04910714285717,514.2,372.14285714285717,519.0491071428571,614.7,626.1428571428571,758.0491071428571,718.8,612.1428571428571,691.0491071428571,819.5,603.1428571428571,676.0491071428571,924.9,609.1428571428571,667.0491071428571,1029.9,613.1428571428571,660.0491071428571,1131.9,613.1428571428571,660.0491071428571,1234.7,660.1428571428571,730.0491071428571,1339.3,810.1428571428571,800.0491071428571,1441,835.1428571428571,800.0491071428571,1541.3,835.1428571428571,800.0491071428571,1643.8,835.1428571428571,800.0491071428571,1743.8,835.1428571428571,800.0491071428571,1847.1,835.1428571428571,800.0491071428571,1948.7,835.1428571428571,800.0491071428571,2049.3,835.1428571428571,800.0491071428571,2154.6,835.1428571428571,800.0491071428571,2258.7,836.1428571428571,800.0491071428571,2359.9,836.1428571428571,798.0491071428571,2464.3,836.1428571428571,797.0491071428571,2569.5,836.1428571428571,797.0491071428571,2673.5,836.1428571428571,797.0491071428571,2774.7,836.1428571428571,797.0491071428571,2879.8,836.1428571428571,797.0491071428571,2984.2,836.1428571428571,797.0491071428571,3084.2,835.1428571428571,796.0491071428571,3184.4,835.1428571428571,796.0491071428571,3288.8,835.1428571428571,796.0491071428571,3388.9,835.1428571428571,796.0491071428571,3489.1,835.1428571428571,796.0491071428571,3589.7,835.1428571428571,796.0491071428571,3690,835.1428571428571,796.0491071428571,3794.4,835.1428571428571,796.0491071428571,3896.9,835.1428571428571,796.0491071428571,3999.9,835.1428571428571,796.0491071428571,4103.7,835.1428571428571,796.0491071428571,4204.2,835.1428571428571,796.0491071428571,4304.5,835.1428571428571,796.0491071428571,4404.5,836.1428571428571,793.0491071428571,4504.8,836.1428571428571,792.0491071428571,4608.9,836.1428571428571,792.0491071428571,4709.1,836.1428571428571,792.0491071428571,4809.1,836.1428571428571,792.0491071428571,4914.1]","[1404,1404,1000,0,404,""smooth"",""right"",""right"",""good_move"",4370.7,2966,2440.9,1404.7,525.1,""smooth"",""right"",""right"",""good_move"",7856,3485.1,3125.8,4370.9,359.4,""smooth"",""down"",""down"",""good_move"",10463.3,2606.9,2288.8,7856.4,318.1,""while_blue"",""right"",""right"",""good_move"",13423.2,2959.5,2597,10463.7,362.5,""smooth"",""down"",""down"",""good_move"",16304.8,2881.4,2465.9,13423.4,415.5,""oops"",""down"",""down"",""good_move""]","",""
"60073","","<div style=""width:500px;"">
  <p>What determined the result of this run?</p>
  </div>","70","html-slider-response","20","424146","0.0-5.0-1.2","138","1","2025-07-23 06:29:18","1f75c3e559b7213887762d5229550c2b","197.245.162.70","Mozilla/5.0 (Windows NT 10.0; Win64; x64) AppleWebKit/537.36 (KHTML, like Gecko) Chrome/138.0.0.0 Safari/537.36","WebKit","Chrome","138.0.0.0","Windows","10.0","https://app.prolific.com/","en-ZA,en-GB;q=0.9,en-US;q=0.8,en;q=0.7","614e1c414dff2e589169f360","683db9eb0562dbf637994deb","6880813880672b1d487750ca","2","1","614e1c414dff2e589169f360","2","1","2025-07-23T06:36:23.797Z","","","","","","","","","","","AttribQ","","50","","","","","","","","","","","","","","","","","","","","","","","","","","","","",""
"13872","","<div style=""width:500px;"">
  <p>How much control did you have over the ball?</p>
  </div>","62","html-slider-response","21","438020","0.0-5.0-2.2","138","1","2025-07-23 06:29:18","1f75c3e559b7213887762d5229550c2b","197.245.162.70","Mozilla/5.0 (Windows NT 10.0; Win64; x64) AppleWebKit/537.36 (KHTML, like Gecko) Chrome/138.0.0.0 Safari/537.36","WebKit","Chrome","138.0.0.0","Windows","10.0","https://app.prolific.com/","en-ZA,en-GB;q=0.9,en-US;q=0.8,en;q=0.7","614e1c414dff2e589169f360","683db9eb0562dbf637994deb","6880813880672b1d487750ca","2","1","614e1c414dff2e589169f360","2","1","2025-07-23T06:36:37.671Z","","","","","","","","","","","ControlQ","","50","","","","","","","","","","","","","","","","","","","","","","","","","","","","",""
"28390","","<div style=""width:500px;"">
  <p>How would you describe your current emotional state?</p>
  </div>","31","html-slider-response","22","466396","0.0-5.0-3.2","138","1","2025-07-23 06:29:18","1f75c3e559b7213887762d5229550c2b","197.245.162.70","Mozilla/5.0 (Windows NT 10.0; Win64; x64) AppleWebKit/537.36 (KHTML, like Gecko) Chrome/138.0.0.0 Safari/537.36","WebKit","Chrome","138.0.0.0","Windows","10.0","https://app.prolific.com/","en-ZA,en-GB;q=0.9,en-US;q=0.8,en;q=0.7","614e1c414dff2e589169f360","683db9eb0562dbf637994deb","6880813880672b1d487750ca","2","1","614e1c414dff2e589169f360","2","1","2025-07-23T06:37:06.047Z","","","","","","","","","","","StressQ","","50","","","","","","","","","","","","","","","","","","","","","","","","","","","","",""
"3013","","<div style=""width:500px;"">
  <p>What best describes how you currently feel?</p>
  </div>","65","html-slider-response","23","469410","0.0-5.0-4.2","138","1","2025-07-23 06:29:18","1f75c3e559b7213887762d5229550c2b","197.245.162.70","Mozilla/5.0 (Windows NT 10.0; Win64; x64) AppleWebKit/537.36 (KHTML, like Gecko) Chrome/138.0.0.0 Safari/537.36","WebKit","Chrome","138.0.0.0","Windows","10.0","https://app.prolific.com/","en-ZA,en-GB;q=0.9,en-US;q=0.8,en;q=0.7","614e1c414dff2e589169f360","683db9eb0562dbf637994deb","6880813880672b1d487750ca","2","1","614e1c414dff2e589169f360","2","1","2025-07-23T06:37:09.061Z","","","","","","","","","","","MotivationQ","","50","","","","","","","","","","","","","","","","","","","","","","","","","","","","",""
"","","","","ctl-task-cpt","24","499221","0.0-5.0-0.3","138","1","2025-07-23 06:29:18","1f75c3e559b7213887762d5229550c2b","197.245.162.70","Mozilla/5.0 (Windows NT 10.0; Win64; x64) AppleWebKit/537.36 (KHTML, like Gecko) Chrome/138.0.0.0 Safari/537.36","WebKit","Chrome","138.0.0.0","Windows","10.0","https://app.prolific.com/","en-ZA,en-GB;q=0.9,en-US;q=0.8,en;q=0.7","614e1c414dff2e589169f360","683db9eb0562dbf637994deb","6880813880672b1d487750ca","2","1","614e1c414dff2e589169f360","2","1","2025-07-23T06:37:38.873Z","","","","","","","","","","","","","","win-only","0","g1:NW,g2:SE","0.7","4","0","471788","895.4","5897.1","26789.1","1","4","4","6","2","4","4","23","19","0.17424242424242425","1148.9","3000","715","[""down"",""right""]","{""num_key_presses"":6,""num_perfect"":4,""num_errors"":0,""num_randdir"":2,""num_randdir_good_moves"":2,""num_whilered"":0,""num_whileblue"":0,""num_blue"":1,""num_good_moves"":6}","[354.14285714285717,344.04910714285717,0.2,354.14285714285717,344.04910714285717,102.3,354.14285714285717,344.04910714285717,205,351.14285714285717,346.04910714285717,305.9,349.14285714285717,350.04910714285717,414.4,349.14285714285717,350.04910714285717,514.4,349.14285714285717,350.04910714285717,617.3,768.1428571428571,728.0491071428571,720.7,824.1428571428571,749.0491071428571,821,681.1428571428571,616.0491071428571,931,649.1428571428571,622.0491071428571,1031.8,644.1428571428571,630.0491071428571,1136,644.1428571428571,630.0491071428571,1244.3,644.1428571428571,630.0491071428571,1348.6,643.1428571428571,638.0491071428571,1449.1,597.1428571428571,719.0491071428571,1553.9,577.1428571428571,782.0491071428571,1657.2,577.1428571428571,782.0491071428571,1764.5,577.1428571428571,782.0491071428571,1865.2,577.1428571428571,782.0491071428571,1965.4,577.1428571428571,782.0491071428571,2070.3,577.1428571428571,782.0491071428571,2171.4,577.1428571428571,782.0491071428571,2272.7,577.1428571428571,782.0491071428571,2381.4,577.1428571428571,782.0491071428571,2485.6,577.1428571428571,782.0491071428571,2585.7,577.1428571428571,782.0491071428571,2685.7,575.1428571428571,775.0491071428571,2798.8,573.1428571428571,764.0491071428571,2898.8,573.1428571428571,757.0491071428571,2999.6,573.1428571428571,757.0491071428571,3101.1,573.1428571428571,757.0491071428571,3205.7,573.1428571428571,757.0491071428571,3315.4,573.1428571428571,757.0491071428571,3420.7,573.1428571428571,757.0491071428571,3521.1,573.1428571428571,757.0491071428571,3625.1,573.1428571428571,757.0491071428571,3725.3,573.1428571428571,757.0491071428571,3831.2,573.1428571428571,757.0491071428571,3935.2,573.1428571428571,757.0491071428571,4048.7,573.1428571428571,757.0491071428571,4149.2,573.1428571428571,757.0491071428571,4250.1,573.1428571428571,757.0491071428571,4351.2,573.1428571428571,757.0491071428571,4455.1,573.1428571428571,757.0491071428571,4555.8,573.1428571428571,757.0491071428571,4665.8,573.1428571428571,757.0491071428571,4767.3,573.1428571428571,757.0491071428571,4870.2,573.1428571428571,757.0491071428571,4970.4]","[5561,5561,2970.4,2004,586.6,""smooth"",""right"",""right"",""good_move"",8553.3,2991.9,2216.1,5561.4,775.8,""smooth"",""down"",""down"",""good_move"",12352.5,3798.8,3443.5,8553.7,355.3,""smooth"",""right"",""right"",""good_move"",15136.7,2783.8,2439.1,12352.9,344.7,""oops"",""down"",""down"",""good_move"",17890.4,2753.4,2360.8,15137,392.6,""oops"",""right"",""right"",""good_move"",20756.6,2865.9,2552.5,17890.7,313.4,""smooth"",""down"",""down"",""good_move""]","",""
"4974","","<div style=""width:500px;"">
  <p>What determined the result of this run?</p>
  </div>","79","html-slider-response","25","504196","0.0-5.0-1.3","138","1","2025-07-23 06:29:18","1f75c3e559b7213887762d5229550c2b","197.245.162.70","Mozilla/5.0 (Windows NT 10.0; Win64; x64) AppleWebKit/537.36 (KHTML, like Gecko) Chrome/138.0.0.0 Safari/537.36","WebKit","Chrome","138.0.0.0","Windows","10.0","https://app.prolific.com/","en-ZA,en-GB;q=0.9,en-US;q=0.8,en;q=0.7","614e1c414dff2e589169f360","683db9eb0562dbf637994deb","6880813880672b1d487750ca","2","1","614e1c414dff2e589169f360","2","1","2025-07-23T06:37:43.847Z","","","","","","","","","","","AttribQ","","50","","","","","","","","","","","","","","","","","","","","","","","","","","","","",""
"1837","","<div style=""width:500px;"">
  <p>How much control did you have over the ball?</p>
  </div>","75","html-slider-response","26","506034","0.0-5.0-2.3","138","1","2025-07-23 06:29:18","1f75c3e559b7213887762d5229550c2b","197.245.162.70","Mozilla/5.0 (Windows NT 10.0; Win64; x64) AppleWebKit/537.36 (KHTML, like Gecko) Chrome/138.0.0.0 Safari/537.36","WebKit","Chrome","138.0.0.0","Windows","10.0","https://app.prolific.com/","en-ZA,en-GB;q=0.9,en-US;q=0.8,en;q=0.7","614e1c414dff2e589169f360","683db9eb0562dbf637994deb","6880813880672b1d487750ca","2","1","614e1c414dff2e589169f360","2","1","2025-07-23T06:37:45.685Z","","","","","","","","","","","ControlQ","","50","","","","","","","","","","","","","","","","","","","","","","","","","","","","",""
"2376","","<div style=""width:500px;"">
  <p>How would you describe your current emotional state?</p>
  </div>","30","html-slider-response","27","508412","0.0-5.0-3.3","138","1","2025-07-23 06:29:18","1f75c3e559b7213887762d5229550c2b","197.245.162.70","Mozilla/5.0 (Windows NT 10.0; Win64; x64) AppleWebKit/537.36 (KHTML, like Gecko) Chrome/138.0.0.0 Safari/537.36","WebKit","Chrome","138.0.0.0","Windows","10.0","https://app.prolific.com/","en-ZA,en-GB;q=0.9,en-US;q=0.8,en;q=0.7","614e1c414dff2e589169f360","683db9eb0562dbf637994deb","6880813880672b1d487750ca","2","1","614e1c414dff2e589169f360","2","1","2025-07-23T06:37:48.063Z","","","","","","","","","","","StressQ","","50","","","","","","","","","","","","","","","","","","","","","","","","","","","","",""
"3019","","<div style=""width:500px;"">
  <p>What best describes how you currently feel?</p>
  </div>","80","html-slider-response","28","511432","0.0-5.0-4.3","138","1","2025-07-23 06:29:18","1f75c3e559b7213887762d5229550c2b","197.245.162.70","Mozilla/5.0 (Windows NT 10.0; Win64; x64) AppleWebKit/537.36 (KHTML, like Gecko) Chrome/138.0.0.0 Safari/537.36","WebKit","Chrome","138.0.0.0","Windows","10.0","https://app.prolific.com/","en-ZA,en-GB;q=0.9,en-US;q=0.8,en;q=0.7","614e1c414dff2e589169f360","683db9eb0562dbf637994deb","6880813880672b1d487750ca","2","1","614e1c414dff2e589169f360","2","1","2025-07-23T06:37:51.084Z","","","","","","","","","","","MotivationQ","","50","","","","","","","","","","","","","","","","","","","","","","","","","","","","",""
"","","","","ctl-task-cpt","29","552483","0.0-5.0-0.4","138","1","2025-07-23 06:29:18","1f75c3e559b7213887762d5229550c2b","197.245.162.70","Mozilla/5.0 (Windows NT 10.0; Win64; x64) AppleWebKit/537.36 (KHTML, like Gecko) Chrome/138.0.0.0 Safari/537.36","WebKit","Chrome","138.0.0.0","Windows","10.0","https://app.prolific.com/","en-ZA,en-GB;q=0.9,en-US;q=0.8,en;q=0.7","614e1c414dff2e589169f360","683db9eb0562dbf637994deb","6880813880672b1d487750ca","2","1","614e1c414dff2e589169f360","2","1","2025-07-23T06:38:32.134Z","","","","","","","","","","","","","","win-only","2","g1:SE,g2:NW","0.6","5","0","513812.1","1153.9","6159.1","38043.1","1","4","8","6","2","-8","-8","15","23","0.11363636363636363","1178.1","3000","-2785","[""left"",""up""]","{""num_key_presses"":9,""num_perfect"":6,""num_errors"":0,""num_randdir"":3,""num_randdir_good_moves"":1,""num_whilered"":0,""num_whileblue"":0,""num_blue"":1,""num_good_moves"":7}","[349.14285714285717,352.04910714285717,0.2,349.14285714285717,352.04910714285717,102.2,349.14285714285717,352.04910714285717,207.1,349.14285714285717,352.04910714285717,312.2,350.14285714285717,354.04910714285717,416.6,406.14285714285717,407.04910714285717,516.7,406.14285714285717,435.04910714285717,617.5,374.14285714285717,431.04910714285717,721.5,15.142857142857146,48.049107142857146,821.7,12.142857142857146,-4.950892857142854,923.1,18.142857142857146,2.049107142857146,1024.8,68.14285714285714,51.049107142857146,1127.8,68.14285714285714,51.049107142857146,1231.7,68.14285714285714,51.049107142857146,1332.4,77.14285714285714,62.049107142857146,1438.2,449.14285714285717,338.04910714285717,1541.4,611.1428571428571,548.0491071428571,1645.3,616.1428571428571,554.0491071428571,1746.8,616.1428571428571,554.0491071428571,1847.4,616.1428571428571,554.0491071428571,1952.2,616.1428571428571,554.0491071428571,2052.3,616.1428571428571,555.0491071428571,2157.8,616.1428571428571,555.0491071428571,2261.7,616.1428571428571,555.0491071428571,2362.2,616.1428571428571,555.0491071428571,2466.9,616.1428571428571,555.0491071428571,2571.5,616.1428571428571,555.0491071428571,2676.4,616.1428571428571,555.0491071428571,2777.1,616.1428571428571,555.0491071428571,2877.6,616.1428571428571,555.0491071428571,2982,616.1428571428571,555.0491071428571,3082.4,616.1428571428571,555.0491071428571,3189.4,616.1428571428571,555.0491071428571,3292.3,616.1428571428571,555.0491071428571,3392.4,616.1428571428571,555.0491071428571,3496.8,616.1428571428571,555.0491071428571,3602,616.1428571428571,555.0491071428571,3703.8,616.1428571428571,555.0491071428571,3806.4,616.1428571428571,555.0491071428571,3906.8,616.1428571428571,555.0491071428571,4007.3,616.1428571428571,555.0491071428571,4112.2,616.1428571428571,555.0491071428571,4212.2,616.1428571428571,555.0491071428571,4312.4,616.1428571428571,555.0491071428571,4412.8,616.1428571428571,555.0491071428571,4517.2,616.1428571428571,555.0491071428571,4620.7,616.1428571428571,555.0491071428571,4725.2,616.1428571428571,555.0491071428571,4827.4,616.1428571428571,555.0491071428571,4932.7]","[1433.5,1433.5,1000,0,433.5,""smooth"",""left"",""left"",""good_move"",8771.5,7337,2884.4,5522.8,364.3,""smooth"",""up"",""up"",""good_move"",11970.3,3198.4,2773.4,8771.9,425,""oops"",""left"",""down"",""bad_move"",14621.5,2650.4,2225.8,11971.1,424.6,""smooth"",""left"",""left"",""good_move"",17973.4,3351.5,2819.5,14621.9,532,""smooth"",""left"",""left"",""good_move"",21344.5,3370.8,2982,17973.7,388.8,""smooth"",""up"",""up"",""good_move"",23409,2064.3,1716,21344.7,348.3,""oops"",""up"",""right"",""bad_move"",27127.5,3718.1,3418.6,23409.4,299.5,""smooth"",""up"",""up"",""good_move"",29663.3,2535.5,2178.9,27127.8,356.6,""oops"",""up"",""left"",""good_move""]","",""
"8367","","<div style=""width:500px;"">
  <p>What determined the result of this run?</p>
  </div>","9","html-slider-response","30","560851","0.0-5.0-1.4","138","1","2025-07-23 06:29:18","1f75c3e559b7213887762d5229550c2b","197.245.162.70","Mozilla/5.0 (Windows NT 10.0; Win64; x64) AppleWebKit/537.36 (KHTML, like Gecko) Chrome/138.0.0.0 Safari/537.36","WebKit","Chrome","138.0.0.0","Windows","10.0","https://app.prolific.com/","en-ZA,en-GB;q=0.9,en-US;q=0.8,en;q=0.7","614e1c414dff2e589169f360","683db9eb0562dbf637994deb","6880813880672b1d487750ca","2","1","614e1c414dff2e589169f360","2","1","2025-07-23T06:38:40.502Z","","","","","","","","","","","AttribQ","","50","","","","","","","","","","","","","","","","","","","","","","","","","","","","",""
"2551","","<div style=""width:500px;"">
  <p>How much control did you have over the ball?</p>
  </div>","13","html-slider-response","31","563403","0.0-5.0-2.4","138","1","2025-07-23 06:29:18","1f75c3e559b7213887762d5229550c2b","197.245.162.70","Mozilla/5.0 (Windows NT 10.0; Win64; x64) AppleWebKit/537.36 (KHTML, like Gecko) Chrome/138.0.0.0 Safari/537.36","WebKit","Chrome","138.0.0.0","Windows","10.0","https://app.prolific.com/","en-ZA,en-GB;q=0.9,en-US;q=0.8,en;q=0.7","614e1c414dff2e589169f360","683db9eb0562dbf637994deb","6880813880672b1d487750ca","2","1","614e1c414dff2e589169f360","2","1","2025-07-23T06:38:43.054Z","","","","","","","","","","","ControlQ","","50","","","","","","","","","","","","","","","","","","","","","","","","","","","","",""
"2728","","<div style=""width:500px;"">
  <p>How would you describe your current emotional state?</p>
  </div>","50","html-slider-response","32","566132","0.0-5.0-3.4","138","1","2025-07-23 06:29:18","1f75c3e559b7213887762d5229550c2b","197.245.162.70","Mozilla/5.0 (Windows NT 10.0; Win64; x64) AppleWebKit/537.36 (KHTML, like Gecko) Chrome/138.0.0.0 Safari/537.36","WebKit","Chrome","138.0.0.0","Windows","10.0","https://app.prolific.com/","en-ZA,en-GB;q=0.9,en-US;q=0.8,en;q=0.7","614e1c414dff2e589169f360","683db9eb0562dbf637994deb","6880813880672b1d487750ca","2","1","614e1c414dff2e589169f360","2","1","2025-07-23T06:38:45.783Z","","","","","","","","","","","StressQ","","50","","","","","","","","","","","","","","","","","","","","","","","","","","","","",""
"2320","","<div style=""width:500px;"">
  <p>What best describes how you currently feel?</p>
  </div>","80","html-slider-response","33","568454","0.0-5.0-4.4","138","1","2025-07-23 06:29:18","1f75c3e559b7213887762d5229550c2b","197.245.162.70","Mozilla/5.0 (Windows NT 10.0; Win64; x64) AppleWebKit/537.36 (KHTML, like Gecko) Chrome/138.0.0.0 Safari/537.36","WebKit","Chrome","138.0.0.0","Windows","10.0","https://app.prolific.com/","en-ZA,en-GB;q=0.9,en-US;q=0.8,en;q=0.7","614e1c414dff2e589169f360","683db9eb0562dbf637994deb","6880813880672b1d487750ca","2","1","614e1c414dff2e589169f360","2","1","2025-07-23T06:38:48.105Z","","","","","","","","","","","MotivationQ","","50","","","","","","","","","","","","","","","","","","","","","","","","","","","","",""
"","","","","ctl-task-cpt","34","612349","0.0-5.0-0.5","138","1","2025-07-23 06:29:18","1f75c3e559b7213887762d5229550c2b","197.245.162.70","Mozilla/5.0 (Windows NT 10.0; Win64; x64) AppleWebKit/537.36 (KHTML, like Gecko) Chrome/138.0.0.0 Safari/537.36","WebKit","Chrome","138.0.0.0","Windows","10.0","https://app.prolific.com/","en-ZA,en-GB;q=0.9,en-US;q=0.8,en;q=0.7","614e1c414dff2e589169f360","683db9eb0562dbf637994deb","6880813880672b1d487750ca","2","1","614e1c414dff2e589169f360","2","1","2025-07-23T06:39:32.000Z","","","","","","","","","","","","","","win-only","0","g1:NW,g2:SE","0.5","6","0","570844.2","8229.3","13230.4","40885.5","1","4","4","6","2","4","4","19","15","0.14393939393939395","1243.9","3000","855","[""down"",""right""]","{""num_key_presses"":8,""num_perfect"":5,""num_errors"":0,""num_randdir"":3,""num_randdir_good_moves"":2,""num_whilered"":0,""num_whileblue"":0,""num_blue"":1,""num_good_moves"":7}","[345.14285714285717,345.04910714285717,0.2,345.14285714285717,345.04910714285717,102.3,344.14285714285717,344.04910714285717,211.4,337.14285714285717,349.04910714285717,317.6,337.14285714285717,349.04910714285717,417.6,336.14285714285717,349.04910714285717,521.2,336.14285714285717,349.04910714285717,621.3,336.14285714285717,349.04910714285717,722.4,328.14285714285717,357.04910714285717,822.7,473.14285714285717,616.0491071428571,923.5,576.1428571428571,649.0491071428571,1026.1,575.1428571428571,644.0491071428571,1126.9,600.1428571428571,643.0491071428571,1245.9,600.1428571428571,643.0491071428571,1347.8,604.1428571428571,638.0491071428571,1452,604.1428571428571,638.0491071428571,1556.1,602.1428571428571,640.0491071428571,1656.9,600.1428571428571,642.0491071428571,1761.6,595.1428571428571,648.0491071428571,1861.6,521.1428571428571,800.0491071428571,1978.9,517.1428571428571,800.0491071428571,2079,521.1428571428571,791.0491071428571,2179.4,528.1428571428571,766.0491071428571,2281.2,530.1428571428571,763.0491071428571,2381.3,533.1428571428571,763.0491071428571,2487.1,534.1428571428571,765.0491071428571,2587.1,534.1428571428571,765.0491071428571,2692.1,535.1428571428571,766.0491071428571,2811.6,536.1428571428571,767.0491071428571,2916.6,536.1428571428571,767.0491071428571,3028,537.1428571428571,770.0491071428571,3131.7,663.1428571428571,800.0491071428571,3233.5,723.1428571428571,798.0491071428571,3334.5,723.1428571428571,794.0491071428571,3436.1,715.1428571428571,789.0491071428571,3542.1,706.1428571428571,785.0491071428571,3643.1,706.1428571428571,785.0491071428571,3744.1,706.1428571428571,785.0491071428571,3846.3,706.1428571428571,785.0491071428571,3949.3,706.1428571428571,785.0491071428571,4050.4,706.1428571428571,785.0491071428571,4151.7,706.1428571428571,785.0491071428571,4252.1,706.1428571428571,785.0491071428571,4356.1,706.1428571428571,785.0491071428571,4457.1,706.1428571428571,785.0491071428571,4564.4,706.1428571428571,785.0491071428571,4664.6,706.1428571428571,785.0491071428571,4764.8,706.1428571428571,785.0491071428571,4869.5,706.1428571428571,785.0491071428571,4971.2]","[1454.4,1454.4,1000,0,454.4,""oops"",""right"",""down"",""good_move"",4866.1,3411.3,3092.9,1454.8,318.4,""smooth"",""right"",""right"",""good_move"",8696.4,3829.9,3490.6,4866.5,339.3,""smooth"",""down"",""down"",""good_move"",12419.6,3722.9,3391.2,8696.7,331.7,""oops"",""right"",""left"",""bad_move"",15019.9,2600,2284.1,12419.9,315.9,""smooth"",""down"",""down"",""good_move"",18508.5,3488.3,3163.3,15020.3,324.9,""oops"",""right"",""right"",""good_move"",24560.5,6051.4,2049.4,22154.8,356.3,""smooth"",""right"",""right"",""good_move"",27540.9,2980.3,2648.5,24560.6,331.8,""smooth"",""right"",""right"",""good_move""]","",""
"26208","","<div style=""width:500px;"">
  <p>What determined the result of this run?</p>
  </div>","15","html-slider-response","35","638558","0.0-5.0-1.5","138","1","2025-07-23 06:29:18","1f75c3e559b7213887762d5229550c2b","197.245.162.70","Mozilla/5.0 (Windows NT 10.0; Win64; x64) AppleWebKit/537.36 (KHTML, like Gecko) Chrome/138.0.0.0 Safari/537.36","WebKit","Chrome","138.0.0.0","Windows","10.0","https://app.prolific.com/","en-ZA,en-GB;q=0.9,en-US;q=0.8,en;q=0.7","614e1c414dff2e589169f360","683db9eb0562dbf637994deb","6880813880672b1d487750ca","2","1","614e1c414dff2e589169f360","2","1","2025-07-23T06:39:58.210Z","","","","","","","","","","","AttribQ","","50","","","","","","","","","","","","","","","","","","","","","","","","","","","","",""
"2418","","<div style=""width:500px;"">
  <p>How much control did you have over the ball?</p>
  </div>","20","html-slider-response","36","640980","0.0-5.0-2.5","138","1","2025-07-23 06:29:18","1f75c3e559b7213887762d5229550c2b","197.245.162.70","Mozilla/5.0 (Windows NT 10.0; Win64; x64) AppleWebKit/537.36 (KHTML, like Gecko) Chrome/138.0.0.0 Safari/537.36","WebKit","Chrome","138.0.0.0","Windows","10.0","https://app.prolific.com/","en-ZA,en-GB;q=0.9,en-US;q=0.8,en;q=0.7","614e1c414dff2e589169f360","683db9eb0562dbf637994deb","6880813880672b1d487750ca","2","1","614e1c414dff2e589169f360","2","1","2025-07-23T06:40:00.632Z","","","","","","","","","","","ControlQ","","50","","","","","","","","","","","","","","","","","","","","","","","","","","","","",""
"2770","","<div style=""width:500px;"">
  <p>How would you describe your current emotional state?</p>
  </div>","18","html-slider-response","37","643747","0.0-5.0-3.5","138","1","2025-07-23 06:29:18","1f75c3e559b7213887762d5229550c2b","197.245.162.70","Mozilla/5.0 (Windows NT 10.0; Win64; x64) AppleWebKit/537.36 (KHTML, like Gecko) Chrome/138.0.0.0 Safari/537.36","WebKit","Chrome","138.0.0.0","Windows","10.0","https://app.prolific.com/","en-ZA,en-GB;q=0.9,en-US;q=0.8,en;q=0.7","614e1c414dff2e589169f360","683db9eb0562dbf637994deb","6880813880672b1d487750ca","2","1","614e1c414dff2e589169f360","2","1","2025-07-23T06:40:03.398Z","","","","","","","","","","","StressQ","","50","","","","","","","","","","","","","","","","","","","","","","","","","","","","",""
"2632","","<div style=""width:500px;"">
  <p>What best describes how you currently feel?</p>
  </div>","73","html-slider-response","38","646380","0.0-5.0-4.5","138","1","2025-07-23 06:29:18","1f75c3e559b7213887762d5229550c2b","197.245.162.70","Mozilla/5.0 (Windows NT 10.0; Win64; x64) AppleWebKit/537.36 (KHTML, like Gecko) Chrome/138.0.0.0 Safari/537.36","WebKit","Chrome","138.0.0.0","Windows","10.0","https://app.prolific.com/","en-ZA,en-GB;q=0.9,en-US;q=0.8,en;q=0.7","614e1c414dff2e589169f360","683db9eb0562dbf637994deb","6880813880672b1d487750ca","2","1","614e1c414dff2e589169f360","2","1","2025-07-23T06:40:06.031Z","","","","","","","","","","","MotivationQ","","50","","","","","","","","","","","","","","","","","","","","","","","","","","","","",""
"","","","","ctl-task-cpt","39","709871","0.0-5.0-0.6","138","1","2025-07-23 06:29:18","1f75c3e559b7213887762d5229550c2b","197.245.162.70","Mozilla/5.0 (Windows NT 10.0; Win64; x64) AppleWebKit/537.36 (KHTML, like Gecko) Chrome/138.0.0.0 Safari/537.36","WebKit","Chrome","138.0.0.0","Windows","10.0","https://app.prolific.com/","en-ZA,en-GB;q=0.9,en-US;q=0.8,en;q=0.7","614e1c414dff2e589169f360","683db9eb0562dbf637994deb","6880813880672b1d487750ca","2","1","614e1c414dff2e589169f360","2","1","2025-07-23T06:41:09.522Z","","","","","","","","","","","","","","win-only","3","g1:SW,g2:NE","0.4","7","0","648784.3","20488.2","25496.2","60465.3","1","4","8","6","2","-8","-8","11","19","0.08333333333333333","1442.8","3000","-2365","[""up"",""right""]","{""num_key_presses"":9,""num_perfect"":3,""num_errors"":0,""num_randdir"":6,""num_randdir_good_moves"":2,""num_whilered"":0,""num_whileblue"":0,""num_blue"":2,""num_good_moves"":5}","[346.14285714285717,353.04910714285717,0.9,346.14285714285717,355.04910714285717,105.1,350.14285714285717,383.04910714285717,210,260.14285714285717,564.0491071428571,314.6,237.14285714285714,720.0491071428571,417.8,253.14285714285714,731.0491071428571,519.2,253.14285714285714,731.0491071428571,622,253.14285714285714,731.0491071428571,723.6,254.14285714285714,731.0491071428571,828.5,418.14285714285717,545.0491071428571,934.5,670.1428571428571,305.04910714285717,1042.2,673.1428571428571,278.04910714285717,1147.3,634.1428571428571,211.04910714285714,1247.3,612.1428571428571,94.04910714285714,1349,612.1428571428571,78.04910714285714,1452.8,612.1428571428571,78.04910714285714,1570.1,632.1428571428571,125.04910714285714,1673.2,745.1428571428571,403.04910714285717,1773.5,747.1428571428571,659.0491071428571,1877.7,737.1428571428571,716.0491071428571,1982.7,736.1428571428571,718.0491071428571,2090.2,736.1428571428571,718.0491071428571,2192.8,736.1428571428571,718.0491071428571,2297.2,736.1428571428571,718.0491071428571,2397.5,725.1428571428571,718.0491071428571,2497.6,718.1428571428571,718.0491071428571,2602.3,713.1428571428571,718.0491071428571,2702.9,708.1428571428571,715.0491071428571,2808.2,705.1428571428571,710.0491071428571,2913,705.1428571428571,710.0491071428571,3020.3,705.1428571428571,710.0491071428571,3127.6,705.1428571428571,710.0491071428571,3227.8,705.1428571428571,710.0491071428571,3328.3,705.1428571428571,710.0491071428571,3434.7,705.1428571428571,710.0491071428571,3541.1,705.1428571428571,710.0491071428571,3643.6,705.1428571428571,710.0491071428571,3748.1,705.1428571428571,710.0491071428571,3857.4,705.1428571428571,710.0491071428571,3963.6,705.1428571428571,710.0491071428571,4063.7,705.1428571428571,710.0491071428571,4172.9,705.1428571428571,710.0491071428571,4278.3,705.1428571428571,710.0491071428571,4389.2,705.1428571428571,710.0491071428571,4489.2,705.1428571428571,710.0491071428571,4593,705.1428571428571,710.0491071428571,4693,705.1428571428571,710.0491071428571,4793.3,705.1428571428571,710.0491071428571,4897,705.1428571428571,710.0491071428571,4997.5]","[4132.5,4132.6,1782.4,2009.4,340.8,""oops"",""up"",""left"",""bad_move"",11014.2,6881,3179.2,7499.7,335.3,""oops"",""up"",""down"",""bad_move"",14407.6,3393.2,2924.6,11014.4,468.6,""oops"",""right"",""left"",""bad_move"",17092.6,2684.8,2199.6,14407.9,485.2,""smooth"",""up"",""up"",""good_move"",19858.2,2765.1,2383.1,17093.1,382,""smooth"",""up"",""up"",""good_move"",23083.8,3225.4,2816.3,19858.4,409.1,""oops"",""up"",""down"",""bad_move"",25916.6,2832.3,2449.3,23084.3,383,""oops"",""up"",""up"",""good_move"",29389.5,3472.5,3110.2,25917,362.3,""oops"",""up"",""up"",""good_move"",32044.3,2653.8,2294.2,29390.5,359.6,""smooth"",""up"",""up"",""good_move""]","",""
"6675","","<div style=""width:500px;"">
  <p>What determined the result of this run?</p>
  </div>","12","html-slider-response","40","716548","0.0-5.0-1.6","138","1","2025-07-23 06:29:18","1f75c3e559b7213887762d5229550c2b","197.245.162.70","Mozilla/5.0 (Windows NT 10.0; Win64; x64) AppleWebKit/537.36 (KHTML, like Gecko) Chrome/138.0.0.0 Safari/537.36","WebKit","Chrome","138.0.0.0","Windows","10.0","https://app.prolific.com/","en-ZA,en-GB;q=0.9,en-US;q=0.8,en;q=0.7","614e1c414dff2e589169f360","683db9eb0562dbf637994deb","6880813880672b1d487750ca","2","1","614e1c414dff2e589169f360","2","1","2025-07-23T06:41:16.199Z","","","","","","","","","","","AttribQ","","50","","","","","","","","","","","","","","","","","","","","","","","","","","","","",""
"1595","","<div style=""width:500px;"">
  <p>How much control did you have over the ball?</p>
  </div>","8","html-slider-response","41","718143","0.0-5.0-2.6","138","1","2025-07-23 06:29:18","1f75c3e559b7213887762d5229550c2b","197.245.162.70","Mozilla/5.0 (Windows NT 10.0; Win64; x64) AppleWebKit/537.36 (KHTML, like Gecko) Chrome/138.0.0.0 Safari/537.36","WebKit","Chrome","138.0.0.0","Windows","10.0","https://app.prolific.com/","en-ZA,en-GB;q=0.9,en-US;q=0.8,en;q=0.7","614e1c414dff2e589169f360","683db9eb0562dbf637994deb","6880813880672b1d487750ca","2","1","614e1c414dff2e589169f360","2","1","2025-07-23T06:41:17.794Z","","","","","","","","","","","ControlQ","","50","","","","","","","","","","","","","","","","","","","","","","","","","","","","",""
"4147","","<div style=""width:500px;"">
  <p>How would you describe your current emotional state?</p>
  </div>","58","html-slider-response","42","722291","0.0-5.0-3.6","138","1","2025-07-23 06:29:18","1f75c3e559b7213887762d5229550c2b","197.245.162.70","Mozilla/5.0 (Windows NT 10.0; Win64; x64) AppleWebKit/537.36 (KHTML, like Gecko) Chrome/138.0.0.0 Safari/537.36","WebKit","Chrome","138.0.0.0","Windows","10.0","https://app.prolific.com/","en-ZA,en-GB;q=0.9,en-US;q=0.8,en;q=0.7","614e1c414dff2e589169f360","683db9eb0562dbf637994deb","6880813880672b1d487750ca","2","1","614e1c414dff2e589169f360","2","1","2025-07-23T06:41:21.942Z","","","","","","","","","","","StressQ","","50","","","","","","","","","","","","","","","","","","","","","","","","","","","","",""
"3740","","<div style=""width:500px;"">
  <p>What best describes how you currently feel?</p>
  </div>","73","html-slider-response","43","726032","0.0-5.0-4.6","138","1","2025-07-23 06:29:18","1f75c3e559b7213887762d5229550c2b","197.245.162.70","Mozilla/5.0 (Windows NT 10.0; Win64; x64) AppleWebKit/537.36 (KHTML, like Gecko) Chrome/138.0.0.0 Safari/537.36","WebKit","Chrome","138.0.0.0","Windows","10.0","https://app.prolific.com/","en-ZA,en-GB;q=0.9,en-US;q=0.8,en;q=0.7","614e1c414dff2e589169f360","683db9eb0562dbf637994deb","6880813880672b1d487750ca","2","1","614e1c414dff2e589169f360","2","1","2025-07-23T06:41:25.683Z","","","","","","","","","","","MotivationQ","","50","","","","","","","","","","","","","","","","","","","","","","","","","","","","",""
"","","","","ctl-task-cpt","44","761767","0.0-5.0-0.7","138","1","2025-07-23 06:29:18","1f75c3e559b7213887762d5229550c2b","197.245.162.70","Mozilla/5.0 (Windows NT 10.0; Win64; x64) AppleWebKit/537.36 (KHTML, like Gecko) Chrome/138.0.0.0 Safari/537.36","WebKit","Chrome","138.0.0.0","Windows","10.0","https://app.prolific.com/","en-ZA,en-GB;q=0.9,en-US;q=0.8,en;q=0.7","614e1c414dff2e589169f360","683db9eb0562dbf637994deb","6880813880672b1d487750ca","2","1","614e1c414dff2e589169f360","2","1","2025-07-23T06:42:01.418Z","","","","","","","","","","","","","","win-only","2","g1:SE,g2:NW","0.3","8","0","728441.1","797.3","5799.3","32732.1","1","4","4","6","2","-4","-5","6","11","0.045454545454545456","1416.2","3000","-2180","[""left"",""up""]","{""num_key_presses"":9,""num_perfect"":1,""num_errors"":1,""num_randdir"":7,""num_randdir_good_moves"":4,""num_whilered"":0,""num_whileblue"":1,""num_blue"":1,""num_good_moves"":5}","[345.14285714285717,355.04910714285717,0,345.14285714285717,355.04910714285717,100,345.14285714285717,355.04910714285717,204.1,345.14285714285717,356.04910714285717,319.6,344.14285714285717,360.04910714285717,423.5,343.14285714285717,371.04910714285717,524,350.14285714285717,388.04910714285717,630.1,377.14285714285717,388.04910714285717,730.5,425.14285714285717,463.04910714285717,830.9,307.14285714285717,344.04910714285717,933.8,139.14285714285714,170.04910714285714,1035.4,55.142857142857146,132.04910714285714,1139.1,38.142857142857146,101.04910714285714,1239.5,53.142857142857146,66.04910714285714,1344.7,61.142857142857146,59.049107142857146,1453.6,72.14285714285714,73.04910714285714,1568.6,137.14285714285714,171.04910714285714,1669.9,304.14285714285717,460.04910714285717,1774.3,452.14285714285717,702.0491071428571,1880.6,487.14285714285717,765.0491071428571,1982.4,487.14285714285717,765.0491071428571,2083.1,487.14285714285717,765.0491071428571,2183.7,487.14285714285717,765.0491071428571,2301.8,492.14285714285717,737.0491071428571,2401.9,488.14285714285717,722.0491071428571,2503.8,488.14285714285717,722.0491071428571,2608.3,488.14285714285717,722.0491071428571,2708.8,488.14285714285717,714.0491071428571,2809.3,488.14285714285717,708.0491071428571,2914.6,488.14285714285717,708.0491071428571,3019.1,488.14285714285717,708.0491071428571,3137.3,488.14285714285717,708.0491071428571,3237.3,488.14285714285717,708.0491071428571,3337.6,488.14285714285717,708.0491071428571,3438.5,488.14285714285717,708.0491071428571,3545.7,488.14285714285717,708.0491071428571,3652.4,488.14285714285717,708.0491071428571,3752.6,488.14285714285717,708.0491071428571,3854.5,488.14285714285717,708.0491071428571,3958.4,488.14285714285717,708.0491071428571,4059.2,488.14285714285717,708.0491071428571,4164.1,488.14285714285717,708.0491071428571,4269.3,488.14285714285717,708.0491071428571,4387.4,488.14285714285717,708.0491071428571,4488.2,488.14285714285717,708.0491071428571,4594.1,488.14285714285717,708.0491071428571,4699,488.14285714285717,708.0491071428571,4806,488.14285714285717,708.0491071428571,4911.6]","[1437.2,1437.3,1000,0,437.3,""oops"",""up"",""down"",""bad_move"",3724.3,2285.8,1755.5,1438.6,530.2,""oops"",""up"",""left"",""good_move"",6719.5,2994.6,2626.4,3724.9,368.2,""oops"",""up"",""up"",""good_move"",9605,2885,2617.9,6720,267.1,""while_blue"",""up"",""down"",""bad_move"",12089,2483.5,2083.1,9605.5,400.4,""oops"",""up"",""left"",""good_move"",14538.7,2449.4,2067.3,12089.3,382.1,""oops"",""up"",""right"",""bad_move"",17321.7,2782.5,2357.4,14539.2,425.1,""oops"",""up"",""left"",""good_move"",20793.7,3471.7,3114.3,17322,357.4,""oops"",""up"",""right"",""bad_move"",23946.4,3152.4,2782.2,20794.2,370.1,""smooth"",""up"",""up"",""good_move""]","",""
"3595","","<div style=""width:500px;"">
  <p>What determined the result of this run?</p>
  </div>","4","html-slider-response","45","765358","0.0-5.0-1.7","138","1","2025-07-23 06:29:18","1f75c3e559b7213887762d5229550c2b","197.245.162.70","Mozilla/5.0 (Windows NT 10.0; Win64; x64) AppleWebKit/537.36 (KHTML, like Gecko) Chrome/138.0.0.0 Safari/537.36","WebKit","Chrome","138.0.0.0","Windows","10.0","https://app.prolific.com/","en-ZA,en-GB;q=0.9,en-US;q=0.8,en;q=0.7","614e1c414dff2e589169f360","683db9eb0562dbf637994deb","6880813880672b1d487750ca","2","1","614e1c414dff2e589169f360","2","1","2025-07-23T06:42:05.009Z","","","","","","","","","","","AttribQ","","50","","","","","","","","","","","","","","","","","","","","","","","","","","","","",""
"1565","","<div style=""width:500px;"">
  <p>How much control did you have over the ball?</p>
  </div>","5","html-slider-response","46","766925","0.0-5.0-2.7","138","1","2025-07-23 06:29:18","1f75c3e559b7213887762d5229550c2b","197.245.162.70","Mozilla/5.0 (Windows NT 10.0; Win64; x64) AppleWebKit/537.36 (KHTML, like Gecko) Chrome/138.0.0.0 Safari/537.36","WebKit","Chrome","138.0.0.0","Windows","10.0","https://app.prolific.com/","en-ZA,en-GB;q=0.9,en-US;q=0.8,en;q=0.7","614e1c414dff2e589169f360","683db9eb0562dbf637994deb","6880813880672b1d487750ca","2","1","614e1c414dff2e589169f360","2","1","2025-07-23T06:42:06.576Z","","","","","","","","","","","ControlQ","","50","","","","","","","","","","","","","","","","","","","","","","","","","","","","",""
"2417","","<div style=""width:500px;"">
  <p>How would you describe your current emotional state?</p>
  </div>","47","html-slider-response","47","769344","0.0-5.0-3.7","138","1","2025-07-23 06:29:18","1f75c3e559b7213887762d5229550c2b","197.245.162.70","Mozilla/5.0 (Windows NT 10.0; Win64; x64) AppleWebKit/537.36 (KHTML, like Gecko) Chrome/138.0.0.0 Safari/537.36","WebKit","Chrome","138.0.0.0","Windows","10.0","https://app.prolific.com/","en-ZA,en-GB;q=0.9,en-US;q=0.8,en;q=0.7","614e1c414dff2e589169f360","683db9eb0562dbf637994deb","6880813880672b1d487750ca","2","1","614e1c414dff2e589169f360","2","1","2025-07-23T06:42:08.995Z","","","","","","","","","","","StressQ","","50","","","","","","","","","","","","","","","","","","","","","","","","","","","","",""
"4405","","<div style=""width:500px;"">
  <p>What best describes how you currently feel?</p>
  </div>","77","html-slider-response","48","773749","0.0-5.0-4.7","138","1","2025-07-23 06:29:18","1f75c3e559b7213887762d5229550c2b","197.245.162.70","Mozilla/5.0 (Windows NT 10.0; Win64; x64) AppleWebKit/537.36 (KHTML, like Gecko) Chrome/138.0.0.0 Safari/537.36","WebKit","Chrome","138.0.0.0","Windows","10.0","https://app.prolific.com/","en-ZA,en-GB;q=0.9,en-US;q=0.8,en;q=0.7","614e1c414dff2e589169f360","683db9eb0562dbf637994deb","6880813880672b1d487750ca","2","1","614e1c414dff2e589169f360","2","1","2025-07-23T06:42:13.401Z","","","","","","","","","","","MotivationQ","","50","","","","","","","","","","","","","","","","","","","","","","","","","","","","",""
"","","","","ctl-task-cpt","49","820859","0.0-5.0-0.8","138","1","2025-07-23 06:29:18","1f75c3e559b7213887762d5229550c2b","197.245.162.70","Mozilla/5.0 (Windows NT 10.0; Win64; x64) AppleWebKit/537.36 (KHTML, like Gecko) Chrome/138.0.0.0 Safari/537.36","WebKit","Chrome","138.0.0.0","Windows","10.0","https://app.prolific.com/","en-ZA,en-GB;q=0.9,en-US;q=0.8,en;q=0.7","614e1c414dff2e589169f360","683db9eb0562dbf637994deb","6880813880672b1d487750ca","2","1","614e1c414dff2e589169f360","2","1","2025-07-23T06:43:00.510Z","","","","","","","","","","","","","","win-only","0","g1:NW,g2:SE","0.2","9","0","776164.5","789.4","5790.9","44087.3","1","4","8","6","2","-8","-9","0","6","0","877","3000","-2430","[""down"",""right""]","{""num_key_presses"":12,""num_perfect"":2,""num_errors"":1,""num_randdir"":9,""num_randdir_good_moves"":3,""num_whilered"":0,""num_whileblue"":1,""num_blue"":2,""num_good_moves"":6}","[342.14285714285717,339.04910714285717,0.2,342.14285714285717,339.04910714285717,103.4,343.14285714285717,340.04910714285717,208.2,363.14285714285717,351.04910714285717,311.3,421.14285714285717,369.04910714285717,411.7,422.14285714285717,407.04910714285717,511.7,614.1428571428571,600.0491071428571,618.9,621.1428571428571,610.0491071428571,722,617.1428571428571,618.0491071428571,825.1,617.1428571428571,618.0491071428571,926.6,617.1428571428571,618.0491071428571,1031.3,615.1428571428571,623.0491071428571,1131.5,691.1428571428571,800.0491071428571,1243.2,678.1428571428571,800.0491071428571,1344.3,637.1428571428571,800.0491071428571,1447.4,636.1428571428571,800.0491071428571,1554.3,636.1428571428571,800.0491071428571,1658.6,636.1428571428571,800.0491071428571,1762.6,636.1428571428571,800.0491071428571,1870.4,636.1428571428571,800.0491071428571,1974,637.1428571428571,790.0491071428571,2078.7,637.1428571428571,788.0491071428571,2182,636.1428571428571,779.0491071428571,2284.7,629.1428571428571,760.0491071428571,2388.6,617.1428571428571,736.0491071428571,2492.9,616.1428571428571,734.0491071428571,2596.9,616.1428571428571,734.0491071428571,2701.8,616.1428571428571,734.0491071428571,2807.4,616.1428571428571,734.0491071428571,2911.1,616.1428571428571,734.0491071428571,3011.6,616.1428571428571,734.0491071428571,3112.5,616.1428571428571,734.0491071428571,3219.1,616.1428571428571,734.0491071428571,3321.9,616.1428571428571,734.0491071428571,3423.5,616.1428571428571,734.0491071428571,3526.7,616.1428571428571,734.0491071428571,3636.9,616.1428571428571,734.0491071428571,3739.8,616.1428571428571,734.0491071428571,3842.5,616.1428571428571,734.0491071428571,3946.2,616.1428571428571,734.0491071428571,4046.2,616.1428571428571,734.0491071428571,4146.3,616.1428571428571,734.0491071428571,4253.1,616.1428571428571,734.0491071428571,4357.3,616.1428571428571,734.0491071428571,4457.3,616.1428571428571,734.0491071428571,4557.5,616.1428571428571,734.0491071428571,4661.9,616.1428571428571,734.0491071428571,4771.7,616.1428571428571,734.0491071428571,4875.6,616.1428571428571,734.0491071428571,4977.3]","[1398.8,1398.8,1000,0,398.8,""oops"",""right"",""up"",""bad_move"",4286.9,2887.7,2475.3,1399.2,412.4,""oops"",""right"",""right"",""good_move"",6675.1,2387.6,1988,4287.5,399.6,""smooth"",""right"",""right"",""good_move"",9250.7,2574.5,2269.8,6676.2,304.7,""oops"",""right"",""left"",""bad_move"",12382.8,3131.8,2827.8,9251,304,""oops"",""right"",""right"",""good_move"",15362.5,2979.5,2652.2,12383,327.3,""smooth"",""down"",""down"",""good_move"",18249.3,2886.4,2494.4,15362.9,392,""oops"",""right"",""left"",""bad_move"",20706.8,2457.1,2149.9,18249.7,307.2,""while_blue"",""down"",""right"",""good_move"",23839.2,3131.6,2769.5,20707.6,362.1,""oops"",""down"",""right"",""good_move"",26970,3130.5,2831.5,23839.5,299,""oops"",""down"",""up"",""bad_move"",29487.6,2517.2,2123.7,26970.4,393.5,""oops"",""down"",""left"",""bad_move"",31834.9,2346.9,2085,29488,261.9,""oops"",""down"",""up"",""bad_move""]","",""
"3071","","<div style=""width:500px;"">
  <p>What determined the result of this run?</p>
  </div>","0","html-slider-response","50","823927","0.0-5.0-1.8","138","1","2025-07-23 06:29:18","1f75c3e559b7213887762d5229550c2b","197.245.162.70","Mozilla/5.0 (Windows NT 10.0; Win64; x64) AppleWebKit/537.36 (KHTML, like Gecko) Chrome/138.0.0.0 Safari/537.36","WebKit","Chrome","138.0.0.0","Windows","10.0","https://app.prolific.com/","en-ZA,en-GB;q=0.9,en-US;q=0.8,en;q=0.7","614e1c414dff2e589169f360","683db9eb0562dbf637994deb","6880813880672b1d487750ca","2","1","614e1c414dff2e589169f360","2","1","2025-07-23T06:43:03.578Z","","","","","","","","","","","AttribQ","","50","","","","","","","","","","","","","","","","","","","","","","","","","","","","",""
"1876","","<div style=""width:500px;"">
  <p>How much control did you have over the ball?</p>
  </div>","0","html-slider-response","51","825805","0.0-5.0-2.8","138","1","2025-07-23 06:29:18","1f75c3e559b7213887762d5229550c2b","197.245.162.70","Mozilla/5.0 (Windows NT 10.0; Win64; x64) AppleWebKit/537.36 (KHTML, like Gecko) Chrome/138.0.0.0 Safari/537.36","WebKit","Chrome","138.0.0.0","Windows","10.0","https://app.prolific.com/","en-ZA,en-GB;q=0.9,en-US;q=0.8,en;q=0.7","614e1c414dff2e589169f360","683db9eb0562dbf637994deb","6880813880672b1d487750ca","2","1","614e1c414dff2e589169f360","2","1","2025-07-23T06:43:05.456Z","","","","","","","","","","","ControlQ","","50","","","","","","","","","","","","","","","","","","","","","","","","","","","","",""
"3968","","<div style=""width:500px;"">
  <p>How would you describe your current emotional state?</p>
  </div>","57","html-slider-response","52","829775","0.0-5.0-3.8","138","1","2025-07-23 06:29:18","1f75c3e559b7213887762d5229550c2b","197.245.162.70","Mozilla/5.0 (Windows NT 10.0; Win64; x64) AppleWebKit/537.36 (KHTML, like Gecko) Chrome/138.0.0.0 Safari/537.36","WebKit","Chrome","138.0.0.0","Windows","10.0","https://app.prolific.com/","en-ZA,en-GB;q=0.9,en-US;q=0.8,en;q=0.7","614e1c414dff2e589169f360","683db9eb0562dbf637994deb","6880813880672b1d487750ca","2","1","614e1c414dff2e589169f360","2","1","2025-07-23T06:43:09.426Z","","","","","","","","","","","StressQ","","50","","","","","","","","","","","","","","","","","","","","","","","","","","","","",""
"3444","","<div style=""width:500px;"">
  <p>What best describes how you currently feel?</p>
  </div>","50","html-slider-response","53","833221","0.0-5.0-4.8","138","1","2025-07-23 06:29:18","1f75c3e559b7213887762d5229550c2b","197.245.162.70","Mozilla/5.0 (Windows NT 10.0; Win64; x64) AppleWebKit/537.36 (KHTML, like Gecko) Chrome/138.0.0.0 Safari/537.36","WebKit","Chrome","138.0.0.0","Windows","10.0","https://app.prolific.com/","en-ZA,en-GB;q=0.9,en-US;q=0.8,en;q=0.7","614e1c414dff2e589169f360","683db9eb0562dbf637994deb","6880813880672b1d487750ca","2","1","614e1c414dff2e589169f360","2","1","2025-07-23T06:43:12.873Z","","","","","","","","","","","MotivationQ","","50","","","","","","","","","","","","","","","","","","","","","","","","","","","","",""
"","","","","ctl-task-cpt","54","879829","0.0-5.0-0.9","138","1","2025-07-23 06:29:18","1f75c3e559b7213887762d5229550c2b","197.245.162.70","Mozilla/5.0 (Windows NT 10.0; Win64; x64) AppleWebKit/537.36 (KHTML, like Gecko) Chrome/138.0.0.0 Safari/537.36","WebKit","Chrome","138.0.0.0","Windows","10.0","https://app.prolific.com/","en-ZA,en-GB;q=0.9,en-US;q=0.8,en;q=0.7","614e1c414dff2e589169f360","683db9eb0562dbf637994deb","6880813880672b1d487750ca","2","1","614e1c414dff2e589169f360","2","1","2025-07-23T06:43:59.480Z","","","","","","","","","","","","","","win-only","0","g1:NW,g2:SE","0.4","10","0","835643.4","1078","6082.3","43598.6","1","4","4","6","2","4","3","3","0","0.022727272727272728","1354.8","3000","410","[""down"",""right""]","{""num_key_presses"":9,""num_perfect"":4,""num_errors"":1,""num_randdir"":4,""num_randdir_good_moves"":3,""num_whilered"":0,""num_whileblue"":0,""num_blue"":4,""num_good_moves"":7}","[351.14285714285717,344.04910714285717,0.4,351.14285714285717,344.04910714285717,104.9,350.14285714285717,344.04910714285717,208.8,350.14285714285717,344.04910714285717,310.8,351.14285714285717,370.04910714285717,411.5,351.14285714285717,367.04910714285717,511.8,338.14285714285717,340.04910714285717,613.5,402.14285714285717,442.04910714285717,714.4,809.1428571428571,799.0491071428571,823.2,787.1428571428571,712.0491071428571,925.8,741.1428571428571,657.0491071428571,1030.1,734.1428571428571,654.0491071428571,1134.3,699.1428571428571,658.0491071428571,1239.4,688.1428571428571,656.0491071428571,1343.8,688.1428571428571,656.0491071428571,1449.6,687.1428571428571,656.0491071428571,1552.8,676.1428571428571,656.0491071428571,1652.8,675.1428571428571,656.0491071428571,1753.7,675.1428571428571,656.0491071428571,1861.1,670.1428571428571,657.0491071428571,1963.8,666.1428571428571,659.0491071428571,2068.3,660.1428571428571,660.0491071428571,2169.2,660.1428571428571,660.0491071428571,2272.2,660.1428571428571,660.0491071428571,2375.5,660.1428571428571,660.0491071428571,2478.4,660.1428571428571,660.0491071428571,2578.5,660.1428571428571,660.0491071428571,2678.9,660.1428571428571,660.0491071428571,2789.5,660.1428571428571,660.0491071428571,2891.2,795.1428571428571,714.0491071428571,2993.5,875.1428571428571,746.0491071428571,3093.7,887.1428571428571,741.0491071428571,3198.1,919.1428571428571,731.0491071428571,3304.6,921.1428571428571,730.0491071428571,3410,921.1428571428571,730.0491071428571,3511.8,918.1428571428571,724.0491071428571,3613.3,911.1428571428571,711.0491071428571,3716.9,911.1428571428571,711.0491071428571,3819,911.1428571428571,711.0491071428571,3920.6,911.1428571428571,711.0491071428571,4027.7,911.1428571428571,711.0491071428571,4131.1,911.1428571428571,711.0491071428571,4232.4,911.1428571428571,711.0491071428571,4336.9,911.1428571428571,711.0491071428571,4439.4,911.1428571428571,711.0491071428571,4539.9,911.1428571428571,711.0491071428571,4646.4,911.1428571428571,711.0491071428571,4748.3,911.1428571428571,711.0491071428571,4848.9,911.1428571428571,711.0491071428571,4955.2]","[1466.7,1466.7,1000,0,466.7,""oops"",""down"",""down"",""good_move"",8507.3,7040.4,3078.5,4999.1,429.7,""smooth"",""down"",""down"",""good_move"",8674.9,167.4,3358.9,8507.5,-3191.5,""error"",""-"",""-"",""no_move"",12754.1,4079.1,2638.1,9681.6,434.4,""smooth"",""down"",""down"",""good_move"",15200.3,2445.9,1975.1,12754.4,470.8,""smooth"",""right"",""right"",""good_move"",29975.6,14774.5,2999.3,26417.4,559,""oops"",""right"",""right"",""good_move"",32173.2,2195.7,1790.4,29977.5,405.3,""oops"",""right"",""left"",""bad_move"",34705.5,2531.9,2182.9,32173.6,349,""smooth"",""right"",""right"",""good_move"",37393.8,2688.1,2342.9,34705.7,345.2,""oops"",""right"",""right"",""good_move""]","",""
"2429","","<div style=""width:500px;"">
  <p>What determined the result of this run?</p>
  </div>","9","html-slider-response","55","882259","0.0-5.0-1.9","138","1","2025-07-23 06:29:18","1f75c3e559b7213887762d5229550c2b","197.245.162.70","Mozilla/5.0 (Windows NT 10.0; Win64; x64) AppleWebKit/537.36 (KHTML, like Gecko) Chrome/138.0.0.0 Safari/537.36","WebKit","Chrome","138.0.0.0","Windows","10.0","https://app.prolific.com/","en-ZA,en-GB;q=0.9,en-US;q=0.8,en;q=0.7","614e1c414dff2e589169f360","683db9eb0562dbf637994deb","6880813880672b1d487750ca","2","1","614e1c414dff2e589169f360","2","1","2025-07-23T06:44:01.910Z","","","","","","","","","","","AttribQ","","50","","","","","","","","","","","","","","","","","","","","","","","","","","","","",""
"1683","","<div style=""width:500px;"">
  <p>How much control did you have over the ball?</p>
  </div>","7","html-slider-response","56","883939","0.0-5.0-2.9","138","1","2025-07-23 06:29:18","1f75c3e559b7213887762d5229550c2b","197.245.162.70","Mozilla/5.0 (Windows NT 10.0; Win64; x64) AppleWebKit/537.36 (KHTML, like Gecko) Chrome/138.0.0.0 Safari/537.36","WebKit","Chrome","138.0.0.0","Windows","10.0","https://app.prolific.com/","en-ZA,en-GB;q=0.9,en-US;q=0.8,en;q=0.7","614e1c414dff2e589169f360","683db9eb0562dbf637994deb","6880813880672b1d487750ca","2","1","614e1c414dff2e589169f360","2","1","2025-07-23T06:44:03.591Z","","","","","","","","","","","ControlQ","","50","","","","","","","","","","","","","","","","","","","","","","","","","","","","",""
"4713","","<div style=""width:500px;"">
  <p>How would you describe your current emotional state?</p>
  </div>","58","html-slider-response","57","888655","0.0-5.0-3.9","138","1","2025-07-23 06:29:18","1f75c3e559b7213887762d5229550c2b","197.245.162.70","Mozilla/5.0 (Windows NT 10.0; Win64; x64) AppleWebKit/537.36 (KHTML, like Gecko) Chrome/138.0.0.0 Safari/537.36","WebKit","Chrome","138.0.0.0","Windows","10.0","https://app.prolific.com/","en-ZA,en-GB;q=0.9,en-US;q=0.8,en;q=0.7","614e1c414dff2e589169f360","683db9eb0562dbf637994deb","6880813880672b1d487750ca","2","1","614e1c414dff2e589169f360","2","1","2025-07-23T06:44:08.306Z","","","","","","","","","","","StressQ","","50","","","","","","","","","","","","","","","","","","","","","","","","","","","","",""
"3150","","<div style=""width:500px;"">
  <p>What best describes how you currently feel?</p>
  </div>","68","html-slider-response","58","891807","0.0-5.0-4.9","138","1","2025-07-23 06:29:18","1f75c3e559b7213887762d5229550c2b","197.245.162.70","Mozilla/5.0 (Windows NT 10.0; Win64; x64) AppleWebKit/537.36 (KHTML, like Gecko) Chrome/138.0.0.0 Safari/537.36","WebKit","Chrome","138.0.0.0","Windows","10.0","https://app.prolific.com/","en-ZA,en-GB;q=0.9,en-US;q=0.8,en;q=0.7","614e1c414dff2e589169f360","683db9eb0562dbf637994deb","6880813880672b1d487750ca","2","1","614e1c414dff2e589169f360","2","1","2025-07-23T06:44:11.458Z","","","","","","","","","","","MotivationQ","","50","","","","","","","","","","","","","","","","","","","","","","","","","","","","",""
"","","","","ctl-task-cpt","59","951352","0.0-5.0-0.10","138","1","2025-07-23 06:29:18","1f75c3e559b7213887762d5229550c2b","197.245.162.70","Mozilla/5.0 (Windows NT 10.0; Win64; x64) AppleWebKit/537.36 (KHTML, like Gecko) Chrome/138.0.0.0 Safari/537.36","WebKit","Chrome","138.0.0.0","Windows","10.0","https://app.prolific.com/","en-ZA,en-GB;q=0.9,en-US;q=0.8,en;q=0.7","614e1c414dff2e589169f360","683db9eb0562dbf637994deb","6880813880672b1d487750ca","2","1","614e1c414dff2e589169f360","2","1","2025-07-23T06:45:11.003Z","","","","","","","","","","","","","","win-only","0","g1:NW,g2:SE","0.5","11","0","894233.9","1018.7","6021","56521.5","1","4","4","6","2","-4","-5","0","3","0","1127.9","3000","-2260","[""down"",""right""]","{""num_key_presses"":9,""num_perfect"":4,""num_errors"":1,""num_randdir"":4,""num_randdir_good_moves"":1,""num_whilered"":0,""num_whileblue"":1,""num_blue"":7,""num_good_moves"":5}","[349.14285714285717,344.04910714285717,0.2,349.14285714285717,344.04910714285717,103.8,346.14285714285717,349.04910714285717,210.3,421.14285714285717,410.04910714285717,313,796.1428571428571,548.0491071428571,414,992.1428571428571,604.0491071428571,521.3,1002.1428571428571,622.0491071428571,622.1,953.1428571428571,558.0491071428571,739.6,952.1428571428571,553.0491071428571,842.9,767.1428571428571,603.0491071428571,946.9,666.1428571428571,620.0491071428571,1048.2,666.1428571428571,620.0491071428571,1149.4,666.1428571428571,620.0491071428571,1260.8,671.1428571428571,626.0491071428571,1363.5,802.1428571428571,708.0491071428571,1469.6,879.1428571428571,765.0491071428571,1571.9,882.1428571428571,769.0491071428571,1673.2,882.1428571428571,769.0491071428571,1784.9,882.1428571428571,769.0491071428571,1885.2,882.1428571428571,769.0491071428571,1988.1,882.1428571428571,769.0491071428571,2097,882.1428571428571,769.0491071428571,2202,882.1428571428571,769.0491071428571,2302.3,882.1428571428571,769.0491071428571,2403.7,882.1428571428571,769.0491071428571,2519.2,882.1428571428571,769.0491071428571,2621.8,882.1428571428571,769.0491071428571,2723.8,882.1428571428571,769.0491071428571,2828,882.1428571428571,769.0491071428571,2932.3,882.1428571428571,769.0491071428571,3033.3,882.1428571428571,769.0491071428571,3136.4,882.1428571428571,769.0491071428571,3236.8,882.1428571428571,769.0491071428571,3337.8,882.1428571428571,769.0491071428571,3443.1,882.1428571428571,769.0491071428571,3553.7,882.1428571428571,769.0491071428571,3657.2,882.1428571428571,769.0491071428571,3757.7,882.1428571428571,769.0491071428571,3862.9,882.1428571428571,769.0491071428571,3964.1,882.1428571428571,769.0491071428571,4067.5,882.1428571428571,769.0491071428571,4186.6,882.1428571428571,769.0491071428571,4286.8,882.1428571428571,769.0491071428571,4388.6,882.1428571428571,769.0491071428571,4492.6,882.1428571428571,769.0491071428571,4592.9,882.1428571428571,769.0491071428571,4698.5,882.1428571428571,769.0491071428571,4802.3,882.1428571428571,769.0491071428571,4902.6]","[4631.3,4631.3,2129,2011.6,490.7,""smooth"",""right"",""right"",""good_move"",12021.9,7390.1,3351.8,8287.7,382.4,""oops"",""right"",""right"",""good_move"",15232.2,3209.9,2801,12022.3,408.9,""oops"",""down"",""up"",""bad_move"",21853.2,6620.4,2356,19075.3,421.9,""smooth"",""right"",""right"",""good_move"",27912.8,6059.4,2244.9,25262.5,405.4,""smooth"",""down"",""down"",""good_move"",34578.1,6665.1,2916.6,31283.3,378.2,""while_blue"",""down"",""left"",""bad_move"",37575,2996.4,2577.9,34578.6,418.5,""oops"",""down"",""left"",""bad_move"",40719.8,3144.4,2714.2,37575.4,430.2,""oops"",""down"",""left"",""bad_move"",43553,2833.1,2233.5,40720,599.6,""smooth"",""down"",""down"",""good_move""]","",""
"51161","","<div style=""width:500px;"">
  <p>What determined the result of this run?</p>
  </div>","15","html-slider-response","60","1002514","0.0-5.0-1.10","138","1","2025-07-23 06:29:18","1f75c3e559b7213887762d5229550c2b","197.245.162.70","Mozilla/5.0 (Windows NT 10.0; Win64; x64) AppleWebKit/537.36 (KHTML, like Gecko) Chrome/138.0.0.0 Safari/537.36","WebKit","Chrome","138.0.0.0","Windows","10.0","https://app.prolific.com/","en-ZA,en-GB;q=0.9,en-US;q=0.8,en;q=0.7","614e1c414dff2e589169f360","683db9eb0562dbf637994deb","6880813880672b1d487750ca","2","1","614e1c414dff2e589169f360","2","1","2025-07-23T06:46:02.166Z","","","","","","","","","","","AttribQ","","50","","","","","","","","","","","","","","","","","","","","","","","","","","","","",""
"2569","","<div style=""width:500px;"">
  <p>How much control did you have over the ball?</p>
  </div>","16","html-slider-response","61","1005082","0.0-5.0-2.10","138","1","2025-07-23 06:29:18","1f75c3e559b7213887762d5229550c2b","197.245.162.70","Mozilla/5.0 (Windows NT 10.0; Win64; x64) AppleWebKit/537.36 (KHTML, like Gecko) Chrome/138.0.0.0 Safari/537.36","WebKit","Chrome","138.0.0.0","Windows","10.0","https://app.prolific.com/","en-ZA,en-GB;q=0.9,en-US;q=0.8,en;q=0.7","614e1c414dff2e589169f360","683db9eb0562dbf637994deb","6880813880672b1d487750ca","2","1","614e1c414dff2e589169f360","2","1","2025-07-23T06:46:04.734Z","","","","","","","","","","","ControlQ","","50","","","","","","","","","","","","","","","","","","","","","","","","","","","","",""
"9740","","<div style=""width:500px;"">
  <p>How would you describe your current emotional state?</p>
  </div>","19","html-slider-response","62","1014824","0.0-5.0-3.10","138","1","2025-07-23 06:29:18","1f75c3e559b7213887762d5229550c2b","197.245.162.70","Mozilla/5.0 (Windows NT 10.0; Win64; x64) AppleWebKit/537.36 (KHTML, like Gecko) Chrome/138.0.0.0 Safari/537.36","WebKit","Chrome","138.0.0.0","Windows","10.0","https://app.prolific.com/","en-ZA,en-GB;q=0.9,en-US;q=0.8,en;q=0.7","614e1c414dff2e589169f360","683db9eb0562dbf637994deb","6880813880672b1d487750ca","2","1","614e1c414dff2e589169f360","2","1","2025-07-23T06:46:14.475Z","","","","","","","","","","","StressQ","","50","","","","","","","","","","","","","","","","","","","","","","","","","","","","",""
"2546","","<div style=""width:500px;"">
  <p>What best describes how you currently feel?</p>
  </div>","50","html-slider-response","63","1017372","0.0-5.0-4.10","138","1","2025-07-23 06:29:18","1f75c3e559b7213887762d5229550c2b","197.245.162.70","Mozilla/5.0 (Windows NT 10.0; Win64; x64) AppleWebKit/537.36 (KHTML, like Gecko) Chrome/138.0.0.0 Safari/537.36","WebKit","Chrome","138.0.0.0","Windows","10.0","https://app.prolific.com/","en-ZA,en-GB;q=0.9,en-US;q=0.8,en;q=0.7","614e1c414dff2e589169f360","683db9eb0562dbf637994deb","6880813880672b1d487750ca","2","1","614e1c414dff2e589169f360","2","1","2025-07-23T06:46:17.023Z","","","","","","","","","","","MotivationQ","","50","","","","","","","","","","","","","","","","","","","","","","","","","","","","",""
"","","","","ctl-task-cpt","64","1064154","0.0-5.0-0.11","138","1","2025-07-23 06:29:18","1f75c3e559b7213887762d5229550c2b","197.245.162.70","Mozilla/5.0 (Windows NT 10.0; Win64; x64) AppleWebKit/537.36 (KHTML, like Gecko) Chrome/138.0.0.0 Safari/537.36","WebKit","Chrome","138.0.0.0","Windows","10.0","https://app.prolific.com/","en-ZA,en-GB;q=0.9,en-US;q=0.8,en;q=0.7","614e1c414dff2e589169f360","683db9eb0562dbf637994deb","6880813880672b1d487750ca","2","1","614e1c414dff2e589169f360","2","1","2025-07-23T06:47:03.806Z","","","","","","","","","","","","","","win-only","3","g1:SW,g2:NE","0.6","12","0","1019801.4","1042","6050.1","43778.4","1","4","8","6","2","-8","-8","0","0","0","1019.1","3000","-2045","[""up"",""right""]","{""num_key_presses"":9,""num_perfect"":6,""num_errors"":0,""num_randdir"":3,""num_randdir_good_moves"":0,""num_whilered"":0,""num_whileblue"":0,""num_blue"":3,""num_good_moves"":6}","[345.14285714285717,351.04910714285717,0.2,345.14285714285717,351.04910714285717,115.7,345.14285714285717,351.04910714285717,226.4,370.14285714285717,367.04910714285717,328.4,402.14285714285717,394.04910714285717,428.3,384.14285714285717,420.04910714285717,529.6,289.14285714285717,445.04910714285717,637.1,652.1428571428571,199.04910714285714,744.7,655.1428571428571,85.04910714285714,846.8,638.1428571428571,65.04910714285714,951,633.1428571428571,49.049107142857146,1060,632.1428571428571,49.049107142857146,1163.1,643.1428571428571,100.04910714285714,1270.1,712.1428571428571,283.04910714285717,1379.4,704.1428571428571,318.04910714285717,1479.5,701.1428571428571,321.04910714285717,1579.8,701.1428571428571,321.04910714285717,1684.3,701.1428571428571,321.04910714285717,1787.3,398.14285714285717,396.04910714285717,1894.4,211.14285714285714,516.0491071428571,2002.6,58.142857142857146,614.0491071428571,2113.6,0.1428571428571459,652.0491071428571,2218,-0.8571428571428541,658.0491071428571,2321,153.14285714285714,593.0491071428571,2429.4,320.14285714285717,538.0491071428571,2529.9,320.14285714285717,538.0491071428571,2634.3,320.14285714285717,538.0491071428571,2734.3,320.14285714285717,538.0491071428571,2838.1,320.14285714285717,538.0491071428571,2942,320.14285714285717,538.0491071428571,3043.4,323.14285714285717,540.0491071428571,3146.3,399.14285714285717,558.0491071428571,3257.8,689.1428571428571,586.0491071428571,3360.8,780.1428571428571,581.0491071428571,3463.5,770.1428571428571,551.0491071428571,3568.5,770.1428571428571,551.0491071428571,3671.7,770.1428571428571,551.0491071428571,3777.7,770.1428571428571,551.0491071428571,3879.5,770.1428571428571,551.0491071428571,3987.1,770.1428571428571,551.0491071428571,4091.9,770.1428571428571,551.0491071428571,4193,770.1428571428571,551.0491071428571,4293.4,770.1428571428571,551.0491071428571,4394.2,770.1428571428571,551.0491071428571,4494.3,770.1428571428571,551.0491071428571,4601.1,770.1428571428571,551.0491071428571,4708.7,770.1428571428571,551.0491071428571,4811.9,770.1428571428571,551.0491071428571,4913.6]","[5331.2,5331.2,2854.7,2004.2,472.3,""smooth"",""up"",""up"",""good_move"",8456.5,3125,2777.6,5331.5,347.4,""smooth"",""up"",""up"",""good_move"",11613.2,3156.5,2763.2,8456.7,393.3,""smooth"",""up"",""up"",""good_move"",14304.3,2690.6,2226.4,11613.7,464.2,""oops"",""right"",""down"",""bad_move"",17249,2944.3,2537.2,14304.7,407.1,""smooth"",""right"",""right"",""good_move"",26439.2,9189.7,2606.3,23393.3,439.6,""smooth"",""right"",""right"",""good_move"",29871.9,3431.8,2922.2,26440.1,509.6,""smooth"",""right"",""right"",""good_move"",32545.6,2673.5,2225.5,29872.1,448,""oops"",""up"",""down"",""bad_move"",35203.9,2657.7,2233.1,32546.2,424.6,""oops"",""up"",""left"",""bad_move""]","",""
"2539","","<div style=""width:500px;"">
  <p>What determined the result of this run?</p>
  </div>","5","html-slider-response","65","1066694","0.0-5.0-1.11","138","1","2025-07-23 06:29:18","1f75c3e559b7213887762d5229550c2b","197.245.162.70","Mozilla/5.0 (Windows NT 10.0; Win64; x64) AppleWebKit/537.36 (KHTML, like Gecko) Chrome/138.0.0.0 Safari/537.36","WebKit","Chrome","138.0.0.0","Windows","10.0","https://app.prolific.com/","en-ZA,en-GB;q=0.9,en-US;q=0.8,en;q=0.7","614e1c414dff2e589169f360","683db9eb0562dbf637994deb","6880813880672b1d487750ca","2","1","614e1c414dff2e589169f360","2","1","2025-07-23T06:47:06.345Z","","","","","","","","","","","AttribQ","","50","","","","","","","","","","","","","","","","","","","","","","","","","","","","",""
"1964","","<div style=""width:500px;"">
  <p>How much control did you have over the ball?</p>
  </div>","8","html-slider-response","66","1068659","0.0-5.0-2.11","138","1","2025-07-23 06:29:18","1f75c3e559b7213887762d5229550c2b","197.245.162.70","Mozilla/5.0 (Windows NT 10.0; Win64; x64) AppleWebKit/537.36 (KHTML, like Gecko) Chrome/138.0.0.0 Safari/537.36","WebKit","Chrome","138.0.0.0","Windows","10.0","https://app.prolific.com/","en-ZA,en-GB;q=0.9,en-US;q=0.8,en;q=0.7","614e1c414dff2e589169f360","683db9eb0562dbf637994deb","6880813880672b1d487750ca","2","1","614e1c414dff2e589169f360","2","1","2025-07-23T06:47:08.310Z","","","","","","","","","","","ControlQ","","50","","","","","","","","","","","","","","","","","","","","","","","","","","","","",""
"3160","","<div style=""width:500px;"">
  <p>How would you describe your current emotional state?</p>
  </div>","73","html-slider-response","67","1071822","0.0-5.0-3.11","138","1","2025-07-23 06:29:18","1f75c3e559b7213887762d5229550c2b","197.245.162.70","Mozilla/5.0 (Windows NT 10.0; Win64; x64) AppleWebKit/537.36 (KHTML, like Gecko) Chrome/138.0.0.0 Safari/537.36","WebKit","Chrome","138.0.0.0","Windows","10.0","https://app.prolific.com/","en-ZA,en-GB;q=0.9,en-US;q=0.8,en;q=0.7","614e1c414dff2e589169f360","683db9eb0562dbf637994deb","6880813880672b1d487750ca","2","1","614e1c414dff2e589169f360","2","1","2025-07-23T06:47:11.473Z","","","","","","","","","","","StressQ","","50","","","","","","","","","","","","","","","","","","","","","","","","","","","","",""
"3129","","<div style=""width:500px;"">
  <p>What best describes how you currently feel?</p>
  </div>","35","html-slider-response","68","1074952","0.0-5.0-4.11","138","1","2025-07-23 06:29:18","1f75c3e559b7213887762d5229550c2b","197.245.162.70","Mozilla/5.0 (Windows NT 10.0; Win64; x64) AppleWebKit/537.36 (KHTML, like Gecko) Chrome/138.0.0.0 Safari/537.36","WebKit","Chrome","138.0.0.0","Windows","10.0","https://app.prolific.com/","en-ZA,en-GB;q=0.9,en-US;q=0.8,en;q=0.7","614e1c414dff2e589169f360","683db9eb0562dbf637994deb","6880813880672b1d487750ca","2","1","614e1c414dff2e589169f360","2","1","2025-07-23T06:47:14.603Z","","","","","","","","","","","MotivationQ","","50","","","","","","","","","","","","","","","","","","","","","","","","","","","","",""
"","","","","ctl-task-cpt","69","1118097","0.0-5.0-0.12","138","1","2025-07-23 06:29:18","1f75c3e559b7213887762d5229550c2b","197.245.162.70","Mozilla/5.0 (Windows NT 10.0; Win64; x64) AppleWebKit/537.36 (KHTML, like Gecko) Chrome/138.0.0.0 Safari/537.36","WebKit","Chrome","138.0.0.0","Windows","10.0","https://app.prolific.com/","en-ZA,en-GB;q=0.9,en-US;q=0.8,en;q=0.7","614e1c414dff2e589169f360","683db9eb0562dbf637994deb","6880813880672b1d487750ca","2","1","614e1c414dff2e589169f360","2","1","2025-07-23T06:47:57.748Z","","","","","","","","","","","","","","win-only","3","g1:SW,g2:NE","0.7","13","0","1077383.5","1210.2","6210.7","40126","1","4","8","6","2","8","7","7","0","0.05303030303030303","1105.7","3000","645","[""up"",""right""]","{""num_key_presses"":9,""num_perfect"":5,""num_errors"":1,""num_randdir"":3,""num_randdir_good_moves"":2,""num_whilered"":0,""num_whileblue"":0,""num_blue"":3,""num_good_moves"":7}","[345.14285714285717,339.04910714285717,0.2,345.14285714285717,339.04910714285717,100.8,347.14285714285717,341.04910714285717,201.5,389.14285714285717,396.04910714285717,309.8,439.14285714285717,419.04910714285717,420,389.14285714285717,391.04910714285717,520.1,411.14285714285717,349.04910714285717,624,542.1428571428571,144.04910714285714,734.6,568.1428571428571,94.04910714285714,838.8,602.1428571428571,75.04910714285714,944.1,629.1428571428571,74.04910714285714,1046,629.1428571428571,74.04910714285714,1148.3,629.1428571428571,74.04910714285714,1250.3,628.1428571428571,132.04910714285714,1354,733.1428571428571,488.04910714285717,1456.7,722.1428571428571,507.04910714285717,1561.8,720.1428571428571,507.04910714285717,1665,720.1428571428571,507.04910714285717,1767.4,720.1428571428571,507.04910714285717,1881.5,714.1428571428571,503.04910714285717,1989.6,700.1428571428571,480.04910714285717,2091.6,696.1428571428571,471.04910714285717,2202.2,696.1428571428571,471.04910714285717,2316.4,696.1428571428571,471.04910714285717,2420.4,696.1428571428571,471.04910714285717,2521,696.1428571428571,471.04910714285717,2622.2,696.1428571428571,471.04910714285717,2725.8,696.1428571428571,471.04910714285717,2832.3,696.1428571428571,471.04910714285717,2936.3,696.1428571428571,471.04910714285717,3040.5,696.1428571428571,471.04910714285717,3151.1,696.1428571428571,471.04910714285717,3257.6,696.1428571428571,471.04910714285717,3357.9,696.1428571428571,471.04910714285717,3461.5,696.1428571428571,471.04910714285717,3569,696.1428571428571,471.04910714285717,3670.3,696.1428571428571,471.04910714285717,3777.5,696.1428571428571,471.04910714285717,3881.6,696.1428571428571,471.04910714285717,4000.1,696.1428571428571,471.04910714285717,4100.3,696.1428571428571,471.04910714285717,4208.4,696.1428571428571,471.04910714285717,4308.4,696.1428571428571,471.04910714285717,4413.4,696.1428571428571,471.04910714285717,4516.8,696.1428571428571,471.04910714285717,4633.1,696.1428571428571,471.04910714285717,4734.9,696.1428571428571,471.04910714285717,4836.4,696.1428571428571,471.04910714285717,4937]","[394.7,394.7,1000,0,-605.3,""error"",""-"",""-"",""no_move"",8617.5,8222.6,2964.1,5183.1,470.3,""smooth"",""right"",""right"",""good_move"",10702.2,2084.4,1691.4,8617.9,393,""smooth"",""right"",""right"",""good_move"",17520.3,6817.7,2736.9,14305.8,477.6,""smooth"",""right"",""right"",""good_move"",22650.4,5129.9,2353,19834.9,462.6,""oops"",""up"",""up"",""good_move"",25113.6,2462.4,1968,22651.3,494.3,""oops"",""up"",""up"",""good_move"",27711.1,2597.4,2191.8,25113.8,405.6,""oops"",""up"",""left"",""bad_move"",30530,2818.5,2424.3,27711.5,394.2,""smooth"",""up"",""up"",""good_move"",33796,3265.5,2840.8,30530.5,424.7,""smooth"",""right"",""right"",""good_move""]","",""
"9663","","<div style=""width:500px;"">
  <p>What determined the result of this run?</p>
  </div>","20","html-slider-response","70","1127761","0.0-5.0-1.12","138","1","2025-07-23 06:29:18","1f75c3e559b7213887762d5229550c2b","197.245.162.70","Mozilla/5.0 (Windows NT 10.0; Win64; x64) AppleWebKit/537.36 (KHTML, like Gecko) Chrome/138.0.0.0 Safari/537.36","WebKit","Chrome","138.0.0.0","Windows","10.0","https://app.prolific.com/","en-ZA,en-GB;q=0.9,en-US;q=0.8,en;q=0.7","614e1c414dff2e589169f360","683db9eb0562dbf637994deb","6880813880672b1d487750ca","2","1","614e1c414dff2e589169f360","2","1","2025-07-23T06:48:07.412Z","","","","","","","","","","","AttribQ","","50","","","","","","","","","","","","","","","","","","","","","","","","","","","","",""
"3044","","<div style=""width:500px;"">
  <p>How much control did you have over the ball?</p>
  </div>","12","html-slider-response","71","1130806","0.0-5.0-2.12","138","1","2025-07-23 06:29:18","1f75c3e559b7213887762d5229550c2b","197.245.162.70","Mozilla/5.0 (Windows NT 10.0; Win64; x64) AppleWebKit/537.36 (KHTML, like Gecko) Chrome/138.0.0.0 Safari/537.36","WebKit","Chrome","138.0.0.0","Windows","10.0","https://app.prolific.com/","en-ZA,en-GB;q=0.9,en-US;q=0.8,en;q=0.7","614e1c414dff2e589169f360","683db9eb0562dbf637994deb","6880813880672b1d487750ca","2","1","614e1c414dff2e589169f360","2","1","2025-07-23T06:48:10.457Z","","","","","","","","","","","ControlQ","","50","","","","","","","","","","","","","","","","","","","","","","","","","","","","",""
"3546","","<div style=""width:500px;"">
  <p>How would you describe your current emotional state?</p>
  </div>","66","html-slider-response","72","1134354","0.0-5.0-3.12","138","1","2025-07-23 06:29:18","1f75c3e559b7213887762d5229550c2b","197.245.162.70","Mozilla/5.0 (Windows NT 10.0; Win64; x64) AppleWebKit/537.36 (KHTML, like Gecko) Chrome/138.0.0.0 Safari/537.36","WebKit","Chrome","138.0.0.0","Windows","10.0","https://app.prolific.com/","en-ZA,en-GB;q=0.9,en-US;q=0.8,en;q=0.7","614e1c414dff2e589169f360","683db9eb0562dbf637994deb","6880813880672b1d487750ca","2","1","614e1c414dff2e589169f360","2","1","2025-07-23T06:48:14.005Z","","","","","","","","","","","StressQ","","50","","","","","","","","","","","","","","","","","","","","","","","","","","","","",""
"2165","","<div style=""width:500px;"">
  <p>What best describes how you currently feel?</p>
  </div>","39","html-slider-response","73","1136521","0.0-5.0-4.12","138","1","2025-07-23 06:29:18","1f75c3e559b7213887762d5229550c2b","197.245.162.70","Mozilla/5.0 (Windows NT 10.0; Win64; x64) AppleWebKit/537.36 (KHTML, like Gecko) Chrome/138.0.0.0 Safari/537.36","WebKit","Chrome","138.0.0.0","Windows","10.0","https://app.prolific.com/","en-ZA,en-GB;q=0.9,en-US;q=0.8,en;q=0.7","614e1c414dff2e589169f360","683db9eb0562dbf637994deb","6880813880672b1d487750ca","2","1","614e1c414dff2e589169f360","2","1","2025-07-23T06:48:16.172Z","","","","","","","","","","","MotivationQ","","50","","","","","","","","","","","","","","","","","","","","","","","","","","","","",""
