"rt","response_timestamp","stimulus","response","trial_type","trial_index","time_elapsed","internal_node_id","run_id","condition","recorded_at","source_code_version","ip","user_agent","device","browser","browser_version","platform","platform_version","referer","accept_language","PROLIFIC_PID","STUDY_ID","SESSION_ID","WEEK","BATCH","prolific_id","week","batch","realtime","success","responses","item_order","radio_event_ids","radio_event_times","key_event_times","mouse_event_times","straightlining","zigzagging","honeypot","eventType","view_history","slider_start","which_type","canvas_config","goals_layout","control_level","trial_number","tutorial_trial_number","trial_start_time","phase1_start_time","phase2_start_time","phase3_start_time","goal_1_value","goal_1_distance","goal_2_value","goal_2_distance","goal_selected","outcome","outcome_total","participant_final_score","participant_initial_score","participant_final_score_prop","goal_choice_rt","allocated_time","allocated_time_remaining","goal_direction","counts","mouse_movements","key_presses","question_order","question_id"
"36357","1753254367997","<p style='font-size:40px;line-height:1.25'><strong>Welcome to the experiment!</strong></p><p style='font-size:1.1em;line-height:1.25'>Thank you for participanting in our experiment again! You will be asked to play the Dysfunctional Ball Game again. We will briefly recap the rules before we start.</p><p style='font-size:1.1em;line-height:1.25'>Press <strong>Next</strong> to continue.</p>","0","custom-html-button-response","0","36359","0.0-0.0","168","1","2025-07-23 07:05:28","1f75c3e559b7213887762d5229550c2b","82.132.236.234","Mozilla/5.0 (Windows NT 10.0; Win64; x64) AppleWebKit/537.36 (KHTML, like Gecko) Chrome/138.0.0.0 Safari/537.36","WebKit","Chrome","138.0.0.0","Windows","10.0","https://app.prolific.com/","en-GB,en-US;q=0.9,en;q=0.8","676054ef296caad582258e02","683dba2a8a9dda3513610c04","6880893bcd9b3a5a0c819e58","3","0","676054ef296caad582258e02","3","0","2025-07-23T07:06:07.997Z","","","","","","","","","","","","","","","","","","","","","","","","","","","","","","","","","","","","","","","","","",""
"2246","","","","fullscreen","1","39618","0.0-1.0","168","1","2025-07-23 07:05:28","1f75c3e559b7213887762d5229550c2b","82.132.236.234","Mozilla/5.0 (Windows NT 10.0; Win64; x64) AppleWebKit/537.36 (KHTML, like Gecko) Chrome/138.0.0.0 Safari/537.36","WebKit","Chrome","138.0.0.0","Windows","10.0","https://app.prolific.com/","en-GB,en-US;q=0.9,en;q=0.8","676054ef296caad582258e02","683dba2a8a9dda3513610c04","6880893bcd9b3a5a0c819e58","3","0","676054ef296caad582258e02","3","0","","true","","","","","","","","","","","","","","","","","","","","","","","","","","","","","","","","","","","","","","","","",""
"1780","1753254373036","<p style='font-size:1.1em;line-height:1.25'>In the following, we will ask you a few questions relating to your feelings in the last 24 hours.<br></p><p style='font-size:1.1em;line-height:1.25'>Press the <strong>Next</strong> button to continue.</p>","0","custom-html-button-response","2","41398","0.0-2.0-0.0","168","1","2025-07-23 07:05:28","1f75c3e559b7213887762d5229550c2b","82.132.236.234","Mozilla/5.0 (Windows NT 10.0; Win64; x64) AppleWebKit/537.36 (KHTML, like Gecko) Chrome/138.0.0.0 Safari/537.36","WebKit","Chrome","138.0.0.0","Windows","10.0","https://app.prolific.com/","en-GB,en-US;q=0.9,en;q=0.8","676054ef296caad582258e02","683dba2a8a9dda3513610c04","6880893bcd9b3a5a0c819e58","3","0","676054ef296caad582258e02","3","0","2025-07-23T07:06:13.036Z","","","","","","","","","","","","","","","","","","","","","","","","","","","","","","","","","","","","","","","","","",""
"65928","","","","survey-template","3","107329","0.0-2.0-1.0","168","1","2025-07-23 07:05:28","1f75c3e559b7213887762d5229550c2b","82.132.236.234","Mozilla/5.0 (Windows NT 10.0; Win64; x64) AppleWebKit/537.36 (KHTML, like Gecko) Chrome/138.0.0.0 Safari/537.36","WebKit","Chrome","138.0.0.0","Windows","10.0","https://app.prolific.com/","en-GB,en-US;q=0.9,en;q=0.8","676054ef296caad582258e02","683dba2a8a9dda3513610c04","6880893bcd9b3a5a0c819e58","3","0","676054ef296caad582258e02","3","0","2025-07-23T07:07:18.968Z","","{""Q01"":""1"",""Q02"":""1"",""Q03"":""0"",""Q04"":""0"",""Q05"":""1"",""Q06"":""0"",""Q07"":""0"",""Q08"":""0"",""Q09"":""0"",""Q10"":""0"",""Q11"":""2"",""Q12"":""0"",""Q13"":""5"",""Q14"":""0"",""Q15"":""1"",""Q16"":""3"",""Q17"":""0"",""Q18"":""0"",""Q19"":""0"",""Q20"":""0"",""Q21"":""0"",""Q22"":""0""}","[0,1,2,3,4,5,6,7,8,9,10,11,12,13,14,15,16,17,18,19,20,21]","[""Q01"",""Q02"",""Q02"",""Q02"",""Q03"",""Q04"",""Q05"",""Q05"",""Q06"",""Q07"",""Q08"",""Q09"",""Q10"",""Q11"",""Q11"",""Q12"",""Q13"",""Q14"",""Q15"",""Q16"",""Q17"",""Q18"",""Q19"",""Q20"",""Q21"",""Q22""]","[2622.2000000029802,5245.9000000059605,8870,14581.800000011921,18109.80000001192,20093.80000001192,21325.80000001192,23485.80000001192,24637.80000001192,27149.70000000298,28557.80000001192,29669.70000000298,31597.70000000298,32853.70000000298,34549.30000001192,35965.70000000298,38957.80000001192,40557.30000001192,43941.70000000298,48245.70000000298,51125.60000000894,52069.70000000298,55181.70000000298,58773.60000000894,60509.60000000894,62613.5]","[]","[0,2622.2000000029802,5245.9000000059605,8269.5,8870,13781.90000000596,14213.90000000596,14581.800000011921,18109.80000001192,20093.80000001192,21325.80000001192,23485.80000001192,24637.80000001192,27149.70000000298,28557.80000001192,29669.70000000298,30997.80000001192,31597.70000000298,32277.90000000596,32853.70000000298,34549.30000001192,35965.70000000298,37533.80000001192,38957.80000001192,40557.30000001192,43941.70000000298,48245.70000000298,51125.60000000894,52069.70000000298,55181.70000000298,57997.70000000298,58773.60000000894,60509.60000000894,62613.5,65925.70000000298]","0.6818181818181818","0.2857142857142857","0","drsp","","","","","","","","","","","","","","","","","","","","","","","","","","","","","","",""
"8164","","","","survey-template","4","115495","0.0-2.0-2.0","168","1","2025-07-23 07:05:28","1f75c3e559b7213887762d5229550c2b","82.132.236.234","Mozilla/5.0 (Windows NT 10.0; Win64; x64) AppleWebKit/537.36 (KHTML, like Gecko) Chrome/138.0.0.0 Safari/537.36","WebKit","Chrome","138.0.0.0","Windows","10.0","https://app.prolific.com/","en-GB,en-US;q=0.9,en;q=0.8","676054ef296caad582258e02","683dba2a8a9dda3513610c04","6880893bcd9b3a5a0c819e58","3","0","676054ef296caad582258e02","3","0","2025-07-23T07:07:27.133Z","","{""Q01"":""0"",""Q02"":""4"",""Q03"":""0""}","[0,1,2]","[""Q01"",""Q02"",""Q03""]","[3275.3999999910593,6027.5,7259.399999991059]","[]","[2811.3999999910593,3275.3999999910593,6027.5,7259.399999991059,8163.399999991059]","0.6666666666666666","1","0","stress","","","","","","","","","","","","","","","","","","","","","","","","","","","","","","",""
"11951","","","","instructions","5","127446","0.0-3.0-0.0","168","1","2025-07-23 07:05:28","1f75c3e559b7213887762d5229550c2b","82.132.236.234","Mozilla/5.0 (Windows NT 10.0; Win64; x64) AppleWebKit/537.36 (KHTML, like Gecko) Chrome/138.0.0.0 Safari/537.36","WebKit","Chrome","138.0.0.0","Windows","10.0","https://app.prolific.com/","en-GB,en-US;q=0.9,en;q=0.8","676054ef296caad582258e02","683dba2a8a9dda3513610c04","6880893bcd9b3a5a0c819e58","3","0","676054ef296caad582258e02","3","0","","","","","","","","","","","","","[{""page_index"":0,""viewing_time"":11951}]","","","","","","","","","","","","","","","","","","","","","","","","","","","","","",""
"5567","","<p>Before you start with this game please answer the following three questions yourself. </p>
  <p>Through this game, we measure several aspects of your cognitive performance, such as reaction times, multi-tasking capabilities </p>
  <p>and the ability to assess the situation you are in.</p>
  <p></p>
  <p><b>How good do you usually are in such tasks?</b></p>","51","html-slider-response","6","133014","0.0-4.0-0.0","168","1","2025-07-23 07:05:28","1f75c3e559b7213887762d5229550c2b","82.132.236.234","Mozilla/5.0 (Windows NT 10.0; Win64; x64) AppleWebKit/537.36 (KHTML, like Gecko) Chrome/138.0.0.0 Safari/537.36","WebKit","Chrome","138.0.0.0","Windows","10.0","https://app.prolific.com/","en-GB,en-US;q=0.9,en;q=0.8","676054ef296caad582258e02","683dba2a8a9dda3513610c04","6880893bcd9b3a5a0c819e58","3","0","676054ef296caad582258e02","3","0","2025-07-23T07:07:44.652Z","","","","","","","","","","","PreSkillQ","","50","","","","","","","","","","","","","","","","","","","","","","","","","","","","",""
"2559","","<div style=""width:500px;"">
  <p>How well do you think you will perform in this task compared to other participants?</p>
  </div>","40","html-slider-response","7","135574","0.0-4.0-1.0","168","1","2025-07-23 07:05:28","1f75c3e559b7213887762d5229550c2b","82.132.236.234","Mozilla/5.0 (Windows NT 10.0; Win64; x64) AppleWebKit/537.36 (KHTML, like Gecko) Chrome/138.0.0.0 Safari/537.36","WebKit","Chrome","138.0.0.0","Windows","10.0","https://app.prolific.com/","en-GB,en-US;q=0.9,en;q=0.8","676054ef296caad582258e02","683dba2a8a9dda3513610c04","6880893bcd9b3a5a0c819e58","3","0","676054ef296caad582258e02","3","0","2025-07-23T07:07:47.212Z","","","","","","","","","","","PrePerfQ","","50","","","","","","","","","","","","","","","","","","","","","","","","","","","","",""
"3687","","<div style=""width:500px;"">
  <p>What best describes how you currently feel?</p>
  </div>","46","html-slider-response","8","139262","0.0-4.0-2.0","168","1","2025-07-23 07:05:28","1f75c3e559b7213887762d5229550c2b","82.132.236.234","Mozilla/5.0 (Windows NT 10.0; Win64; x64) AppleWebKit/537.36 (KHTML, like Gecko) Chrome/138.0.0.0 Safari/537.36","WebKit","Chrome","138.0.0.0","Windows","10.0","https://app.prolific.com/","en-GB,en-US;q=0.9,en;q=0.8","676054ef296caad582258e02","683dba2a8a9dda3513610c04","6880893bcd9b3a5a0c819e58","3","0","676054ef296caad582258e02","3","0","2025-07-23T07:07:50.900Z","","","","","","","","","","","PreMotivationQ","","50","","","","","","","","","","","","","","","","","","","","","","","","","","","","",""
"","","","","ctl-task-cpt","9","161750","0.0-5.0-0.0","168","1","2025-07-23 07:05:28","1f75c3e559b7213887762d5229550c2b","82.132.236.234","Mozilla/5.0 (Windows NT 10.0; Win64; x64) AppleWebKit/537.36 (KHTML, like Gecko) Chrome/138.0.0.0 Safari/537.36","WebKit","Chrome","138.0.0.0","Windows","10.0","https://app.prolific.com/","en-GB,en-US;q=0.9,en;q=0.8","676054ef296caad582258e02","683dba2a8a9dda3513610c04","6880893bcd9b3a5a0c819e58","3","0","676054ef296caad582258e02","3","0","2025-07-23T07:08:13.388Z","","","","","","","","","","","","","","win-only","3","g1:SW,g2:NE","1","1","0","141138.8","1254.5","6255.7","19482.7","1","4","8","6","1","1","1","1","0","0.007575757575757576","2719.8","3000","1580","[""down"",""left""]","{""num_key_presses"":4,""num_perfect"":4,""num_errors"":0,""num_randdir"":0,""num_randdir_good_moves"":0,""num_whilered"":0,""num_whileblue"":0,""num_blue"":1,""num_good_moves"":4}","[299.22232142857143,293.12857142857143,0.2,299.22232142857143,293.12857142857143,102.5,303.22232142857143,294.12857142857143,202.5,316.22232142857143,295.12857142857143,302.6,323.22232142857143,281.12857142857143,406.7,323.22232142857143,281.12857142857143,511.6,323.22232142857143,281.12857142857143,616.5,323.22232142857143,281.12857142857143,721,323.22232142857143,281.12857142857143,821.7,323.22232142857143,281.12857142857143,926.6,323.22232142857143,281.12857142857143,1031.4,323.22232142857143,281.12857142857143,1136.4,323.22232142857143,281.12857142857143,1242,347.22232142857143,235.12857142857143,1345.7,557.2223214285714,78.12857142857143,1446.7,557.2223214285714,78.12857142857143,1552.6,557.2223214285714,78.12857142857143,1655.9,363.22232142857143,141.12857142857143,1756.2,-216.77767857142857,683.1285714285714,1856.3,-279.77767857142857,680.1285714285714,1956.5,-191.77767857142857,597.1285714285714,2062.1,-41.777678571428574,513.1285714285714,2166.2,321.22232142857143,338.12857142857143,2271.3,-92.77767857142857,549.1285714285714,2376.5,-56.777678571428574,562.1285714285714,2476.5,2.2223214285714263,558.1285714285714,2576.8,18.222321428571426,553.1285714285714,2676.9,18.222321428571426,553.1285714285714,2781.3,19.222321428571426,549.1285714285714,2881.4,19.222321428571426,549.1285714285714,2981.7,19.222321428571426,549.1285714285714,3086.9,19.222321428571426,549.1285714285714,3192.1,19.222321428571426,549.1285714285714,3296.1,19.222321428571426,549.1285714285714,3401.2,19.222321428571426,549.1285714285714,3506.2,19.222321428571426,549.1285714285714,3606.9,19.222321428571426,549.1285714285714,3711,19.222321428571426,549.1285714285714,3816.7,19.222321428571426,549.1285714285714,3917.7,19.222321428571426,549.1285714285714,4021.1,19.222321428571426,549.1285714285714,4126.2,19.222321428571426,549.1285714285714,4226.8,19.222321428571426,549.1285714285714,4331.7,19.222321428571426,549.1285714285714,4436.2,19.222321428571426,549.1285714285714,4542,19.222321428571426,549.1285714285714,4645.9,19.222321428571426,549.1285714285714,4746.6,19.222321428571426,549.1285714285714,4850.8,19.222321428571426,549.1285714285714,4956.1]","[1358.4,1358.4,1000,0,358.4,""smooth"",""down"",""down"",""good_move"",3853.8,2495.2,2141,1358.6,354.2,""smooth"",""down"",""down"",""good_move"",10622.8,6768.9,2469.6,7790.8,362.4,""smooth"",""left"",""left"",""good_move"",13133.9,2510.8,2140.6,10623.1,370.2,""smooth"",""left"",""left"",""good_move""]","",""
"4111","","<div style=""width:500px;"">
  <p>What determined the result of this run?</p>
  </div>","73","html-slider-response","10","165861","0.0-5.0-1.0","168","1","2025-07-23 07:05:28","1f75c3e559b7213887762d5229550c2b","82.132.236.234","Mozilla/5.0 (Windows NT 10.0; Win64; x64) AppleWebKit/537.36 (KHTML, like Gecko) Chrome/138.0.0.0 Safari/537.36","WebKit","Chrome","138.0.0.0","Windows","10.0","https://app.prolific.com/","en-GB,en-US;q=0.9,en;q=0.8","676054ef296caad582258e02","683dba2a8a9dda3513610c04","6880893bcd9b3a5a0c819e58","3","0","676054ef296caad582258e02","3","0","2025-07-23T07:08:17.500Z","","","","","","","","","","","AttribQ","","50","","","","","","","","","","","","","","","","","","","","","","","","","","","","",""
"2119","","<div style=""width:500px;"">
  <p>How much control did you have over the ball?</p>
  </div>","100","html-slider-response","11","167982","0.0-5.0-2.0","168","1","2025-07-23 07:05:28","1f75c3e559b7213887762d5229550c2b","82.132.236.234","Mozilla/5.0 (Windows NT 10.0; Win64; x64) AppleWebKit/537.36 (KHTML, like Gecko) Chrome/138.0.0.0 Safari/537.36","WebKit","Chrome","138.0.0.0","Windows","10.0","https://app.prolific.com/","en-GB,en-US;q=0.9,en;q=0.8","676054ef296caad582258e02","683dba2a8a9dda3513610c04","6880893bcd9b3a5a0c819e58","3","0","676054ef296caad582258e02","3","0","2025-07-23T07:08:19.620Z","","","","","","","","","","","ControlQ","","50","","","","","","","","","","","","","","","","","","","","","","","","","","","","",""
"3272","","<div style=""width:500px;"">
  <p>How would you describe your current emotional state?</p>
  </div>","37","html-slider-response","12","171254","0.0-5.0-3.0","168","1","2025-07-23 07:05:28","1f75c3e559b7213887762d5229550c2b","82.132.236.234","Mozilla/5.0 (Windows NT 10.0; Win64; x64) AppleWebKit/537.36 (KHTML, like Gecko) Chrome/138.0.0.0 Safari/537.36","WebKit","Chrome","138.0.0.0","Windows","10.0","https://app.prolific.com/","en-GB,en-US;q=0.9,en;q=0.8","676054ef296caad582258e02","683dba2a8a9dda3513610c04","6880893bcd9b3a5a0c819e58","3","0","676054ef296caad582258e02","3","0","2025-07-23T07:08:22.892Z","","","","","","","","","","","StressQ","","50","","","","","","","","","","","","","","","","","","","","","","","","","","","","",""
"3278","","<div style=""width:500px;"">
  <p>What best describes how you currently feel?</p>
  </div>","50","html-slider-response","13","174533","0.0-5.0-4.0","168","1","2025-07-23 07:05:28","1f75c3e559b7213887762d5229550c2b","82.132.236.234","Mozilla/5.0 (Windows NT 10.0; Win64; x64) AppleWebKit/537.36 (KHTML, like Gecko) Chrome/138.0.0.0 Safari/537.36","WebKit","Chrome","138.0.0.0","Windows","10.0","https://app.prolific.com/","en-GB,en-US;q=0.9,en;q=0.8","676054ef296caad582258e02","683dba2a8a9dda3513610c04","6880893bcd9b3a5a0c819e58","3","0","676054ef296caad582258e02","3","0","2025-07-23T07:08:26.171Z","","","","","","","","","","","MotivationQ","","50","","","","","","","","","","","","","","","","","","","","","","","","","","","","",""
"","","","","ctl-task-cpt","14","193905","0.0-5.0-0.1","168","1","2025-07-23 07:05:28","1f75c3e559b7213887762d5229550c2b","82.132.236.234","Mozilla/5.0 (Windows NT 10.0; Win64; x64) AppleWebKit/537.36 (KHTML, like Gecko) Chrome/138.0.0.0 Safari/537.36","WebKit","Chrome","138.0.0.0","Windows","10.0","https://app.prolific.com/","en-GB,en-US;q=0.9,en;q=0.8","676054ef296caad582258e02","683dba2a8a9dda3513610c04","6880893bcd9b3a5a0c819e58","3","0","676054ef296caad582258e02","3","0","2025-07-23T07:08:45.543Z","","","","","","","","","","","","","","win-only","3","g1:SW,g2:NE","0.9","2","0","176409.3","1262.7","6271.4","16361.7","1","4","4","6","1","1","1","2","1","0.015151515151515152","3841","3000","1830","[""down"",""left""]","{""num_key_presses"":4,""num_perfect"":4,""num_errors"":0,""num_randdir"":0,""num_randdir_good_moves"":0,""num_whilered"":0,""num_whileblue"":0,""num_blue"":0,""num_good_moves"":4}","[292.22232142857143,299.12857142857143,0.1,292.22232142857143,299.12857142857143,103,292.22232142857143,299.12857142857143,220.5,292.22232142857143,299.12857142857143,327.1,292.22232142857143,299.12857142857143,427.1,292.22232142857143,299.12857142857143,528.8,292.22232142857143,299.12857142857143,633.3,375.22232142857143,247.12857142857143,751.7,399.22232142857143,219.12857142857143,852.7,495.22232142857143,80.12857142857143,953.4,501.22232142857143,67.12857142857143,1071.8,365.22232142857143,247.12857142857143,1172.5,337.22232142857143,321.12857142857143,1277.2,277.22232142857143,416.12857142857143,1377.2,201.22232142857143,464.12857142857143,1477.9,131.22232142857143,488.12857142857143,1590,108.22232142857143,505.12857142857143,1692.9,88.22232142857143,526.1285714285714,1793.9,83.22232142857143,536.1285714285714,1896.5,73.22232142857143,541.1285714285714,1997.5,56.222321428571426,546.1285714285714,2098,55.222321428571426,546.1285714285714,2200.9,55.222321428571426,546.1285714285714,2301.9,55.222321428571426,546.1285714285714,2403.2,55.222321428571426,546.1285714285714,2503.3,55.222321428571426,546.1285714285714,2621.5,55.222321428571426,546.1285714285714,2726.6,55.222321428571426,546.1285714285714,2829.1,55.222321428571426,546.1285714285714,2937.9,55.222321428571426,546.1285714285714,3038.3,55.222321428571426,546.1285714285714,3143.3,55.222321428571426,546.1285714285714,3247.4,55.222321428571426,546.1285714285714,3347.6,55.222321428571426,546.1285714285714,3447.6,55.222321428571426,546.1285714285714,3547.9,55.222321428571426,546.1285714285714,3651.2,55.222321428571426,546.1285714285714,3752,55.222321428571426,546.1285714285714,3854.1,55.222321428571426,546.1285714285714,3971.6,55.222321428571426,546.1285714285714,4076.4,55.222321428571426,546.1285714285714,4178.4,99.22232142857143,475.12857142857143,4278.6,220.22232142857143,389.12857142857143,4378.7,225.22232142857143,366.12857142857143,4488,225.22232142857143,366.12857142857143,4601.5,225.22232142857143,366.12857142857143,4702.6,225.22232142857143,366.12857142857143,4804,225.22232142857143,366.12857142857143,4908.6]","[1351.7,1351.7,1000,0,351.8,""smooth"",""down"",""down"",""good_move"",4503.7,3151.8,2806.5,1351.9,345.3,""smooth"",""down"",""down"",""good_move"",7096.7,2592.8,2236.7,4503.9,356.1,""smooth"",""left"",""left"",""good_move"",9995.7,2898.8,2538.9,7096.9,359.9,""smooth"",""left"",""left"",""good_move""]","",""
"2283","","<div style=""width:500px;"">
  <p>What determined the result of this run?</p>
  </div>","67","html-slider-response","15","196189","0.0-5.0-1.1","168","1","2025-07-23 07:05:28","1f75c3e559b7213887762d5229550c2b","82.132.236.234","Mozilla/5.0 (Windows NT 10.0; Win64; x64) AppleWebKit/537.36 (KHTML, like Gecko) Chrome/138.0.0.0 Safari/537.36","WebKit","Chrome","138.0.0.0","Windows","10.0","https://app.prolific.com/","en-GB,en-US;q=0.9,en;q=0.8","676054ef296caad582258e02","683dba2a8a9dda3513610c04","6880893bcd9b3a5a0c819e58","3","0","676054ef296caad582258e02","3","0","2025-07-23T07:08:47.827Z","","","","","","","","","","","AttribQ","","50","","","","","","","","","","","","","","","","","","","","","","","","","","","","",""
"1431","","<div style=""width:500px;"">
  <p>How much control did you have over the ball?</p>
  </div>","100","html-slider-response","16","197621","0.0-5.0-2.1","168","1","2025-07-23 07:05:28","1f75c3e559b7213887762d5229550c2b","82.132.236.234","Mozilla/5.0 (Windows NT 10.0; Win64; x64) AppleWebKit/537.36 (KHTML, like Gecko) Chrome/138.0.0.0 Safari/537.36","WebKit","Chrome","138.0.0.0","Windows","10.0","https://app.prolific.com/","en-GB,en-US;q=0.9,en;q=0.8","676054ef296caad582258e02","683dba2a8a9dda3513610c04","6880893bcd9b3a5a0c819e58","3","0","676054ef296caad582258e02","3","0","2025-07-23T07:08:49.259Z","","","","","","","","","","","ControlQ","","50","","","","","","","","","","","","","","","","","","","","","","","","","","","","",""
"1903","","<div style=""width:500px;"">
  <p>How would you describe your current emotional state?</p>
  </div>","50","html-slider-response","17","199525","0.0-5.0-3.1","168","1","2025-07-23 07:05:28","1f75c3e559b7213887762d5229550c2b","82.132.236.234","Mozilla/5.0 (Windows NT 10.0; Win64; x64) AppleWebKit/537.36 (KHTML, like Gecko) Chrome/138.0.0.0 Safari/537.36","WebKit","Chrome","138.0.0.0","Windows","10.0","https://app.prolific.com/","en-GB,en-US;q=0.9,en;q=0.8","676054ef296caad582258e02","683dba2a8a9dda3513610c04","6880893bcd9b3a5a0c819e58","3","0","676054ef296caad582258e02","3","0","2025-07-23T07:08:51.163Z","","","","","","","","","","","StressQ","","50","","","","","","","","","","","","","","","","","","","","","","","","","","","","",""
"1687","","<div style=""width:500px;"">
  <p>What best describes how you currently feel?</p>
  </div>","50","html-slider-response","18","201213","0.0-5.0-4.1","168","1","2025-07-23 07:05:28","1f75c3e559b7213887762d5229550c2b","82.132.236.234","Mozilla/5.0 (Windows NT 10.0; Win64; x64) AppleWebKit/537.36 (KHTML, like Gecko) Chrome/138.0.0.0 Safari/537.36","WebKit","Chrome","138.0.0.0","Windows","10.0","https://app.prolific.com/","en-GB,en-US;q=0.9,en;q=0.8","676054ef296caad582258e02","683dba2a8a9dda3513610c04","6880893bcd9b3a5a0c819e58","3","0","676054ef296caad582258e02","3","0","2025-07-23T07:08:52.851Z","","","","","","","","","","","MotivationQ","","50","","","","","","","","","","","","","","","","","","","","","","","","","","","","",""
"","","","","ctl-task-cpt","19","218532","0.0-5.0-0.2","168","1","2025-07-23 07:05:28","1f75c3e559b7213887762d5229550c2b","82.132.236.234","Mozilla/5.0 (Windows NT 10.0; Win64; x64) AppleWebKit/537.36 (KHTML, like Gecko) Chrome/138.0.0.0 Safari/537.36","WebKit","Chrome","138.0.0.0","Windows","10.0","https://app.prolific.com/","en-GB,en-US;q=0.9,en;q=0.8","676054ef296caad582258e02","683dba2a8a9dda3513610c04","6880893bcd9b3a5a0c819e58","3","0","676054ef296caad582258e02","3","0","2025-07-23T07:09:10.170Z","","","","","","","","","","","","","","win-only","1","g1:NE,g2:SW","0.8","3","0","203089.1","759.9","5761.2","14310.3","1","4","4","6","1","1","1","3","2","0.022727272727272728","1616.2","3000","1665","[""up"",""right""]","{""num_key_presses"":4,""num_perfect"":4,""num_errors"":0,""num_randdir"":0,""num_randdir_good_moves"":0,""num_whilered"":0,""num_whileblue"":0,""num_blue"":0,""num_good_moves"":4}","[298.22232142857143,294.12857142857143,0.2,298.22232142857143,294.12857142857143,100.4,298.22232142857143,294.12857142857143,200.5,280.22232142857143,318.12857142857143,300.5,280.22232142857143,318.12857142857143,406.2,280.22232142857143,318.12857142857143,511.1,280.22232142857143,318.12857142857143,615.7,280.22232142857143,318.12857142857143,715.9,280.22232142857143,318.12857142857143,820.5,280.22232142857143,318.12857142857143,920.5,280.22232142857143,318.12857142857143,1026.9,201.22232142857143,283.12857142857143,1131.1,427.22232142857143,127.12857142857143,1236.8,569.2223214285714,64.12857142857143,1340.5,569.2223214285714,64.12857142857143,1440.5,565.2223214285714,75.12857142857143,1540.5,564.2223214285714,76.12857142857143,1640.6,564.2223214285714,76.12857142857143,1746.2,564.2223214285714,76.12857142857143,1846.4,708.2223214285714,434.12857142857143,1950.3,916.2223214285714,634.1285714285714,2050.8,686.2223214285714,513.1285714285714,2156.9,561.2223214285714,476.12857142857143,2260.8,504.22232142857143,608.1285714285714,2365.8,559.2223214285714,683.1285714285714,2466.4,559.2223214285714,683.1285714285714,2570.3,559.2223214285714,683.1285714285714,2670.3,559.2223214285714,683.1285714285714,2770.3,559.2223214285714,683.1285714285714,2870.4,559.2223214285714,683.1285714285714,2971,559.2223214285714,683.1285714285714,3076.1,559.2223214285714,683.1285714285714,3180.3,559.2223214285714,683.1285714285714,3280.4,559.2223214285714,683.1285714285714,3380.5,560.2223214285714,683.1285714285714,3486.6,560.2223214285714,683.1285714285714,3590.7,560.2223214285714,683.1285714285714,3691.3,560.2223214285714,683.1285714285714,3792,560.2223214285714,683.1285714285714,3896.4,560.2223214285714,683.1285714285714,3996.4,560.2223214285714,683.1285714285714,4100.4,560.2223214285714,683.1285714285714,4206.1,560.2223214285714,683.1285714285714,4306.3,560.2223214285714,683.1285714285714,4410.6,560.2223214285714,683.1285714285714,4516.4,560.2223214285714,683.1285714285714,4616.5,560.2223214285714,683.1285714285714,4721.5,560.2223214285714,683.1285714285714,4826.1,560.2223214285714,683.1285714285714,4930.8]","[1317.9,1317.9,1000,0,317.9,""smooth"",""right"",""right"",""good_move"",3478,2159.8,1805.5,1318.2,354.3,""smooth"",""right"",""right"",""good_move"",6262.1,2783.9,2441.4,3478.2,342.5,""smooth"",""up"",""up"",""good_move"",8454.2,2191.9,1842.5,6262.4,349.3,""smooth"",""up"",""up"",""good_move""]","",""
"3417","","<div style=""width:500px;"">
  <p>What determined the result of this run?</p>
  </div>","59","html-slider-response","20","221949","0.0-5.0-1.2","168","1","2025-07-23 07:05:28","1f75c3e559b7213887762d5229550c2b","82.132.236.234","Mozilla/5.0 (Windows NT 10.0; Win64; x64) AppleWebKit/537.36 (KHTML, like Gecko) Chrome/138.0.0.0 Safari/537.36","WebKit","Chrome","138.0.0.0","Windows","10.0","https://app.prolific.com/","en-GB,en-US;q=0.9,en;q=0.8","676054ef296caad582258e02","683dba2a8a9dda3513610c04","6880893bcd9b3a5a0c819e58","3","0","676054ef296caad582258e02","3","0","2025-07-23T07:09:13.587Z","","","","","","","","","","","AttribQ","","50","","","","","","","","","","","","","","","","","","","","","","","","","","","","",""
"1415","","<div style=""width:500px;"">
  <p>How much control did you have over the ball?</p>
  </div>","100","html-slider-response","21","223365","0.0-5.0-2.2","168","1","2025-07-23 07:05:28","1f75c3e559b7213887762d5229550c2b","82.132.236.234","Mozilla/5.0 (Windows NT 10.0; Win64; x64) AppleWebKit/537.36 (KHTML, like Gecko) Chrome/138.0.0.0 Safari/537.36","WebKit","Chrome","138.0.0.0","Windows","10.0","https://app.prolific.com/","en-GB,en-US;q=0.9,en;q=0.8","676054ef296caad582258e02","683dba2a8a9dda3513610c04","6880893bcd9b3a5a0c819e58","3","0","676054ef296caad582258e02","3","0","2025-07-23T07:09:15.003Z","","","","","","","","","","","ControlQ","","50","","","","","","","","","","","","","","","","","","","","","","","","","","","","",""
"1511","","<div style=""width:500px;"">
  <p>How would you describe your current emotional state?</p>
  </div>","50","html-slider-response","22","224877","0.0-5.0-3.2","168","1","2025-07-23 07:05:28","1f75c3e559b7213887762d5229550c2b","82.132.236.234","Mozilla/5.0 (Windows NT 10.0; Win64; x64) AppleWebKit/537.36 (KHTML, like Gecko) Chrome/138.0.0.0 Safari/537.36","WebKit","Chrome","138.0.0.0","Windows","10.0","https://app.prolific.com/","en-GB,en-US;q=0.9,en;q=0.8","676054ef296caad582258e02","683dba2a8a9dda3513610c04","6880893bcd9b3a5a0c819e58","3","0","676054ef296caad582258e02","3","0","2025-07-23T07:09:16.515Z","","","","","","","","","","","StressQ","","50","","","","","","","","","","","","","","","","","","","","","","","","","","","","",""
"1423","","<div style=""width:500px;"">
  <p>What best describes how you currently feel?</p>
  </div>","50","html-slider-response","23","226301","0.0-5.0-4.2","168","1","2025-07-23 07:05:28","1f75c3e559b7213887762d5229550c2b","82.132.236.234","Mozilla/5.0 (Windows NT 10.0; Win64; x64) AppleWebKit/537.36 (KHTML, like Gecko) Chrome/138.0.0.0 Safari/537.36","WebKit","Chrome","138.0.0.0","Windows","10.0","https://app.prolific.com/","en-GB,en-US;q=0.9,en;q=0.8","676054ef296caad582258e02","683dba2a8a9dda3513610c04","6880893bcd9b3a5a0c819e58","3","0","676054ef296caad582258e02","3","0","2025-07-23T07:09:17.939Z","","","","","","","","","","","MotivationQ","","50","","","","","","","","","","","","","","","","","","","","","","","","","","","","",""
"","","","","ctl-task-cpt","24","261215","0.0-5.0-0.3","168","1","2025-07-23 07:05:28","1f75c3e559b7213887762d5229550c2b","82.132.236.234","Mozilla/5.0 (Windows NT 10.0; Win64; x64) AppleWebKit/537.36 (KHTML, like Gecko) Chrome/138.0.0.0 Safari/537.36","WebKit","Chrome","138.0.0.0","Windows","10.0","https://app.prolific.com/","en-GB,en-US;q=0.9,en;q=0.8","676054ef296caad582258e02","683dba2a8a9dda3513610c04","6880893bcd9b3a5a0c819e58","3","0","676054ef296caad582258e02","3","0","2025-07-23T07:09:52.853Z","","","","","","","","","","","","","","win-only","0","g1:NW,g2:SE","0.7","4","0","228178.1","870.9","5876.5","31906.5","1","4","8","6","1","1","1","4","3","0.030303030303030304","1295.8","3000","895","[""left"",""up""]","{""num_key_presses"":6,""num_perfect"":5,""num_errors"":0,""num_randdir"":1,""num_randdir_good_moves"":0,""num_whilered"":0,""num_whileblue"":0,""num_blue"":3,""num_good_moves"":5}","[294.22232142857143,296.12857142857143,0.2,294.22232142857143,296.12857142857143,100.2,291.22232142857143,292.12857142857143,205.2,291.22232142857143,292.12857142857143,310,291.22232142857143,292.12857142857143,414.5,291.22232142857143,292.12857142857143,515.1,291.22232142857143,292.12857142857143,615.2,291.22232142857143,292.12857142857143,715.3,291.22232142857143,292.12857142857143,815.6,94.22232142857143,172.12857142857143,920.2,-5.777678571428574,80.12857142857143,1020.2,1.2223214285714263,43.128571428571426,1121.1,43.222321428571426,49.128571428571426,1224.6,45.222321428571426,49.128571428571426,1324.9,44.222321428571426,51.128571428571426,1425.5,44.222321428571426,51.128571428571426,1525.5,44.222321428571426,51.128571428571426,1629.5,44.222321428571426,51.128571428571426,1729.7,44.222321428571426,51.128571428571426,1835.3,44.222321428571426,51.128571428571426,1939.6,44.222321428571426,51.128571428571426,2040.9,44.222321428571426,51.128571428571426,2140.9,44.222321428571426,51.128571428571426,2244.6,44.222321428571426,51.128571428571426,2344.6,44.222321428571426,51.128571428571426,2444.7,44.222321428571426,51.128571428571426,2544.8,44.222321428571426,51.128571428571426,2645.8,44.222321428571426,51.128571428571426,2749.6,44.222321428571426,51.128571428571426,2854.9,44.222321428571426,51.128571428571426,2955,44.222321428571426,51.128571428571426,3055.2,44.222321428571426,51.128571428571426,3159.8,44.222321428571426,51.128571428571426,3264.6,44.222321428571426,51.128571428571426,3364.7,44.222321428571426,51.128571428571426,3471,44.222321428571426,51.128571428571426,3574.5,44.222321428571426,51.128571428571426,3675.4,44.222321428571426,51.128571428571426,3775.8,44.222321428571426,51.128571428571426,3879.8,44.222321428571426,51.128571428571426,3985.3,44.222321428571426,51.128571428571426,4089.6,44.222321428571426,51.128571428571426,4190,44.222321428571426,51.128571428571426,4290,44.222321428571426,51.128571428571426,4395.5,44.222321428571426,51.128571428571426,4500.2,44.222321428571426,51.128571428571426,4600.2,44.222321428571426,51.128571428571426,4705.4,44.222321428571426,51.128571428571426,4809.3,44.222321428571426,51.128571428571426,4911.3]","[1297.6,1297.6,1000,0,297.6,""smooth"",""up"",""up"",""good_move"",7889.5,6591.6,2755.7,4770.5,363.3,""oops"",""up"",""right"",""bad_move"",17785.5,9895.7,2161.7,15179.7,444.1,""smooth"",""up"",""up"",""good_move"",20737.7,2952,2630.5,17785.7,321.5,""smooth"",""left"",""left"",""good_move"",23177.6,2439.6,2089.5,20738,350.1,""smooth"",""left"",""left"",""good_move"",25938.3,2760.5,2393.5,23177.8,367,""smooth"",""left"",""left"",""good_move""]","",""
"6158","","<div style=""width:500px;"">
  <p>What determined the result of this run?</p>
  </div>","42","html-slider-response","25","267374","0.0-5.0-1.3","168","1","2025-07-23 07:05:28","1f75c3e559b7213887762d5229550c2b","82.132.236.234","Mozilla/5.0 (Windows NT 10.0; Win64; x64) AppleWebKit/537.36 (KHTML, like Gecko) Chrome/138.0.0.0 Safari/537.36","WebKit","Chrome","138.0.0.0","Windows","10.0","https://app.prolific.com/","en-GB,en-US;q=0.9,en;q=0.8","676054ef296caad582258e02","683dba2a8a9dda3513610c04","6880893bcd9b3a5a0c819e58","3","0","676054ef296caad582258e02","3","0","2025-07-23T07:09:59.012Z","","","","","","","","","","","AttribQ","","50","","","","","","","","","","","","","","","","","","","","","","","","","","","","",""
"3768","","<div style=""width:500px;"">
  <p>How much control did you have over the ball?</p>
  </div>","42","html-slider-response","26","271142","0.0-5.0-2.3","168","1","2025-07-23 07:05:28","1f75c3e559b7213887762d5229550c2b","82.132.236.234","Mozilla/5.0 (Windows NT 10.0; Win64; x64) AppleWebKit/537.36 (KHTML, like Gecko) Chrome/138.0.0.0 Safari/537.36","WebKit","Chrome","138.0.0.0","Windows","10.0","https://app.prolific.com/","en-GB,en-US;q=0.9,en;q=0.8","676054ef296caad582258e02","683dba2a8a9dda3513610c04","6880893bcd9b3a5a0c819e58","3","0","676054ef296caad582258e02","3","0","2025-07-23T07:10:02.780Z","","","","","","","","","","","ControlQ","","50","","","","","","","","","","","","","","","","","","","","","","","","","","","","",""
"1406","","<div style=""width:500px;"">
  <p>How would you describe your current emotional state?</p>
  </div>","50","html-slider-response","27","272549","0.0-5.0-3.3","168","1","2025-07-23 07:05:28","1f75c3e559b7213887762d5229550c2b","82.132.236.234","Mozilla/5.0 (Windows NT 10.0; Win64; x64) AppleWebKit/537.36 (KHTML, like Gecko) Chrome/138.0.0.0 Safari/537.36","WebKit","Chrome","138.0.0.0","Windows","10.0","https://app.prolific.com/","en-GB,en-US;q=0.9,en;q=0.8","676054ef296caad582258e02","683dba2a8a9dda3513610c04","6880893bcd9b3a5a0c819e58","3","0","676054ef296caad582258e02","3","0","2025-07-23T07:10:04.187Z","","","","","","","","","","","StressQ","","50","","","","","","","","","","","","","","","","","","","","","","","","","","","","",""
"1471","","<div style=""width:500px;"">
  <p>What best describes how you currently feel?</p>
  </div>","50","html-slider-response","28","274021","0.0-5.0-4.3","168","1","2025-07-23 07:05:28","1f75c3e559b7213887762d5229550c2b","82.132.236.234","Mozilla/5.0 (Windows NT 10.0; Win64; x64) AppleWebKit/537.36 (KHTML, like Gecko) Chrome/138.0.0.0 Safari/537.36","WebKit","Chrome","138.0.0.0","Windows","10.0","https://app.prolific.com/","en-GB,en-US;q=0.9,en;q=0.8","676054ef296caad582258e02","683dba2a8a9dda3513610c04","6880893bcd9b3a5a0c819e58","3","0","676054ef296caad582258e02","3","0","2025-07-23T07:10:05.659Z","","","","","","","","","","","MotivationQ","","50","","","","","","","","","","","","","","","","","","","","","","","","","","","","",""
"","","","","ctl-task-cpt","29","297025","0.0-5.0-0.4","168","1","2025-07-23 07:05:28","1f75c3e559b7213887762d5229550c2b","82.132.236.234","Mozilla/5.0 (Windows NT 10.0; Win64; x64) AppleWebKit/537.36 (KHTML, like Gecko) Chrome/138.0.0.0 Safari/537.36","WebKit","Chrome","138.0.0.0","Windows","10.0","https://app.prolific.com/","en-GB,en-US;q=0.9,en;q=0.8","676054ef296caad582258e02","683dba2a8a9dda3513610c04","6880893bcd9b3a5a0c819e58","3","0","676054ef296caad582258e02","3","0","2025-07-23T07:10:28.663Z","","","","","","","","","","","","","","win-only","3","g1:SW,g2:NE","0.6","5","0","275898","2608.1","7611.3","19985.2","1","4","8","6","1","1","1","5","4","0.03787878787878788","1678.7","3000","1730","[""down"",""left""]","{""num_key_presses"":4,""num_perfect"":3,""num_errors"":0,""num_randdir"":1,""num_randdir_good_moves"":1,""num_whilered"":0,""num_whileblue"":0,""num_blue"":1,""num_good_moves"":4}","[298.22232142857143,292.12857142857143,0.2,298.22232142857143,292.12857142857143,103,298.22232142857143,292.12857142857143,203,298.22232142857143,292.12857142857143,303.9,298.22232142857143,292.12857142857143,407.9,298.22232142857143,292.12857142857143,512.7,297.22232142857143,293.12857142857143,613.1,263.22232142857143,356.12857142857143,714,218.22232142857143,418.12857142857143,817.3,218.22232142857143,418.12857142857143,917.8,194.22232142857143,422.12857142857143,1023,138.22232142857143,550.1285714285714,1127.4,106.22232142857143,566.1285714285714,1232.9,91.22232142857143,570.1285714285714,1334.1,58.222321428571426,561.1285714285714,1437.7,56.222321428571426,561.1285714285714,1538.2,56.222321428571426,561.1285714285714,1643,56.222321428571426,561.1285714285714,1747.5,56.222321428571426,561.1285714285714,1847.5,56.222321428571426,561.1285714285714,1953.2,56.222321428571426,561.1285714285714,2057.6,56.222321428571426,561.1285714285714,2162.8,56.222321428571426,561.1285714285714,2267.4,56.222321428571426,561.1285714285714,2372.7,56.222321428571426,561.1285714285714,2478.2,56.222321428571426,561.1285714285714,2583.8,56.222321428571426,561.1285714285714,2688,56.222321428571426,561.1285714285714,2788.1,56.222321428571426,561.1285714285714,2892.4,56.222321428571426,561.1285714285714,2993.8,56.222321428571426,561.1285714285714,3097.2,56.222321428571426,561.1285714285714,3197.4,56.222321428571426,561.1285714285714,3298,56.222321428571426,561.1285714285714,3402.9,56.222321428571426,561.1285714285714,3508.3,56.222321428571426,561.1285714285714,3612.7,56.222321428571426,561.1285714285714,3713,56.222321428571426,561.1285714285714,3813.2,56.222321428571426,561.1285714285714,3917.2,56.222321428571426,561.1285714285714,4017.3,56.222321428571426,561.1285714285714,4118,56.222321428571426,561.1285714285714,4219,56.222321428571426,561.1285714285714,4322.8,56.222321428571426,561.1285714285714,4428.6,56.222321428571426,561.1285714285714,4532.3,56.222321428571426,561.1285714285714,4632.8,56.222321428571426,561.1285714285714,4732.9,56.222321428571426,561.1285714285714,4832.9,56.222321428571426,561.1285714285714,4932.9]","[1282.8,1282.8,1000,0,282.8,""smooth"",""left"",""left"",""good_move"",3275,1992,1680.9,1283.1,311,""smooth"",""left"",""left"",""good_move"",5538.7,2263.4,1926.1,3275.3,337.3,""oops"",""down"",""down"",""good_move"",12282.7,6743.7,2696.1,9224.4,362.2,""smooth"",""down"",""down"",""good_move""]","",""
"6564","","<div style=""width:500px;"">
  <p>What determined the result of this run?</p>
  </div>","50","html-slider-response","30","303589","0.0-5.0-1.4","168","1","2025-07-23 07:05:28","1f75c3e559b7213887762d5229550c2b","82.132.236.234","Mozilla/5.0 (Windows NT 10.0; Win64; x64) AppleWebKit/537.36 (KHTML, like Gecko) Chrome/138.0.0.0 Safari/537.36","WebKit","Chrome","138.0.0.0","Windows","10.0","https://app.prolific.com/","en-GB,en-US;q=0.9,en;q=0.8","676054ef296caad582258e02","683dba2a8a9dda3513610c04","6880893bcd9b3a5a0c819e58","3","0","676054ef296caad582258e02","3","0","2025-07-23T07:10:35.227Z","","","","","","","","","","","AttribQ","","50","","","","","","","","","","","","","","","","","","","","","","","","","","","","",""
"4951","","<div style=""width:500px;"">
  <p>How much control did you have over the ball?</p>
  </div>","92","html-slider-response","31","308541","0.0-5.0-2.4","168","1","2025-07-23 07:05:28","1f75c3e559b7213887762d5229550c2b","82.132.236.234","Mozilla/5.0 (Windows NT 10.0; Win64; x64) AppleWebKit/537.36 (KHTML, like Gecko) Chrome/138.0.0.0 Safari/537.36","WebKit","Chrome","138.0.0.0","Windows","10.0","https://app.prolific.com/","en-GB,en-US;q=0.9,en;q=0.8","676054ef296caad582258e02","683dba2a8a9dda3513610c04","6880893bcd9b3a5a0c819e58","3","0","676054ef296caad582258e02","3","0","2025-07-23T07:10:40.179Z","","","","","","","","","","","ControlQ","","50","","","","","","","","","","","","","","","","","","","","","","","","","","","","",""
"1392","","<div style=""width:500px;"">
  <p>How would you describe your current emotional state?</p>
  </div>","50","html-slider-response","32","309934","0.0-5.0-3.4","168","1","2025-07-23 07:05:28","1f75c3e559b7213887762d5229550c2b","82.132.236.234","Mozilla/5.0 (Windows NT 10.0; Win64; x64) AppleWebKit/537.36 (KHTML, like Gecko) Chrome/138.0.0.0 Safari/537.36","WebKit","Chrome","138.0.0.0","Windows","10.0","https://app.prolific.com/","en-GB,en-US;q=0.9,en;q=0.8","676054ef296caad582258e02","683dba2a8a9dda3513610c04","6880893bcd9b3a5a0c819e58","3","0","676054ef296caad582258e02","3","0","2025-07-23T07:10:41.572Z","","","","","","","","","","","StressQ","","50","","","","","","","","","","","","","","","","","","","","","","","","","","","","",""
"1126","","<div style=""width:500px;"">
  <p>What best describes how you currently feel?</p>
  </div>","50","html-slider-response","33","311061","0.0-5.0-4.4","168","1","2025-07-23 07:05:28","1f75c3e559b7213887762d5229550c2b","82.132.236.234","Mozilla/5.0 (Windows NT 10.0; Win64; x64) AppleWebKit/537.36 (KHTML, like Gecko) Chrome/138.0.0.0 Safari/537.36","WebKit","Chrome","138.0.0.0","Windows","10.0","https://app.prolific.com/","en-GB,en-US;q=0.9,en;q=0.8","676054ef296caad582258e02","683dba2a8a9dda3513610c04","6880893bcd9b3a5a0c819e58","3","0","676054ef296caad582258e02","3","0","2025-07-23T07:10:42.699Z","","","","","","","","","","","MotivationQ","","50","","","","","","","","","","","","","","","","","","","","","","","","","","","","",""
"","","","","ctl-task-cpt","34","355622","0.0-5.0-0.5","168","1","2025-07-23 07:05:28","1f75c3e559b7213887762d5229550c2b","82.132.236.234","Mozilla/5.0 (Windows NT 10.0; Win64; x64) AppleWebKit/537.36 (KHTML, like Gecko) Chrome/138.0.0.0 Safari/537.36","WebKit","Chrome","138.0.0.0","Windows","10.0","https://app.prolific.com/","en-GB,en-US;q=0.9,en;q=0.8","676054ef296caad582258e02","683dba2a8a9dda3513610c04","6880893bcd9b3a5a0c819e58","3","0","676054ef296caad582258e02","3","0","2025-07-23T07:11:27.260Z","","","","","","","","","","","","","","win-only","0","g1:NW,g2:SE","0.5","6","0","312937.6","591.2","5591.9","41540.6","1","4","4","6","1","1","1","6","5","0.045454545454545456","1697.1","3000","420","[""left"",""up""]","{""num_key_presses"":8,""num_perfect"":5,""num_errors"":0,""num_randdir"":3,""num_randdir_good_moves"":1,""num_whilered"":0,""num_whileblue"":0,""num_blue"":4,""num_good_moves"":6}","[298.22232142857143,301.12857142857143,0.1,298.22232142857143,301.12857142857143,104.3,302.22232142857143,307.12857142857143,204.4,393.22232142857143,268.12857142857143,304.7,361.22232142857143,323.12857142857143,409.2,332.22232142857143,432.12857142857143,514.9,419.22232142857143,501.12857142857143,620,443.22232142857143,509.12857142857143,724.8,460.22232142857143,509.12857142857143,829.3,301.22232142857143,317.12857142857143,930.1,100.22232142857143,121.12857142857143,1035.2,85.22232142857143,69.12857142857143,1140,84.22232142857143,63.128571428571426,1244.2,75.22232142857143,50.128571428571426,1344.8,74.22232142857143,48.128571428571426,1445.2,74.22232142857143,48.128571428571426,1549.6,74.22232142857143,48.128571428571426,1650.6,74.22232142857143,48.128571428571426,1754.4,85.22232142857143,62.128571428571426,1854.5,277.22232142857143,187.12857142857143,1954.7,327.22232142857143,202.12857142857143,2059.4,375.22232142857143,224.12857142857143,2159.9,435.22232142857143,232.12857142857143,2259.9,498.22232142857143,183.12857142857143,2364.5,498.22232142857143,183.12857142857143,2469.9,498.22232142857143,183.12857142857143,2575,498.22232142857143,183.12857142857143,2679.1,498.22232142857143,183.12857142857143,2779.9,498.22232142857143,183.12857142857143,2880,498.22232142857143,183.12857142857143,2980.1,498.22232142857143,183.12857142857143,3085.2,498.22232142857143,183.12857142857143,3189.1,498.22232142857143,183.12857142857143,3289.6,498.22232142857143,183.12857142857143,3389.8,498.22232142857143,183.12857142857143,3489.8,498.22232142857143,183.12857142857143,3590.8,498.22232142857143,183.12857142857143,3695.2,498.22232142857143,183.12857142857143,3799.5,498.22232142857143,183.12857142857143,3899.6,498.22232142857143,183.12857142857143,3999.8,498.22232142857143,183.12857142857143,4104.5,498.22232142857143,183.12857142857143,4204.7,498.22232142857143,183.12857142857143,4309.3,498.22232142857143,183.12857142857143,4410.4,498.22232142857143,183.12857142857143,4513.9,498.22232142857143,183.12857142857143,4613.9,498.22232142857143,183.12857142857143,4715,498.22232142857143,183.12857142857143,4815,498.22232142857143,183.12857142857143,4919.3]","[1342.6,1342.6,1000,0,342.6,""smooth"",""up"",""up"",""good_move"",14510.6,13167.7,2143.1,11989.1,378.4,""oops"",""up"",""down"",""bad_move"",21286.2,6775.3,2045.8,18904.4,336,""smooth"",""up"",""up"",""good_move"",24014.4,2727.9,2385.8,21286.5,342.1,""smooth"",""up"",""up"",""good_move"",26758.6,2744,2423.5,24014.6,320.5,""oops"",""left"",""down"",""bad_move"",30062.5,3303.7,3021,26758.8,282.7,""oops"",""left"",""left"",""good_move"",32902.2,2839.4,2566.2,30062.8,273.2,""smooth"",""left"",""left"",""good_move"",35862.3,2959.9,2621.6,32902.4,338.3,""smooth"",""up"",""up"",""good_move""]","",""
"2982","","<div style=""width:500px;"">
  <p>What determined the result of this run?</p>
  </div>","50","html-slider-response","35","358605","0.0-5.0-1.5","168","1","2025-07-23 07:05:28","1f75c3e559b7213887762d5229550c2b","82.132.236.234","Mozilla/5.0 (Windows NT 10.0; Win64; x64) AppleWebKit/537.36 (KHTML, like Gecko) Chrome/138.0.0.0 Safari/537.36","WebKit","Chrome","138.0.0.0","Windows","10.0","https://app.prolific.com/","en-GB,en-US;q=0.9,en;q=0.8","676054ef296caad582258e02","683dba2a8a9dda3513610c04","6880893bcd9b3a5a0c819e58","3","0","676054ef296caad582258e02","3","0","2025-07-23T07:11:30.243Z","","","","","","","","","","","AttribQ","","50","","","","","","","","","","","","","","","","","","","","","","","","","","","","",""
"2087","","<div style=""width:500px;"">
  <p>How much control did you have over the ball?</p>
  </div>","52","html-slider-response","36","360693","0.0-5.0-2.5","168","1","2025-07-23 07:05:28","1f75c3e559b7213887762d5229550c2b","82.132.236.234","Mozilla/5.0 (Windows NT 10.0; Win64; x64) AppleWebKit/537.36 (KHTML, like Gecko) Chrome/138.0.0.0 Safari/537.36","WebKit","Chrome","138.0.0.0","Windows","10.0","https://app.prolific.com/","en-GB,en-US;q=0.9,en;q=0.8","676054ef296caad582258e02","683dba2a8a9dda3513610c04","6880893bcd9b3a5a0c819e58","3","0","676054ef296caad582258e02","3","0","2025-07-23T07:11:32.331Z","","","","","","","","","","","ControlQ","","50","","","","","","","","","","","","","","","","","","","","","","","","","","","","",""
"1000","","<div style=""width:500px;"">
  <p>How would you describe your current emotional state?</p>
  </div>","50","html-slider-response","37","361693","0.0-5.0-3.5","168","1","2025-07-23 07:05:28","1f75c3e559b7213887762d5229550c2b","82.132.236.234","Mozilla/5.0 (Windows NT 10.0; Win64; x64) AppleWebKit/537.36 (KHTML, like Gecko) Chrome/138.0.0.0 Safari/537.36","WebKit","Chrome","138.0.0.0","Windows","10.0","https://app.prolific.com/","en-GB,en-US;q=0.9,en;q=0.8","676054ef296caad582258e02","683dba2a8a9dda3513610c04","6880893bcd9b3a5a0c819e58","3","0","676054ef296caad582258e02","3","0","2025-07-23T07:11:33.331Z","","","","","","","","","","","StressQ","","50","","","","","","","","","","","","","","","","","","","","","","","","","","","","",""
"1223","","<div style=""width:500px;"">
  <p>What best describes how you currently feel?</p>
  </div>","50","html-slider-response","38","362917","0.0-5.0-4.5","168","1","2025-07-23 07:05:28","1f75c3e559b7213887762d5229550c2b","82.132.236.234","Mozilla/5.0 (Windows NT 10.0; Win64; x64) AppleWebKit/537.36 (KHTML, like Gecko) Chrome/138.0.0.0 Safari/537.36","WebKit","Chrome","138.0.0.0","Windows","10.0","https://app.prolific.com/","en-GB,en-US;q=0.9,en;q=0.8","676054ef296caad582258e02","683dba2a8a9dda3513610c04","6880893bcd9b3a5a0c819e58","3","0","676054ef296caad582258e02","3","0","2025-07-23T07:11:34.555Z","","","","","","","","","","","MotivationQ","","50","","","","","","","","","","","","","","","","","","","","","","","","","","","","",""
"","","","","ctl-task-cpt","39","381518","0.0-5.0-0.6","168","1","2025-07-23 07:05:28","1f75c3e559b7213887762d5229550c2b","82.132.236.234","Mozilla/5.0 (Windows NT 10.0; Win64; x64) AppleWebKit/537.36 (KHTML, like Gecko) Chrome/138.0.0.0 Safari/537.36","WebKit","Chrome","138.0.0.0","Windows","10.0","https://app.prolific.com/","en-GB,en-US;q=0.9,en;q=0.8","676054ef296caad582258e02","683dba2a8a9dda3513610c04","6880893bcd9b3a5a0c819e58","3","0","676054ef296caad582258e02","3","0","2025-07-23T07:11:53.156Z","","","","","","","","","","","","","","win-only","2","g1:SE,g2:NW","0.4","7","0","364793.5","655.2","5655.6","15583.3","1","4","8","6","1","1","1","7","6","0.05303030303030303","1127.9","3000","1695","[""down"",""right""]","{""num_key_presses"":4,""num_perfect"":2,""num_errors"":0,""num_randdir"":2,""num_randdir_good_moves"":2,""num_whilered"":0,""num_whileblue"":0,""num_blue"":0,""num_good_moves"":4}","[301.22232142857143,291.12857142857143,0,301.22232142857143,291.12857142857143,100.3,320.22232142857143,254.12857142857143,200.8,361.22232142857143,201.12857142857143,300.9,359.22232142857143,185.12857142857143,400.9,334.22232142857143,452.12857142857143,505.4,460.22232142857143,534.1285714285714,611.5,465.22232142857143,512.1285714285714,712,489.22232142857143,522.1285714285714,815.4,511.22232142857143,537.1285714285714,920.8,522.2223214285714,547.1285714285714,1025.7,529.2223214285714,551.1285714285714,1143.2,529.2223214285714,551.1285714285714,1246.9,483.22232142857143,514.1285714285714,1350.8,387.22232142857143,477.12857142857143,1451.1,358.22232142857143,491.12857142857143,1555.1,301.22232142857143,483.12857142857143,1655.5,319.22232142857143,510.12857142857143,1756.3,358.22232142857143,635.1285714285714,1860.1,360.22232142857143,633.1285714285714,1965.4,360.22232142857143,633.1285714285714,2065.4,360.22232142857143,633.1285714285714,2170,360.22232142857143,633.1285714285714,2270.9,360.22232142857143,633.1285714285714,2371.2,360.22232142857143,633.1285714285714,2474.9,360.22232142857143,633.1285714285714,2574.9,360.22232142857143,633.1285714285714,2677,360.22232142857143,633.1285714285714,2780.7,360.22232142857143,633.1285714285714,2885.4,360.22232142857143,633.1285714285714,2986,360.22232142857143,633.1285714285714,3086.4,360.22232142857143,633.1285714285714,3190.1,360.22232142857143,633.1285714285714,3290.8,360.22232142857143,633.1285714285714,3396.4,360.22232142857143,633.1285714285714,3500.9,360.22232142857143,633.1285714285714,3605.9,360.22232142857143,633.1285714285714,3711.6,360.22232142857143,633.1285714285714,3815,360.22232142857143,633.1285714285714,3915.4,360.22232142857143,633.1285714285714,4020.2,360.22232142857143,633.1285714285714,4126.7,360.22232142857143,633.1285714285714,4230.5,360.22232142857143,633.1285714285714,4335.7,360.22232142857143,633.1285714285714,4436.3,360.22232142857143,633.1285714285714,4540,360.22232142857143,633.1285714285714,4640.5,360.22232142857143,633.1285714285714,4746,360.22232142857143,633.1285714285714,4850.2,360.22232142857143,633.1285714285714,4955.1]","[1302.7,1302.7,1000,0,302.7,""smooth"",""right"",""right"",""good_move"",3846.8,2543.8,2189,1303.1,354.7,""smooth"",""right"",""right"",""good_move"",6790.9,2943.9,2624.5,3847,319.4,""oops"",""down"",""down"",""good_move"",9838.9,3047.8,2697.7,6791.1,350.1,""oops"",""down"",""down"",""good_move""]","",""
"4534","","<div style=""width:500px;"">
  <p>What determined the result of this run?</p>
  </div>","57","html-slider-response","40","386053","0.0-5.0-1.6","168","1","2025-07-23 07:05:28","1f75c3e559b7213887762d5229550c2b","82.132.236.234","Mozilla/5.0 (Windows NT 10.0; Win64; x64) AppleWebKit/537.36 (KHTML, like Gecko) Chrome/138.0.0.0 Safari/537.36","WebKit","Chrome","138.0.0.0","Windows","10.0","https://app.prolific.com/","en-GB,en-US;q=0.9,en;q=0.8","676054ef296caad582258e02","683dba2a8a9dda3513610c04","6880893bcd9b3a5a0c819e58","3","0","676054ef296caad582258e02","3","0","2025-07-23T07:11:57.691Z","","","","","","","","","","","AttribQ","","50","","","","","","","","","","","","","","","","","","","","","","","","","","","","",""
"2616","","<div style=""width:500px;"">
  <p>How much control did you have over the ball?</p>
  </div>","91","html-slider-response","41","388669","0.0-5.0-2.6","168","1","2025-07-23 07:05:28","1f75c3e559b7213887762d5229550c2b","82.132.236.234","Mozilla/5.0 (Windows NT 10.0; Win64; x64) AppleWebKit/537.36 (KHTML, like Gecko) Chrome/138.0.0.0 Safari/537.36","WebKit","Chrome","138.0.0.0","Windows","10.0","https://app.prolific.com/","en-GB,en-US;q=0.9,en;q=0.8","676054ef296caad582258e02","683dba2a8a9dda3513610c04","6880893bcd9b3a5a0c819e58","3","0","676054ef296caad582258e02","3","0","2025-07-23T07:12:00.307Z","","","","","","","","","","","ControlQ","","50","","","","","","","","","","","","","","","","","","","","","","","","","","","","",""
"1199","","<div style=""width:500px;"">
  <p>How would you describe your current emotional state?</p>
  </div>","49","html-slider-response","42","389869","0.0-5.0-3.6","168","1","2025-07-23 07:05:28","1f75c3e559b7213887762d5229550c2b","82.132.236.234","Mozilla/5.0 (Windows NT 10.0; Win64; x64) AppleWebKit/537.36 (KHTML, like Gecko) Chrome/138.0.0.0 Safari/537.36","WebKit","Chrome","138.0.0.0","Windows","10.0","https://app.prolific.com/","en-GB,en-US;q=0.9,en;q=0.8","676054ef296caad582258e02","683dba2a8a9dda3513610c04","6880893bcd9b3a5a0c819e58","3","0","676054ef296caad582258e02","3","0","2025-07-23T07:12:01.507Z","","","","","","","","","","","StressQ","","50","","","","","","","","","","","","","","","","","","","","","","","","","","","","",""
"1215","","<div style=""width:500px;"">
  <p>What best describes how you currently feel?</p>
  </div>","50","html-slider-response","43","391085","0.0-5.0-4.6","168","1","2025-07-23 07:05:28","1f75c3e559b7213887762d5229550c2b","82.132.236.234","Mozilla/5.0 (Windows NT 10.0; Win64; x64) AppleWebKit/537.36 (KHTML, like Gecko) Chrome/138.0.0.0 Safari/537.36","WebKit","Chrome","138.0.0.0","Windows","10.0","https://app.prolific.com/","en-GB,en-US;q=0.9,en;q=0.8","676054ef296caad582258e02","683dba2a8a9dda3513610c04","6880893bcd9b3a5a0c819e58","3","0","676054ef296caad582258e02","3","0","2025-07-23T07:12:02.723Z","","","","","","","","","","","MotivationQ","","50","","","","","","","","","","","","","","","","","","","","","","","","","","","","",""
"","","","","ctl-task-cpt","44","428560","0.0-5.0-0.7","168","1","2025-07-23 07:05:28","1f75c3e559b7213887762d5229550c2b","82.132.236.234","Mozilla/5.0 (Windows NT 10.0; Win64; x64) AppleWebKit/537.36 (KHTML, like Gecko) Chrome/138.0.0.0 Safari/537.36","WebKit","Chrome","138.0.0.0","Windows","10.0","https://app.prolific.com/","en-GB,en-US;q=0.9,en;q=0.8","676054ef296caad582258e02","683dba2a8a9dda3513610c04","6880893bcd9b3a5a0c819e58","3","0","676054ef296caad582258e02","3","0","2025-07-23T07:12:40.198Z","","","","","","","","","","","","","","win-only","3","g1:SW,g2:NE","0.3","8","0","392961.8","894.9","5896.1","34455.9","1","4","4","6","1","1","1","8","7","0.06060606060606061","1279.9","3000","440","[""down"",""left""]","{""num_key_presses"":8,""num_perfect"":3,""num_errors"":0,""num_randdir"":5,""num_randdir_good_moves"":3,""num_whilered"":0,""num_whileblue"":0,""num_blue"":2,""num_good_moves"":6}","[294.22232142857143,297.12857142857143,0.1,294.22232142857143,297.12857142857143,101.4,294.22232142857143,297.12857142857143,213.4,294.22232142857143,297.12857142857143,315.7,353.22232142857143,222.12857142857143,420.5,423.22232142857143,179.12857142857143,521.4,520.2223214285714,97.12857142857143,630.4,537.2223214285714,76.12857142857143,731.2,490.22232142857143,124.12857142857143,836.2,153.22232142857143,444.12857142857143,936.2,105.22232142857143,498.12857142857143,1044,92.22232142857143,516.1285714285714,1146.5,66.22232142857143,550.1285714285714,1250.3,51.222321428571426,557.1285714285714,1350.7,60.222321428571426,555.1285714285714,1455.8,129.22232142857143,539.1285714285714,1561.5,149.22232142857143,541.1285714285714,1666.2,149.22232142857143,541.1285714285714,1766.3,149.22232142857143,541.1285714285714,1866.5,149.22232142857143,541.1285714285714,1966.7,149.22232142857143,541.1285714285714,2070.4,149.22232142857143,541.1285714285714,2170.6,149.22232142857143,541.1285714285714,2271,149.22232142857143,541.1285714285714,2376.1,149.22232142857143,541.1285714285714,2478.4,149.22232142857143,541.1285714285714,2581.3,149.22232142857143,541.1285714285714,2686.8,149.22232142857143,541.1285714285714,2793.9,149.22232142857143,541.1285714285714,2894.7,149.22232142857143,541.1285714285714,2994.9,149.22232142857143,541.1285714285714,3095.3,149.22232142857143,541.1285714285714,3196.6,149.22232142857143,541.1285714285714,3302,149.22232142857143,541.1285714285714,3410,149.22232142857143,541.1285714285714,3511.1,149.22232142857143,541.1285714285714,3616.1,149.22232142857143,541.1285714285714,3720.4,149.22232142857143,541.1285714285714,3821.5,149.22232142857143,541.1285714285714,3926.1,149.22232142857143,541.1285714285714,4028.6,149.22232142857143,541.1285714285714,4128.8,149.22232142857143,541.1285714285714,4231.2,149.22232142857143,541.1285714285714,4350.1,149.22232142857143,541.1285714285714,4450.8,149.22232142857143,541.1285714285714,4559.2,149.22232142857143,541.1285714285714,4659.5,149.22232142857143,541.1285714285714,4760.5,149.22232142857143,541.1285714285714,4865.5,149.22232142857143,541.1285714285714,4965.9]","[5538.1,5538.1,3138.8,2009,390.3,""oops"",""down"",""down"",""good_move"",12253.8,6715.3,2592.7,9288.2,372.9,""oops"",""down"",""up"",""bad_move"",15605.9,3351.9,2999.8,12254,352.1,""smooth"",""down"",""down"",""good_move"",18557.9,2951.8,2639,15606.1,312.8,""oops"",""down"",""left"",""good_move"",21317.8,2759.7,2417.2,18558.2,342.5,""oops"",""down"",""left"",""good_move"",23717.8,2399.7,2064.7,21318.1,335,""oops"",""down"",""right"",""bad_move"",26590.1,2872,2596.8,23718.1,275.2,""smooth"",""down"",""down"",""good_move"",28469.9,1879.5,1500.2,26590.4,379.3,""smooth"",""left"",""left"",""good_move""]","",""
"2948","","<div style=""width:500px;"">
  <p>What determined the result of this run?</p>
  </div>","24","html-slider-response","45","431509","0.0-5.0-1.7","168","1","2025-07-23 07:05:28","1f75c3e559b7213887762d5229550c2b","82.132.236.234","Mozilla/5.0 (Windows NT 10.0; Win64; x64) AppleWebKit/537.36 (KHTML, like Gecko) Chrome/138.0.0.0 Safari/537.36","WebKit","Chrome","138.0.0.0","Windows","10.0","https://app.prolific.com/","en-GB,en-US;q=0.9,en;q=0.8","676054ef296caad582258e02","683dba2a8a9dda3513610c04","6880893bcd9b3a5a0c819e58","3","0","676054ef296caad582258e02","3","0","2025-07-23T07:12:43.147Z","","","","","","","","","","","AttribQ","","50","","","","","","","","","","","","","","","","","","","","","","","","","","","","",""
"4023","","<div style=""width:500px;"">
  <p>How much control did you have over the ball?</p>
  </div>","15","html-slider-response","46","435533","0.0-5.0-2.7","168","1","2025-07-23 07:05:28","1f75c3e559b7213887762d5229550c2b","82.132.236.234","Mozilla/5.0 (Windows NT 10.0; Win64; x64) AppleWebKit/537.36 (KHTML, like Gecko) Chrome/138.0.0.0 Safari/537.36","WebKit","Chrome","138.0.0.0","Windows","10.0","https://app.prolific.com/","en-GB,en-US;q=0.9,en;q=0.8","676054ef296caad582258e02","683dba2a8a9dda3513610c04","6880893bcd9b3a5a0c819e58","3","0","676054ef296caad582258e02","3","0","2025-07-23T07:12:47.171Z","","","","","","","","","","","ControlQ","","50","","","","","","","","","","","","","","","","","","","","","","","","","","","","",""
"1744","","<div style=""width:500px;"">
  <p>How would you describe your current emotional state?</p>
  </div>","50","html-slider-response","47","437277","0.0-5.0-3.7","168","1","2025-07-23 07:05:28","1f75c3e559b7213887762d5229550c2b","82.132.236.234","Mozilla/5.0 (Windows NT 10.0; Win64; x64) AppleWebKit/537.36 (KHTML, like Gecko) Chrome/138.0.0.0 Safari/537.36","WebKit","Chrome","138.0.0.0","Windows","10.0","https://app.prolific.com/","en-GB,en-US;q=0.9,en;q=0.8","676054ef296caad582258e02","683dba2a8a9dda3513610c04","6880893bcd9b3a5a0c819e58","3","0","676054ef296caad582258e02","3","0","2025-07-23T07:12:48.916Z","","","","","","","","","","","StressQ","","50","","","","","","","","","","","","","","","","","","","","","","","","","","","","",""
"1382","","<div style=""width:500px;"">
  <p>What best describes how you currently feel?</p>
  </div>","50","html-slider-response","48","438661","0.0-5.0-4.7","168","1","2025-07-23 07:05:28","1f75c3e559b7213887762d5229550c2b","82.132.236.234","Mozilla/5.0 (Windows NT 10.0; Win64; x64) AppleWebKit/537.36 (KHTML, like Gecko) Chrome/138.0.0.0 Safari/537.36","WebKit","Chrome","138.0.0.0","Windows","10.0","https://app.prolific.com/","en-GB,en-US;q=0.9,en;q=0.8","676054ef296caad582258e02","683dba2a8a9dda3513610c04","6880893bcd9b3a5a0c819e58","3","0","676054ef296caad582258e02","3","0","2025-07-23T07:12:50.299Z","","","","","","","","","","","MotivationQ","","50","","","","","","","","","","","","","","","","","","","","","","","","","","","","",""
"","","","","ctl-task-cpt","49","493583","0.0-5.0-0.8","168","1","2025-07-23 07:05:28","1f75c3e559b7213887762d5229550c2b","82.132.236.234","Mozilla/5.0 (Windows NT 10.0; Win64; x64) AppleWebKit/537.36 (KHTML, like Gecko) Chrome/138.0.0.0 Safari/537.36","WebKit","Chrome","138.0.0.0","Windows","10.0","https://app.prolific.com/","en-GB,en-US;q=0.9,en;q=0.8","676054ef296caad582258e02","683dba2a8a9dda3513610c04","6880893bcd9b3a5a0c819e58","3","0","676054ef296caad582258e02","3","0","2025-07-23T07:13:45.221Z","","","","","","","","","","","","","","win-only","0","g1:NW,g2:SE","0.2","9","0","440537.3","1336.2","6340.7","51900.8","1","4","4","6","1","-1","-2","6","8","0.045454545454545456","998.9","3000","-3015","[""left"",""up""]","{""num_key_presses"":9,""num_perfect"":0,""num_errors"":1,""num_randdir"":8,""num_randdir_good_moves"":4,""num_whilered"":0,""num_whileblue"":1,""num_blue"":6,""num_good_moves"":5}","[299.22232142857143,288.12857142857143,0.2,299.22232142857143,288.12857142857143,110,299.22232142857143,288.12857142857143,214.4,348.22232142857143,251.12857142857143,315.7,354.22232142857143,194.12857142857143,419.4,198.22232142857143,208.12857142857143,519.8,-6.777678571428574,80.12857142857143,620.4,-55.777678571428574,34.128571428571426,720.5,-31.777678571428574,35.128571428571426,824.9,46.222321428571426,48.128571428571426,927.7,49.222321428571426,48.128571428571426,1029,49.222321428571426,48.128571428571426,1129.5,373.22232142857143,222.12857142857143,1230.1,975.2223214285714,562.1285714285714,1334.5,975.2223214285714,602.1285714285714,1442.5,975.2223214285714,602.1285714285714,1542.8,975.2223214285714,602.1285714285714,1643.5,975.2223214285714,602.1285714285714,1744.5,975.2223214285714,602.1285714285714,1845.5,975.2223214285714,602.1285714285714,1945.5,975.2223214285714,602.1285714285714,2049.5,975.2223214285714,602.1285714285714,2160.3,975.2223214285714,602.1285714285714,2264.6,975.2223214285714,602.1285714285714,2369.8,975.2223214285714,602.1285714285714,2475.5,975.2223214285714,602.1285714285714,2579.2,975.2223214285714,602.1285714285714,2679.6,975.2223214285714,602.1285714285714,2779.9,975.2223214285714,602.1285714285714,2884.2,975.2223214285714,602.1285714285714,2984.8,975.2223214285714,602.1285714285714,3084.8,975.2223214285714,602.1285714285714,3192.2,975.2223214285714,602.1285714285714,3292.4,975.2223214285714,602.1285714285714,3395.4,975.2223214285714,602.1285714285714,3495.5,975.2223214285714,602.1285714285714,3599.5,975.2223214285714,602.1285714285714,3708.3,975.2223214285714,602.1285714285714,3808.6,975.2223214285714,602.1285714285714,3909.7,975.2223214285714,602.1285714285714,4015.6,975.2223214285714,602.1285714285714,4119,975.2223214285714,602.1285714285714,4225.3,975.2223214285714,602.1285714285714,4329.5,975.2223214285714,602.1285714285714,4434.9,975.2223214285714,602.1285714285714,4541.7,975.2223214285714,602.1285714285714,4645.4,975.2223214285714,602.1285714285714,4750.6,975.2223214285714,602.1285714285714,4855.1,975.2223214285714,602.1285714285714,4955.1]","[1289.8,1289.8,1000.9,0,288.9,""while_blue"",""up"",""left"",""good_move"",3697.5,2407.3,1924.9,1290.2,482.4,""oops"",""up"",""right"",""bad_move"",17058,13360.2,2703.6,14004.8,349.6,""oops"",""up"",""left"",""good_move"",23969.7,6911.4,3019.1,20544.7,405.9,""oops"",""up"",""up"",""good_move"",27353.6,3383.7,3040.6,23969.9,343.1,""oops"",""up"",""right"",""bad_move"",30588.3,3234.4,2924.8,27353.9,309.6,""oops"",""up"",""left"",""good_move"",33785.5,3197,2832.2,30588.5,364.8,""oops"",""up"",""up"",""good_move"",36457.6,2671.8,2340,33785.8,331.8,""oops"",""left"",""right"",""bad_move"",43033.6,6575.8,2906.3,39825.3,302,""oops"",""left"",""right"",""bad_move""]","",""
"6557","","<div style=""width:500px;"">
  <p>What determined the result of this run?</p>
  </div>","49","html-slider-response","50","500141","0.0-5.0-1.8","168","1","2025-07-23 07:05:28","1f75c3e559b7213887762d5229550c2b","82.132.236.234","Mozilla/5.0 (Windows NT 10.0; Win64; x64) AppleWebKit/537.36 (KHTML, like Gecko) Chrome/138.0.0.0 Safari/537.36","WebKit","Chrome","138.0.0.0","Windows","10.0","https://app.prolific.com/","en-GB,en-US;q=0.9,en;q=0.8","676054ef296caad582258e02","683dba2a8a9dda3513610c04","6880893bcd9b3a5a0c819e58","3","0","676054ef296caad582258e02","3","0","2025-07-23T07:13:51.779Z","","","","","","","","","","","AttribQ","","50","","","","","","","","","","","","","","","","","","","","","","","","","","","","",""
"2015","","<div style=""width:500px;"">
  <p>How much control did you have over the ball?</p>
  </div>","0","html-slider-response","51","502157","0.0-5.0-2.8","168","1","2025-07-23 07:05:28","1f75c3e559b7213887762d5229550c2b","82.132.236.234","Mozilla/5.0 (Windows NT 10.0; Win64; x64) AppleWebKit/537.36 (KHTML, like Gecko) Chrome/138.0.0.0 Safari/537.36","WebKit","Chrome","138.0.0.0","Windows","10.0","https://app.prolific.com/","en-GB,en-US;q=0.9,en;q=0.8","676054ef296caad582258e02","683dba2a8a9dda3513610c04","6880893bcd9b3a5a0c819e58","3","0","676054ef296caad582258e02","3","0","2025-07-23T07:13:53.795Z","","","","","","","","","","","ControlQ","","50","","","","","","","","","","","","","","","","","","","","","","","","","","","","",""
"1320","","<div style=""width:500px;"">
  <p>How would you describe your current emotional state?</p>
  </div>","50","html-slider-response","52","503477","0.0-5.0-3.8","168","1","2025-07-23 07:05:28","1f75c3e559b7213887762d5229550c2b","82.132.236.234","Mozilla/5.0 (Windows NT 10.0; Win64; x64) AppleWebKit/537.36 (KHTML, like Gecko) Chrome/138.0.0.0 Safari/537.36","WebKit","Chrome","138.0.0.0","Windows","10.0","https://app.prolific.com/","en-GB,en-US;q=0.9,en;q=0.8","676054ef296caad582258e02","683dba2a8a9dda3513610c04","6880893bcd9b3a5a0c819e58","3","0","676054ef296caad582258e02","3","0","2025-07-23T07:13:55.115Z","","","","","","","","","","","StressQ","","50","","","","","","","","","","","","","","","","","","","","","","","","","","","","",""
"1167","","<div style=""width:500px;"">
  <p>What best describes how you currently feel?</p>
  </div>","50","html-slider-response","53","504645","0.0-5.0-4.8","168","1","2025-07-23 07:05:28","1f75c3e559b7213887762d5229550c2b","82.132.236.234","Mozilla/5.0 (Windows NT 10.0; Win64; x64) AppleWebKit/537.36 (KHTML, like Gecko) Chrome/138.0.0.0 Safari/537.36","WebKit","Chrome","138.0.0.0","Windows","10.0","https://app.prolific.com/","en-GB,en-US;q=0.9,en;q=0.8","676054ef296caad582258e02","683dba2a8a9dda3513610c04","6880893bcd9b3a5a0c819e58","3","0","676054ef296caad582258e02","3","0","2025-07-23T07:13:56.283Z","","","","","","","","","","","MotivationQ","","50","","","","","","","","","","","","","","","","","","","","","","","","","","","","",""
"","","","","ctl-task-cpt","54","525340","0.0-5.0-0.9","168","1","2025-07-23 07:05:28","1f75c3e559b7213887762d5229550c2b","82.132.236.234","Mozilla/5.0 (Windows NT 10.0; Win64; x64) AppleWebKit/537.36 (KHTML, like Gecko) Chrome/138.0.0.0 Safari/537.36","WebKit","Chrome","138.0.0.0","Windows","10.0","https://app.prolific.com/","en-GB,en-US;q=0.9,en;q=0.8","676054ef296caad582258e02","683dba2a8a9dda3513610c04","6880893bcd9b3a5a0c819e58","3","0","676054ef296caad582258e02","3","0","2025-07-23T07:14:16.978Z","","","","","","","","","","","","","","win-only","3","g1:SW,g2:NE","0.4","10","0","506521.4","1455.1","6455.6","17677.2","1","4","8","6","1","1","1","7","6","0.05303030303030303","855.8","3000","1670","[""down"",""left""]","{""num_key_presses"":4,""num_perfect"":1,""num_errors"":0,""num_randdir"":3,""num_randdir_good_moves"":3,""num_whilered"":0,""num_whileblue"":0,""num_blue"":0,""num_good_moves"":4}","[296.22232142857143,300.12857142857143,0.2,296.22232142857143,300.12857142857143,100.7,296.22232142857143,300.12857142857143,201.1,296.22232142857143,300.12857142857143,305.2,304.22232142857143,299.12857142857143,406.6,161.22232142857143,399.12857142857143,512.9,105.22232142857143,448.12857142857143,616.1,83.22232142857143,475.12857142857143,720.8,62.222321428571426,521.1285714285714,821.5,59.222321428571426,526.1285714285714,925.7,122.22232142857143,489.12857142857143,1030.4,176.22232142857143,563.1285714285714,1131.3,581.2223214285714,683.1285714285714,1231.6,584.2223214285714,683.1285714285714,1336.7,584.2223214285714,683.1285714285714,1441.7,584.2223214285714,683.1285714285714,1545.1,584.2223214285714,683.1285714285714,1646,584.2223214285714,683.1285714285714,1747,584.2223214285714,683.1285714285714,1850.5,584.2223214285714,683.1285714285714,1955.7,584.2223214285714,683.1285714285714,2061,584.2223214285714,683.1285714285714,2165.9,584.2223214285714,683.1285714285714,2268.8,584.2223214285714,683.1285714285714,2370.2,584.2223214285714,683.1285714285714,2470.7,584.2223214285714,683.1285714285714,2571,584.2223214285714,683.1285714285714,2675.1,584.2223214285714,683.1285714285714,2775.2,584.2223214285714,683.1285714285714,2880.8,584.2223214285714,683.1285714285714,2986.2,584.2223214285714,683.1285714285714,3086.7,584.2223214285714,683.1285714285714,3190.6,584.2223214285714,683.1285714285714,3296.4,584.2223214285714,683.1285714285714,3400.6,584.2223214285714,683.1285714285714,3500.8,584.2223214285714,683.1285714285714,3600.9,584.2223214285714,683.1285714285714,3701,584.2223214285714,683.1285714285714,3801.1,584.2223214285714,683.1285714285714,3905.7,584.2223214285714,683.1285714285714,4010.5,584.2223214285714,683.1285714285714,4111.3,584.2223214285714,683.1285714285714,4211.8,584.2223214285714,683.1285714285714,4316,584.2223214285714,683.1285714285714,4421.1,584.2223214285714,683.1285714285714,4527,584.2223214285714,683.1285714285714,4630.5,584.2223214285714,683.1285714285714,4735.8,584.2223214285714,683.1285714285714,4840.2,584.2223214285714,683.1285714285714,4946.2]","[1326.5,1326.5,1000,0,326.5,""smooth"",""down"",""down"",""good_move"",4518.3,3191.7,2829.2,1326.7,362.5,""oops"",""down"",""left"",""good_move"",7830.4,3311.7,2966.4,4518.7,345.3,""oops"",""down"",""down"",""good_move"",11126.5,3295.8,2976.9,7830.7,318.9,""oops"",""left"",""left"",""good_move""]","",""
"4632","","<div style=""width:500px;"">
  <p>What determined the result of this run?</p>
  </div>","56","html-slider-response","55","529973","0.0-5.0-1.9","168","1","2025-07-23 07:05:28","1f75c3e559b7213887762d5229550c2b","82.132.236.234","Mozilla/5.0 (Windows NT 10.0; Win64; x64) AppleWebKit/537.36 (KHTML, like Gecko) Chrome/138.0.0.0 Safari/537.36","WebKit","Chrome","138.0.0.0","Windows","10.0","https://app.prolific.com/","en-GB,en-US;q=0.9,en;q=0.8","676054ef296caad582258e02","683dba2a8a9dda3513610c04","6880893bcd9b3a5a0c819e58","3","0","676054ef296caad582258e02","3","0","2025-07-23T07:14:21.611Z","","","","","","","","","","","AttribQ","","50","","","","","","","","","","","","","","","","","","","","","","","","","","","","",""
"2199","","<div style=""width:500px;"">
  <p>How much control did you have over the ball?</p>
  </div>","100","html-slider-response","56","532173","0.0-5.0-2.9","168","1","2025-07-23 07:05:28","1f75c3e559b7213887762d5229550c2b","82.132.236.234","Mozilla/5.0 (Windows NT 10.0; Win64; x64) AppleWebKit/537.36 (KHTML, like Gecko) Chrome/138.0.0.0 Safari/537.36","WebKit","Chrome","138.0.0.0","Windows","10.0","https://app.prolific.com/","en-GB,en-US;q=0.9,en;q=0.8","676054ef296caad582258e02","683dba2a8a9dda3513610c04","6880893bcd9b3a5a0c819e58","3","0","676054ef296caad582258e02","3","0","2025-07-23T07:14:23.811Z","","","","","","","","","","","ControlQ","","50","","","","","","","","","","","","","","","","","","","","","","","","","","","","",""
"1119","","<div style=""width:500px;"">
  <p>How would you describe your current emotional state?</p>
  </div>","50","html-slider-response","57","533293","0.0-5.0-3.9","168","1","2025-07-23 07:05:28","1f75c3e559b7213887762d5229550c2b","82.132.236.234","Mozilla/5.0 (Windows NT 10.0; Win64; x64) AppleWebKit/537.36 (KHTML, like Gecko) Chrome/138.0.0.0 Safari/537.36","WebKit","Chrome","138.0.0.0","Windows","10.0","https://app.prolific.com/","en-GB,en-US;q=0.9,en;q=0.8","676054ef296caad582258e02","683dba2a8a9dda3513610c04","6880893bcd9b3a5a0c819e58","3","0","676054ef296caad582258e02","3","0","2025-07-23T07:14:24.931Z","","","","","","","","","","","StressQ","","50","","","","","","","","","","","","","","","","","","","","","","","","","","","","",""
"943","","<div style=""width:500px;"">
  <p>What best describes how you currently feel?</p>
  </div>","50","html-slider-response","58","534237","0.0-5.0-4.9","168","1","2025-07-23 07:05:28","1f75c3e559b7213887762d5229550c2b","82.132.236.234","Mozilla/5.0 (Windows NT 10.0; Win64; x64) AppleWebKit/537.36 (KHTML, like Gecko) Chrome/138.0.0.0 Safari/537.36","WebKit","Chrome","138.0.0.0","Windows","10.0","https://app.prolific.com/","en-GB,en-US;q=0.9,en;q=0.8","676054ef296caad582258e02","683dba2a8a9dda3513610c04","6880893bcd9b3a5a0c819e58","3","0","676054ef296caad582258e02","3","0","2025-07-23T07:14:25.875Z","","","","","","","","","","","MotivationQ","","50","","","","","","","","","","","","","","","","","","","","","","","","","","","","",""
"","","","","ctl-task-cpt","59","572965","0.0-5.0-0.10","168","1","2025-07-23 07:05:28","1f75c3e559b7213887762d5229550c2b","82.132.236.234","Mozilla/5.0 (Windows NT 10.0; Win64; x64) AppleWebKit/537.36 (KHTML, like Gecko) Chrome/138.0.0.0 Safari/537.36","WebKit","Chrome","138.0.0.0","Windows","10.0","https://app.prolific.com/","en-GB,en-US;q=0.9,en;q=0.8","676054ef296caad582258e02","683dba2a8a9dda3513610c04","6880893bcd9b3a5a0c819e58","3","0","676054ef296caad582258e02","3","0","2025-07-23T07:15:04.603Z","","","","","","","","","","","","","","win-only","2","g1:SE,g2:NW","0.5","11","0","536113.2","695.1","5695.8","35710.7","1","4","8","6","2","-8","-9","0","7","0","1160.2","3000","-3015","[""left"",""up""]","{""num_key_presses"":8,""num_perfect"":3,""num_errors"":1,""num_randdir"":4,""num_randdir_good_moves"":1,""num_whilered"":0,""num_whileblue"":1,""num_blue"":3,""num_good_moves"":4}","[303.22232142857143,296.12857142857143,0.1,303.22232142857143,296.12857142857143,102.5,303.22232142857143,296.12857142857143,203.1,303.22232142857143,296.12857142857143,305.7,303.22232142857143,296.12857142857143,406.4,283.22232142857143,334.12857142857143,511.2,214.22232142857143,244.12857142857143,615.5,54.222321428571426,42.128571428571426,715.5,68.22232142857143,61.128571428571426,816.7,77.22232142857143,74.12857142857143,916.9,71.22232142857143,72.12857142857143,1020.3,68.22232142857143,67.12857142857143,1121.3,68.22232142857143,67.12857142857143,1226.5,68.22232142857143,67.12857142857143,1331.4,612.2223214285714,555.1285714285714,1432.2,863.2223214285714,534.1285714285714,1535.5,914.2223214285714,440.12857142857143,1637.4,914.2223214285714,439.12857142857143,1741,914.2223214285714,439.12857142857143,1841.3,914.2223214285714,439.12857142857143,1946.7,914.2223214285714,439.12857142857143,2052.2,914.2223214285714,439.12857142857143,2156.5,914.2223214285714,439.12857142857143,2260.8,914.2223214285714,439.12857142857143,2365.3,914.2223214285714,439.12857142857143,2467,914.2223214285714,439.12857142857143,2567.4,914.2223214285714,439.12857142857143,2670.7,914.2223214285714,439.12857142857143,2771.8,914.2223214285714,439.12857142857143,2876,914.2223214285714,439.12857142857143,2981.7,914.2223214285714,439.12857142857143,3082,914.2223214285714,439.12857142857143,3182,914.2223214285714,439.12857142857143,3286.1,914.2223214285714,439.12857142857143,3387.3,914.2223214285714,439.12857142857143,3491.3,914.2223214285714,439.12857142857143,3595.6,914.2223214285714,439.12857142857143,3696.4,914.2223214285714,439.12857142857143,3801.6,914.2223214285714,439.12857142857143,3906.5,914.2223214285714,439.12857142857143,4011.3,914.2223214285714,439.12857142857143,4115.6,914.2223214285714,439.12857142857143,4220.3,914.2223214285714,439.12857142857143,4320.3,914.2223214285714,439.12857142857143,4421,914.2223214285714,439.12857142857143,4525.2,914.2223214285714,439.12857142857143,4626.1,914.2223214285714,439.12857142857143,4726.6,914.2223214285714,439.12857142857143,4826.6,914.2223214285714,439.12857142857143,4931.5]","[4862.5,4862.5,2506.2,2004.5,351.8,""oops"",""up"",""right"",""bad_move"",7465.4,2602.6,2237.6,4862.8,365,""oops"",""up"",""up"",""good_move"",9680.8,2215.2,1861.4,7465.6,353.8,""oops"",""up"",""right"",""bad_move"",12566.2,2885.2,2578.6,9681,306.6,""while_blue"",""up"",""down"",""bad_move"",15518.6,2952,2528.1,12566.6,423.9,""oops"",""up"",""down"",""bad_move"",21926.3,6407.5,3064,18457,405.3,""smooth"",""left"",""left"",""good_move"",24870.5,2944,2461,21926.5,483,""smooth"",""left"",""left"",""good_move"",27374.5,2503.8,2137.9,24870.7,365.9,""smooth"",""left"",""left"",""good_move""]","",""
"3175","","<div style=""width:500px;"">
  <p>What determined the result of this run?</p>
  </div>","55","html-slider-response","60","576140","0.0-5.0-1.10","168","1","2025-07-23 07:05:28","1f75c3e559b7213887762d5229550c2b","82.132.236.234","Mozilla/5.0 (Windows NT 10.0; Win64; x64) AppleWebKit/537.36 (KHTML, like Gecko) Chrome/138.0.0.0 Safari/537.36","WebKit","Chrome","138.0.0.0","Windows","10.0","https://app.prolific.com/","en-GB,en-US;q=0.9,en;q=0.8","676054ef296caad582258e02","683dba2a8a9dda3513610c04","6880893bcd9b3a5a0c819e58","3","0","676054ef296caad582258e02","3","0","2025-07-23T07:15:07.779Z","","","","","","","","","","","AttribQ","","50","","","","","","","","","","","","","","","","","","","","","","","","","","","","",""
"1999","","<div style=""width:500px;"">
  <p>How much control did you have over the ball?</p>
  </div>","0","html-slider-response","61","578140","0.0-5.0-2.10","168","1","2025-07-23 07:05:28","1f75c3e559b7213887762d5229550c2b","82.132.236.234","Mozilla/5.0 (Windows NT 10.0; Win64; x64) AppleWebKit/537.36 (KHTML, like Gecko) Chrome/138.0.0.0 Safari/537.36","WebKit","Chrome","138.0.0.0","Windows","10.0","https://app.prolific.com/","en-GB,en-US;q=0.9,en;q=0.8","676054ef296caad582258e02","683dba2a8a9dda3513610c04","6880893bcd9b3a5a0c819e58","3","0","676054ef296caad582258e02","3","0","2025-07-23T07:15:09.778Z","","","","","","","","","","","ControlQ","","50","","","","","","","","","","","","","","","","","","","","","","","","","","","","",""
"1999","","<div style=""width:500px;"">
  <p>How would you describe your current emotional state?</p>
  </div>","52","html-slider-response","62","580140","0.0-5.0-3.10","168","1","2025-07-23 07:05:28","1f75c3e559b7213887762d5229550c2b","82.132.236.234","Mozilla/5.0 (Windows NT 10.0; Win64; x64) AppleWebKit/537.36 (KHTML, like Gecko) Chrome/138.0.0.0 Safari/537.36","WebKit","Chrome","138.0.0.0","Windows","10.0","https://app.prolific.com/","en-GB,en-US;q=0.9,en;q=0.8","676054ef296caad582258e02","683dba2a8a9dda3513610c04","6880893bcd9b3a5a0c819e58","3","0","676054ef296caad582258e02","3","0","2025-07-23T07:15:11.779Z","","","","","","","","","","","StressQ","","50","","","","","","","","","","","","","","","","","","","","","","","","","","","","",""
"1263","","<div style=""width:500px;"">
  <p>What best describes how you currently feel?</p>
  </div>","50","html-slider-response","63","581404","0.0-5.0-4.10","168","1","2025-07-23 07:05:28","1f75c3e559b7213887762d5229550c2b","82.132.236.234","Mozilla/5.0 (Windows NT 10.0; Win64; x64) AppleWebKit/537.36 (KHTML, like Gecko) Chrome/138.0.0.0 Safari/537.36","WebKit","Chrome","138.0.0.0","Windows","10.0","https://app.prolific.com/","en-GB,en-US;q=0.9,en;q=0.8","676054ef296caad582258e02","683dba2a8a9dda3513610c04","6880893bcd9b3a5a0c819e58","3","0","676054ef296caad582258e02","3","0","2025-07-23T07:15:13.042Z","","","","","","","","","","","MotivationQ","","50","","","","","","","","","","","","","","","","","","","","","","","","","","","","",""
"","","","","ctl-task-cpt","64","620205","0.0-5.0-0.11","168","1","2025-07-23 07:05:28","1f75c3e559b7213887762d5229550c2b","82.132.236.234","Mozilla/5.0 (Windows NT 10.0; Win64; x64) AppleWebKit/537.36 (KHTML, like Gecko) Chrome/138.0.0.0 Safari/537.36","WebKit","Chrome","138.0.0.0","Windows","10.0","https://app.prolific.com/","en-GB,en-US;q=0.9,en;q=0.8","676054ef296caad582258e02","683dba2a8a9dda3513610c04","6880893bcd9b3a5a0c819e58","3","0","676054ef296caad582258e02","3","0","2025-07-23T07:15:51.843Z","","","","","","","","","","","","","","win-only","3","g1:SW,g2:NE","0.6","12","0","583281","623.1","5627.1","35782","1","4","4","6","1","1","1","1","0","0.007575757575757576","1144.2","3000","685","[""down"",""left""]","{""num_key_presses"":6,""num_perfect"":3,""num_errors"":0,""num_randdir"":3,""num_randdir_good_moves"":2,""num_whilered"":0,""num_whileblue"":0,""num_blue"":4,""num_good_moves"":5}","[290.22232142857143,303.12857142857143,0.1,290.22232142857143,303.12857142857143,102,290.22232142857143,303.12857142857143,202.4,266.22232142857143,303.12857142857143,302.7,148.22232142857143,350.12857142857143,407.2,129.22232142857143,385.12857142857143,508.4,104.22232142857143,458.12857142857143,612.3,97.22232142857143,485.12857142857143,712.7,82.22232142857143,505.12857142857143,813.5,78.22232142857143,509.12857142857143,918,76.22232142857143,510.12857142857143,1022.3,76.22232142857143,510.12857142857143,1125,76.22232142857143,510.12857142857143,1227.6,425.22232142857143,406.12857142857143,1327.8,491.22232142857143,348.12857142857143,1427.9,495.22232142857143,336.12857142857143,1532.5,495.22232142857143,336.12857142857143,1632.9,495.22232142857143,336.12857142857143,1738.3,495.22232142857143,336.12857142857143,1842.5,495.22232142857143,336.12857142857143,1948.3,495.22232142857143,336.12857142857143,2052.1,495.22232142857143,336.12857142857143,2152.1,495.22232142857143,336.12857142857143,2253,495.22232142857143,336.12857142857143,2354,495.22232142857143,336.12857142857143,2457.3,495.22232142857143,336.12857142857143,2557.6,495.22232142857143,336.12857142857143,2658.6,495.22232142857143,336.12857142857143,2762.3,495.22232142857143,336.12857142857143,2862.3,495.22232142857143,336.12857142857143,2962.4,495.22232142857143,336.12857142857143,3067.9,495.22232142857143,336.12857142857143,3167.9,495.22232142857143,336.12857142857143,3272.3,495.22232142857143,336.12857142857143,3377.3,495.22232142857143,336.12857142857143,3482.7,495.22232142857143,336.12857142857143,3587.4,495.22232142857143,336.12857142857143,3688.4,495.22232142857143,336.12857142857143,3793,495.22232142857143,336.12857142857143,3893,495.22232142857143,336.12857142857143,3997.9,495.22232142857143,336.12857142857143,4098.5,495.22232142857143,336.12857142857143,4203.4,495.22232142857143,336.12857142857143,4307.5,495.22232142857143,336.12857142857143,4407.8,495.22232142857143,336.12857142857143,4508,495.22232142857143,336.12857142857143,4612.8,495.22232142857143,336.12857142857143,4717,495.22232142857143,336.12857142857143,4817.2,495.22232142857143,336.12857142857143,4922.5]","[1395.3,1395.3,1000,0,395.3,""oops"",""down"",""left"",""good_move"",4547.1,3151.4,2872,1395.7,279.4,""smooth"",""down"",""down"",""good_move"",7627.2,3079.8,2732.7,4547.4,347.1,""smooth"",""down"",""down"",""good_move"",21467.2,13839.8,2021.1,18772.9,673.2,""oops"",""left"",""right"",""bad_move"",24187.3,2719.8,2428,21467.5,291.8,""oops"",""left"",""left"",""good_move"",30067,5879.4,2315.5,27378.5,373,""smooth"",""left"",""left"",""good_move""]","",""
"2839","","<div style=""width:500px;"">
  <p>What determined the result of this run?</p>
  </div>","56","html-slider-response","65","623044","0.0-5.0-1.11","168","1","2025-07-23 07:05:28","1f75c3e559b7213887762d5229550c2b","82.132.236.234","Mozilla/5.0 (Windows NT 10.0; Win64; x64) AppleWebKit/537.36 (KHTML, like Gecko) Chrome/138.0.0.0 Safari/537.36","WebKit","Chrome","138.0.0.0","Windows","10.0","https://app.prolific.com/","en-GB,en-US;q=0.9,en;q=0.8","676054ef296caad582258e02","683dba2a8a9dda3513610c04","6880893bcd9b3a5a0c819e58","3","0","676054ef296caad582258e02","3","0","2025-07-23T07:15:54.682Z","","","","","","","","","","","AttribQ","","50","","","","","","","","","","","","","","","","","","","","","","","","","","","","",""
"3335","","<div style=""width:500px;"">
  <p>How much control did you have over the ball?</p>
  </div>","50","html-slider-response","66","626380","0.0-5.0-2.11","168","1","2025-07-23 07:05:28","1f75c3e559b7213887762d5229550c2b","82.132.236.234","Mozilla/5.0 (Windows NT 10.0; Win64; x64) AppleWebKit/537.36 (KHTML, like Gecko) Chrome/138.0.0.0 Safari/537.36","WebKit","Chrome","138.0.0.0","Windows","10.0","https://app.prolific.com/","en-GB,en-US;q=0.9,en;q=0.8","676054ef296caad582258e02","683dba2a8a9dda3513610c04","6880893bcd9b3a5a0c819e58","3","0","676054ef296caad582258e02","3","0","2025-07-23T07:15:58.018Z","","","","","","","","","","","ControlQ","","50","","","","","","","","","","","","","","","","","","","","","","","","","","","","",""
"951","","<div style=""width:500px;"">
  <p>How would you describe your current emotional state?</p>
  </div>","50","html-slider-response","67","627332","0.0-5.0-3.11","168","1","2025-07-23 07:05:28","1f75c3e559b7213887762d5229550c2b","82.132.236.234","Mozilla/5.0 (Windows NT 10.0; Win64; x64) AppleWebKit/537.36 (KHTML, like Gecko) Chrome/138.0.0.0 Safari/537.36","WebKit","Chrome","138.0.0.0","Windows","10.0","https://app.prolific.com/","en-GB,en-US;q=0.9,en;q=0.8","676054ef296caad582258e02","683dba2a8a9dda3513610c04","6880893bcd9b3a5a0c819e58","3","0","676054ef296caad582258e02","3","0","2025-07-23T07:15:58.970Z","","","","","","","","","","","StressQ","","50","","","","","","","","","","","","","","","","","","","","","","","","","","","","",""
"871","","<div style=""width:500px;"">
  <p>What best describes how you currently feel?</p>
  </div>","50","html-slider-response","68","628204","0.0-5.0-4.11","168","1","2025-07-23 07:05:28","1f75c3e559b7213887762d5229550c2b","82.132.236.234","Mozilla/5.0 (Windows NT 10.0; Win64; x64) AppleWebKit/537.36 (KHTML, like Gecko) Chrome/138.0.0.0 Safari/537.36","WebKit","Chrome","138.0.0.0","Windows","10.0","https://app.prolific.com/","en-GB,en-US;q=0.9,en;q=0.8","676054ef296caad582258e02","683dba2a8a9dda3513610c04","6880893bcd9b3a5a0c819e58","3","0","676054ef296caad582258e02","3","0","2025-07-23T07:15:59.842Z","","","","","","","","","","","MotivationQ","","50","","","","","","","","","","","","","","","","","","","","","","","","","","","","",""
"","","","","ctl-task-cpt","69","667343","0.0-5.0-0.12","168","1","2025-07-23 07:05:28","1f75c3e559b7213887762d5229550c2b","82.132.236.234","Mozilla/5.0 (Windows NT 10.0; Win64; x64) AppleWebKit/537.36 (KHTML, like Gecko) Chrome/138.0.0.0 Safari/537.36","WebKit","Chrome","138.0.0.0","Windows","10.0","https://app.prolific.com/","en-GB,en-US;q=0.9,en;q=0.8","676054ef296caad582258e02","683dba2a8a9dda3513610c04","6880893bcd9b3a5a0c819e58","3","0","676054ef296caad582258e02","3","0","2025-07-23T07:16:38.981Z","","","","","","","","","","","","","","win-only","2","g1:SE,g2:NW","0.7","13","0","630081","887.8","5892.8","36116.7","1","4","4","6","1","1","1","2","1","0.015151515151515152","1375.2","3000","270","[""down"",""right""]","{""num_key_presses"":8,""num_perfect"":6,""num_errors"":0,""num_randdir"":2,""num_randdir_good_moves"":0,""num_whilered"":0,""num_whileblue"":0,""num_blue"":2,""num_good_moves"":6}","[294.22232142857143,291.12857142857143,0.2,294.22232142857143,291.12857142857143,106,299.22232142857143,280.12857142857143,208.2,347.22232142857143,218.12857142857143,312.6,347.22232142857143,218.12857142857143,412.7,340.22232142857143,243.12857142857143,513.5,330.22232142857143,250.12857142857143,618,320.22232142857143,254.12857142857143,718.3,332.22232142857143,301.12857142857143,822.7,466.22232142857143,427.12857142857143,923.2,528.2223214285714,508.12857142857143,1028.5,554.2223214285714,551.1285714285714,1133.3,554.2223214285714,551.1285714285714,1234.1,554.2223214285714,551.1285714285714,1339.5,554.2223214285714,551.1285714285714,1443.1,550.2223214285714,551.1285714285714,1543.4,550.2223214285714,551.1285714285714,1647.8,550.2223214285714,551.1285714285714,1752.5,550.2223214285714,551.1285714285714,1852.7,550.2223214285714,551.1285714285714,1957.8,550.2223214285714,551.1285714285714,2057.9,550.2223214285714,551.1285714285714,2158.4,550.2223214285714,551.1285714285714,2258.5,550.2223214285714,551.1285714285714,2363.1,550.2223214285714,551.1285714285714,2464,550.2223214285714,551.1285714285714,2568.3,550.2223214285714,551.1285714285714,2673.5,550.2223214285714,551.1285714285714,2778.1,550.2223214285714,551.1285714285714,2883.3,550.2223214285714,551.1285714285714,2988.1,550.2223214285714,551.1285714285714,3093.1,550.2223214285714,551.1285714285714,3199,550.2223214285714,551.1285714285714,3303.5,550.2223214285714,551.1285714285714,3404.3,550.2223214285714,551.1285714285714,3508.3,550.2223214285714,551.1285714285714,3612.7,550.2223214285714,551.1285714285714,3717.9,550.2223214285714,551.1285714285714,3822.7,550.2223214285714,551.1285714285714,3924.4,550.2223214285714,551.1285714285714,4028,550.2223214285714,551.1285714285714,4129.2,550.2223214285714,551.1285714285714,4233.4,550.2223214285714,551.1285714285714,4338.2,550.2223214285714,551.1285714285714,4439.1,550.2223214285714,551.1285714285714,4543,550.2223214285714,551.1285714285714,4643.7,550.2223214285714,551.1285714285714,4748,550.2223214285714,551.1285714285714,4849,550.2223214285714,551.1285714285714,4953.6]","[1393.5,1393.5,1000,0,393.5,""smooth"",""right"",""right"",""good_move"",3585.3,2191.5,1883,1393.8,308.5,""smooth"",""right"",""right"",""good_move"",7545.5,3960,3547.4,3585.5,412.6,""oops"",""down"",""left"",""bad_move"",10505.5,2959.7,2611.6,7545.8,348.1,""smooth"",""down"",""down"",""good_move"",13753.5,3247.7,2925.5,10505.8,322.2,""oops"",""down"",""up"",""bad_move"",19409.4,5655.5,2500.7,16597.5,311.2,""smooth"",""down"",""down"",""good_move"",23289.4,3879.8,3551.4,19409.6,328.4,""smooth"",""down"",""down"",""good_move"",30137.4,6847.8,3021.6,26763.2,352.7,""smooth"",""right"",""right"",""good_move""]","",""
"2301","","<div style=""width:500px;"">
  <p>What determined the result of this run?</p>
  </div>","50","html-slider-response","70","669644","0.0-5.0-1.12","168","1","2025-07-23 07:05:28","1f75c3e559b7213887762d5229550c2b","82.132.236.234","Mozilla/5.0 (Windows NT 10.0; Win64; x64) AppleWebKit/537.36 (KHTML, like Gecko) Chrome/138.0.0.0 Safari/537.36","WebKit","Chrome","138.0.0.0","Windows","10.0","https://app.prolific.com/","en-GB,en-US;q=0.9,en;q=0.8","676054ef296caad582258e02","683dba2a8a9dda3513610c04","6880893bcd9b3a5a0c819e58","3","0","676054ef296caad582258e02","3","0","2025-07-23T07:16:41.282Z","","","","","","","","","","","AttribQ","","50","","","","","","","","","","","","","","","","","","","","","","","","","","","","",""
"3071","","<div style=""width:500px;"">
  <p>How much control did you have over the ball?</p>
  </div>","27","html-slider-response","71","672716","0.0-5.0-2.12","168","1","2025-07-23 07:05:28","1f75c3e559b7213887762d5229550c2b","82.132.236.234","Mozilla/5.0 (Windows NT 10.0; Win64; x64) AppleWebKit/537.36 (KHTML, like Gecko) Chrome/138.0.0.0 Safari/537.36","WebKit","Chrome","138.0.0.0","Windows","10.0","https://app.prolific.com/","en-GB,en-US;q=0.9,en;q=0.8","676054ef296caad582258e02","683dba2a8a9dda3513610c04","6880893bcd9b3a5a0c819e58","3","0","676054ef296caad582258e02","3","0","2025-07-23T07:16:44.354Z","","","","","","","","","","","ControlQ","","50","","","","","","","","","","","","","","","","","","","","","","","","","","","","",""
"1288","","<div style=""width:500px;"">
  <p>How would you describe your current emotional state?</p>
  </div>","50","html-slider-response","72","674005","0.0-5.0-3.12","168","1","2025-07-23 07:05:28","1f75c3e559b7213887762d5229550c2b","82.132.236.234","Mozilla/5.0 (Windows NT 10.0; Win64; x64) AppleWebKit/537.36 (KHTML, like Gecko) Chrome/138.0.0.0 Safari/537.36","WebKit","Chrome","138.0.0.0","Windows","10.0","https://app.prolific.com/","en-GB,en-US;q=0.9,en;q=0.8","676054ef296caad582258e02","683dba2a8a9dda3513610c04","6880893bcd9b3a5a0c819e58","3","0","676054ef296caad582258e02","3","0","2025-07-23T07:16:45.643Z","","","","","","","","","","","StressQ","","50","","","","","","","","","","","","","","","","","","","","","","","","","","","","",""
"3087","","<div style=""width:500px;"">
  <p>What best describes how you currently feel?</p>
  </div>","49","html-slider-response","73","677092","0.0-5.0-4.12","168","1","2025-07-23 07:05:28","1f75c3e559b7213887762d5229550c2b","82.132.236.234","Mozilla/5.0 (Windows NT 10.0; Win64; x64) AppleWebKit/537.36 (KHTML, like Gecko) Chrome/138.0.0.0 Safari/537.36","WebKit","Chrome","138.0.0.0","Windows","10.0","https://app.prolific.com/","en-GB,en-US;q=0.9,en;q=0.8","676054ef296caad582258e02","683dba2a8a9dda3513610c04","6880893bcd9b3a5a0c819e58","3","0","676054ef296caad582258e02","3","0","2025-07-23T07:16:48.730Z","","","","","","","","","","","MotivationQ","","50","","","","","","","","","","","","","","","","","","","","","","","","","","","","",""
"","","","","ctl-task-cpt","74","713266","0.0-5.0-0.13","168","1","2025-07-23 07:05:28","1f75c3e559b7213887762d5229550c2b","82.132.236.234","Mozilla/5.0 (Windows NT 10.0; Win64; x64) AppleWebKit/537.36 (KHTML, like Gecko) Chrome/138.0.0.0 Safari/537.36","WebKit","Chrome","138.0.0.0","Windows","10.0","https://app.prolific.com/","en-GB,en-US;q=0.9,en;q=0.8","676054ef296caad582258e02","683dba2a8a9dda3513610c04","6880893bcd9b3a5a0c819e58","3","0","676054ef296caad582258e02","3","0","2025-07-23T07:17:24.904Z","","","","","","","","","","","","","","win-only","2","g1:SE,g2:NW","0.8","14","0","678968.7","783.4","5785.8","33155.3","1","4","8","6","2","8","8","10","2","0.07575757575757576","887.9","3000","885","[""left"",""up""]","{""num_key_presses"":6,""num_perfect"":6,""num_errors"":0,""num_randdir"":0,""num_randdir_good_moves"":0,""num_whilered"":0,""num_whileblue"":0,""num_blue"":3,""num_good_moves"":6}","[297.22232142857143,300.12857142857143,0.3,297.22232142857143,300.12857142857143,101.6,288.22232142857143,224.12857142857143,202.1,296.22232142857143,164.12857142857143,307,296.22232142857143,164.12857142857143,412.8,220.22232142857143,136.12857142857143,517.3,118.22232142857143,103.12857142857143,617.5,90.22232142857143,89.12857142857143,718.1,37.222321428571426,40.128571428571426,818.2,35.222321428571426,39.128571428571426,922.1,35.222321428571426,42.128571428571426,1027,345.22232142857143,189.12857142857143,1127.6,650.2223214285714,245.12857142857143,1228.8,719.2223214285714,257.12857142857143,1332.4,719.2223214285714,257.12857142857143,1432.5,719.2223214285714,257.12857142857143,1532.7,719.2223214285714,257.12857142857143,1633.6,719.2223214285714,257.12857142857143,1737.1,719.2223214285714,257.12857142857143,1837.3,719.2223214285714,257.12857142857143,1939,719.2223214285714,257.12857142857143,2042.1,719.2223214285714,257.12857142857143,2147.2,719.2223214285714,257.12857142857143,2247.8,719.2223214285714,257.12857142857143,2352.5,719.2223214285714,257.12857142857143,2452.5,719.2223214285714,257.12857142857143,2553.8,719.2223214285714,257.12857142857143,2657.3,719.2223214285714,257.12857142857143,2762.3,719.2223214285714,257.12857142857143,2862.4,719.2223214285714,257.12857142857143,2966.9,719.2223214285714,257.12857142857143,3067.2,719.2223214285714,257.12857142857143,3171.9,719.2223214285714,257.12857142857143,3277,719.2223214285714,257.12857142857143,3383,719.2223214285714,257.12857142857143,3483.1,719.2223214285714,257.12857142857143,3587.3,719.2223214285714,257.12857142857143,3688.2,719.2223214285714,257.12857142857143,3792.4,719.2223214285714,257.12857142857143,3897.9,719.2223214285714,257.12857142857143,4002.1,719.2223214285714,257.12857142857143,4102.2,719.2223214285714,257.12857142857143,4203.4,719.2223214285714,257.12857142857143,4308.1,719.2223214285714,257.12857142857143,4412.3,719.2223214285714,257.12857142857143,4518.7,719.2223214285714,257.12857142857143,4622.5,719.2223214285714,257.12857142857143,4723.9,719.2223214285714,257.12857142857143,4827.3,719.2223214285714,257.12857142857143,4932.2]","[1308.8,1308.8,1000,0,308.8,""smooth"",""up"",""up"",""good_move"",11916.7,10607.5,2194.4,9316,406.4,""smooth"",""up"",""up"",""good_move"",14788.5,2871.6,2498.4,11916.9,373.2,""smooth"",""up"",""up"",""good_move"",17636.5,2847.9,2486.3,14788.7,361.5,""smooth"",""left"",""left"",""good_move"",20396.4,2759.7,2433.5,17636.7,326.2,""smooth"",""left"",""left"",""good_move"",27276.9,6880.3,2434.7,24461,381.2,""smooth"",""left"",""left"",""good_move""]","",""
"3634","","<div style=""width:500px;"">
  <p>What determined the result of this run?</p>
  </div>","53","html-slider-response","75","716900","0.0-5.0-1.13","168","1","2025-07-23 07:05:28","1f75c3e559b7213887762d5229550c2b","82.132.236.234","Mozilla/5.0 (Windows NT 10.0; Win64; x64) AppleWebKit/537.36 (KHTML, like Gecko) Chrome/138.0.0.0 Safari/537.36","WebKit","Chrome","138.0.0.0","Windows","10.0","https://app.prolific.com/","en-GB,en-US;q=0.9,en;q=0.8","676054ef296caad582258e02","683dba2a8a9dda3513610c04","6880893bcd9b3a5a0c819e58","3","0","676054ef296caad582258e02","3","0","2025-07-23T07:17:28.538Z","","","","","","","","","","","AttribQ","","50","","","","","","","","","","","","","","","","","","","","","","","","","","","","",""
"4351","","<div style=""width:500px;"">
  <p>How much control did you have over the ball?</p>
  </div>","92","html-slider-response","76","721252","0.0-5.0-2.13","168","1","2025-07-23 07:05:28","1f75c3e559b7213887762d5229550c2b","82.132.236.234","Mozilla/5.0 (Windows NT 10.0; Win64; x64) AppleWebKit/537.36 (KHTML, like Gecko) Chrome/138.0.0.0 Safari/537.36","WebKit","Chrome","138.0.0.0","Windows","10.0","https://app.prolific.com/","en-GB,en-US;q=0.9,en;q=0.8","676054ef296caad582258e02","683dba2a8a9dda3513610c04","6880893bcd9b3a5a0c819e58","3","0","676054ef296caad582258e02","3","0","2025-07-23T07:17:32.890Z","","","","","","","","","","","ControlQ","","50","","","","","","","","","","","","","","","","","","","","","","","","","","","","",""
"1719","","<div style=""width:500px;"">
  <p>How would you describe your current emotional state?</p>
