"rt","response_timestamp","stimulus","response","trial_type","trial_index","time_elapsed","internal_node_id","run_id","condition","recorded_at","source_code_version","ip","user_agent","device","browser","browser_version","platform","platform_version","referer","accept_language","PROLIFIC_PID","STUDY_ID","SESSION_ID","WEEK","BATCH","prolific_id","week","batch","realtime","success","responses","item_order","radio_event_ids","radio_event_times","key_event_times","mouse_event_times","straightlining","zigzagging","honeypot","eventType","view_history","slider_start","which_type","canvas_config","goals_layout","control_level","trial_number","tutorial_trial_number","trial_start_time","phase1_start_time","phase2_start_time","phase3_start_time","goal_1_value","goal_1_distance","goal_2_value","goal_2_distance","goal_selected","outcome","outcome_total","participant_final_score","participant_initial_score","participant_final_score_prop","goal_choice_rt","allocated_time","allocated_time_remaining","goal_direction","counts","mouse_movements","key_presses","question_order","question_id"
"7580","1753864597666","<p style='font-size:40px;line-height:1.25'><strong>Welcome to the experiment!</strong></p><p style='font-size:1.1em;line-height:1.25'>Thank you for participanting in our experiment again! You will be asked to play the Dysfunctional Ball Game again. We will briefly recap the rules before we start.</p><p style='font-size:1.1em;line-height:1.25'>Press <strong>Next</strong> to continue.</p>","0","custom-html-button-response","0","7596","0.0-0.0","248","1","2025-07-30 08:36:28","1f75c3e559b7213887762d5229550c2b","102.222.12.73","Mozilla/5.0 (Windows NT 10.0; Win64; x64) AppleWebKit/537.36 (KHTML, like Gecko) Chrome/138.0.0.0 Safari/537.36","WebKit","Chrome","138.0.0.0","Windows","10.0","https://app.prolific.com/","en-ZA,en-GB;q=0.9,en-US;q=0.8,en;q=0.7,en-GB-oxendict;q=0.6","605b838b80f022835fc293fb","6877631c9844ddd5501205fc","6889d9807aae9b4ddc909ad5","3","1","605b838b80f022835fc293fb","3","1","2025-07-30T08:36:37.668Z","","","","","","","","","","","","","","","","","","","","","","","","","","","","","","","","","","","","","","","","","",""
"15707","","","","fullscreen","1","24319","0.0-1.0","248","1","2025-07-30 08:36:28","1f75c3e559b7213887762d5229550c2b","102.222.12.73","Mozilla/5.0 (Windows NT 10.0; Win64; x64) AppleWebKit/537.36 (KHTML, like Gecko) Chrome/138.0.0.0 Safari/537.36","WebKit","Chrome","138.0.0.0","Windows","10.0","https://app.prolific.com/","en-ZA,en-GB;q=0.9,en-US;q=0.8,en;q=0.7,en-GB-oxendict;q=0.6","605b838b80f022835fc293fb","6877631c9844ddd5501205fc","6889d9807aae9b4ddc909ad5","3","1","605b838b80f022835fc293fb","3","1","","true","","","","","","","","","","","","","","","","","","","","","","","","","","","","","","","","","","","","","","","","",""
"7882","1753864622276","<p style='font-size:1.1em;line-height:1.25'>In the following, we will ask you a few questions relating to your feelings in the last 24 hours.<br></p><p style='font-size:1.1em;line-height:1.25'>Press the <strong>Next</strong> button to continue.</p>","0","custom-html-button-response","2","32206","0.0-2.0-0.0","248","1","2025-07-30 08:36:28","1f75c3e559b7213887762d5229550c2b","102.222.12.73","Mozilla/5.0 (Windows NT 10.0; Win64; x64) AppleWebKit/537.36 (KHTML, like Gecko) Chrome/138.0.0.0 Safari/537.36","WebKit","Chrome","138.0.0.0","Windows","10.0","https://app.prolific.com/","en-ZA,en-GB;q=0.9,en-US;q=0.8,en;q=0.7,en-GB-oxendict;q=0.6","605b838b80f022835fc293fb","6877631c9844ddd5501205fc","6889d9807aae9b4ddc909ad5","3","1","605b838b80f022835fc293fb","3","1","2025-07-30T08:37:02.277Z","","","","","","","","","","","","","","","","","","","","","","","","","","","","","","","","","","","","","","","","","",""
"98846.89999999851","","","","survey-template","3","131063","0.0-2.0-1.0","248","1","2025-07-30 08:36:28","1f75c3e559b7213887762d5229550c2b","102.222.12.73","Mozilla/5.0 (Windows NT 10.0; Win64; x64) AppleWebKit/537.36 (KHTML, like Gecko) Chrome/138.0.0.0 Safari/537.36","WebKit","Chrome","138.0.0.0","Windows","10.0","https://app.prolific.com/","en-ZA,en-GB;q=0.9,en-US;q=0.8,en;q=0.7,en-GB-oxendict;q=0.6","605b838b80f022835fc293fb","6877631c9844ddd5501205fc","6889d9807aae9b4ddc909ad5","3","1","605b838b80f022835fc293fb","3","1","2025-07-30T08:38:41.134Z","","{""Q01"":""3"",""Q02"":""3"",""Q03"":""4"",""Q04"":""4"",""Q05"":""3"",""Q06"":""3"",""Q07"":""3"",""Q08"":""0"",""Q09"":""2"",""Q10"":""1"",""Q11"":""3"",""Q12"":""1"",""Q13"":""5"",""Q14"":""1"",""Q15"":""2"",""Q16"":""0"",""Q17"":""3"",""Q18"":""3"",""Q19"":""3"",""Q20"":""2"",""Q21"":""1"",""Q22"":""1""}","[0,1,2,3,4,5,6,7,8,9,10,11,12,13,14,15,16,17,18,19,20,21]","[""Q01"",""Q02"",""Q03"",""Q04"",""Q05"",""Q06"",""Q07"",""Q08"",""Q09"",""Q10"",""Q11"",""Q13"",""Q12"",""Q14"",""Q15"",""Q16"",""Q17"",""Q17"",""Q18"",""Q19"",""Q19"",""Q20"",""Q21"",""Q22""]","[4493,6626.30000000447,8993.30000000447,14256.60000000149,15708.10000000149,21755.89999999851,25372.20000000298,29554.60000000149,31587.70000000298,37320.89999999851,40885.20000000298,47182.80000000447,48567,52165.39999999851,55648.70000000298,58601.70000000298,63336.30000000447,64746.5,66846.5,70227.20000000298,72709.89999999851,78127.30000000447,89307.5,97120.30000000447]","[]","[0.6000000014901161,4493,6626.30000000447,8993.30000000447,10911,12893.89999999851,14256.60000000149,15708.10000000149,21755.89999999851,25372.20000000298,29554.60000000149,31587.70000000298,37320.89999999851,40885.20000000298,45050,47182.80000000447,48567,52165.39999999851,55648.70000000298,58601.70000000298,63336.30000000447,64746.5,66846.5,70227.20000000298,72709.89999999851,78127.30000000447,87166.10000000149,89307.5,97120.30000000447,98838.39999999851]","0.4090909090909091","0.2857142857142857","0","drsp","","","","","","","","","","","","","","","","","","","","","","","","","","","","","","",""
"14912.10000000149","","","","survey-template","4","145979","0.0-2.0-2.0","248","1","2025-07-30 08:36:28","1f75c3e559b7213887762d5229550c2b","102.222.12.73","Mozilla/5.0 (Windows NT 10.0; Win64; x64) AppleWebKit/537.36 (KHTML, like Gecko) Chrome/138.0.0.0 Safari/537.36","WebKit","Chrome","138.0.0.0","Windows","10.0","https://app.prolific.com/","en-ZA,en-GB;q=0.9,en-US;q=0.8,en;q=0.7,en-GB-oxendict;q=0.6","605b838b80f022835fc293fb","6877631c9844ddd5501205fc","6889d9807aae9b4ddc909ad5","3","1","605b838b80f022835fc293fb","3","1","2025-07-30T08:38:56.051Z","","{""Q01"":""3"",""Q02"":""5"",""Q03"":""2""}","[0,1,2]","[""Q01"",""Q02"",""Q03""]","[3263.60000000149,7430.20000000298,13345.5]","[]","[3263.60000000149,7430.20000000298,13345.5,14910.60000000149]","0.3333333333333333","0","0","stress","","","","","","","","","","","","","","","","","","","","","","","","","","","","","","",""
"24841","","","","instructions","5","170823","0.0-3.0-0.0","248","1","2025-07-30 08:36:28","1f75c3e559b7213887762d5229550c2b","102.222.12.73","Mozilla/5.0 (Windows NT 10.0; Win64; x64) AppleWebKit/537.36 (KHTML, like Gecko) Chrome/138.0.0.0 Safari/537.36","WebKit","Chrome","138.0.0.0","Windows","10.0","https://app.prolific.com/","en-ZA,en-GB;q=0.9,en-US;q=0.8,en;q=0.7,en-GB-oxendict;q=0.6","605b838b80f022835fc293fb","6877631c9844ddd5501205fc","6889d9807aae9b4ddc909ad5","3","1","605b838b80f022835fc293fb","3","1","","","","","","","","","","","","","[{""page_index"":0,""viewing_time"":24841}]","","","","","","","","","","","","","","","","","","","","","","","","","","","","","",""
"14993","","<p>Before you start with this game please answer the following three questions yourself. </p>
  <p>Through this game, we measure several aspects of your cognitive performance, such as reaction times, multi-tasking capabilities </p>
  <p>and the ability to assess the situation you are in.</p>
  <p></p>
  <p><b>How good do you usually are in such tasks?</b></p>","78","html-slider-response","6","185819","0.0-4.0-0.0","248","1","2025-07-30 08:36:28","1f75c3e559b7213887762d5229550c2b","102.222.12.73","Mozilla/5.0 (Windows NT 10.0; Win64; x64) AppleWebKit/537.36 (KHTML, like Gecko) Chrome/138.0.0.0 Safari/537.36","WebKit","Chrome","138.0.0.0","Windows","10.0","https://app.prolific.com/","en-ZA,en-GB;q=0.9,en-US;q=0.8,en;q=0.7,en-GB-oxendict;q=0.6","605b838b80f022835fc293fb","6877631c9844ddd5501205fc","6889d9807aae9b4ddc909ad5","3","1","605b838b80f022835fc293fb","3","1","2025-07-30T08:39:35.890Z","","","","","","","","","","","PreSkillQ","","50","","","","","","","","","","","","","","","","","","","","","","","","","","","","",""
"6896","","<div style=""width:500px;"">
  <p>How well do you think you will perform in this task compared to other participants?</p>
  </div>","92","html-slider-response","7","192717","0.0-4.0-1.0","248","1","2025-07-30 08:36:28","1f75c3e559b7213887762d5229550c2b","102.222.12.73","Mozilla/5.0 (Windows NT 10.0; Win64; x64) AppleWebKit/537.36 (KHTML, like Gecko) Chrome/138.0.0.0 Safari/537.36","WebKit","Chrome","138.0.0.0","Windows","10.0","https://app.prolific.com/","en-ZA,en-GB;q=0.9,en-US;q=0.8,en;q=0.7,en-GB-oxendict;q=0.6","605b838b80f022835fc293fb","6877631c9844ddd5501205fc","6889d9807aae9b4ddc909ad5","3","1","605b838b80f022835fc293fb","3","1","2025-07-30T08:39:42.788Z","","","","","","","","","","","PrePerfQ","","50","","","","","","","","","","","","","","","","","","","","","","","","","","","","",""
"8596","","<div style=""width:500px;"">
  <p>What best describes how you currently feel?</p>
  </div>","98","html-slider-response","8","201315","0.0-4.0-2.0","248","1","2025-07-30 08:36:28","1f75c3e559b7213887762d5229550c2b","102.222.12.73","Mozilla/5.0 (Windows NT 10.0; Win64; x64) AppleWebKit/537.36 (KHTML, like Gecko) Chrome/138.0.0.0 Safari/537.36","WebKit","Chrome","138.0.0.0","Windows","10.0","https://app.prolific.com/","en-ZA,en-GB;q=0.9,en-US;q=0.8,en;q=0.7,en-GB-oxendict;q=0.6","605b838b80f022835fc293fb","6877631c9844ddd5501205fc","6889d9807aae9b4ddc909ad5","3","1","605b838b80f022835fc293fb","3","1","2025-07-30T08:39:51.386Z","","","","","","","","","","","PreMotivationQ","","50","","","","","","","","","","","","","","","","","","","","","","","","","","","","",""
"","","","","ctl-task-cpt","9","234765","0.0-5.0-0.0","248","1","2025-07-30 08:36:28","1f75c3e559b7213887762d5229550c2b","102.222.12.73","Mozilla/5.0 (Windows NT 10.0; Win64; x64) AppleWebKit/537.36 (KHTML, like Gecko) Chrome/138.0.0.0 Safari/537.36","WebKit","Chrome","138.0.0.0","Windows","10.0","https://app.prolific.com/","en-ZA,en-GB;q=0.9,en-US;q=0.8,en;q=0.7,en-GB-oxendict;q=0.6","605b838b80f022835fc293fb","6877631c9844ddd5501205fc","6889d9807aae9b4ddc909ad5","3","1","605b838b80f022835fc293fb","3","1","2025-07-30T08:40:24.837Z","","","","","","","","","","","","","","win-only","2","g1:SE,g2:NW","1","1","0","204923.4","2443.4","7449.6","30443.8","1","4","4","6","2","4","4","4","0","0.030303030303030304","1739.3","3000","770","[""left"",""up""]","{""num_key_presses"":6,""num_perfect"":6,""num_errors"":0,""num_randdir"":0,""num_randdir_good_moves"":0,""num_whilered"":0,""num_whileblue"":0,""num_blue"":2,""num_good_moves"":6}","[422.8214133126395,416.57142761775424,0.3,422.8214133126395,416.57142761775424,104.4,422.8214133126395,416.57142761775424,207.1,422.8214133126395,416.57142761775424,309.8,422.8214133126395,416.57142761775424,413.4,422.8214133126395,416.57142761775424,513.5,422.8214133126395,416.57142761775424,618,422.8214133126395,416.57142761775424,722.9,329.0714133126395,386.57142761775424,827.5,51.57141331263951,187.82142761775424,928.7,-4.678586687360493,76.57142761775425,1032.7,-2.178586687360493,60.32142761775425,1138,15.321413312639507,51.57142761775425,1238.7,61.57141331263951,67.82142761775425,1341.7,69.0714133126395,70.32142761775425,1445.1,71.5714133126395,71.57142761775425,1547.3,71.5714133126395,71.57142761775425,1655.5,71.5714133126395,71.57142761775425,1755.5,71.5714133126395,71.57142761775425,1858.2,71.5714133126395,71.57142761775425,1971.5,71.5714133126395,71.57142761775425,2072.2,71.5714133126395,71.57142761775425,2174.8,71.5714133126395,71.57142761775425,2277.3,71.5714133126395,71.57142761775425,2377.6,71.5714133126395,71.57142761775425,2479.2,71.5714133126395,71.57142761775425,2582.7,71.5714133126395,71.57142761775425,2683,71.5714133126395,71.57142761775425,2783,71.5714133126395,71.57142761775425,2888.1,71.5714133126395,71.57142761775425,2989.1,71.5714133126395,71.57142761775425,3093.1,71.5714133126395,71.57142761775425,3197.7,71.5714133126395,71.57142761775425,3303.9,71.5714133126395,71.57142761775425,3407,71.5714133126395,71.57142761775425,3507.6,71.5714133126395,71.57142761775425,3612.3,71.5714133126395,71.57142761775425,3712.6,71.5714133126395,71.57142761775425,3817.3,71.5714133126395,71.57142761775425,3919.8,71.5714133126395,71.57142761775425,4023,71.5714133126395,71.57142761775425,4128.8,71.5714133126395,71.57142761775425,4232.9,71.5714133126395,71.57142761775425,4337.7,71.5714133126395,71.57142761775425,4442.8,71.5714133126395,71.57142761775425,4548.7,71.5714133126395,71.57142761775425,4653.7,71.5714133126395,71.57142761775425,4757.1,71.5714133126395,71.57142761775425,4857.2,71.5714133126395,71.57142761775425,4962.2]","[1391.2,1391.2,1000,0,391.2,""smooth"",""left"",""left"",""good_move"",3952.6,2560.9,2128.3,1391.8,432.5,""smooth"",""left"",""left"",""good_move"",6357.5,2404.8,1956.4,3952.8,448.3,""smooth"",""left"",""left"",""good_move"",12364.9,6007.1,2517.5,9815.9,31.5,""smooth"",""up"",""up"",""good_move"",15628.6,3263.4,2742.1,12365.2,521.3,""smooth"",""up"",""up"",""good_move"",22893.7,7264.5,2452,20006.6,435.1,""smooth"",""up"",""up"",""good_move""]","",""
"6100","","<div style=""width:500px;"">
  <p>What determined the result of this run?</p>
  </div>","100","html-slider-response","10","240867","0.0-5.0-1.0","248","1","2025-07-30 08:36:28","1f75c3e559b7213887762d5229550c2b","102.222.12.73","Mozilla/5.0 (Windows NT 10.0; Win64; x64) AppleWebKit/537.36 (KHTML, like Gecko) Chrome/138.0.0.0 Safari/537.36","WebKit","Chrome","138.0.0.0","Windows","10.0","https://app.prolific.com/","en-ZA,en-GB;q=0.9,en-US;q=0.8,en;q=0.7,en-GB-oxendict;q=0.6","605b838b80f022835fc293fb","6877631c9844ddd5501205fc","6889d9807aae9b4ddc909ad5","3","1","605b838b80f022835fc293fb","3","1","2025-07-30T08:40:30.938Z","","","","","","","","","","","AttribQ","","50","","","","","","","","","","","","","","","","","","","","","","","","","","","","",""
"4675","","<div style=""width:500px;"">
  <p>How much control did you have over the ball?</p>
  </div>","77","html-slider-response","11","245544","0.0-5.0-2.0","248","1","2025-07-30 08:36:28","1f75c3e559b7213887762d5229550c2b","102.222.12.73","Mozilla/5.0 (Windows NT 10.0; Win64; x64) AppleWebKit/537.36 (KHTML, like Gecko) Chrome/138.0.0.0 Safari/537.36","WebKit","Chrome","138.0.0.0","Windows","10.0","https://app.prolific.com/","en-ZA,en-GB;q=0.9,en-US;q=0.8,en;q=0.7,en-GB-oxendict;q=0.6","605b838b80f022835fc293fb","6877631c9844ddd5501205fc","6889d9807aae9b4ddc909ad5","3","1","605b838b80f022835fc293fb","3","1","2025-07-30T08:40:35.615Z","","","","","","","","","","","ControlQ","","50","","","","","","","","","","","","","","","","","","","","","","","","","","","","",""
"5847","","<div style=""width:500px;"">
  <p>How would you describe your current emotional state?</p>
  </div>","10","html-slider-response","12","251392","0.0-5.0-3.0","248","1","2025-07-30 08:36:28","1f75c3e559b7213887762d5229550c2b","102.222.12.73","Mozilla/5.0 (Windows NT 10.0; Win64; x64) AppleWebKit/537.36 (KHTML, like Gecko) Chrome/138.0.0.0 Safari/537.36","WebKit","Chrome","138.0.0.0","Windows","10.0","https://app.prolific.com/","en-ZA,en-GB;q=0.9,en-US;q=0.8,en;q=0.7,en-GB-oxendict;q=0.6","605b838b80f022835fc293fb","6877631c9844ddd5501205fc","6889d9807aae9b4ddc909ad5","3","1","605b838b80f022835fc293fb","3","1","2025-07-30T08:40:41.464Z","","","","","","","","","","","StressQ","","50","","","","","","","","","","","","","","","","","","","","","","","","","","","","",""
"5719","","<div style=""width:500px;"">
  <p>What best describes how you currently feel?</p>
  </div>","80","html-slider-response","13","257114","0.0-5.0-4.0","248","1","2025-07-30 08:36:28","1f75c3e559b7213887762d5229550c2b","102.222.12.73","Mozilla/5.0 (Windows NT 10.0; Win64; x64) AppleWebKit/537.36 (KHTML, like Gecko) Chrome/138.0.0.0 Safari/537.36","WebKit","Chrome","138.0.0.0","Windows","10.0","https://app.prolific.com/","en-ZA,en-GB;q=0.9,en-US;q=0.8,en;q=0.7,en-GB-oxendict;q=0.6","605b838b80f022835fc293fb","6877631c9844ddd5501205fc","6889d9807aae9b4ddc909ad5","3","1","605b838b80f022835fc293fb","3","1","2025-07-30T08:40:47.185Z","","","","","","","","","","","MotivationQ","","50","","","","","","","","","","","","","","","","","","","","","","","","","","","","",""
"","","","","ctl-task-cpt","14","290185","0.0-5.0-0.1","248","1","2025-07-30 08:36:28","1f75c3e559b7213887762d5229550c2b","102.222.12.73","Mozilla/5.0 (Windows NT 10.0; Win64; x64) AppleWebKit/537.36 (KHTML, like Gecko) Chrome/138.0.0.0 Safari/537.36","WebKit","Chrome","138.0.0.0","Windows","10.0","https://app.prolific.com/","en-ZA,en-GB;q=0.9,en-US;q=0.8,en;q=0.7,en-GB-oxendict;q=0.6","605b838b80f022835fc293fb","6877631c9844ddd5501205fc","6889d9807aae9b4ddc909ad5","3","1","605b838b80f022835fc293fb","3","1","2025-07-30T08:41:20.256Z","","","","","","","","","","","","","","win-only","1","g1:NE,g2:SW","0.9","2","0","260720.2","1962.1","6966.1","30053.6","1","4","8","6","2","8","8","12","4","0.09090909090909091","1529.7","3000","530","[""down"",""left""]","{""num_key_presses"":6,""num_perfect"":5,""num_errors"":0,""num_randdir"":1,""num_randdir_good_moves"":1,""num_whilered"":0,""num_whileblue"":0,""num_blue"":2,""num_good_moves"":6}","[415.3214133126395,411.57142761775424,0.2,415.3214133126395,411.57142761775424,103.3,415.3214133126395,411.57142761775424,204.3,415.3214133126395,411.57142761775424,310.4,415.3214133126395,411.57142761775424,410.8,415.3214133126395,411.57142761775424,512.7,415.3214133126395,411.57142761775424,613.5,396.5714133126395,377.82142761775424,714.5,306.5714133126395,371.57142761775424,818.8,166.5714133126395,640.3214276177542,918.9,115.3214133126395,764.0714276177542,1019.6,107.8214133126395,782.8214276177542,1129.6,107.8214133126395,784.0714276177542,1231.1,106.5714133126395,784.0714276177542,1334.2,106.5714133126395,784.0714276177542,1439,106.5714133126395,784.0714276177542,1544.7,106.5714133126395,784.0714276177542,1646.5,106.5714133126395,784.0714276177542,1759.6,106.5714133126395,784.0714276177542,1860.8,106.5714133126395,784.0714276177542,1963.9,106.5714133126395,784.0714276177542,2068.7,106.5714133126395,784.0714276177542,2173.3,106.5714133126395,784.0714276177542,2276.4,106.5714133126395,784.0714276177542,2376.6,106.5714133126395,784.0714276177542,2479.9,106.5714133126395,784.0714276177542,2581.9,106.5714133126395,784.0714276177542,2684.1,106.5714133126395,784.0714276177542,2790.7,106.5714133126395,784.0714276177542,2891.3,106.5714133126395,784.0714276177542,2993.9,106.5714133126395,784.0714276177542,3094.2,106.5714133126395,784.0714276177542,3195.2,106.5714133126395,784.0714276177542,3299,106.5714133126395,784.0714276177542,3405.6,106.5714133126395,784.0714276177542,3510.1,106.5714133126395,784.0714276177542,3613.9,106.5714133126395,784.0714276177542,3716.2,106.5714133126395,784.0714276177542,3820.3,106.5714133126395,784.0714276177542,3925.8,106.5714133126395,784.0714276177542,4028.4,106.5714133126395,784.0714276177542,4129.8,106.5714133126395,784.0714276177542,4230.4,106.5714133126395,784.0714276177542,4334.2,106.5714133126395,784.0714276177542,4441.7,106.5714133126395,784.0714276177542,4543.9,106.5714133126395,784.0714276177542,4644.4,106.5714133126395,784.0714276177542,4749.3,106.5714133126395,784.0714276177542,4849.8,106.5714133126395,784.0714276177542,4954.5]","[1473.6,1473.6,1000,0,473.6,""smooth"",""down"",""down"",""good_move"",4324.8,2850.1,2397.8,1474.7,452.3,""smooth"",""down"",""down"",""good_move"",7541.5,3216.4,2833,4325.1,383.4,""oops"",""left"",""down"",""good_move"",10921.3,3379.4,2961,7541.9,418.4,""smooth"",""left"",""left"",""good_move"",14125.7,3203.2,2799.5,10922.6,403.6,""smooth"",""left"",""left"",""good_move"",22984.9,8858.9,2339.1,20250.9,394.9,""smooth"",""left"",""left"",""good_move""]","",""
"4624","","<div style=""width:500px;"">
  <p>What determined the result of this run?</p>
  </div>","99","html-slider-response","15","294810","0.0-5.0-1.1","248","1","2025-07-30 08:36:28","1f75c3e559b7213887762d5229550c2b","102.222.12.73","Mozilla/5.0 (Windows NT 10.0; Win64; x64) AppleWebKit/537.36 (KHTML, like Gecko) Chrome/138.0.0.0 Safari/537.36","WebKit","Chrome","138.0.0.0","Windows","10.0","https://app.prolific.com/","en-ZA,en-GB;q=0.9,en-US;q=0.8,en;q=0.7,en-GB-oxendict;q=0.6","605b838b80f022835fc293fb","6877631c9844ddd5501205fc","6889d9807aae9b4ddc909ad5","3","1","605b838b80f022835fc293fb","3","1","2025-07-30T08:41:24.881Z","","","","","","","","","","","AttribQ","","50","","","","","","","","","","","","","","","","","","","","","","","","","","","","",""
"4333","","<div style=""width:500px;"">
  <p>How much control did you have over the ball?</p>
  </div>","99","html-slider-response","16","299145","0.0-5.0-2.1","248","1","2025-07-30 08:36:28","1f75c3e559b7213887762d5229550c2b","102.222.12.73","Mozilla/5.0 (Windows NT 10.0; Win64; x64) AppleWebKit/537.36 (KHTML, like Gecko) Chrome/138.0.0.0 Safari/537.36","WebKit","Chrome","138.0.0.0","Windows","10.0","https://app.prolific.com/","en-ZA,en-GB;q=0.9,en-US;q=0.8,en;q=0.7,en-GB-oxendict;q=0.6","605b838b80f022835fc293fb","6877631c9844ddd5501205fc","6889d9807aae9b4ddc909ad5","3","1","605b838b80f022835fc293fb","3","1","2025-07-30T08:41:29.216Z","","","","","","","","","","","ControlQ","","50","","","","","","","","","","","","","","","","","","","","","","","","","","","","",""
"3078","","<div style=""width:500px;"">
  <p>How would you describe your current emotional state?</p>
  </div>","2","html-slider-response","17","302224","0.0-5.0-3.1","248","1","2025-07-30 08:36:28","1f75c3e559b7213887762d5229550c2b","102.222.12.73","Mozilla/5.0 (Windows NT 10.0; Win64; x64) AppleWebKit/537.36 (KHTML, like Gecko) Chrome/138.0.0.0 Safari/537.36","WebKit","Chrome","138.0.0.0","Windows","10.0","https://app.prolific.com/","en-ZA,en-GB;q=0.9,en-US;q=0.8,en;q=0.7,en-GB-oxendict;q=0.6","605b838b80f022835fc293fb","6877631c9844ddd5501205fc","6889d9807aae9b4ddc909ad5","3","1","605b838b80f022835fc293fb","3","1","2025-07-30T08:41:32.295Z","","","","","","","","","","","StressQ","","50","","","","","","","","","","","","","","","","","","","","","","","","","","","","",""
"5791","","<div style=""width:500px;"">
  <p>What best describes how you currently feel?</p>
  </div>","97","html-slider-response","18","308017","0.0-5.0-4.1","248","1","2025-07-30 08:36:28","1f75c3e559b7213887762d5229550c2b","102.222.12.73","Mozilla/5.0 (Windows NT 10.0; Win64; x64) AppleWebKit/537.36 (KHTML, like Gecko) Chrome/138.0.0.0 Safari/537.36","WebKit","Chrome","138.0.0.0","Windows","10.0","https://app.prolific.com/","en-ZA,en-GB;q=0.9,en-US;q=0.8,en;q=0.7,en-GB-oxendict;q=0.6","605b838b80f022835fc293fb","6877631c9844ddd5501205fc","6889d9807aae9b4ddc909ad5","3","1","605b838b80f022835fc293fb","3","1","2025-07-30T08:41:38.089Z","","","","","","","","","","","MotivationQ","","50","","","","","","","","","","","","","","","","","","","","","","","","","","","","",""
"","","","","ctl-task-cpt","19","341460","0.0-5.0-0.2","248","1","2025-07-30 08:36:28","1f75c3e559b7213887762d5229550c2b","102.222.12.73","Mozilla/5.0 (Windows NT 10.0; Win64; x64) AppleWebKit/537.36 (KHTML, like Gecko) Chrome/138.0.0.0 Safari/537.36","WebKit","Chrome","138.0.0.0","Windows","10.0","https://app.prolific.com/","en-ZA,en-GB;q=0.9,en-US;q=0.8,en;q=0.7,en-GB-oxendict;q=0.6","605b838b80f022835fc293fb","6877631c9844ddd5501205fc","6889d9807aae9b4ddc909ad5","3","1","605b838b80f022835fc293fb","3","1","2025-07-30T08:42:11.532Z","","","","","","","","","","","","","","win-only","1","g1:NE,g2:SW","0.8","3","0","311626.3","1428.7","6432","30422.1","1","4","4","6","2","-4","-5","7","12","0.05303030303030303","1512.5","3000","-2175","[""down"",""left""]","{""num_key_presses"":6,""num_perfect"":4,""num_errors"":1,""num_randdir"":1,""num_randdir_good_moves"":0,""num_whilered"":0,""num_whileblue"":0,""num_blue"":1,""num_good_moves"":4}","[412.8214133126395,409.07142761775424,0.2,412.8214133126395,409.07142761775424,100.8,412.8214133126395,409.07142761775424,205.2,412.8214133126395,409.07142761775424,314.7,412.8214133126395,409.07142761775424,418.3,412.8214133126395,409.07142761775424,525.4,412.8214133126395,409.07142761775424,632.5,301.5714133126395,481.57142761775424,733.4,161.5714133126395,651.5714276177542,837,144.0714133126395,671.5714276177542,937.8,140.3214133126395,671.5714276177542,1040.7,107.8214133126395,722.8214276177542,1146.7,104.0714133126395,737.8214276177542,1249,104.0714133126395,737.8214276177542,1351.9,104.0714133126395,737.8214276177542,1452.8,104.0714133126395,737.8214276177542,1552.8,104.0714133126395,737.8214276177542,1654.6,104.0714133126395,737.8214276177542,1761.9,104.0714133126395,737.8214276177542,1862.4,104.0714133126395,737.8214276177542,1964.3,122.8214133126395,795.3214276177542,2067.5,157.8214133126395,889.0714276177542,2167.5,157.8214133126395,889.0714276177542,2275.1,157.8214133126395,889.0714276177542,2376.3,157.8214133126395,889.0714276177542,2476.4,157.8214133126395,889.0714276177542,2580.4,157.8214133126395,889.0714276177542,2682.4,157.8214133126395,889.0714276177542,2789.3,157.8214133126395,889.0714276177542,2896.2,157.8214133126395,889.0714276177542,2997.2,157.8214133126395,889.0714276177542,3101.8,157.8214133126395,889.0714276177542,3202.2,157.8214133126395,889.0714276177542,3303.4,157.8214133126395,889.0714276177542,3410.4,157.8214133126395,889.0714276177542,3510.6,157.8214133126395,889.0714276177542,3612.5,157.8214133126395,889.0714276177542,3713,157.8214133126395,889.0714276177542,3818.6,157.8214133126395,889.0714276177542,3925.7,157.8214133126395,889.0714276177542,4030.7,157.8214133126395,889.0714276177542,4133.4,157.8214133126395,889.0714276177542,4241.3,157.8214133126395,889.0714276177542,4345,157.8214133126395,889.0714276177542,4445.3,157.8214133126395,889.0714276177542,4545.5,157.8214133126395,889.0714276177542,4647.7,157.8214133126395,889.0714276177542,4750.6,157.8214133126395,889.0714276177542,4852.3,157.8214133126395,889.0714276177542,4960.4]","[1439.8,1439.9,1000,0,439.9,""smooth"",""left"",""left"",""good_move"",4404.6,2964.2,2522.6,1440.4,441.6,""smooth"",""down"",""down"",""good_move"",8011.2,3605.2,3103.1,4406.1,502,""smooth"",""down"",""down"",""good_move"",11897.1,3885.6,2876.7,8011.5,1008.9,""smooth"",""left"",""left"",""good_move"",19258.8,7360.9,2586.8,15973.4,698.6,""oops"",""left"",""right"",""bad_move"",20059.6,800.5,2280.1,19259.1,-1479.6,""error"",""-"",""-"",""no_move""]","",""
"6507","","<div style=""width:500px;"">
  <p>What determined the result of this run?</p>
  </div>","99","html-slider-response","20","347969","0.0-5.0-1.2","248","1","2025-07-30 08:36:28","1f75c3e559b7213887762d5229550c2b","102.222.12.73","Mozilla/5.0 (Windows NT 10.0; Win64; x64) AppleWebKit/537.36 (KHTML, like Gecko) Chrome/138.0.0.0 Safari/537.36","WebKit","Chrome","138.0.0.0","Windows","10.0","https://app.prolific.com/","en-ZA,en-GB;q=0.9,en-US;q=0.8,en;q=0.7,en-GB-oxendict;q=0.6","605b838b80f022835fc293fb","6877631c9844ddd5501205fc","6889d9807aae9b4ddc909ad5","3","1","605b838b80f022835fc293fb","3","1","2025-07-30T08:42:18.040Z","","","","","","","","","","","AttribQ","","50","","","","","","","","","","","","","","","","","","","","","","","","","","","","",""
"4336","","<div style=""width:500px;"">
  <p>How much control did you have over the ball?</p>
  </div>","59","html-slider-response","21","352307","0.0-5.0-2.2","248","1","2025-07-30 08:36:28","1f75c3e559b7213887762d5229550c2b","102.222.12.73","Mozilla/5.0 (Windows NT 10.0; Win64; x64) AppleWebKit/537.36 (KHTML, like Gecko) Chrome/138.0.0.0 Safari/537.36","WebKit","Chrome","138.0.0.0","Windows","10.0","https://app.prolific.com/","en-ZA,en-GB;q=0.9,en-US;q=0.8,en;q=0.7,en-GB-oxendict;q=0.6","605b838b80f022835fc293fb","6877631c9844ddd5501205fc","6889d9807aae9b4ddc909ad5","3","1","605b838b80f022835fc293fb","3","1","2025-07-30T08:42:22.378Z","","","","","","","","","","","ControlQ","","50","","","","","","","","","","","","","","","","","","","","","","","","","","","","",""
"3243","","<div style=""width:500px;"">
  <p>How would you describe your current emotional state?</p>
  </div>","28","html-slider-response","22","355552","0.0-5.0-3.2","248","1","2025-07-30 08:36:28","1f75c3e559b7213887762d5229550c2b","102.222.12.73","Mozilla/5.0 (Windows NT 10.0; Win64; x64) AppleWebKit/537.36 (KHTML, like Gecko) Chrome/138.0.0.0 Safari/537.36","WebKit","Chrome","138.0.0.0","Windows","10.0","https://app.prolific.com/","en-ZA,en-GB;q=0.9,en-US;q=0.8,en;q=0.7,en-GB-oxendict;q=0.6","605b838b80f022835fc293fb","6877631c9844ddd5501205fc","6889d9807aae9b4ddc909ad5","3","1","605b838b80f022835fc293fb","3","1","2025-07-30T08:42:25.623Z","","","","","","","","","","","StressQ","","50","","","","","","","","","","","","","","","","","","","","","","","","","","","","",""
"3843","","<div style=""width:500px;"">
  <p>What best describes how you currently feel?</p>
  </div>","81","html-slider-response","23","359396","0.0-5.0-4.2","248","1","2025-07-30 08:36:28","1f75c3e559b7213887762d5229550c2b","102.222.12.73","Mozilla/5.0 (Windows NT 10.0; Win64; x64) AppleWebKit/537.36 (KHTML, like Gecko) Chrome/138.0.0.0 Safari/537.36","WebKit","Chrome","138.0.0.0","Windows","10.0","https://app.prolific.com/","en-ZA,en-GB;q=0.9,en-US;q=0.8,en;q=0.7,en-GB-oxendict;q=0.6","605b838b80f022835fc293fb","6877631c9844ddd5501205fc","6889d9807aae9b4ddc909ad5","3","1","605b838b80f022835fc293fb","3","1","2025-07-30T08:42:29.467Z","","","","","","","","","","","MotivationQ","","50","","","","","","","","","","","","","","","","","","","","","","","","","","","","",""
"","","","","ctl-task-cpt","24","392346","0.0-5.0-0.3","248","1","2025-07-30 08:36:28","1f75c3e559b7213887762d5229550c2b","102.222.12.73","Mozilla/5.0 (Windows NT 10.0; Win64; x64) AppleWebKit/537.36 (KHTML, like Gecko) Chrome/138.0.0.0 Safari/537.36","WebKit","Chrome","138.0.0.0","Windows","10.0","https://app.prolific.com/","en-ZA,en-GB;q=0.9,en-US;q=0.8,en;q=0.7,en-GB-oxendict;q=0.6","605b838b80f022835fc293fb","6877631c9844ddd5501205fc","6889d9807aae9b4ddc909ad5","3","1","605b838b80f022835fc293fb","3","1","2025-07-30T08:43:02.417Z","","","","","","","","","","","","","","win-only","1","g1:NE,g2:SW","0.7","4","0","363004.1","1318.4","6319.1","29929.7","1","4","8","6","2","8","8","15","7","0.11363636363636363","1281.3","3000","290","[""down"",""left""]","{""num_key_presses"":8,""num_perfect"":7,""num_errors"":0,""num_randdir"":1,""num_randdir_good_moves"":0,""num_whilered"":0,""num_whileblue"":0,""num_blue"":0,""num_good_moves"":7}","[425.3214133126395,415.32142761775424,0.2,425.3214133126395,415.32142761775424,102.7,425.3214133126395,415.32142761775424,208.9,425.3214133126395,415.32142761775424,316.4,425.3214133126395,415.32142761775424,420.1,322.8214133126395,411.57142761775424,523.5,177.8214133126395,647.8214276177542,623.6,125.3214133126395,766.5714276177542,723.7,111.5714133126395,780.3214276177542,833.2,100.3214133126395,776.5714276177542,936.2,97.8214133126395,774.0714276177542,1036.2,97.8214133126395,774.0714276177542,1138.5,97.8214133126395,774.0714276177542,1239.1,97.8214133126395,774.0714276177542,1345.6,97.8214133126395,774.0714276177542,1447.7,97.8214133126395,774.0714276177542,1553.9,97.8214133126395,774.0714276177542,1657.1,97.8214133126395,774.0714276177542,1760.6,97.8214133126395,774.0714276177542,1866.4,97.8214133126395,774.0714276177542,1970.5,97.8214133126395,774.0714276177542,2072.1,97.8214133126395,774.0714276177542,2172.3,97.8214133126395,774.0714276177542,2273.2,97.8214133126395,774.0714276177542,2374.8,97.8214133126395,774.0714276177542,2480.3,97.8214133126395,774.0714276177542,2582.3,97.8214133126395,774.0714276177542,2688.1,97.8214133126395,774.0714276177542,2794.9,97.8214133126395,774.0714276177542,2897,97.8214133126395,774.0714276177542,3000.5,97.8214133126395,774.0714276177542,3101.7,97.8214133126395,774.0714276177542,3202.2,97.8214133126395,774.0714276177542,3310.2,97.8214133126395,774.0714276177542,3412.4,97.8214133126395,774.0714276177542,3517.2,97.8214133126395,774.0714276177542,3617.9,97.8214133126395,774.0714276177542,3720.2,97.8214133126395,774.0714276177542,3835.5,97.8214133126395,774.0714276177542,3938.6,97.8214133126395,774.0714276177542,4040.7,97.8214133126395,774.0714276177542,4146.4,97.8214133126395,774.0714276177542,4250.9,97.8214133126395,774.0714276177542,4351.8,97.8214133126395,774.0714276177542,4453,97.8214133126395,774.0714276177542,4554.2,97.8214133126395,774.0714276177542,4659.9,97.8214133126395,774.0714276177542,4761,97.8214133126395,774.0714276177542,4866.2,97.8214133126395,774.0714276177542,4968.2]","[1395.2,1395.2,1000,0,395.2,""smooth"",""left"",""left"",""good_move"",4665.8,3269.8,2857.3,1396,412.5,""smooth"",""down"",""down"",""good_move"",8041.2,3374.9,2959,4666.3,415.9,""smooth"",""down"",""down"",""good_move"",10940.8,2899.2,2486.8,8041.6,412.4,""smooth"",""left"",""left"",""good_move"",13990.9,3049.9,2544.9,10941,505,""smooth"",""left"",""left"",""good_move"",17632.3,3641,3222.8,13991.3,418.2,""oops"",""down"",""up"",""bad_move"",20540.9,2908.3,2446.4,17632.7,461.9,""smooth"",""down"",""down"",""good_move"",23491.7,2950.2,2585.8,20541.5,364.4,""smooth"",""down"",""down"",""good_move""]","",""
"4039","","<div style=""width:500px;"">
  <p>What determined the result of this run?</p>
  </div>","91","html-slider-response","25","396386","0.0-5.0-1.3","248","1","2025-07-30 08:36:28","1f75c3e559b7213887762d5229550c2b","102.222.12.73","Mozilla/5.0 (Windows NT 10.0; Win64; x64) AppleWebKit/537.36 (KHTML, like Gecko) Chrome/138.0.0.0 Safari/537.36","WebKit","Chrome","138.0.0.0","Windows","10.0","https://app.prolific.com/","en-ZA,en-GB;q=0.9,en-US;q=0.8,en;q=0.7,en-GB-oxendict;q=0.6","605b838b80f022835fc293fb","6877631c9844ddd5501205fc","6889d9807aae9b4ddc909ad5","3","1","605b838b80f022835fc293fb","3","1","2025-07-30T08:43:06.457Z","","","","","","","","","","","AttribQ","","50","","","","","","","","","","","","","","","","","","","","","","","","","","","","",""
"3275","","<div style=""width:500px;"">
  <p>How much control did you have over the ball?</p>
  </div>","79","html-slider-response","26","399662","0.0-5.0-2.3","248","1","2025-07-30 08:36:28","1f75c3e559b7213887762d5229550c2b","102.222.12.73","Mozilla/5.0 (Windows NT 10.0; Win64; x64) AppleWebKit/537.36 (KHTML, like Gecko) Chrome/138.0.0.0 Safari/537.36","WebKit","Chrome","138.0.0.0","Windows","10.0","https://app.prolific.com/","en-ZA,en-GB;q=0.9,en-US;q=0.8,en;q=0.7,en-GB-oxendict;q=0.6","605b838b80f022835fc293fb","6877631c9844ddd5501205fc","6889d9807aae9b4ddc909ad5","3","1","605b838b80f022835fc293fb","3","1","2025-07-30T08:43:09.734Z","","","","","","","","","","","ControlQ","","50","","","","","","","","","","","","","","","","","","","","","","","","","","","","",""
"3471","","<div style=""width:500px;"">
  <p>How would you describe your current emotional state?</p>
  </div>","15","html-slider-response","27","403135","0.0-5.0-3.3","248","1","2025-07-30 08:36:28","1f75c3e559b7213887762d5229550c2b","102.222.12.73","Mozilla/5.0 (Windows NT 10.0; Win64; x64) AppleWebKit/537.36 (KHTML, like Gecko) Chrome/138.0.0.0 Safari/537.36","WebKit","Chrome","138.0.0.0","Windows","10.0","https://app.prolific.com/","en-ZA,en-GB;q=0.9,en-US;q=0.8,en;q=0.7,en-GB-oxendict;q=0.6","605b838b80f022835fc293fb","6877631c9844ddd5501205fc","6889d9807aae9b4ddc909ad5","3","1","605b838b80f022835fc293fb","3","1","2025-07-30T08:43:13.206Z","","","","","","","","","","","StressQ","","50","","","","","","","","","","","","","","","","","","","","","","","","","","","","",""
"4529","","<div style=""width:500px;"">
  <p>What best describes how you currently feel?</p>
  </div>","94","html-slider-response","28","407666","0.0-5.0-4.3","248","1","2025-07-30 08:36:28","1f75c3e559b7213887762d5229550c2b","102.222.12.73","Mozilla/5.0 (Windows NT 10.0; Win64; x64) AppleWebKit/537.36 (KHTML, like Gecko) Chrome/138.0.0.0 Safari/537.36","WebKit","Chrome","138.0.0.0","Windows","10.0","https://app.prolific.com/","en-ZA,en-GB;q=0.9,en-US;q=0.8,en;q=0.7,en-GB-oxendict;q=0.6","605b838b80f022835fc293fb","6877631c9844ddd5501205fc","6889d9807aae9b4ddc909ad5","3","1","605b838b80f022835fc293fb","3","1","2025-07-30T08:43:17.737Z","","","","","","","","","","","MotivationQ","","50","","","","","","","","","","","","","","","","","","","","","","","","","","","","",""
"","","","","ctl-task-cpt","29","436694","0.0-5.0-0.4","248","1","2025-07-30 08:36:28","1f75c3e559b7213887762d5229550c2b","102.222.12.73","Mozilla/5.0 (Windows NT 10.0; Win64; x64) AppleWebKit/537.36 (KHTML, like Gecko) Chrome/138.0.0.0 Safari/537.36","WebKit","Chrome","138.0.0.0","Windows","10.0","https://app.prolific.com/","en-ZA,en-GB;q=0.9,en-US;q=0.8,en;q=0.7,en-GB-oxendict;q=0.6","605b838b80f022835fc293fb","6877631c9844ddd5501205fc","6889d9807aae9b4ddc909ad5","3","1","605b838b80f022835fc293fb","3","1","2025-07-30T08:43:46.765Z","","","","","","","","","","","","","","win-only","3","g1:SW,g2:NE","0.6","5","0","411274.9","1649","6656.2","26001.6","1","4","4","6","2","4","4","19","15","0.14393939393939395","1483.2","3000","980","[""up"",""right""]","{""num_key_presses"":6,""num_perfect"":3,""num_errors"":0,""num_randdir"":3,""num_randdir_good_moves"":3,""num_whilered"":0,""num_whileblue"":0,""num_blue"":1,""num_good_moves"":6}","[414.0714133126395,417.82142761775424,0.3,414.0714133126395,417.82142761775424,100.8,414.0714133126395,417.82142761775424,206.6,414.0714133126395,417.82142761775424,315.6,414.0714133126395,417.82142761775424,417.1,414.0714133126395,417.82142761775424,522.9,382.8214133126395,402.82142761775424,624.9,449.0714133126395,305.32142761775424,730.9,681.5714133126395,164.07142761775424,837.9,700.3214133126395,155.32142761775424,939.4,719.0714133126395,140.32142761775424,1045.3,754.0714133126395,97.82142761775425,1153.9,756.5714133126395,96.57142761775425,1260.1,756.5714133126395,96.57142761775425,1367.9,756.5714133126395,96.57142761775425,1473.7,756.5714133126395,96.57142761775425,1582.9,756.5714133126395,96.57142761775425,1683,756.5714133126395,96.57142761775425,1789.1,756.5714133126395,96.57142761775425,1894.1,756.5714133126395,96.57142761775425,1996.7,756.5714133126395,96.57142761775425,2099.7,756.5714133126395,96.57142761775425,2201.6,756.5714133126395,96.57142761775425,2301.9,756.5714133126395,96.57142761775425,2402.2,756.5714133126395,96.57142761775425,2506.7,756.5714133126395,96.57142761775425,2615,756.5714133126395,96.57142761775425,2720.7,756.5714133126395,96.57142761775425,2822.5,756.5714133126395,96.57142761775425,2930,756.5714133126395,96.57142761775425,3036.9,756.5714133126395,96.57142761775425,3141.7,756.5714133126395,96.57142761775425,3247.3,756.5714133126395,96.57142761775425,3351.2,756.5714133126395,96.57142761775425,3454.2,756.5714133126395,96.57142761775425,3559.1,756.5714133126395,96.57142761775425,3667.8,756.5714133126395,96.57142761775425,3769.8,756.5714133126395,96.57142761775425,3873.3,756.5714133126395,96.57142761775425,3978.3,756.5714133126395,96.57142761775425,4078.4,756.5714133126395,96.57142761775425,4182,756.5714133126395,96.57142761775425,4289.2,756.5714133126395,96.57142761775425,4390.6,756.5714133126395,96.57142761775425,4498.5,756.5714133126395,96.57142761775425,4602.2,756.5714133126395,96.57142761775425,4704.5,756.5714133126395,96.57142761775425,4810.1,756.5714133126395,96.57142761775425,4916.6]","[4872.1,4872.1,2444.2,2009.5,418.4,""oops"",""up"",""right"",""good_move"",8213.5,3341,2914.5,4872.6,426.4,""smooth"",""up"",""up"",""good_move"",11621.2,3407.4,2953.5,8213.8,453.9,""oops"",""up"",""up"",""good_move"",14208.3,2586.8,1783.9,11621.5,802.9,""smooth"",""up"",""up"",""good_move"",16845,2635.7,2255.3,14209.3,380.5,""oops"",""right"",""right"",""good_move"",19219.6,2374.2,1998.3,16845.4,375.9,""smooth"",""right"",""right"",""good_move""]","",""
"3389","","<div style=""width:500px;"">
  <p>What determined the result of this run?</p>
  </div>","96","html-slider-response","30","440085","0.0-5.0-1.4","248","1","2025-07-30 08:36:28","1f75c3e559b7213887762d5229550c2b","102.222.12.73","Mozilla/5.0 (Windows NT 10.0; Win64; x64) AppleWebKit/537.36 (KHTML, like Gecko) Chrome/138.0.0.0 Safari/537.36","WebKit","Chrome","138.0.0.0","Windows","10.0","https://app.prolific.com/","en-ZA,en-GB;q=0.9,en-US;q=0.8,en;q=0.7,en-GB-oxendict;q=0.6","605b838b80f022835fc293fb","6877631c9844ddd5501205fc","6889d9807aae9b4ddc909ad5","3","1","605b838b80f022835fc293fb","3","1","2025-07-30T08:43:50.156Z","","","","","","","","","","","AttribQ","","50","","","","","","","","","","","","","","","","","","","","","","","","","","","","",""
"3917","","<div style=""width:500px;"">
  <p>How much control did you have over the ball?</p>
  </div>","82","html-slider-response","31","444003","0.0-5.0-2.4","248","1","2025-07-30 08:36:28","1f75c3e559b7213887762d5229550c2b","102.222.12.73","Mozilla/5.0 (Windows NT 10.0; Win64; x64) AppleWebKit/537.36 (KHTML, like Gecko) Chrome/138.0.0.0 Safari/537.36","WebKit","Chrome","138.0.0.0","Windows","10.0","https://app.prolific.com/","en-ZA,en-GB;q=0.9,en-US;q=0.8,en;q=0.7,en-GB-oxendict;q=0.6","605b838b80f022835fc293fb","6877631c9844ddd5501205fc","6889d9807aae9b4ddc909ad5","3","1","605b838b80f022835fc293fb","3","1","2025-07-30T08:43:54.075Z","","","","","","","","","","","ControlQ","","50","","","","","","","","","","","","","","","","","","","","","","","","","","","","",""
"3717","","<div style=""width:500px;"">
  <p>How would you describe your current emotional state?</p>
  </div>","15","html-slider-response","32","447723","0.0-5.0-3.4","248","1","2025-07-30 08:36:28","1f75c3e559b7213887762d5229550c2b","102.222.12.73","Mozilla/5.0 (Windows NT 10.0; Win64; x64) AppleWebKit/537.36 (KHTML, like Gecko) Chrome/138.0.0.0 Safari/537.36","WebKit","Chrome","138.0.0.0","Windows","10.0","https://app.prolific.com/","en-ZA,en-GB;q=0.9,en-US;q=0.8,en;q=0.7,en-GB-oxendict;q=0.6","605b838b80f022835fc293fb","6877631c9844ddd5501205fc","6889d9807aae9b4ddc909ad5","3","1","605b838b80f022835fc293fb","3","1","2025-07-30T08:43:57.794Z","","","","","","","","","","","StressQ","","50","","","","","","","","","","","","","","","","","","","","","","","","","","","","",""
"4365","","<div style=""width:500px;"">
  <p>What best describes how you currently feel?</p>
  </div>","92","html-slider-response","33","452089","0.0-5.0-4.4","248","1","2025-07-30 08:36:28","1f75c3e559b7213887762d5229550c2b","102.222.12.73","Mozilla/5.0 (Windows NT 10.0; Win64; x64) AppleWebKit/537.36 (KHTML, like Gecko) Chrome/138.0.0.0 Safari/537.36","WebKit","Chrome","138.0.0.0","Windows","10.0","https://app.prolific.com/","en-ZA,en-GB;q=0.9,en-US;q=0.8,en;q=0.7,en-GB-oxendict;q=0.6","605b838b80f022835fc293fb","6877631c9844ddd5501205fc","6889d9807aae9b4ddc909ad5","3","1","605b838b80f022835fc293fb","3","1","2025-07-30T08:44:02.161Z","","","","","","","","","","","MotivationQ","","50","","","","","","","","","","","","","","","","","","","","","","","","","","","","",""
"","","","","ctl-task-cpt","34","501470","0.0-5.0-0.5","248","1","2025-07-30 08:36:28","1f75c3e559b7213887762d5229550c2b","102.222.12.73","Mozilla/5.0 (Windows NT 10.0; Win64; x64) AppleWebKit/537.36 (KHTML, like Gecko) Chrome/138.0.0.0 Safari/537.36","WebKit","Chrome","138.0.0.0","Windows","10.0","https://app.prolific.com/","en-ZA,en-GB;q=0.9,en-US;q=0.8,en;q=0.7,en-GB-oxendict;q=0.6","605b838b80f022835fc293fb","6877631c9844ddd5501205fc","6889d9807aae9b4ddc909ad5","3","1","605b838b80f022835fc293fb","3","1","2025-07-30T08:44:51.541Z","","","","","","","","","","","","","","win-only","0","g1:NW,g2:SE","0.5","6","0","455697.7","1432.7","6440.6","46362.7","1","4","8","6","2","-8","-9","10","19","0.07575757575757576","1563.6","3000","-1815","[""down"",""right""]","{""num_key_presses"":13,""num_perfect"":7,""num_errors"":1,""num_randdir"":5,""num_randdir_good_moves"":1,""num_whilered"":0,""num_whileblue"":1,""num_blue"":1,""num_good_moves"":8}","[414.0714133126395,411.57142761775424,0.2,414.0714133126395,411.57142761775424,106.7,414.0714133126395,411.57142761775424,215.6,414.0714133126395,411.57142761775424,319.2,414.0714133126395,411.57142761775424,424.6,414.0714133126395,411.57142761775424,530.9,414.0714133126395,411.57142761775424,635.5,386.5714133126395,382.82142761775424,737,384.0714133126395,319.07142761775424,838,656.5714133126395,664.0714276177542,943.7,756.5714133126395,745.3214276177542,1043.9,764.0714133126395,750.3214276177542,1148.4,766.5714133126395,750.3214276177542,1255.1,762.8214133126395,731.5714276177542,1357.8,762.8214133126395,731.5714276177542,1460.1,762.8214133126395,731.5714276177542,1569.9,762.8214133126395,731.5714276177542,1672.4,762.8214133126395,731.5714276177542,1781.1,762.8214133126395,731.5714276177542,1885.1,762.8214133126395,731.5714276177542,1991.4,762.8214133126395,731.5714276177542,2098.3,762.8214133126395,731.5714276177542,2204.8,762.8214133126395,731.5714276177542,2305.1,762.8214133126395,731.5714276177542,2407.3,762.8214133126395,731.5714276177542,2514.4,762.8214133126395,731.5714276177542,2634.1,762.8214133126395,731.5714276177542,2740.7,762.8214133126395,731.5714276177542,2845.1,762.8214133126395,731.5714276177542,2946.2,762.8214133126395,731.5714276177542,3047.7,762.8214133126395,731.5714276177542,3149.6,762.8214133126395,731.5714276177542,3254.9,762.8214133126395,731.5714276177542,3357.3,762.8214133126395,731.5714276177542,3458.9,762.8214133126395,731.5714276177542,3560.1,762.8214133126395,731.5714276177542,3670.1,762.8214133126395,731.5714276177542,3771.4,762.8214133126395,731.5714276177542,3876,762.8214133126395,731.5714276177542,3981,762.8214133126395,731.5714276177542,4086,762.8214133126395,731.5714276177542,4190.4,762.8214133126395,731.5714276177542,4300,762.8214133126395,731.5714276177542,4404.7,762.8214133126395,731.5714276177542,4505.1,762.8214133126395,731.5714276177542,4609.1,762.8214133126395,731.5714276177542,4711,762.8214133126395,731.5714276177542,4812.7,762.8214133126395,731.5714276177542,4918.5]","[1388.2,1388.2,1000,0,388.2,""smooth"",""down"",""down"",""good_move"",4288.4,2900,2494.9,1388.6,405,""oops"",""down"",""left"",""bad_move"",6429.6,2140.7,1098.9,4288.9,1041.8,""oops"",""right"",""left"",""bad_move"",9255,2825.2,2436.7,6429.8,388.5,""smooth"",""right"",""right"",""good_move"",11702.8,2447.3,2101.7,9255.5,345.6,""smooth"",""right"",""right"",""good_move"",15094,3390.8,3008.1,11703.2,382.7,""while_blue"",""down"",""up"",""bad_move"",18109.2,3014.6,2612.6,15094.6,402,""oops"",""down"",""right"",""good_move"",21271.8,3162.5,2631.8,18109.3,530.7,""oops"",""down"",""up"",""bad_move"",24975.6,3703.2,3200.6,21272.4,502.6,""smooth"",""down"",""down"",""good_move"",27718.6,2742.6,2371.4,24976,371.2,""oops"",""down"",""up"",""bad_move"",31275.7,3556.7,3140.3,27719,416.4,""smooth"",""down"",""down"",""good_move"",33759.8,2483.9,2100.1,31275.9,383.8,""smooth"",""down"",""down"",""good_move"",36643.2,2883.2,2456.6,33760,426.6,""smooth"",""down"",""down"",""good_move""]","",""
"4989","","<div style=""width:500px;"">
  <p>What determined the result of this run?</p>
  </div>","92","html-slider-response","35","506460","0.0-5.0-1.5","248","1","2025-07-30 08:36:28","1f75c3e559b7213887762d5229550c2b","102.222.12.73","Mozilla/5.0 (Windows NT 10.0; Win64; x64) AppleWebKit/537.36 (KHTML, like Gecko) Chrome/138.0.0.0 Safari/537.36","WebKit","Chrome","138.0.0.0","Windows","10.0","https://app.prolific.com/","en-ZA,en-GB;q=0.9,en-US;q=0.8,en;q=0.7,en-GB-oxendict;q=0.6","605b838b80f022835fc293fb","6877631c9844ddd5501205fc","6889d9807aae9b4ddc909ad5","3","1","605b838b80f022835fc293fb","3","1","2025-07-30T08:44:56.531Z","","","","","","","","","","","AttribQ","","50","","","","","","","","","","","","","","","","","","","","","","","","","","","","",""
"3898","","<div style=""width:500px;"">
  <p>How much control did you have over the ball?</p>
  </div>","91","html-slider-response","36","510359","0.0-5.0-2.5","248","1","2025-07-30 08:36:28","1f75c3e559b7213887762d5229550c2b","102.222.12.73","Mozilla/5.0 (Windows NT 10.0; Win64; x64) AppleWebKit/537.36 (KHTML, like Gecko) Chrome/138.0.0.0 Safari/537.36","WebKit","Chrome","138.0.0.0","Windows","10.0","https://app.prolific.com/","en-ZA,en-GB;q=0.9,en-US;q=0.8,en;q=0.7,en-GB-oxendict;q=0.6","605b838b80f022835fc293fb","6877631c9844ddd5501205fc","6889d9807aae9b4ddc909ad5","3","1","605b838b80f022835fc293fb","3","1","2025-07-30T08:45:00.430Z","","","","","","","","","","","ControlQ","","50","","","","","","","","","","","","","","","","","","","","","","","","","","","","",""
"3965","","<div style=""width:500px;"">
  <p>How would you describe your current emotional state?</p>
  </div>","10","html-slider-response","37","514326","0.0-5.0-3.5","248","1","2025-07-30 08:36:28","1f75c3e559b7213887762d5229550c2b","102.222.12.73","Mozilla/5.0 (Windows NT 10.0; Win64; x64) AppleWebKit/537.36 (KHTML, like Gecko) Chrome/138.0.0.0 Safari/537.36","WebKit","Chrome","138.0.0.0","Windows","10.0","https://app.prolific.com/","en-ZA,en-GB;q=0.9,en-US;q=0.8,en;q=0.7,en-GB-oxendict;q=0.6","605b838b80f022835fc293fb","6877631c9844ddd5501205fc","6889d9807aae9b4ddc909ad5","3","1","605b838b80f022835fc293fb","3","1","2025-07-30T08:45:04.397Z","","","","","","","","","","","StressQ","","50","","","","","","","","","","","","","","","","","","","","","","","","","","","","",""
"5297","","<div style=""width:500px;"">
  <p>What best describes how you currently feel?</p>
  </div>","99","html-slider-response","38","519625","0.0-5.0-4.5","248","1","2025-07-30 08:36:28","1f75c3e559b7213887762d5229550c2b","102.222.12.73","Mozilla/5.0 (Windows NT 10.0; Win64; x64) AppleWebKit/537.36 (KHTML, like Gecko) Chrome/138.0.0.0 Safari/537.36","WebKit","Chrome","138.0.0.0","Windows","10.0","https://app.prolific.com/","en-ZA,en-GB;q=0.9,en-US;q=0.8,en;q=0.7,en-GB-oxendict;q=0.6","605b838b80f022835fc293fb","6877631c9844ddd5501205fc","6889d9807aae9b4ddc909ad5","3","1","605b838b80f022835fc293fb","3","1","2025-07-30T08:45:09.696Z","","","","","","","","","","","MotivationQ","","50","","","","","","","","","","","","","","","","","","","","","","","","","","","","",""
"","","","","ctl-task-cpt","39","558628","0.0-5.0-0.6","248","1","2025-07-30 08:36:28","1f75c3e559b7213887762d5229550c2b","102.222.12.73","Mozilla/5.0 (Windows NT 10.0; Win64; x64) AppleWebKit/537.36 (KHTML, like Gecko) Chrome/138.0.0.0 Safari/537.36","WebKit","Chrome","138.0.0.0","Windows","10.0","https://app.prolific.com/","en-ZA,en-GB;q=0.9,en-US;q=0.8,en;q=0.7,en-GB-oxendict;q=0.6","605b838b80f022835fc293fb","6877631c9844ddd5501205fc","6889d9807aae9b4ddc909ad5","3","1","605b838b80f022835fc293fb","3","1","2025-07-30T08:45:48.699Z","","","","","","","","","","","","","","win-only","0","g1:NW,g2:SE","0.4","7","0","523232.5","1480.8","6486.3","35979","1","4","8","6","2","8","8","18","10","0.13636363636363635","1524.7","3000","1250","[""down"",""right""]","{""num_key_presses"":8,""num_perfect"":4,""num_errors"":0,""num_randdir"":4,""num_randdir_good_moves"":3,""num_whilered"":0,""num_whileblue"":0,""num_blue"":2,""num_good_moves"":7}","[417.8214133126395,411.57142761775424,0.3,417.8214133126395,411.57142761775424,108.2,417.8214133126395,411.57142761775424,213.7,417.8214133126395,411.57142761775424,317.8,417.8214133126395,411.57142761775424,426.8,417.8214133126395,411.57142761775424,539.2,440.3214133126395,424.07142761775424,646,622.8214133126395,650.3214276177542,753.8,642.8214133126395,707.8214276177542,859.5,642.8214133126395,715.3214276177542,966.9,701.5714133126395,725.3214276177542,1077.5,744.0714133126395,735.3214276177542,1186.1,752.8214133126395,736.5714276177542,1293.5,752.8214133126395,736.5714276177542,1398.3,752.8214133126395,736.5714276177542,1498.5,752.8214133126395,736.5714276177542,1606.2,752.8214133126395,736.5714276177542,1712.1,752.8214133126395,736.5714276177542,1817.8,752.8214133126395,736.5714276177542,1921.3,752.8214133126395,736.5714276177542,2021.4,752.8214133126395,736.5714276177542,2123.7,752.8214133126395,736.5714276177542,2225.9,752.8214133126395,736.5714276177542,2327.1,752.8214133126395,736.5714276177542,2427.9,771.5714133126395,781.5714276177542,2539.1,781.5714133126395,826.5714276177542,2648.7,781.5714133126395,830.3214276177542,2756,781.5714133126395,830.3214276177542,2858.2,781.5714133126395,830.3214276177542,2966.3,781.5714133126395,830.3214276177542,3088.9,781.5714133126395,830.3214276177542,3197.3,781.5714133126395,830.3214276177542,3306.3,781.5714133126395,830.3214276177542,3416.2,781.5714133126395,830.3214276177542,3516.2,781.5714133126395,830.3214276177542,3622.1,781.5714133126395,830.3214276177542,3731,781.5714133126395,830.3214276177542,3832.3,781.5714133126395,830.3214276177542,3932.8,781.5714133126395,830.3214276177542,4037.6,781.5714133126395,830.3214276177542,4144.1,781.5714133126395,830.3214276177542,4252.1,781.5714133126395,830.3214276177542,4360.7,781.5714133126395,830.3214276177542,4464.5,781.5714133126395,830.3214276177542,4574.6,781.5714133126395,830.3214276177542,4674.9,781.5714133126395,830.3214276177542,4779.9,781.5714133126395,830.3214276177542,4881.1,781.5714133126395,830.3214276177542,4984.3]","[1458.9,1458.9,1000,0,458.9,""smooth"",""down"",""down"",""good_move"",12226.6,10766.8,3140.6,8680.4,405.6,""oops"",""down"",""right"",""good_move"",14911.6,2684.6,2137,12227,547.6,""smooth"",""down"",""down"",""good_move"",18984.9,4072.4,3625.4,14912.5,447,""smooth"",""down"",""down"",""good_move"",22081.8,3096.5,2558.1,18985.4,538.3,""oops"",""right"",""up"",""bad_move"",24486.3,2404,1402.6,22082.3,1001.4,""oops"",""right"",""right"",""good_move"",27087.5,2600.9,2079,24486.6,521.9,""smooth"",""right"",""right"",""good_move"",29298,2210.1,1819.7,27087.9,390.4,""oops"",""down"",""down"",""good_move""]","",""
"4684","","<div style=""width:500px;"">
  <p>What determined the result of this run?</p>
  </div>","94","html-slider-response","40","563315","0.0-5.0-1.6","248","1","2025-07-30 08:36:28","1f75c3e559b7213887762d5229550c2b","102.222.12.73","Mozilla/5.0 (Windows NT 10.0; Win64; x64) AppleWebKit/537.36 (KHTML, like Gecko) Chrome/138.0.0.0 Safari/537.36","WebKit","Chrome","138.0.0.0","Windows","10.0","https://app.prolific.com/","en-ZA,en-GB;q=0.9,en-US;q=0.8,en;q=0.7,en-GB-oxendict;q=0.6","605b838b80f022835fc293fb","6877631c9844ddd5501205fc","6889d9807aae9b4ddc909ad5","3","1","605b838b80f022835fc293fb","3","1","2025-07-30T08:45:53.386Z","","","","","","","","","","","AttribQ","","50","","","","","","","","","","","","","","","","","","","","","","","","","","","","",""
"3411","","<div style=""width:500px;"">
  <p>How much control did you have over the ball?</p>
  </div>","83","html-slider-response","41","566727","0.0-5.0-2.6","248","1","2025-07-30 08:36:28","1f75c3e559b7213887762d5229550c2b","102.222.12.73","Mozilla/5.0 (Windows NT 10.0; Win64; x64) AppleWebKit/537.36 (KHTML, like Gecko) Chrome/138.0.0.0 Safari/537.36","WebKit","Chrome","138.0.0.0","Windows","10.0","https://app.prolific.com/","en-ZA,en-GB;q=0.9,en-US;q=0.8,en;q=0.7,en-GB-oxendict;q=0.6","605b838b80f022835fc293fb","6877631c9844ddd5501205fc","6889d9807aae9b4ddc909ad5","3","1","605b838b80f022835fc293fb","3","1","2025-07-30T08:45:56.799Z","","","","","","","","","","","ControlQ","","50","","","","","","","","","","","","","","","","","","","","","","","","","","","","",""
"3631","","<div style=""width:500px;"">
  <p>How would you describe your current emotional state?</p>
  </div>","15","html-slider-response","42","570361","0.0-5.0-3.6","248","1","2025-07-30 08:36:28","1f75c3e559b7213887762d5229550c2b","102.222.12.73","Mozilla/5.0 (Windows NT 10.0; Win64; x64) AppleWebKit/537.36 (KHTML, like Gecko) Chrome/138.0.0.0 Safari/537.36","WebKit","Chrome","138.0.0.0","Windows","10.0","https://app.prolific.com/","en-ZA,en-GB;q=0.9,en-US;q=0.8,en;q=0.7,en-GB-oxendict;q=0.6","605b838b80f022835fc293fb","6877631c9844ddd5501205fc","6889d9807aae9b4ddc909ad5","3","1","605b838b80f022835fc293fb","3","1","2025-07-30T08:46:00.432Z","","","","","","","","","","","StressQ","","50","","","","","","","","","","","","","","","","","","","","","","","","","","","","",""
"3015","","<div style=""width:500px;"">
  <p>What best describes how you currently feel?</p>
  </div>","100","html-slider-response","43","573377","0.0-5.0-4.6","248","1","2025-07-30 08:36:28","1f75c3e559b7213887762d5229550c2b","102.222.12.73","Mozilla/5.0 (Windows NT 10.0; Win64; x64) AppleWebKit/537.36 (KHTML, like Gecko) Chrome/138.0.0.0 Safari/537.36","WebKit","Chrome","138.0.0.0","Windows","10.0","https://app.prolific.com/","en-ZA,en-GB;q=0.9,en-US;q=0.8,en;q=0.7,en-GB-oxendict;q=0.6","605b838b80f022835fc293fb","6877631c9844ddd5501205fc","6889d9807aae9b4ddc909ad5","3","1","605b838b80f022835fc293fb","3","1","2025-07-30T08:46:03.448Z","","","","","","","","","","","MotivationQ","","50","","","","","","","","","","","","","","","","","","","","","","","","","","","","",""
"","","","","ctl-task-cpt","44","638062","0.0-5.0-0.7","248","1","2025-07-30 08:36:28","1f75c3e559b7213887762d5229550c2b","102.222.12.73","Mozilla/5.0 (Windows NT 10.0; Win64; x64) AppleWebKit/537.36 (KHTML, like Gecko) Chrome/138.0.0.0 Safari/537.36","WebKit","Chrome","138.0.0.0","Windows","10.0","https://app.prolific.com/","en-ZA,en-GB;q=0.9,en-US;q=0.8,en;q=0.7,en-GB-oxendict;q=0.6","605b838b80f022835fc293fb","6877631c9844ddd5501205fc","6889d9807aae9b4ddc909ad5","3","1","605b838b80f022835fc293fb","3","1","2025-07-30T08:47:08.134Z","","","","","","","","","","","","","","win-only","2","g1:SE,g2:NW","0.3","8","0","576985.3","1747","6756.8","61665.3","1","4","4","6","2","4","4","22","18","0.16666666666666666","1666","3000","565","[""left"",""up""]","{""num_key_presses"":14,""num_perfect"":5,""num_errors"":0,""num_randdir"":9,""num_randdir_good_moves"":5,""num_whilered"":0,""num_whileblue"":0,""num_blue"":4,""num_good_moves"":10}","[411.5714133126395,421.57142761775424,0.2,411.5714133126395,421.57142761775424,110.2,411.5714133126395,421.57142761775424,211.5,411.5714133126395,421.57142761775424,320.4,411.5714133126395,421.57142761775424,430.1,411.5714133126395,421.57142761775424,542.2,411.5714133126395,421.57142761775424,649.4,411.5714133126395,421.57142761775424,752.8,411.5714133126395,421.57142761775424,860.2,241.5714133126395,274.07142761775424,960.6,121.5714133126395,151.57142761775424,1067.2,111.5714133126395,112.82142761775425,1169.3,111.5714133126395,110.32142761775425,1279.2,111.5714133126395,110.32142761775425,1391.9,111.5714133126395,110.32142761775425,1500,111.5714133126395,110.32142761775425,1608.4,111.5714133126395,110.32142761775425,1718.2,111.5714133126395,110.32142761775425,1818.2,111.5714133126395,110.32142761775425,1930.6,111.5714133126395,110.32142761775425,2039.8,140.3214133126395,176.57142761775424,2142.4,241.5714133126395,376.57142761775424,2250.4,266.5714133126395,422.82142761775424,2351.4,266.5714133126395,422.82142761775424,2460.3,266.5714133126395,422.82142761775424,2573.3,266.5714133126395,422.82142761775424,2682,266.5714133126395,422.82142761775424,2788.3,266.5714133126395,422.82142761775424,2896.3,266.5714133126395,422.82142761775424,3002.6,266.5714133126395,422.82142761775424,3109.7,266.5714133126395,422.82142761775424,3210.2,266.5714133126395,422.82142761775424,3315.8,266.5714133126395,422.82142761775424,3422.3,266.5714133126395,422.82142761775424,3527,266.5714133126395,422.82142761775424,3634.2,266.5714133126395,422.82142761775424,3736.7,266.5714133126395,422.82142761775424,3843.8,266.5714133126395,422.82142761775424,3949.3,266.5714133126395,422.82142761775424,4061.6,266.5714133126395,422.82142761775424,4175.4,266.5714133126395,422.82142761775424,4277.4,266.5714133126395,422.82142761775424,4378.2,266.5714133126395,422.82142761775424,4481.7,266.5714133126395,422.82142761775424,4583.4,266.5714133126395,422.82142761775424,4685.7,266.5714133126395,422.82142761775424,4795,266.5714133126395,422.82142761775424,4898]","[4822.5,4822.5,2397.4,2000.8,424.3,""smooth"",""left"",""left"",""good_move"",7582.4,2759.3,2362.3,4823.1,397,""smooth"",""left"",""left"",""good_move"",10353.8,2771.1,2390.3,7582.7,380.8,""oops"",""up"",""right"",""bad_move"",16624.1,6269.8,2411.5,13795.9,416.7,""oops"",""left"",""left"",""good_move"",19743.4,3118.8,2706.4,16624.6,412.4,""smooth"",""up"",""up"",""good_move"",23345.7,3601.3,3174.7,19744.4,426.7,""oops"",""up"",""down"",""bad_move"",30518.8,7172.2,2841.1,27293,384.7,""oops"",""up"",""up"",""good_move"",33321.7,2802.6,2354.4,30519.1,448.2,""oops"",""up"",""down"",""bad_move"",36074.6,2752.6,2120.8,33322,631.8,""oops"",""up"",""down"",""bad_move"",38965.9,2891.1,2394.4,36074.8,496.7,""oops"",""left"",""left"",""good_move"",45278.5,6312,2904.8,41999.7,374,""oops"",""up"",""up"",""good_move"",48336.5,3058,2528.1,45278.6,529.9,""smooth"",""up"",""up"",""good_move"",51664.4,3326.6,2851.2,48337.8,475.4,""oops"",""up"",""up"",""good_move"",54657.1,2992.2,2509.5,51664.9,482.7,""smooth"",""up"",""up"",""good_move""]","",""
"3716","","<div style=""width:500px;"">
  <p>What determined the result of this run?</p>
  </div>","99","html-slider-response","45","641780","0.0-5.0-1.7","248","1","2025-07-30 08:36:28","1f75c3e559b7213887762d5229550c2b","102.222.12.73","Mozilla/5.0 (Windows NT 10.0; Win64; x64) AppleWebKit/537.36 (KHTML, like Gecko) Chrome/138.0.0.0 Safari/537.36","WebKit","Chrome","138.0.0.0","Windows","10.0","https://app.prolific.com/","en-ZA,en-GB;q=0.9,en-US;q=0.8,en;q=0.7,en-GB-oxendict;q=0.6","605b838b80f022835fc293fb","6877631c9844ddd5501205fc","6889d9807aae9b4ddc909ad5","3","1","605b838b80f022835fc293fb","3","1","2025-07-30T08:47:11.851Z","","","","","","","","","","","AttribQ","","50","","","","","","","","","","","","","","","","","","","","","","","","","","","","",""
"3965","","<div style=""width:500px;"">
  <p>How much control did you have over the ball?</p>
  </div>","85","html-slider-response","46","645747","0.0-5.0-2.7","248","1","2025-07-30 08:36:28","1f75c3e559b7213887762d5229550c2b","102.222.12.73","Mozilla/5.0 (Windows NT 10.0; Win64; x64) AppleWebKit/537.36 (KHTML, like Gecko) Chrome/138.0.0.0 Safari/537.36","WebKit","Chrome","138.0.0.0","Windows","10.0","https://app.prolific.com/","en-ZA,en-GB;q=0.9,en-US;q=0.8,en;q=0.7,en-GB-oxendict;q=0.6","605b838b80f022835fc293fb","6877631c9844ddd5501205fc","6889d9807aae9b4ddc909ad5","3","1","605b838b80f022835fc293fb","3","1","2025-07-30T08:47:15.818Z","","","","","","","","","","","ControlQ","","50","","","","","","","","","","","","","","","","","","","","","","","","","","","","",""
"3694","","<div style=""width:500px;"">
  <p>How would you describe your current emotional state?</p>
  </div>","15","html-slider-response","47","649443","0.0-5.0-3.7","248","1","2025-07-30 08:36:28","1f75c3e559b7213887762d5229550c2b","102.222.12.73","Mozilla/5.0 (Windows NT 10.0; Win64; x64) AppleWebKit/537.36 (KHTML, like Gecko) Chrome/138.0.0.0 Safari/537.36","WebKit","Chrome","138.0.0.0","Windows","10.0","https://app.prolific.com/","en-ZA,en-GB;q=0.9,en-US;q=0.8,en;q=0.7,en-GB-oxendict;q=0.6","605b838b80f022835fc293fb","6877631c9844ddd5501205fc","6889d9807aae9b4ddc909ad5","3","1","605b838b80f022835fc293fb","3","1","2025-07-30T08:47:19.515Z","","","","","","","","","","","StressQ","","50","","","","","","","","","","","","","","","","","","","","","","","","","","","","",""
"4545","","<div style=""width:500px;"">
  <p>What best describes how you currently feel?</p>
  </div>","93","html-slider-response","48","653990","0.0-5.0-4.7","248","1","2025-07-30 08:36:28","1f75c3e559b7213887762d5229550c2b","102.222.12.73","Mozilla/5.0 (Windows NT 10.0; Win64; x64) AppleWebKit/537.36 (KHTML, like Gecko) Chrome/138.0.0.0 Safari/537.36","WebKit","Chrome","138.0.0.0","Windows","10.0","https://app.prolific.com/","en-ZA,en-GB;q=0.9,en-US;q=0.8,en;q=0.7,en-GB-oxendict;q=0.6","605b838b80f022835fc293fb","6877631c9844ddd5501205fc","6889d9807aae9b4ddc909ad5","3","1","605b838b80f022835fc293fb","3","1","2025-07-30T08:47:24.061Z","","","","","","","","","","","MotivationQ","","50","","","","","","","","","","","","","","","","","","","","","","","","","","","","",""
"","","","","ctl-task-cpt","49","716481","0.0-5.0-0.8","248","1","2025-07-30 08:36:28","1f75c3e559b7213887762d5229550c2b","102.222.12.73","Mozilla/5.0 (Windows NT 10.0; Win64; x64) AppleWebKit/537.36 (KHTML, like Gecko) Chrome/138.0.0.0 Safari/537.36","WebKit","Chrome","138.0.0.0","Windows","10.0","https://app.prolific.com/","en-ZA,en-GB;q=0.9,en-US;q=0.8,en;q=0.7,en-GB-oxendict;q=0.6","605b838b80f022835fc293fb","6877631c9844ddd5501205fc","6889d9807aae9b4ddc909ad5","3","1","605b838b80f022835fc293fb","3","1","2025-07-30T08:48:26.552Z","","","","","","","","","","","","","","win-only","0","g1:NW,g2:SE","0.2","9","0","657598.4","1468.3","6481.9","59470.8","1","4","4","6","2","-4","-4","18","22","0.13636363636363635","1325.3","3000","-1150","[""down"",""right""]","{""num_key_presses"":15,""num_perfect"":4,""num_errors"":0,""num_randdir"":11,""num_randdir_good_moves"":5,""num_whilered"":0,""num_whileblue"":0,""num_blue"":2,""num_good_moves"":9}","[419.0714133126395,417.82142761775424,0.2,419.0714133126395,417.82142761775424,104.3,419.0714133126395,417.82142761775424,225,419.0714133126395,417.82142761775424,328.3,419.0714133126395,417.82142761775424,433.3,419.0714133126395,417.82142761775424,545.9,419.0714133126395,417.82142761775424,650.3,695.3214133126395,751.5714276177542,750.4,729.0714133126395,800.3214276177542,866.2,731.5714133126395,801.5714276177542,975.9,739.0714133126395,789.0714276177542,1087.1,740.3214133126395,787.8214276177542,1198.5,740.3214133126395,787.8214276177542,1317.2,740.3214133126395,787.8214276177542,1425.1,740.3214133126395,787.8214276177542,1528.5,740.3214133126395,787.8214276177542,1629.4,740.3214133126395,787.8214276177542,1734.1,740.3214133126395,787.8214276177542,1845.3,745.3214133126395,822.8214276177542,1958.9,747.8214133126395,879.0714276177542,2065,747.8214133126395,880.3214276177542,2172,747.8214133126395,880.3214276177542,2278.6,747.8214133126395,880.3214276177542,2388.6,747.8214133126395,880.3214276177542,2498.1,747.8214133126395,880.3214276177542,2611.9,747.8214133126395,880.3214276177542,2728.9,747.8214133126395,880.3214276177542,2829.7,747.8214133126395,880.3214276177542,2934.8,747.8214133126395,880.3214276177542,3037.2,747.8214133126395,880.3214276177542,3147.8,747.8214133126395,880.3214276177542,3256.7,747.8214133126395,880.3214276177542,3362.3,747.8214133126395,880.3214276177542,3463.9,747.8214133126395,880.3214276177542,3566.1,747.8214133126395,880.3214276177542,3668.2,747.8214133126395,880.3214276177542,3772,747.8214133126395,880.3214276177542,3872.1,747.8214133126395,880.3214276177542,3974.8,747.8214133126395,880.3214276177542,4084,747.8214133126395,880.3214276177542,4193.8,747.8214133126395,880.3214276177542,4312.9,747.8214133126395,880.3214276177542,4423.2,747.8214133126395,880.3214276177542,4531.9,747.8214133126395,880.3214276177542,4632.5,747.8214133126395,880.3214276177542,4739.9,747.8214133126395,880.3214276177542,4854.4,747.8214133126395,880.3214276177542,4969.1]","[1524.9,1524.9,1000,0,524.9,""oops"",""down"",""up"",""bad_move"",4690.9,3165.6,2719.4,1525.3,446.2,""oops"",""right"",""down"",""good_move"",7963.1,3271.2,2897.2,4691.9,374,""smooth"",""right"",""right"",""good_move"",10434.9,2471.4,1902.5,7963.5,568.9,""oops"",""right"",""right"",""good_move"",16610.8,6175.2,2839.6,13306.3,464.9,""oops"",""down"",""left"",""bad_move"",19685,3073.7,2526.9,16611.3,546.8,""oops"",""down"",""left"",""bad_move"",22282.7,2597.1,2097.8,19685.6,499.3,""oops"",""right"",""right"",""good_move"",25426.1,3143.1,2689.6,22283,453.5,""smooth"",""right"",""right"",""good_move"",32066.2,6639.8,2790.2,28755.9,520.1,""oops"",""right"",""left"",""bad_move"",35509.9,3443.4,2955.9,32066.5,487.5,""oops"",""down"",""down"",""good_move"",38921.4,3411,2942.4,35510.4,468.6,""oops"",""down"",""up"",""bad_move"",41982.3,3060.5,2444.6,38921.9,615.9,""smooth"",""down"",""down"",""good_move"",44497.2,2514.6,2018.9,41982.6,495.7,""oops"",""down"",""down"",""good_move"",47953.8,3456.1,3076.3,44497.7,379.8,""oops"",""right"",""up"",""bad_move"",50735.2,2781.3,1878.7,47954.1,902.5,""smooth"",""down"",""down"",""good_move""]","",""
"4214","","<div style=""width:500px;"">
  <p>What determined the result of this run?</p>
  </div>","91","html-slider-response","50","720697","0.0-5.0-1.8","248","1","2025-07-30 08:36:28","1f75c3e559b7213887762d5229550c2b","102.222.12.73","Mozilla/5.0 (Windows NT 10.0; Win64; x64) AppleWebKit/537.36 (KHTML, like Gecko) Chrome/138.0.0.0 Safari/537.36","WebKit","Chrome","138.0.0.0","Windows","10.0","https://app.prolific.com/","en-ZA,en-GB;q=0.9,en-US;q=0.8,en;q=0.7,en-GB-oxendict;q=0.6","605b838b80f022835fc293fb","6877631c9844ddd5501205fc","6889d9807aae9b4ddc909ad5","3","1","605b838b80f022835fc293fb","3","1","2025-07-30T08:48:30.768Z","","","","","","","","","","","AttribQ","","50","","","","","","","","","","","","","","","","","","","","","","","","","","","","",""
"3472","","<div style=""width:500px;"">
  <p>How much control did you have over the ball?</p>
  </div>","93","html-slider-response","51","724170","0.0-5.0-2.8","248","1","2025-07-30 08:36:28","1f75c3e559b7213887762d5229550c2b","102.222.12.73","Mozilla/5.0 (Windows NT 10.0; Win64; x64) AppleWebKit/537.36 (KHTML, like Gecko) Chrome/138.0.0.0 Safari/537.36","WebKit","Chrome","138.0.0.0","Windows","10.0","https://app.prolific.com/","en-ZA,en-GB;q=0.9,en-US;q=0.8,en;q=0.7,en-GB-oxendict;q=0.6","605b838b80f022835fc293fb","6877631c9844ddd5501205fc","6889d9807aae9b4ddc909ad5","3","1","605b838b80f022835fc293fb","3","1","2025-07-30T08:48:34.241Z","","","","","","","","","","","ControlQ","","50","","","","","","","","","","","","","","","","","","","","","","","","","","","","",""
"3551","","<div style=""width:500px;"">
  <p>How would you describe your current emotional state?</p>
  </div>","12","html-slider-response","52","727723","0.0-5.0-3.8","248","1","2025-07-30 08:36:28","1f75c3e559b7213887762d5229550c2b","102.222.12.73","Mozilla/5.0 (Windows NT 10.0; Win64; x64) AppleWebKit/537.36 (KHTML, like Gecko) Chrome/138.0.0.0 Safari/537.36","WebKit","Chrome","138.0.0.0","Windows","10.0","https://app.prolific.com/","en-ZA,en-GB;q=0.9,en-US;q=0.8,en;q=0.7,en-GB-oxendict;q=0.6","605b838b80f022835fc293fb","6877631c9844ddd5501205fc","6889d9807aae9b4ddc909ad5","3","1","605b838b80f022835fc293fb","3","1","2025-07-30T08:48:37.794Z","","","","","","","","","","","StressQ","","50","","","","","","","","","","","","","","","","","","","","","","","","","","","","",""
"4633","","<div style=""width:500px;"">
  <p>What best describes how you currently feel?</p>
  </div>","97","html-slider-response","53","732358","0.0-5.0-4.8","248","1","2025-07-30 08:36:28","1f75c3e559b7213887762d5229550c2b","102.222.12.73","Mozilla/5.0 (Windows NT 10.0; Win64; x64) AppleWebKit/537.36 (KHTML, like Gecko) Chrome/138.0.0.0 Safari/537.36","WebKit","Chrome","138.0.0.0","Windows","10.0","https://app.prolific.com/","en-ZA,en-GB;q=0.9,en-US;q=0.8,en;q=0.7,en-GB-oxendict;q=0.6","605b838b80f022835fc293fb","6877631c9844ddd5501205fc","6889d9807aae9b4ddc909ad5","3","1","605b838b80f022835fc293fb","3","1","2025-07-30T08:48:42.429Z","","","","","","","","","","","MotivationQ","","50","","","","","","","","","","","","","","","","","","","","","","","","","","","","",""
"","","","","ctl-task-cpt","54","759471","0.0-5.0-0.9","248","1","2025-07-30 08:36:28","1f75c3e559b7213887762d5229550c2b","102.222.12.73","Mozilla/5.0 (Windows NT 10.0; Win64; x64) AppleWebKit/537.36 (KHTML, like Gecko) Chrome/138.0.0.0 Safari/537.36","WebKit","Chrome","138.0.0.0","Windows","10.0","https://app.prolific.com/","en-ZA,en-GB;q=0.9,en-US;q=0.8,en;q=0.7,en-GB-oxendict;q=0.6","605b838b80f022835fc293fb","6877631c9844ddd5501205fc","6889d9807aae9b4ddc909ad5","3","1","605b838b80f022835fc293fb","3","1","2025-07-30T08:49:09.543Z","","","","","","","","","","","","","","win-only","0","g1:NW,g2:SE","0.4","10","0","735966.9","2153.3","7163.5","24093.1","1","4","8","6","2","8","8","26","18","0.19696969696969696","1325.3","3000","2145","[""down"",""right""]","{""num_key_presses"":6,""num_perfect"":3,""num_errors"":0,""num_randdir"":3,""num_randdir_good_moves"":3,""num_whilered"":0,""num_whileblue"":0,""num_blue"":0,""num_good_moves"":6}","[421.5714133126395,407.82142761775424,0.8,421.5714133126395,407.82142761775424,106.6,421.5714133126395,407.82142761775424,207.8,421.5714133126395,407.82142761775424,319.4,421.5714133126395,407.82142761775424,426.5,421.5714133126395,407.82142761775424,534.5,516.5714133126395,511.57142761775424,640.1,686.5714133126395,701.5714276177542,743.4,714.0714133126395,726.5714276177542,852.1,725.3214133126395,737.8214276177542,958.5,736.5714133126395,746.5714276177542,1062,737.8214133126395,746.5714276177542,1173.9,737.8214133126395,746.5714276177542,1280.4,737.8214133126395,746.5714276177542,1394.5,737.8214133126395,746.5714276177542,1503.5,737.8214133126395,746.5714276177542,1607.4,737.8214133126395,746.5714276177542,1717.4,787.8214133126395,761.5714276177542,1819.1,931.5714133126395,871.5714276177542,1931,944.0714133126395,919.0714276177542,2050.7,944.0714133126395,921.5714276177542,2155.8,944.0714133126395,921.5714276177542,2262.9,944.0714133126395,921.5714276177542,2376.2,944.0714133126395,921.5714276177542,2478.3,944.0714133126395,921.5714276177542,2583.7,944.0714133126395,921.5714276177542,2697.5,944.0714133126395,921.5714276177542,2811.3,944.0714133126395,921.5714276177542,2922.8,944.0714133126395,921.5714276177542,3026.6,944.0714133126395,921.5714276177542,3132.7,944.0714133126395,921.5714276177542,3238.8,944.0714133126395,921.5714276177542,3344.8,944.0714133126395,921.5714276177542,3455.1,944.0714133126395,921.5714276177542,3564.3,944.0714133126395,921.5714276177542,3672.9,944.0714133126395,921.5714276177542,3781.5,944.0714133126395,921.5714276177542,3892.6,944.0714133126395,921.5714276177542,4004,944.0714133126395,921.5714276177542,4109.2,944.0714133126395,921.5714276177542,4213.9,944.0714133126395,921.5714276177542,4315.6,944.0714133126395,921.5714276177542,4431,944.0714133126395,921.5714276177542,4533.9,944.0714133126395,921.5714276177542,4635.7,944.0714133126395,921.5714276177542,4736.7,944.0714133126395,921.5714276177542,4847.8,944.0714133126395,921.5714276177542,4948.5]","[1438,1438,1000,0,438,""smooth"",""down"",""down"",""good_move"",4655.5,3216.6,2803.4,1438.9,413.2,""oops"",""down"",""down"",""good_move"",7188.5,2532.6,2072.7,4655.9,459.9,""smooth"",""down"",""down"",""good_move"",10405.4,3216.6,2819,7188.8,397.6,""oops"",""right"",""right"",""good_move"",13827.1,3421.2,2966.8,10405.9,454.4,""oops"",""right"",""right"",""good_move"",16702.8,2874.8,2422,13828.1,452.7,""smooth"",""right"",""right"",""good_move""]","",""
"4467","","<div style=""width:500px;"">
  <p>What determined the result of this run?</p>
  </div>","92","html-slider-response","55","763940","0.0-5.0-1.9","248","1","2025-07-30 08:36:28","1f75c3e559b7213887762d5229550c2b","102.222.12.73","Mozilla/5.0 (Windows NT 10.0; Win64; x64) AppleWebKit/537.36 (KHTML, like Gecko) Chrome/138.0.0.0 Safari/537.36","WebKit","Chrome","138.0.0.0","Windows","10.0","https://app.prolific.com/","en-ZA,en-GB;q=0.9,en-US;q=0.8,en;q=0.7,en-GB-oxendict;q=0.6","605b838b80f022835fc293fb","6877631c9844ddd5501205fc","6889d9807aae9b4ddc909ad5","3","1","605b838b80f022835fc293fb","3","1","2025-07-30T08:49:14.011Z","","","","","","","","","","","AttribQ","","50","","","","","","","","","","","","","","","","","","","","","","","","","","","","",""
"4052","","<div style=""width:500px;"">
  <p>How much control did you have over the ball?</p>
  </div>","95","html-slider-response","56","767993","0.0-5.0-2.9","248","1","2025-07-30 08:36:28","1f75c3e559b7213887762d5229550c2b","102.222.12.73","Mozilla/5.0 (Windows NT 10.0; Win64; x64) AppleWebKit/537.36 (KHTML, like Gecko) Chrome/138.0.0.0 Safari/537.36","WebKit","Chrome","138.0.0.0","Windows","10.0","https://app.prolific.com/","en-ZA,en-GB;q=0.9,en-US;q=0.8,en;q=0.7,en-GB-oxendict;q=0.6","605b838b80f022835fc293fb","6877631c9844ddd5501205fc","6889d9807aae9b4ddc909ad5","3","1","605b838b80f022835fc293fb","3","1","2025-07-30T08:49:18.064Z","","","","","","","","","","","ControlQ","","50","","","","","","","","","","","","","","","","","","","","","","","","","","","","",""
"5942","","<div style=""width:500px;"">
  <p>How would you describe your current emotional state?</p>
  </div>","7","html-slider-response","57","773936","0.0-5.0-3.9","248","1","2025-07-30 08:36:28","1f75c3e559b7213887762d5229550c2b","102.222.12.73","Mozilla/5.0 (Windows NT 10.0; Win64; x64) AppleWebKit/537.36 (KHTML, like Gecko) Chrome/138.0.0.0 Safari/537.36","WebKit","Chrome","138.0.0.0","Windows","10.0","https://app.prolific.com/","en-ZA,en-GB;q=0.9,en-US;q=0.8,en;q=0.7,en-GB-oxendict;q=0.6","605b838b80f022835fc293fb","6877631c9844ddd5501205fc","6889d9807aae9b4ddc909ad5","3","1","605b838b80f022835fc293fb","3","1","2025-07-30T08:49:24.007Z","","","","","","","","","","","StressQ","","50","","","","","","","","","","","","","","","","","","","","","","","","","","","","",""
"4511","","<div style=""width:500px;"">
  <p>What best describes how you currently feel?</p>
  </div>","98","html-slider-response","58","778449","0.0-5.0-4.9","248","1","2025-07-30 08:36:28","1f75c3e559b7213887762d5229550c2b","102.222.12.73","Mozilla/5.0 (Windows NT 10.0; Win64; x64) AppleWebKit/537.36 (KHTML, like Gecko) Chrome/138.0.0.0 Safari/537.36","WebKit","Chrome","138.0.0.0","Windows","10.0","https://app.prolific.com/","en-ZA,en-GB;q=0.9,en-US;q=0.8,en;q=0.7,en-GB-oxendict;q=0.6","605b838b80f022835fc293fb","6877631c9844ddd5501205fc","6889d9807aae9b4ddc909ad5","3","1","605b838b80f022835fc293fb","3","1","2025-07-30T08:49:28.520Z","","","","","","","","","","","MotivationQ","","50","","","","","","","","","","","","","","","","","","","","","","","","","","","","",""
"","","","","ctl-task-cpt","59","853519","0.0-5.0-0.10","248","1","2025-07-30 08:36:28","1f75c3e559b7213887762d5229550c2b","102.222.12.73","Mozilla/5.0 (Windows NT 10.0; Win64; x64) AppleWebKit/537.36 (KHTML, like Gecko) Chrome/138.0.0.0 Safari/537.36","WebKit","Chrome","138.0.0.0","Windows","10.0","https://app.prolific.com/","en-ZA,en-GB;q=0.9,en-US;q=0.8,en;q=0.7,en-GB-oxendict;q=0.6","605b838b80f022835fc293fb","6877631c9844ddd5501205fc","6889d9807aae9b4ddc909ad5","3","1","605b838b80f022835fc293fb","3","1","2025-07-30T08:50:43.590Z","","","","","","","","","","","","","","win-only","1","g1:NE,g2:SW","0.5","11","0","782057","1582.4","6597.2","72046","1","4","4","6","2","4","4","30","26","0.22727272727272727","1579","3000","400","[""down"",""left""]","{""num_key_presses"":16,""num_perfect"":9,""num_errors"":0,""num_randdir"":7,""num_randdir_good_moves"":2,""num_whilered"":0,""num_whileblue"":0,""num_blue"":5,""num_good_moves"":11}","[416.5714133126395,419.07142761775424,0.4,416.5714133126395,419.07142761775424,119.3,416.5714133126395,419.07142761775424,227.7,416.5714133126395,419.07142761775424,355,416.5714133126395,419.07142761775424,470.1,416.5714133126395,419.07142761775424,605.4,362.8214133126395,476.57142761775424,708.8,111.5714133126395,826.5714276177542,816.5,106.5714133126395,835.3214276177542,936.6,102.8214133126395,821.5714276177542,1066.4,101.5714133126395,807.8214276177542,1166.9,101.5714133126395,791.5714276177542,1267.9,101.5714133126395,787.8214276177542,1382.8,101.5714133126395,787.8214276177542,1496.8,101.5714133126395,787.8214276177542,1619.8,101.5714133126395,787.8214276177542,1724.3,101.5714133126395,787.8214276177542,1832.6,101.5714133126395,787.8214276177542,1934.8,101.5714133126395,787.8214276177542,2035.3,101.5714133126395,787.8214276177542,2135.6,101.5714133126395,787.8214276177542,2250.2,101.5714133126395,787.8214276177542,2373.9,101.5714133126395,787.8214276177542,2486.9,101.5714133126395,787.8214276177542,2605.6,101.5714133126395,787.8214276177542,2720.9,101.5714133126395,787.8214276177542,2834.1,101.5714133126395,787.8214276177542,2944.8,101.5714133126395,787.8214276177542,3076.9,101.5714133126395,787.8214276177542,3177.3,101.5714133126395,787.8214276177542,3295.7,101.5714133126395,787.8214276177542,3413.9,101.5714133126395,787.8214276177542,3519,101.5714133126395,787.8214276177542,3638.4,101.5714133126395,787.8214276177542,3752.4,101.5714133126395,787.8214276177542,3867.7,101.5714133126395,787.8214276177542,3980.7,101.5714133126395,787.8214276177542,4099.5,101.5714133126395,785.3214276177542,4227.3,112.8214133126395,647.8214276177542,4353.1,150.3214133126395,661.5714276177542,4468.7,161.5714133126395,681.5714276177542,4571.7,161.5714133126395,681.5714276177542,4691.5,161.5714133126395,681.5714276177542,4805.4,161.5714133126395,681.5714276177542,4919.6]","[1564.8,1564.8,1000,0,564.8,""smooth"",""down"",""down"",""good_move"",7495.5,5930.3,1893.3,5123,479.2,""smooth"",""left"",""left"",""good_move"",11479.8,3983.9,3542.8,7495.9,441.1,""oops"",""left"",""up"",""bad_move"",14937.6,3457.5,3027.9,11480.2,429.5,""oops"",""down"",""right"",""bad_move"",17647.5,2708.3,1832.7,14939.3,875.5,""smooth"",""left"",""left"",""good_move"",20877,3228.9,2615.8,17648.1,613.1,""oops"",""left"",""right"",""bad_move"",23726.2,2848.9,2417.1,20877.3,431.8,""oops"",""down"",""right"",""bad_move"",27381.7,3655.2,3293.2,23726.6,361.9,""smooth"",""down"",""down"",""good_move"",33822.1,6439.3,2563.6,30821.3,437.2,""oops"",""left"",""left"",""good_move"",44017.2,10194.9,2306.8,41240.1,470.3,""smooth"",""down"",""down"",""good_move"",47001.2,2983.9,2514.2,44017.4,469.7,""oops"",""left"",""up"",""bad_move"",50408,3405.8,2957.9,47002.2,447.9,""smooth"",""down"",""down"",""good_move"",52836.6,2428.3,1664.3,50408.3,764,""oops"",""down"",""down"",""good_move"",58365.7,5528.8,1931.7,55959.8,474.2,""smooth"",""left"",""left"",""good_move"",61801.3,3435.2,2883.8,58366.2,551.3,""smooth"",""left"",""left"",""good_move"",65175.5,3373.9,2354.8,61801.6,1019.1,""smooth"",""left"",""left"",""good_move""]","",""
"6122","","<div style=""width:500px;"">
  <p>What determined the result of this run?</p>
  </div>","95","html-slider-response","60","859642","0.0-5.0-1.10","248","1","2025-07-30 08:36:28","1f75c3e559b7213887762d5229550c2b","102.222.12.73","Mozilla/5.0 (Windows NT 10.0; Win64; x64) AppleWebKit/537.36 (KHTML, like Gecko) Chrome/138.0.0.0 Safari/537.36","WebKit","Chrome","138.0.0.0","Windows","10.0","https://app.prolific.com/","en-ZA,en-GB;q=0.9,en-US;q=0.8,en;q=0.7,en-GB-oxendict;q=0.6","605b838b80f022835fc293fb","6877631c9844ddd5501205fc","6889d9807aae9b4ddc909ad5","3","1","605b838b80f022835fc293fb","3","1","2025-07-30T08:50:49.713Z","","","","","","","","","","","AttribQ","","50","","","","","","","","","","","","","","","","","","","","","","","","","","","","",""
"3697","","<div style=""width:500px;"">
  <p>How much control did you have over the ball?</p>
  </div>","86","html-slider-response","61","863341","0.0-5.0-2.10","248","1","2025-07-30 08:36:28","1f75c3e559b7213887762d5229550c2b","102.222.12.73","Mozilla/5.0 (Windows NT 10.0; Win64; x64) AppleWebKit/537.36 (KHTML, like Gecko) Chrome/138.0.0.0 Safari/537.36","WebKit","Chrome","138.0.0.0","Windows","10.0","https://app.prolific.com/","en-ZA,en-GB;q=0.9,en-US;q=0.8,en;q=0.7,en-GB-oxendict;q=0.6","605b838b80f022835fc293fb","6877631c9844ddd5501205fc","6889d9807aae9b4ddc909ad5","3","1","605b838b80f022835fc293fb","3","1","2025-07-30T08:50:53.412Z","","","","","","","","","","","ControlQ","","50","","","","","","","","","","","","","","","","","","","","","","","","","","","","",""
"3930","","<div style=""width:500px;"">
  <p>How would you describe your current emotional state?</p>
  </div>","12","html-slider-response","62","867274","0.0-5.0-3.10","248","1","2025-07-30 08:36:28","1f75c3e559b7213887762d5229550c2b","102.222.12.73","Mozilla/5.0 (Windows NT 10.0; Win64; x64) AppleWebKit/537.36 (KHTML, like Gecko) Chrome/138.0.0.0 Safari/537.36","WebKit","Chrome","138.0.0.0","Windows","10.0","https://app.prolific.com/","en-ZA,en-GB;q=0.9,en-US;q=0.8,en;q=0.7,en-GB-oxendict;q=0.6","605b838b80f022835fc293fb","6877631c9844ddd5501205fc","6889d9807aae9b4ddc909ad5","3","1","605b838b80f022835fc293fb","3","1","2025-07-30T08:50:57.345Z","","","","","","","","","","","StressQ","","50","","","","","","","","","","","","","","","","","","","","","","","","","","","","",""
"4547","","<div style=""width:500px;"">
  <p>What best describes how you currently feel?</p>
  </div>","93","html-slider-response","63","871822","0.0-5.0-4.10","248","1","2025-07-30 08:36:28","1f75c3e559b7213887762d5229550c2b","102.222.12.73","Mozilla/5.0 (Windows NT 10.0; Win64; x64) AppleWebKit/537.36 (KHTML, like Gecko) Chrome/138.0.0.0 Safari/537.36","WebKit","Chrome","138.0.0.0","Windows","10.0","https://app.prolific.com/","en-ZA,en-GB;q=0.9,en-US;q=0.8,en;q=0.7,en-GB-oxendict;q=0.6","605b838b80f022835fc293fb","6877631c9844ddd5501205fc","6889d9807aae9b4ddc909ad5","3","1","605b838b80f022835fc293fb","3","1","2025-07-30T08:51:01.893Z","","","","","","","","","","","MotivationQ","","50","","","","","","","","","","","","","","","","","","","","","","","","","","","","",""
"","","","","ctl-task-cpt","64","915392","0.0-5.0-0.11","248","1","2025-07-30 08:36:28","1f75c3e559b7213887762d5229550c2b","102.222.12.73","Mozilla/5.0 (Windows NT 10.0; Win64; x64) AppleWebKit/537.36 (KHTML, like Gecko) Chrome/138.0.0.0 Safari/537.36","WebKit","Chrome","138.0.0.0","Windows","10.0","https://app.prolific.com/","en-ZA,en-GB;q=0.9,en-US;q=0.8,en;q=0.7,en-GB-oxendict;q=0.6","605b838b80f022835fc293fb","6877631c9844ddd5501205fc","6889d9807aae9b4ddc909ad5","3","1","605b838b80f022835fc293fb","3","1","2025-07-30T08:51:45.463Z","","","","","","","","","","","","","","win-only","0","g1:NW,g2:SE","0.6","12","0","875432.2","2094.8","7099.3","40543","1","4","8","6","2","8","8","38","30","0.2878787878787879","1603.8","3000","1760","[""down"",""right""]","{""num_key_presses"":8,""num_perfect"":5,""num_errors"":0,""num_randdir"":3,""num_randdir_good_moves"":2,""num_whilered"":0,""num_whileblue"":0,""num_blue"":3,""num_good_moves"":7}","[411.5714133126395,411.57142761775424,0.3,411.5714133126395,411.57142761775424,101.7,411.5714133126395,411.57142761775424,208.9,411.5714133126395,411.57142761775424,320.5,411.5714133126395,411.57142761775424,437.3,411.5714133126395,411.57142761775424,542.7,411.5714133126395,411.57142761775424,656.1,411.5714133126395,411.57142761775424,757.9,386.5714133126395,362.82142761775424,872.7,651.5714133126395,676.5714276177542,979.4,754.0714133126395,800.3214276177542,1095.5,756.5714133126395,801.5714276177542,1207.6,764.0714133126395,804.0714276177542,1318.3,766.5714133126395,797.8214276177542,1432.8,766.5714133126395,797.8214276177542,1541.2,766.5714133126395,797.8214276177542,1642.1,766.5714133126395,797.8214276177542,1752.2,766.5714133126395,797.8214276177542,1853.7,766.5714133126395,797.8214276177542,1963.2,766.5714133126395,797.8214276177542,2069.1,766.5714133126395,797.8214276177542,2178.6,766.5714133126395,797.8214276177542,2288.3,766.5714133126395,797.8214276177542,2391.3,766.5714133126395,797.8214276177542,2494.1,766.5714133126395,797.8214276177542,2598.5,766.5714133126395,797.8214276177542,2708.3,766.5714133126395,797.8214276177542,2814.8,766.5714133126395,797.8214276177542,2924.7,766.5714133126395,797.8214276177542,3028.3,766.5714133126395,797.8214276177542,3136.8,766.5714133126395,797.8214276177542,3251.3,766.5714133126395,797.8214276177542,3353,766.5714133126395,797.8214276177542,3458.5,766.5714133126395,797.8214276177542,3570.3,766.5714133126395,797.8214276177542,3675.9,766.5714133126395,797.8214276177542,3785.8,766.5714133126395,797.8214276177542,3893.9,766.5714133126395,797.8214276177542,4005.2,766.5714133126395,797.8214276177542,4117.8,766.5714133126395,797.8214276177542,4220.8,766.5714133126395,797.8214276177542,4335.8,766.5714133126395,797.8214276177542,4450.7,766.5714133126395,797.8214276177542,4552.8,766.5714133126395,797.8214276177542,4662.4,766.5714133126395,797.8214276177542,4763.1,766.5714133126395,797.8214276177542,4876.3,766.5714133126395,797.8214276177542,4987.7]","[1549.4,1549.4,1000,0,549.4,""smooth"",""down"",""down"",""good_move"",11712.3,10162.3,3115,8131.6,465.7,""smooth"",""down"",""down"",""good_move"",15063.7,3350.9,2774.7,11712.8,576.2,""smooth"",""right"",""right"",""good_move"",17597.2,2532.9,2052.4,15064.3,480.5,""oops"",""right"",""left"",""bad_move"",24426.6,6828.9,2397.3,21611.2,418.1,""smooth"",""down"",""down"",""good_move"",26948.9,2521.9,1884.7,24427,637.2,""oops"",""right"",""right"",""good_move"",30327.9,3378.1,2781.8,26949.8,596.3,""smooth"",""right"",""right"",""good_move"",33153.7,2825.6,2378.3,30328.1,447.3,""oops"",""right"",""right"",""good_move""]","",""
"3306","","<div style=""width:500px;"">
  <p>What determined the result of this run?</p>
  </div>","94","html-slider-response","65","918698","0.0-5.0-1.11","248","1","2025-07-30 08:36:28","1f75c3e559b7213887762d5229550c2b","102.222.12.73","Mozilla/5.0 (Windows NT 10.0; Win64; x64) AppleWebKit/537.36 (KHTML, like Gecko) Chrome/138.0.0.0 Safari/537.36","WebKit","Chrome","138.0.0.0","Windows","10.0","https://app.prolific.com/","en-ZA,en-GB;q=0.9,en-US;q=0.8,en;q=0.7,en-GB-oxendict;q=0.6","605b838b80f022835fc293fb","6877631c9844ddd5501205fc","6889d9807aae9b4ddc909ad5","3","1","605b838b80f022835fc293fb","3","1","2025-07-30T08:51:48.770Z","","","","","","","","","","","AttribQ","","50","","","","","","","","","","","","","","","","","","","","","","","","","","","","",""
"4643","","<div style=""width:500px;"">
  <p>How much control did you have over the ball?</p>
  </div>","87","html-slider-response","66","923343","0.0-5.0-2.11","248","1","2025-07-30 08:36:28","1f75c3e559b7213887762d5229550c2b","102.222.12.73","Mozilla/5.0 (Windows NT 10.0; Win64; x64) AppleWebKit/537.36 (KHTML, like Gecko) Chrome/138.0.0.0 Safari/537.36","WebKit","Chrome","138.0.0.0","Windows","10.0","https://app.prolific.com/","en-ZA,en-GB;q=0.9,en-US;q=0.8,en;q=0.7,en-GB-oxendict;q=0.6","605b838b80f022835fc293fb","6877631c9844ddd5501205fc","6889d9807aae9b4ddc909ad5","3","1","605b838b80f022835fc293fb","3","1","2025-07-30T08:51:53.414Z","","","","","","","","","","","ControlQ","","50","","","","","","","","","","","","","","","","","","","","","","","","","","","","",""
"5064","","<div style=""width:500px;"">
  <p>How would you describe your current emotional state?</p>
  </div>","18","html-slider-response","67","928409","0.0-5.0-3.11","248","1","2025-07-30 08:36:28","1f75c3e559b7213887762d5229550c2b","102.222.12.73","Mozilla/5.0 (Windows NT 10.0; Win64; x64) AppleWebKit/537.36 (KHTML, like Gecko) Chrome/138.0.0.0 Safari/537.36","WebKit","Chrome","138.0.0.0","Windows","10.0","https://app.prolific.com/","en-ZA,en-GB;q=0.9,en-US;q=0.8,en;q=0.7,en-GB-oxendict;q=0.6","605b838b80f022835fc293fb","6877631c9844ddd5501205fc","6889d9807aae9b4ddc909ad5","3","1","605b838b80f022835fc293fb","3","1","2025-07-30T08:51:58.480Z","","","","","","","","","","","StressQ","","50","","","","","","","","","","","","","","","","","","","","","","","","","","","","",""
"4516","","<div style=""width:500px;"">
  <p>What best describes how you currently feel?</p>
  </div>","86","html-slider-response","68","932927","0.0-5.0-4.11","248","1","2025-07-30 08:36:28","1f75c3e559b7213887762d5229550c2b","102.222.12.73","Mozilla/5.0 (Windows NT 10.0; Win64; x64) AppleWebKit/537.36 (KHTML, like Gecko) Chrome/138.0.0.0 Safari/537.36","WebKit","Chrome","138.0.0.0","Windows","10.0","https://app.prolific.com/","en-ZA,en-GB;q=0.9,en-US;q=0.8,en;q=0.7,en-GB-oxendict;q=0.6","605b838b80f022835fc293fb","6877631c9844ddd5501205fc","6889d9807aae9b4ddc909ad5","3","1","605b838b80f022835fc293fb","3","1","2025-07-30T08:52:02.998Z","","","","","","","","","","","MotivationQ","","50","","","","","","","","","","","","","","","","","","","","","","","","","","","","",""
"","","","","ctl-task-cpt","69","967393","0.0-5.0-0.12","248","1","2025-07-30 08:36:28","1f75c3e559b7213887762d5229550c2b","102.222.12.73","Mozilla/5.0 (Windows NT 10.0; Win64; x64) AppleWebKit/537.36 (KHTML, like Gecko) Chrome/138.0.0.0 Safari/537.36","WebKit","Chrome","138.0.0.0","Windows","10.0","https://app.prolific.com/","en-ZA,en-GB;q=0.9,en-US;q=0.8,en;q=0.7,en-GB-oxendict;q=0.6","605b838b80f022835fc293fb","6877631c9844ddd5501205fc","6889d9807aae9b4ddc909ad5","3","1","605b838b80f022835fc293fb","3","1","2025-07-30T08:52:37.464Z","","","","","","","","","","","","","","win-only","1","g1:NE,g2:SW","0.7","13","0","936535.5","1465.7","6470.1","31429.2","1","4","8","6","2","8","8","46","38","0.3484848484848485","1483.6","3000","2025","[""down"",""left""]","{""num_key_presses"":8,""num_perfect"":5,""num_errors"":0,""num_randdir"":3,""num_randdir_good_moves"":2,""num_whilered"":0,""num_whileblue"":0,""num_blue"":0,""num_good_moves"":7}","[415.3214133126395,416.57142761775424,0.1,415.3214133126395,416.57142761775424,112.1,415.3214133126395,416.57142761775424,229.3,415.3214133126395,416.57142761775424,336.6,415.3214133126395,416.57142761775424,451.5,415.3214133126395,416.57142761775424,568.9,415.3214133126395,416.57142761775424,670.3,415.3214133126395,416.57142761775424,789.5,192.8214133126395,634.0714276177542,900.4,106.5714133126395,727.8214276177542,1011.9,70.3214133126395,735.3214276177542,1120.2,66.5714133126395,736.5714276177542,1228.8,66.5714133126395,736.5714276177542,1329.3,66.5714133126395,736.5714276177542,1429.7,66.5714133126395,736.5714276177542,1537.6,66.5714133126395,736.5714276177542,1645.9,66.5714133126395,736.5714276177542,1754.2,66.5714133126395,736.5714276177542,1859.2,66.5714133126395,736.5714276177542,1963.8,77.8214133126395,747.8214276177542,2072.1,331.5714133126395,641.5714276177542,2183.5,369.0714133126395,576.5714276177542,2300.2,370.3214133126395,574.0714276177542,2401.5,370.3214133126395,574.0714276177542,2503.5,370.3214133126395,574.0714276177542,2606.5,370.3214133126395,574.0714276177542,2708.6,370.3214133126395,574.0714276177542,2816.8,370.3214133126395,574.0714276177542,2923.7,370.3214133126395,574.0714276177542,3039.4,370.3214133126395,574.0714276177542,3150.4,370.3214133126395,574.0714276177542,3266.1,370.3214133126395,574.0714276177542,3370.5,370.3214133126395,574.0714276177542,3478.1,370.3214133126395,574.0714276177542,3583.5,370.3214133126395,574.0714276177542,3688.1,370.3214133126395,574.0714276177542,3799.1,370.3214133126395,574.0714276177542,3905,370.3214133126395,574.0714276177542,4013.1,370.3214133126395,574.0714276177542,4122.1,370.3214133126395,574.0714276177542,4222.4,370.3214133126395,574.0714276177542,4330,370.3214133126395,574.0714276177542,4430.2,370.3214133126395,574.0714276177542,4541.2,370.3214133126395,574.0714276177542,4647.2,370.3214133126395,574.0714276177542,4759.4,370.3214133126395,574.0714276177542,4865.9,370.3214133126395,574.0714276177542,4972.8]","[1540.6,1540.6,1000,0,540.6,""smooth"",""down"",""down"",""good_move"",4406.3,2865.2,2382.6,1541.1,482.6,""smooth"",""left"",""left"",""good_move"",8107,3699.7,1874.9,4407.3,1824.8,""oops"",""down"",""left"",""good_move"",11820.4,3713.1,3305.9,8107.3,407.2,""oops"",""down"",""up"",""bad_move"",15284.6,3463.6,2107.7,11821,1355.9,""smooth"",""left"",""left"",""good_move"",18979.6,3694.3,1716.5,15285.4,1977.7,""smooth"",""down"",""down"",""good_move"",21580.4,2600.5,2099.6,18979.9,500.9,""oops"",""down"",""down"",""good_move"",24592.8,3012.2,2610.2,21580.6,402,""smooth"",""down"",""down"",""good_move""]","",""
"2929","","<div style=""width:500px;"">
  <p>What determined the result of this run?</p>
  </div>","92","html-slider-response","70","970324","0.0-5.0-1.12","248","1","2025-07-30 08:36:28","1f75c3e559b7213887762d5229550c2b","102.222.12.73","Mozilla/5.0 (Windows NT 10.0; Win64; x64) AppleWebKit/537.36 (KHTML, like Gecko) Chrome/138.0.0.0 Safari/537.36","WebKit","Chrome","138.0.0.0","Windows","10.0","https://app.prolific.com/","en-ZA,en-GB;q=0.9,en-US;q=0.8,en;q=0.7,en-GB-oxendict;q=0.6","605b838b80f022835fc293fb","6877631c9844ddd5501205fc","6889d9807aae9b4ddc909ad5","3","1","605b838b80f022835fc293fb","3","1","2025-07-30T08:52:40.395Z","","","","","","","","","","","AttribQ","","50","","","","","","","","","","","","","","","","","","","","","","","","","","","","",""
"5705","","<div style=""width:500px;"">
  <p>How much control did you have over the ball?</p>
  </div>","89","html-slider-response","71","976031","0.0-5.0-2.12","248","1","2025-07-30 08:36:28","1f75c3e559b7213887762d5229550c2b","102.222.12.73","Mozilla/5.0 (Windows NT 10.0; Win64; x64) AppleWebKit/537.36 (KHTML, like Gecko) Chrome/138.0.0.0 Safari/537.36","WebKit","Chrome","138.0.0.0","Windows","10.0","https://app.prolific.com/","en-ZA,en-GB;q=0.9,en-US;q=0.8,en;q=0.7,en-GB-oxendict;q=0.6","605b838b80f022835fc293fb","6877631c9844ddd5501205fc","6889d9807aae9b4ddc909ad5","3","1","605b838b80f022835fc293fb","3","1","2025-07-30T08:52:46.102Z","","","","","","","","","","","ControlQ","","50","","","","","","","","","","","","","","","","","","","","","","","","","","","","",""
"4003","","<div style=""width:500px;"">
  <p>How would you describe your current emotional state?</p>
  </div>","13","html-slider-response","72","980036","0.0-5.0-3.12","248","1","2025-07-30 08:36:28","1f75c3e559b7213887762d5229550c2b","102.222.12.73","Mozilla/5.0 (Windows NT 10.0; Win64; x64) AppleWebKit/537.36 (KHTML, like Gecko) Chrome/138.0.0.0 Safari/537.36","WebKit","Chrome","138.0.0.0","Windows","10.0","https://app.prolific.com/","en-ZA,en-GB;q=0.9,en-US;q=0.8,en;q=0.7,en-GB-oxendict;q=0.6","605b838b80f022835fc293fb","6877631c9844ddd5501205fc","6889d9807aae9b4ddc909ad5","3","1","605b838b80f022835fc293fb","3","1","2025-07-30T08:52:50.107Z","","","","","","","","","","","StressQ","","50","","","","","","","","","","","","","","","","","","","","","","","","","","","","",""
"4259","","<div style=""width:500px;"">
  <p>What best describes how you currently feel?</p>
  </div>","79","html-slider-response","73","984297","0.0-5.0-4.12","248","1","2025-07-30 08:36:28","1f75c3e559b7213887762d5229550c2b","102.222.12.73","Mozilla/5.0 (Windows NT 10.0; Win64; x64) AppleWebKit/537.36 (KHTML, like Gecko) Chrome/138.0.0.0 Safari/537.36","WebKit","Chrome","138.0.0.0","Windows","10.0","https://app.prolific.com/","en-ZA,en-GB;q=0.9,en-US;q=0.8,en;q=0.7,en-GB-oxendict;q=0.6","605b838b80f022835fc293fb","6877631c9844ddd5501205fc","6889d9807aae9b4ddc909ad5","3","1","605b838b80f022835fc293fb","3","1","2025-07-30T08:52:54.368Z","","","","","","","","","","","MotivationQ","","50","","","","","","","","","","","","","","","","","","","","","","","","","","","","",""
