"rt","response_timestamp","stimulus","response","trial_type","trial_index","time_elapsed","internal_node_id","run_id","condition","recorded_at","source_code_version","ip","user_agent","device","browser","browser_version","platform","platform_version","referer","accept_language","PROLIFIC_PID","STUDY_ID","SESSION_ID","WEEK","BATCH","prolific_id","week","batch","realtime","success","responses","item_order","radio_event_ids","radio_event_times","key_event_times","mouse_event_times","straightlining","zigzagging","honeypot","eventType","view_history","slider_start","which_type","canvas_config","goals_layout","control_level","trial_number","tutorial_trial_number","trial_start_time","phase1_start_time","phase2_start_time","phase3_start_time","goal_1_value","goal_1_distance","goal_2_value","goal_2_distance","goal_selected","outcome","outcome_total","participant_final_score","participant_initial_score","participant_final_score_prop","goal_choice_rt","allocated_time","allocated_time_remaining","goal_direction","counts","mouse_movements","key_presses","question_order","question_id"
"7039","1753284631306","<p style='font-size:40px;line-height:1.25'><strong>Welcome to the experiment!</strong></p><p style='font-size:1.1em;line-height:1.25'>Thank you for participanting in our experiment again! You will be asked to play the Dysfunctional Ball Game again. We will briefly recap the rules before we start.</p><p style='font-size:1.1em;line-height:1.25'>Press <strong>Next</strong> to continue.</p>","0","custom-html-button-response","0","7041","0.0-0.0","226","1","2025-07-23 15:30:24","1f75c3e559b7213887762d5229550c2b","89.245.26.244","Mozilla/5.0 (Windows NT 10.0; Win64; x64) AppleWebKit/537.36 (KHTML, like Gecko) Chrome/135.0.0.0 Safari/537.36 OPR/120.0.0.0","WebKit","Opera","120.0.0.0","Windows","10.0","https://app.prolific.com/","de-DE,de;q=0.9,en-US;q=0.8,en;q=0.7,zh-CN;q=0.6,zh;q=0.5","6565f2ba13586fa869dd3b28","683db9eb0562dbf637994deb","6881000691af4618a930d146","2","1","6565f2ba13586fa869dd3b28","2","1","2025-07-23T15:30:31.307Z","","","","","","","","","","","","","","","","","","","","","","","","","","","","","","","","","","","","","","","","","",""
"2645","","","","fullscreen","1","10688","0.0-1.0","226","1","2025-07-23 15:30:24","1f75c3e559b7213887762d5229550c2b","89.245.26.244","Mozilla/5.0 (Windows NT 10.0; Win64; x64) AppleWebKit/537.36 (KHTML, like Gecko) Chrome/135.0.0.0 Safari/537.36 OPR/120.0.0.0","WebKit","Opera","120.0.0.0","Windows","10.0","https://app.prolific.com/","de-DE,de;q=0.9,en-US;q=0.8,en;q=0.7,zh-CN;q=0.6,zh;q=0.5","6565f2ba13586fa869dd3b28","683db9eb0562dbf637994deb","6881000691af4618a930d146","2","1","6565f2ba13586fa869dd3b28","2","1","","true","","","","","","","","","","","","","","","","","","","","","","","","","","","","","","","","","","","","","","","","",""
"4908","1753284639863","<p style='font-size:1.1em;line-height:1.25'>In the following, we will ask you a few questions relating to your feelings in the last 24 hours.<br></p><p style='font-size:1.1em;line-height:1.25'>Press the <strong>Next</strong> button to continue.</p>","0","custom-html-button-response","2","15597","0.0-2.0-0.0","226","1","2025-07-23 15:30:24","1f75c3e559b7213887762d5229550c2b","89.245.26.244","Mozilla/5.0 (Windows NT 10.0; Win64; x64) AppleWebKit/537.36 (KHTML, like Gecko) Chrome/135.0.0.0 Safari/537.36 OPR/120.0.0.0","WebKit","Opera","120.0.0.0","Windows","10.0","https://app.prolific.com/","de-DE,de;q=0.9,en-US;q=0.8,en;q=0.7,zh-CN;q=0.6,zh;q=0.5","6565f2ba13586fa869dd3b28","683db9eb0562dbf637994deb","6881000691af4618a930d146","2","1","6565f2ba13586fa869dd3b28","2","1","2025-07-23T15:30:39.863Z","","","","","","","","","","","","","","","","","","","","","","","","","","","","","","","","","","","","","","","","","",""
"65285.5","","","","survey-template","3","80886","0.0-2.0-1.0","226","1","2025-07-23 15:30:24","1f75c3e559b7213887762d5229550c2b","89.245.26.244","Mozilla/5.0 (Windows NT 10.0; Win64; x64) AppleWebKit/537.36 (KHTML, like Gecko) Chrome/135.0.0.0 Safari/537.36 OPR/120.0.0.0","WebKit","Opera","120.0.0.0","Windows","10.0","https://app.prolific.com/","de-DE,de;q=0.9,en-US;q=0.8,en;q=0.7,zh-CN;q=0.6,zh;q=0.5","6565f2ba13586fa869dd3b28","683db9eb0562dbf637994deb","6881000691af4618a930d146","2","1","6565f2ba13586fa869dd3b28","2","1","2025-07-23T15:31:45.152Z","","{""Q01"":""1"",""Q02"":""1"",""Q03"":""1"",""Q04"":""1"",""Q05"":""1"",""Q06"":""2"",""Q07"":""1"",""Q08"":""1"",""Q09"":""2"",""Q10"":""1"",""Q11"":""1"",""Q12"":""2"",""Q13"":""5"",""Q14"":""3"",""Q15"":""2"",""Q16"":""2"",""Q17"":""1"",""Q18"":""1"",""Q19"":""0"",""Q20"":""0"",""Q21"":""0"",""Q22"":""0""}","[0,1,2,3,4,5,6,7,8,9,10,11,12,13,14,15,16,17,18,19,20,21]","[""Q01"",""Q02"",""Q04"",""Q03"",""Q05"",""Q06"",""Q07"",""Q08"",""Q09"",""Q11"",""Q12"",""Q13"",""Q14"",""Q15"",""Q17"",""Q16"",""Q18"",""Q19"",""Q20"",""Q21"",""Q22"",""Q10""]","[10712.800000011921,11547.800000011921,14371,16272.900000035763,16995.80000001192,19018.400000035763,19958.700000047684,22747.80000001192,24185.600000023842,27511.600000023842,30020.600000023842,31438.400000035763,33268.60000002384,36823.60000002384,41496.60000002384,42484.80000001192,44572.90000003576,45672.10000002384,49293.700000047684,50706.60000002384,56804,63602.80000001192]","[]","[0,10712.800000011921,11547.800000011921,13557.700000047684,14371,15204.600000023842,15908.600000023842,16272.900000035763,16995.80000001192,19018.400000035763,19958.700000047684,21301.900000035763,22747.80000001192,24185.600000023842,25732,27511.600000023842,30020.600000023842,31438.400000035763,33268.60000002384,36823.60000002384,39012.700000047684,40704.60000002384,41164.700000047684,41496.60000002384,42026.80000001192,42484.80000001192,43835.80000001192,44572.90000003576,45672.10000002384,49293.700000047684,50706.60000002384,55967.90000003576,56804,57685.90000003576,59360.90000003576,63052.80000001192,63602.80000001192,65282.90000003576]","0.5","0.38095238095238093","0","drsp","","","","","","","","","","","","","","","","","","","","","","","","","","","","","","",""
"11650.399999976158","","","","survey-template","4","92538","0.0-2.0-2.0","226","1","2025-07-23 15:30:24","1f75c3e559b7213887762d5229550c2b","89.245.26.244","Mozilla/5.0 (Windows NT 10.0; Win64; x64) AppleWebKit/537.36 (KHTML, like Gecko) Chrome/135.0.0.0 Safari/537.36 OPR/120.0.0.0","WebKit","Opera","120.0.0.0","Windows","10.0","https://app.prolific.com/","de-DE,de;q=0.9,en-US;q=0.8,en;q=0.7,zh-CN;q=0.6,zh;q=0.5","6565f2ba13586fa869dd3b28","683db9eb0562dbf637994deb","6881000691af4618a930d146","2","1","6565f2ba13586fa869dd3b28","2","1","2025-07-23T15:31:56.804Z","","{""Q01"":""1"",""Q02"":""3"",""Q03"":""0""}","[0,1,2]","[""Q01"",""Q02"",""Q03""]","[7349.699999988079,8388.800000011921,10795.800000011921]","[]","[6279.699999988079,7349.699999988079,8388.800000011921,10795.800000011921,11649.899999976158]","0.3333333333333333","0.5","0","stress","","","","","","","","","","","","","","","","","","","","","","","","","","","","","","",""
"5747","","","","instructions","5","98286","0.0-3.0-0.0","226","1","2025-07-23 15:30:24","1f75c3e559b7213887762d5229550c2b","89.245.26.244","Mozilla/5.0 (Windows NT 10.0; Win64; x64) AppleWebKit/537.36 (KHTML, like Gecko) Chrome/135.0.0.0 Safari/537.36 OPR/120.0.0.0","WebKit","Opera","120.0.0.0","Windows","10.0","https://app.prolific.com/","de-DE,de;q=0.9,en-US;q=0.8,en;q=0.7,zh-CN;q=0.6,zh;q=0.5","6565f2ba13586fa869dd3b28","683db9eb0562dbf637994deb","6881000691af4618a930d146","2","1","6565f2ba13586fa869dd3b28","2","1","","","","","","","","","","","","","[{""page_index"":0,""viewing_time"":5747}]","","","","","","","","","","","","","","","","","","","","","","","","","","","","","",""
"3293","","<p>Before you start with this game please answer the following three questions yourself. </p>
  <p>Through this game, we measure several aspects of your cognitive performance, such as reaction times, multi-tasking capabilities </p>
  <p>and the ability to assess the situation you are in.</p>
  <p></p>
  <p><b>How good do you usually are in such tasks?</b></p>","37","html-slider-response","6","101581","0.0-4.0-0.0","226","1","2025-07-23 15:30:24","1f75c3e559b7213887762d5229550c2b","89.245.26.244","Mozilla/5.0 (Windows NT 10.0; Win64; x64) AppleWebKit/537.36 (KHTML, like Gecko) Chrome/135.0.0.0 Safari/537.36 OPR/120.0.0.0","WebKit","Opera","120.0.0.0","Windows","10.0","https://app.prolific.com/","de-DE,de;q=0.9,en-US;q=0.8,en;q=0.7,zh-CN;q=0.6,zh;q=0.5","6565f2ba13586fa869dd3b28","683db9eb0562dbf637994deb","6881000691af4618a930d146","2","1","6565f2ba13586fa869dd3b28","2","1","2025-07-23T15:32:05.847Z","","","","","","","","","","","PreSkillQ","","50","","","","","","","","","","","","","","","","","","","","","","","","","","","","",""
"2371","","<div style=""width:500px;"">
  <p>How well do you think you will perform in this task compared to other participants?</p>
  </div>","32","html-slider-response","7","103952","0.0-4.0-1.0","226","1","2025-07-23 15:30:24","1f75c3e559b7213887762d5229550c2b","89.245.26.244","Mozilla/5.0 (Windows NT 10.0; Win64; x64) AppleWebKit/537.36 (KHTML, like Gecko) Chrome/135.0.0.0 Safari/537.36 OPR/120.0.0.0","WebKit","Opera","120.0.0.0","Windows","10.0","https://app.prolific.com/","de-DE,de;q=0.9,en-US;q=0.8,en;q=0.7,zh-CN;q=0.6,zh;q=0.5","6565f2ba13586fa869dd3b28","683db9eb0562dbf637994deb","6881000691af4618a930d146","2","1","6565f2ba13586fa869dd3b28","2","1","2025-07-23T15:32:08.218Z","","","","","","","","","","","PrePerfQ","","50","","","","","","","","","","","","","","","","","","","","","","","","","","","","",""
"2945","","<div style=""width:500px;"">
  <p>What best describes how you currently feel?</p>
  </div>","84","html-slider-response","8","106898","0.0-4.0-2.0","226","1","2025-07-23 15:30:24","1f75c3e559b7213887762d5229550c2b","89.245.26.244","Mozilla/5.0 (Windows NT 10.0; Win64; x64) AppleWebKit/537.36 (KHTML, like Gecko) Chrome/135.0.0.0 Safari/537.36 OPR/120.0.0.0","WebKit","Opera","120.0.0.0","Windows","10.0","https://app.prolific.com/","de-DE,de;q=0.9,en-US;q=0.8,en;q=0.7,zh-CN;q=0.6,zh;q=0.5","6565f2ba13586fa869dd3b28","683db9eb0562dbf637994deb","6881000691af4618a930d146","2","1","6565f2ba13586fa869dd3b28","2","1","2025-07-23T15:32:11.164Z","","","","","","","","","","","PreMotivationQ","","50","","","","","","","","","","","","","","","","","","","","","","","","","","","","",""
"","","","","ctl-task-cpt","9","140831","0.0-5.0-0.0","226","1","2025-07-23 15:30:24","1f75c3e559b7213887762d5229550c2b","89.245.26.244","Mozilla/5.0 (Windows NT 10.0; Win64; x64) AppleWebKit/537.36 (KHTML, like Gecko) Chrome/135.0.0.0 Safari/537.36 OPR/120.0.0.0","WebKit","Opera","120.0.0.0","Windows","10.0","https://app.prolific.com/","de-DE,de;q=0.9,en-US;q=0.8,en;q=0.7,zh-CN;q=0.6,zh;q=0.5","6565f2ba13586fa869dd3b28","683db9eb0562dbf637994deb","6881000691af4618a930d146","2","1","6565f2ba13586fa869dd3b28","2","1","2025-07-23T15:32:45.097Z","","","","","","","","","","","","","","win-only","2","g1:SE,g2:NW","1","1","0","107851.5","1033.8","6036.2","30930.4","1","4","8","6","1","1","1","1","0","0.007575757575757576","1295.8","3000","845","[""down"",""right""]","{""num_key_presses"":4,""num_perfect"":4,""num_errors"":0,""num_randdir"":0,""num_randdir_good_moves"":0,""num_whilered"":0,""num_whileblue"":0,""num_blue"":4,""num_good_moves"":4}","[417.57142857142856,408.47767857142856,0.2,417.57142857142856,408.47767857142856,111.9,417.57142857142856,408.47767857142856,216.5,417.57142857142856,408.47767857142856,316.7,417.57142857142856,408.47767857142856,416.8,421.57142857142856,412.47767857142856,516.9,413.57142857142856,398.47767857142856,617,301.57142857142856,270.47767857142856,717.1,481.57142857142856,426.47767857142856,817.3,651.5714285714286,592.4776785714286,924.8,707.5714285714286,660.4776785714286,1037,745.5714285714286,704.4776785714286,1142.3,747.5714285714286,738.4776785714286,1244.7,747.5714285714286,740.4776785714286,1346.7,751.5714285714286,738.4776785714286,1447.1,743.5714285714286,728.4776785714286,1551.4,639.5714285714286,676.4776785714286,1652.5,423.57142857142856,600.4776785714286,1752.5,417.57142857142856,598.4776785714286,1864.7,415.57142857142856,594.4776785714286,1966.6,413.57142857142856,592.4776785714286,2073.2,413.57142857142856,592.4776785714286,2184.8,413.57142857142856,592.4776785714286,2287.4,413.57142857142856,590.4776785714286,2392.6,413.57142857142856,584.4776785714286,2504.3,417.57142857142856,580.4776785714286,2614.7,417.57142857142856,578.4776785714286,2716.9,425.57142857142856,546.4776785714286,2821.6,427.57142857142856,540.4776785714286,2921.9,427.57142857142856,540.4776785714286,3026.5,443.57142857142856,512.4776785714286,3128.2,395.57142857142856,414.47767857142856,3232.2,271.57142857142856,396.47767857142856,3336.5,269.57142857142856,396.47767857142856,3436.6,-178.42857142857144,346.47767857142856,3536.8,-540.4285714285714,272.47767857142856,3644.9,-540.4285714285714,272.47767857142856,3754.5,-540.4285714285714,272.47767857142856,3857.7,-540.4285714285714,272.47767857142856,3981.6,-540.4285714285714,272.47767857142856,4083,-540.4285714285714,272.47767857142856,4186.5,-540.4285714285714,272.47767857142856,4286.5,-540.4285714285714,272.47767857142856,4387.3,-540.4285714285714,272.47767857142856,4491.8,-134.42857142857144,516.4776785714286,4593.2,17.57142857142857,306.47767857142856,4697.2,255.57142857142856,40.47767857142857,4801.8,281.57142857142856,-47.52232142857143,4902.1]","[1826.9,1826.9,1000,0,826.9,""smooth"",""down"",""down"",""good_move"",12004.1,10176.9,2456.9,9140.5,406.7,""smooth"",""right"",""right"",""good_move"",15109.5,3105.1,2281.1,12004.4,824,""smooth"",""right"",""right"",""good_move"",24784.6,9674.8,2518.4,21884.4,381.8,""smooth"",""down"",""down"",""good_move""]","",""
"3397","","<div style=""width:500px;"">
  <p>What determined the result of this run?</p>
  </div>","88","html-slider-response","10","144229","0.0-5.0-1.0","226","1","2025-07-23 15:30:24","1f75c3e559b7213887762d5229550c2b","89.245.26.244","Mozilla/5.0 (Windows NT 10.0; Win64; x64) AppleWebKit/537.36 (KHTML, like Gecko) Chrome/135.0.0.0 Safari/537.36 OPR/120.0.0.0","WebKit","Opera","120.0.0.0","Windows","10.0","https://app.prolific.com/","de-DE,de;q=0.9,en-US;q=0.8,en;q=0.7,zh-CN;q=0.6,zh;q=0.5","6565f2ba13586fa869dd3b28","683db9eb0562dbf637994deb","6881000691af4618a930d146","2","1","6565f2ba13586fa869dd3b28","2","1","2025-07-23T15:32:48.495Z","","","","","","","","","","","AttribQ","","50","","","","","","","","","","","","","","","","","","","","","","","","","","","","",""
"2761","","<div style=""width:500px;"">
  <p>How much control did you have over the ball?</p>
  </div>","100","html-slider-response","11","146992","0.0-5.0-2.0","226","1","2025-07-23 15:30:24","1f75c3e559b7213887762d5229550c2b","89.245.26.244","Mozilla/5.0 (Windows NT 10.0; Win64; x64) AppleWebKit/537.36 (KHTML, like Gecko) Chrome/135.0.0.0 Safari/537.36 OPR/120.0.0.0","WebKit","Opera","120.0.0.0","Windows","10.0","https://app.prolific.com/","de-DE,de;q=0.9,en-US;q=0.8,en;q=0.7,zh-CN;q=0.6,zh;q=0.5","6565f2ba13586fa869dd3b28","683db9eb0562dbf637994deb","6881000691af4618a930d146","2","1","6565f2ba13586fa869dd3b28","2","1","2025-07-23T15:32:51.258Z","","","","","","","","","","","ControlQ","","50","","","","","","","","","","","","","","","","","","","","","","","","","","","","",""
"1674","","<div style=""width:500px;"">
  <p>How would you describe your current emotional state?</p>
  </div>","8","html-slider-response","12","148667","0.0-5.0-3.0","226","1","2025-07-23 15:30:24","1f75c3e559b7213887762d5229550c2b","89.245.26.244","Mozilla/5.0 (Windows NT 10.0; Win64; x64) AppleWebKit/537.36 (KHTML, like Gecko) Chrome/135.0.0.0 Safari/537.36 OPR/120.0.0.0","WebKit","Opera","120.0.0.0","Windows","10.0","https://app.prolific.com/","de-DE,de;q=0.9,en-US;q=0.8,en;q=0.7,zh-CN;q=0.6,zh;q=0.5","6565f2ba13586fa869dd3b28","683db9eb0562dbf637994deb","6881000691af4618a930d146","2","1","6565f2ba13586fa869dd3b28","2","1","2025-07-23T15:32:52.933Z","","","","","","","","","","","StressQ","","50","","","","","","","","","","","","","","","","","","","","","","","","","","","","",""
"1737","","<div style=""width:500px;"">
  <p>What best describes how you currently feel?</p>
  </div>","91","html-slider-response","13","150404","0.0-5.0-4.0","226","1","2025-07-23 15:30:24","1f75c3e559b7213887762d5229550c2b","89.245.26.244","Mozilla/5.0 (Windows NT 10.0; Win64; x64) AppleWebKit/537.36 (KHTML, like Gecko) Chrome/135.0.0.0 Safari/537.36 OPR/120.0.0.0","WebKit","Opera","120.0.0.0","Windows","10.0","https://app.prolific.com/","de-DE,de;q=0.9,en-US;q=0.8,en;q=0.7,zh-CN;q=0.6,zh;q=0.5","6565f2ba13586fa869dd3b28","683db9eb0562dbf637994deb","6881000691af4618a930d146","2","1","6565f2ba13586fa869dd3b28","2","1","2025-07-23T15:32:54.670Z","","","","","","","","","","","MotivationQ","","50","","","","","","","","","","","","","","","","","","","","","","","","","","","","",""
"","","","","ctl-task-cpt","14","174701","0.0-5.0-0.1","226","1","2025-07-23 15:30:24","1f75c3e559b7213887762d5229550c2b","89.245.26.244","Mozilla/5.0 (Windows NT 10.0; Win64; x64) AppleWebKit/537.36 (KHTML, like Gecko) Chrome/135.0.0.0 Safari/537.36 OPR/120.0.0.0","WebKit","Opera","120.0.0.0","Windows","10.0","https://app.prolific.com/","de-DE,de;q=0.9,en-US;q=0.8,en;q=0.7,zh-CN;q=0.6,zh;q=0.5","6565f2ba13586fa869dd3b28","683db9eb0562dbf637994deb","6881000691af4618a930d146","2","1","6565f2ba13586fa869dd3b28","2","1","2025-07-23T15:33:18.967Z","","","","","","","","","","","","","","win-only","1","g1:NE,g2:SW","0.9","2","0","151356.3","794.7","5800.7","21295.7","1","4","4","6","1","1","1","2","1","0.015151515151515152","1220.3","3000","735","[""up"",""right""]","{""num_key_presses"":6,""num_perfect"":5,""num_errors"":0,""num_randdir"":1,""num_randdir_good_moves"":0,""num_whilered"":0,""num_whileblue"":0,""num_blue"":0,""num_good_moves"":5}","[417.57142857142856,410.47767857142856,0.1,417.57142857142856,410.47767857142856,101.1,417.57142857142856,410.47767857142856,201.2,417.57142857142856,410.47767857142856,301.2,417.57142857142856,410.47767857142856,401.3,417.57142857142856,410.47767857142856,505.9,417.57142857142856,410.47767857142856,606,417.57142857142856,410.47767857142856,721.3,433.57142857142856,404.47767857142856,825.9,619.5714285714286,210.47767857142856,930.1,697.5714285714286,118.47767857142857,1031.3,757.5714285714286,80.47767857142857,1136.4,759.5714285714286,80.47767857142857,1244.9,759.5714285714286,80.47767857142857,1346,761.5714285714286,136.47767857142856,1451.1,661.5714285714286,342.47767857142856,1551.1,657.5714285714286,346.47767857142856,1651.2,677.5714285714286,344.47767857142856,1751.4,743.5714285714286,310.47767857142856,1857.6,785.5714285714286,280.47767857142856,1968.9,823.5714285714286,262.47767857142856,2070.7,839.5714285714286,256.47767857142856,2171.3,843.5714285714286,256.47767857142856,2271.5,845.5714285714286,258.47767857142856,2379.7,845.5714285714286,258.47767857142856,2480.5,847.5714285714286,258.47767857142856,2581.3,847.5714285714286,258.47767857142856,2686.2,849.5714285714286,258.47767857142856,2786.4,889.5714285714286,246.47767857142856,2886.5,895.5714285714286,246.47767857142856,2991.4,895.5714285714286,246.47767857142856,3094.7,897.5714285714286,246.47767857142856,3196.3,897.5714285714286,246.47767857142856,3302.2,897.5714285714286,246.47767857142856,3406.4,897.5714285714286,246.47767857142856,3510.7,897.5714285714286,246.47767857142856,3611.4,897.5714285714286,246.47767857142856,3711.5,897.5714285714286,246.47767857142856,3812.6,897.5714285714286,246.47767857142856,3915.5,897.5714285714286,246.47767857142856,4015.6,897.5714285714286,246.47767857142856,4120.5,897.5714285714286,246.47767857142856,4221.3,897.5714285714286,246.47767857142856,4330.1,897.5714285714286,246.47767857142856,4441.6,897.5714285714286,256.47767857142856,4541.8,897.5714285714286,258.47767857142856,4646.7,899.5714285714286,258.47767857142856,4750.8,899.5714285714286,258.47767857142856,4850.9,899.5714285714286,258.47767857142856,4951]","[1410.3,1410.2,1000,0.1,410.2,""smooth"",""up"",""up"",""good_move"",4765.5,3355,2842.7,1410.5,512.3,""oops"",""right"",""down"",""bad_move"",7823.6,3058,2649.9,4765.6,408.1,""smooth"",""up"",""up"",""good_move"",11189.8,3365.9,2995.3,7823.9,370.6,""smooth"",""right"",""right"",""good_move"",13202.7,2012.7,1610.4,11190,402.3,""smooth"",""right"",""right"",""good_move"",15404.7,2201.7,1847.2,13203,354.5,""smooth"",""up"",""up"",""good_move""]","",""
"2949","","<div style=""width:500px;"">
  <p>What determined the result of this run?</p>
  </div>","36","html-slider-response","15","177652","0.0-5.0-1.1","226","1","2025-07-23 15:30:24","1f75c3e559b7213887762d5229550c2b","89.245.26.244","Mozilla/5.0 (Windows NT 10.0; Win64; x64) AppleWebKit/537.36 (KHTML, like Gecko) Chrome/135.0.0.0 Safari/537.36 OPR/120.0.0.0","WebKit","Opera","120.0.0.0","Windows","10.0","https://app.prolific.com/","de-DE,de;q=0.9,en-US;q=0.8,en;q=0.7,zh-CN;q=0.6,zh;q=0.5","6565f2ba13586fa869dd3b28","683db9eb0562dbf637994deb","6881000691af4618a930d146","2","1","6565f2ba13586fa869dd3b28","2","1","2025-07-23T15:33:21.918Z","","","","","","","","","","","AttribQ","","50","","","","","","","","","","","","","","","","","","","","","","","","","","","","",""
"2525","","<div style=""width:500px;"">
  <p>How much control did you have over the ball?</p>
  </div>","79","html-slider-response","16","180177","0.0-5.0-2.1","226","1","2025-07-23 15:30:24","1f75c3e559b7213887762d5229550c2b","89.245.26.244","Mozilla/5.0 (Windows NT 10.0; Win64; x64) AppleWebKit/537.36 (KHTML, like Gecko) Chrome/135.0.0.0 Safari/537.36 OPR/120.0.0.0","WebKit","Opera","120.0.0.0","Windows","10.0","https://app.prolific.com/","de-DE,de;q=0.9,en-US;q=0.8,en;q=0.7,zh-CN;q=0.6,zh;q=0.5","6565f2ba13586fa869dd3b28","683db9eb0562dbf637994deb","6881000691af4618a930d146","2","1","6565f2ba13586fa869dd3b28","2","1","2025-07-23T15:33:24.443Z","","","","","","","","","","","ControlQ","","50","","","","","","","","","","","","","","","","","","","","","","","","","","","","",""
"1443","","<div style=""width:500px;"">
  <p>How would you describe your current emotional state?</p>
  </div>","15","html-slider-response","17","181622","0.0-5.0-3.1","226","1","2025-07-23 15:30:24","1f75c3e559b7213887762d5229550c2b","89.245.26.244","Mozilla/5.0 (Windows NT 10.0; Win64; x64) AppleWebKit/537.36 (KHTML, like Gecko) Chrome/135.0.0.0 Safari/537.36 OPR/120.0.0.0","WebKit","Opera","120.0.0.0","Windows","10.0","https://app.prolific.com/","de-DE,de;q=0.9,en-US;q=0.8,en;q=0.7,zh-CN;q=0.6,zh;q=0.5","6565f2ba13586fa869dd3b28","683db9eb0562dbf637994deb","6881000691af4618a930d146","2","1","6565f2ba13586fa869dd3b28","2","1","2025-07-23T15:33:25.888Z","","","","","","","","","","","StressQ","","50","","","","","","","","","","","","","","","","","","","","","","","","","","","","",""
"1706","","<div style=""width:500px;"">
  <p>What best describes how you currently feel?</p>
  </div>","82","html-slider-response","18","183329","0.0-5.0-4.1","226","1","2025-07-23 15:30:24","1f75c3e559b7213887762d5229550c2b","89.245.26.244","Mozilla/5.0 (Windows NT 10.0; Win64; x64) AppleWebKit/537.36 (KHTML, like Gecko) Chrome/135.0.0.0 Safari/537.36 OPR/120.0.0.0","WebKit","Opera","120.0.0.0","Windows","10.0","https://app.prolific.com/","de-DE,de;q=0.9,en-US;q=0.8,en;q=0.7,zh-CN;q=0.6,zh;q=0.5","6565f2ba13586fa869dd3b28","683db9eb0562dbf637994deb","6881000691af4618a930d146","2","1","6565f2ba13586fa869dd3b28","2","1","2025-07-23T15:33:27.595Z","","","","","","","","","","","MotivationQ","","50","","","","","","","","","","","","","","","","","","","","","","","","","","","","",""
"","","","","ctl-task-cpt","19","218477","0.0-5.0-0.2","226","1","2025-07-23 15:30:24","1f75c3e559b7213887762d5229550c2b","89.245.26.244","Mozilla/5.0 (Windows NT 10.0; Win64; x64) AppleWebKit/537.36 (KHTML, like Gecko) Chrome/135.0.0.0 Safari/537.36 OPR/120.0.0.0","WebKit","Opera","120.0.0.0","Windows","10.0","https://app.prolific.com/","de-DE,de;q=0.9,en-US;q=0.8,en;q=0.7,zh-CN;q=0.6,zh;q=0.5","6565f2ba13586fa869dd3b28","683db9eb0562dbf637994deb","6881000691af4618a930d146","2","1","6565f2ba13586fa869dd3b28","2","1","2025-07-23T15:34:02.743Z","","","","","","","","","","","","","","win-only","1","g1:NE,g2:SW","0.8","3","0","184282.2","1774.3","6775.8","32130.2","1","4","8","6","1","1","1","3","2","0.022727272727272728","1130.8","3000","1190","[""up"",""right""]","{""num_key_presses"":6,""num_perfect"":5,""num_errors"":0,""num_randdir"":1,""num_randdir_good_moves"":0,""num_whilered"":0,""num_whileblue"":0,""num_blue"":3,""num_good_moves"":5}","[419.57142857142856,416.47767857142856,0.2,419.57142857142856,416.47767857142856,105.8,419.57142857142856,416.47767857142856,206.1,419.57142857142856,416.47767857142856,306.9,319.57142857142856,436.47767857142856,408.1,293.57142857142856,476.47767857142856,511.2,279.57142857142856,582.4776785714286,611.2,281.57142857142856,580.4776785714286,716.2,639.5714285714286,334.47767857142856,825.8,765.5714285714286,166.47767857142856,925.9,783.5714285714286,124.47767857142857,1026.3,777.5714285714286,94.47767857142857,1139,777.5714285714286,94.47767857142857,1239.3,775.5714285714286,100.47767857142857,1341.1,647.5714285714286,136.47767857142856,1450.2,609.5714285714286,158.47767857142856,1551.2,609.5714285714286,158.47767857142856,1651.5,609.5714285714286,158.47767857142856,1751.5,609.5714285714286,158.47767857142856,1857,609.5714285714286,158.47767857142856,1957.8,609.5714285714286,158.47767857142856,2067.6,609.5714285714286,158.47767857142856,2178.7,609.5714285714286,158.47767857142856,2281.2,609.5714285714286,158.47767857142856,2386.4,609.5714285714286,158.47767857142856,2491.1,609.5714285714286,158.47767857142856,2592,609.5714285714286,158.47767857142856,2696.3,609.5714285714286,158.47767857142856,2796.4,609.5714285714286,158.47767857142856,2896.5,609.5714285714286,158.47767857142856,3001.8,609.5714285714286,158.47767857142856,3103,609.5714285714286,158.47767857142856,3214.5,609.5714285714286,158.47767857142856,3316.8,609.5714285714286,158.47767857142856,3427.8,609.5714285714286,158.47767857142856,3534.8,609.5714285714286,158.47767857142856,3636.2,609.5714285714286,158.47767857142856,3736.3,609.5714285714286,158.47767857142856,3851.9,609.5714285714286,158.47767857142856,3955.9,609.5714285714286,158.47767857142856,4060.6,609.5714285714286,158.47767857142856,4161,609.5714285714286,158.47767857142856,4261.1,609.5714285714286,158.47767857142856,4361.6,609.5714285714286,158.47767857142856,4466.5,609.5714285714286,158.47767857142856,4583.2,609.5714285714286,158.47767857142856,4694.6,609.5714285714286,158.47767857142856,4794.9,609.5714285714286,158.47767857142856,4895.9,609.5714285714286,158.47767857142856,4996.4]","[1372.6,1372.6,1000,0,372.6,""smooth"",""up"",""up"",""good_move"",7929.6,6556.7,3011.3,4544.5,373.8,""smooth"",""right"",""right"",""good_move"",16932.2,9002.4,2366.8,14194.7,370.7,""oops"",""up"",""left"",""bad_move"",19698.5,2766.1,2394.9,16932.5,371.2,""smooth"",""up"",""up"",""good_move"",22189.7,2491,2110.2,19698.7,380.8,""smooth"",""right"",""right"",""good_move"",25269.3,3079.5,2731,22189.9,348.5,""smooth"",""right"",""right"",""good_move""]","",""
"15232","","<div style=""width:500px;"">
  <p>What determined the result of this run?</p>
  </div>","65","html-slider-response","20","233711","0.0-5.0-1.2","226","1","2025-07-23 15:30:24","1f75c3e559b7213887762d5229550c2b","89.245.26.244","Mozilla/5.0 (Windows NT 10.0; Win64; x64) AppleWebKit/537.36 (KHTML, like Gecko) Chrome/135.0.0.0 Safari/537.36 OPR/120.0.0.0","WebKit","Opera","120.0.0.0","Windows","10.0","https://app.prolific.com/","de-DE,de;q=0.9,en-US;q=0.8,en;q=0.7,zh-CN;q=0.6,zh;q=0.5","6565f2ba13586fa869dd3b28","683db9eb0562dbf637994deb","6881000691af4618a930d146","2","1","6565f2ba13586fa869dd3b28","2","1","2025-07-23T15:34:17.977Z","","","","","","","","","","","AttribQ","","50","","","","","","","","","","","","","","","","","","","","","","","","","","","","",""
"3241","","<div style=""width:500px;"">
  <p>How much control did you have over the ball?</p>
  </div>","87","html-slider-response","21","236952","0.0-5.0-2.2","226","1","2025-07-23 15:30:24","1f75c3e559b7213887762d5229550c2b","89.245.26.244","Mozilla/5.0 (Windows NT 10.0; Win64; x64) AppleWebKit/537.36 (KHTML, like Gecko) Chrome/135.0.0.0 Safari/537.36 OPR/120.0.0.0","WebKit","Opera","120.0.0.0","Windows","10.0","https://app.prolific.com/","de-DE,de;q=0.9,en-US;q=0.8,en;q=0.7,zh-CN;q=0.6,zh;q=0.5","6565f2ba13586fa869dd3b28","683db9eb0562dbf637994deb","6881000691af4618a930d146","2","1","6565f2ba13586fa869dd3b28","2","1","2025-07-23T15:34:21.218Z","","","","","","","","","","","ControlQ","","50","","","","","","","","","","","","","","","","","","","","","","","","","","","","",""
"2071","","<div style=""width:500px;"">
  <p>How would you describe your current emotional state?</p>
  </div>","21","html-slider-response","22","239024","0.0-5.0-3.2","226","1","2025-07-23 15:30:24","1f75c3e559b7213887762d5229550c2b","89.245.26.244","Mozilla/5.0 (Windows NT 10.0; Win64; x64) AppleWebKit/537.36 (KHTML, like Gecko) Chrome/135.0.0.0 Safari/537.36 OPR/120.0.0.0","WebKit","Opera","120.0.0.0","Windows","10.0","https://app.prolific.com/","de-DE,de;q=0.9,en-US;q=0.8,en;q=0.7,zh-CN;q=0.6,zh;q=0.5","6565f2ba13586fa869dd3b28","683db9eb0562dbf637994deb","6881000691af4618a930d146","2","1","6565f2ba13586fa869dd3b28","2","1","2025-07-23T15:34:23.290Z","","","","","","","","","","","StressQ","","50","","","","","","","","","","","","","","","","","","","","","","","","","","","","",""
"2682","","<div style=""width:500px;"">
  <p>What best describes how you currently feel?</p>
  </div>","87","html-slider-response","23","241707","0.0-5.0-4.2","226","1","2025-07-23 15:30:24","1f75c3e559b7213887762d5229550c2b","89.245.26.244","Mozilla/5.0 (Windows NT 10.0; Win64; x64) AppleWebKit/537.36 (KHTML, like Gecko) Chrome/135.0.0.0 Safari/537.36 OPR/120.0.0.0","WebKit","Opera","120.0.0.0","Windows","10.0","https://app.prolific.com/","de-DE,de;q=0.9,en-US;q=0.8,en;q=0.7,zh-CN;q=0.6,zh;q=0.5","6565f2ba13586fa869dd3b28","683db9eb0562dbf637994deb","6881000691af4618a930d146","2","1","6565f2ba13586fa869dd3b28","2","1","2025-07-23T15:34:25.974Z","","","","","","","","","","","MotivationQ","","50","","","","","","","","","","","","","","","","","","","","","","","","","","","","",""
"","","","","ctl-task-cpt","24","306626","0.0-5.0-0.3","226","1","2025-07-23 15:30:24","1f75c3e559b7213887762d5229550c2b","89.245.26.244","Mozilla/5.0 (Windows NT 10.0; Win64; x64) AppleWebKit/537.36 (KHTML, like Gecko) Chrome/135.0.0.0 Safari/537.36 OPR/120.0.0.0","WebKit","Opera","120.0.0.0","Windows","10.0","https://app.prolific.com/","de-DE,de;q=0.9,en-US;q=0.8,en;q=0.7,zh-CN;q=0.6,zh;q=0.5","6565f2ba13586fa869dd3b28","683db9eb0562dbf637994deb","6881000691af4618a930d146","2","1","6565f2ba13586fa869dd3b28","2","1","2025-07-23T15:35:30.892Z","","","","","","","","","","","","","","win-only","2","g1:SE,g2:NW","0.7","4","0","242660.4","23922.6","28926.1","61896.2","1","4","4","6","1","-1","-1","2","3","0.015151515151515152","1300.4","3000","-2520","[""down"",""right""]","{""num_key_presses"":7,""num_perfect"":4,""num_errors"":0,""num_randdir"":3,""num_randdir_good_moves"":0,""num_whilered"":0,""num_whileblue"":0,""num_blue"":3,""num_good_moves"":4}","[421.57142857142856,412.47767857142856,0.4,421.57142857142856,412.47767857142856,103.5,421.57142857142856,412.47767857142856,208.1,421.57142857142856,412.47767857142856,312.6,423.57142857142856,416.47767857142856,412.8,545.5714285714286,502.47767857142856,512.8,499.57142857142856,476.47767857142856,613.1,177.57142857142856,242.47767857142856,713.1,257.57142857142856,292.47767857142856,813.2,603.5714285714286,578.4776785714286,918.2,679.5714285714286,676.4776785714286,1018.4,703.5714285714286,716.4776785714286,1118.7,713.5714285714286,746.4776785714286,1223.4,721.5714285714286,758.4776785714286,1327.9,721.5714285714286,758.4776785714286,1428.1,721.5714285714286,758.4776785714286,1528.5,713.5714285714286,726.4776785714286,1632.7,741.5714285714286,688.4776785714286,1733.3,757.5714285714286,658.4776785714286,1838.4,757.5714285714286,658.4776785714286,1942.8,757.5714285714286,658.4776785714286,2043.5,757.5714285714286,658.4776785714286,2147.9,757.5714285714286,656.4776785714286,2248,757.5714285714286,656.4776785714286,2348,757.5714285714286,656.4776785714286,2452.6,757.5714285714286,656.4776785714286,2552.7,757.5714285714286,656.4776785714286,2653.1,757.5714285714286,656.4776785714286,2753.3,759.5714285714286,644.4776785714286,2858.3,767.5714285714286,616.4776785714286,2962.5,773.5714285714286,594.4776785714286,3062.6,773.5714285714286,594.4776785714286,3162.7,773.5714285714286,594.4776785714286,3262.9,773.5714285714286,594.4776785714286,3367.9,773.5714285714286,594.4776785714286,3468.5,773.5714285714286,594.4776785714286,3572.5,961.5714285714286,664.4776785714286,3672.8,961.5714285714286,662.4776785714286,3777.6,961.5714285714286,662.4776785714286,3877.6,961.5714285714286,662.4776785714286,3978.5,961.5714285714286,662.4776785714286,4082.6,961.5714285714286,662.4776785714286,4183.3,961.5714285714286,662.4776785714286,4283.3,961.5714285714286,662.4776785714286,4383.4,961.5714285714286,662.4776785714286,4483.5,961.5714285714286,662.4776785714286,4588,961.5714285714286,662.4776785714286,4688.7,961.5714285714286,662.4776785714286,4792.6,961.5714285714286,662.4776785714286,4893.3,961.5714285714286,662.4776785714286,4993.4]","[1359.1,1359.1,1000,0,359.1,""oops"",""right"",""left"",""bad_move"",4749,3389.6,2475.7,1359.4,913.9,""oops"",""down"",""up"",""bad_move"",11227,6477.6,2613.7,8264.1,349.2,""smooth"",""down"",""down"",""good_move"",14468.8,3241.5,2883,11227.4,358.5,""smooth"",""down"",""down"",""good_move"",16973.2,2504.2,2169,14469,335.2,""smooth"",""right"",""right"",""good_move"",27012.8,10039.3,2644.4,24014.3,354.1,""oops"",""right"",""left"",""bad_move"",30103.6,3090.5,2723.7,27013.1,366.8,""smooth"",""right"",""right"",""good_move""]","",""
"3353","","<div style=""width:500px;"">
  <p>What determined the result of this run?</p>
  </div>","28","html-slider-response","25","309980","0.0-5.0-1.3","226","1","2025-07-23 15:30:24","1f75c3e559b7213887762d5229550c2b","89.245.26.244","Mozilla/5.0 (Windows NT 10.0; Win64; x64) AppleWebKit/537.36 (KHTML, like Gecko) Chrome/135.0.0.0 Safari/537.36 OPR/120.0.0.0","WebKit","Opera","120.0.0.0","Windows","10.0","https://app.prolific.com/","de-DE,de;q=0.9,en-US;q=0.8,en;q=0.7,zh-CN;q=0.6,zh;q=0.5","6565f2ba13586fa869dd3b28","683db9eb0562dbf637994deb","6881000691af4618a930d146","2","1","6565f2ba13586fa869dd3b28","2","1","2025-07-23T15:35:34.246Z","","","","","","","","","","","AttribQ","","50","","","","","","","","","","","","","","","","","","","","","","","","","","","","",""
"14213","","<div style=""width:500px;"">
  <p>How much control did you have over the ball?</p>
  </div>","21","html-slider-response","26","324194","0.0-5.0-2.3","226","1","2025-07-23 15:30:24","1f75c3e559b7213887762d5229550c2b","89.245.26.244","Mozilla/5.0 (Windows NT 10.0; Win64; x64) AppleWebKit/537.36 (KHTML, like Gecko) Chrome/135.0.0.0 Safari/537.36 OPR/120.0.0.0","WebKit","Opera","120.0.0.0","Windows","10.0","https://app.prolific.com/","de-DE,de;q=0.9,en-US;q=0.8,en;q=0.7,zh-CN;q=0.6,zh;q=0.5","6565f2ba13586fa869dd3b28","683db9eb0562dbf637994deb","6881000691af4618a930d146","2","1","6565f2ba13586fa869dd3b28","2","1","2025-07-23T15:35:48.460Z","","","","","","","","","","","ControlQ","","50","","","","","","","","","","","","","","","","","","","","","","","","","","","","",""
"2335","","<div style=""width:500px;"">
  <p>How would you describe your current emotional state?</p>
  </div>","23","html-slider-response","27","326530","0.0-5.0-3.3","226","1","2025-07-23 15:30:24","1f75c3e559b7213887762d5229550c2b","89.245.26.244","Mozilla/5.0 (Windows NT 10.0; Win64; x64) AppleWebKit/537.36 (KHTML, like Gecko) Chrome/135.0.0.0 Safari/537.36 OPR/120.0.0.0","WebKit","Opera","120.0.0.0","Windows","10.0","https://app.prolific.com/","de-DE,de;q=0.9,en-US;q=0.8,en;q=0.7,zh-CN;q=0.6,zh;q=0.5","6565f2ba13586fa869dd3b28","683db9eb0562dbf637994deb","6881000691af4618a930d146","2","1","6565f2ba13586fa869dd3b28","2","1","2025-07-23T15:35:50.796Z","","","","","","","","","","","StressQ","","50","","","","","","","","","","","","","","","","","","","","","","","","","","","","",""
"2318","","<div style=""width:500px;"">
  <p>What best describes how you currently feel?</p>
  </div>","65","html-slider-response","28","328849","0.0-5.0-4.3","226","1","2025-07-23 15:30:24","1f75c3e559b7213887762d5229550c2b","89.245.26.244","Mozilla/5.0 (Windows NT 10.0; Win64; x64) AppleWebKit/537.36 (KHTML, like Gecko) Chrome/135.0.0.0 Safari/537.36 OPR/120.0.0.0","WebKit","Opera","120.0.0.0","Windows","10.0","https://app.prolific.com/","de-DE,de;q=0.9,en-US;q=0.8,en;q=0.7,zh-CN;q=0.6,zh;q=0.5","6565f2ba13586fa869dd3b28","683db9eb0562dbf637994deb","6881000691af4618a930d146","2","1","6565f2ba13586fa869dd3b28","2","1","2025-07-23T15:35:53.115Z","","","","","","","","","","","MotivationQ","","50","","","","","","","","","","","","","","","","","","","","","","","","","","","","",""
"","","","","ctl-task-cpt","29","367372","0.0-5.0-0.4","226","1","2025-07-23 15:30:24","1f75c3e559b7213887762d5229550c2b","89.245.26.244","Mozilla/5.0 (Windows NT 10.0; Win64; x64) AppleWebKit/537.36 (KHTML, like Gecko) Chrome/135.0.0.0 Safari/537.36 OPR/120.0.0.0","WebKit","Opera","120.0.0.0","Windows","10.0","https://app.prolific.com/","de-DE,de;q=0.9,en-US;q=0.8,en;q=0.7,zh-CN;q=0.6,zh;q=0.5","6565f2ba13586fa869dd3b28","683db9eb0562dbf637994deb","6881000691af4618a930d146","2","1","6565f2ba13586fa869dd3b28","2","1","2025-07-23T15:36:31.638Z","","","","","","","","","","","","","","win-only","3","g1:SW,g2:NE","0.6","5","0","329802.2","820.9","5825.6","35505.6","1","4","4","6","2","-4","-4","0","2","0","1953.3","3000","-2625","[""up"",""right""]","{""num_key_presses"":8,""num_perfect"":4,""num_errors"":0,""num_randdir"":4,""num_randdir_good_moves"":2,""num_whilered"":0,""num_whileblue"":0,""num_blue"":1,""num_good_moves"":6}","[421.57142857142856,410.47767857142856,0.2,421.57142857142856,410.47767857142856,104.4,421.57142857142856,410.47767857142856,204.6,421.57142857142856,410.47767857142856,305.3,421.57142857142856,410.47767857142856,424.6,419.57142857142856,414.47767857142856,530,407.57142857142856,432.47767857142856,635.1,561.5714285714286,334.47767857142856,735.2,713.5714285714286,150.47767857142856,839.3,757.5714285714286,76.47767857142857,946.9,757.5714285714286,76.47767857142857,1049.6,757.5714285714286,76.47767857142857,1149.6,757.5714285714286,76.47767857142857,1249.8,757.5714285714286,76.47767857142857,1349.8,757.5714285714286,76.47767857142857,1454.7,757.5714285714286,76.47767857142857,1554.7,757.5714285714286,76.47767857142857,1654.9,757.5714285714286,76.47767857142857,1761.3,757.5714285714286,76.47767857142857,1874.9,757.5714285714286,76.47767857142857,1978.1,757.5714285714286,76.47767857142857,2079.7,757.5714285714286,76.47767857142857,2179.7,759.5714285714286,100.47767857142857,2284.3,743.5714285714286,192.47767857142856,2385.1,749.5714285714286,272.47767857142856,2495.2,847.5714285714286,358.47767857142856,2602.9,895.5714285714286,390.47767857142856,2704.4,937.5714285714286,416.47767857142856,2804.4,945.5714285714286,422.47767857142856,2904.5,945.5714285714286,422.47767857142856,3010.1,945.5714285714286,422.47767857142856,3110.2,945.5714285714286,422.47767857142856,3214.3,945.5714285714286,422.47767857142856,3315,945.5714285714286,422.47767857142856,3419.4,945.5714285714286,422.47767857142856,3520.1,945.5714285714286,422.47767857142856,3620.2,945.5714285714286,422.47767857142856,3724.6,945.5714285714286,422.47767857142856,3824.6,945.5714285714286,422.47767857142856,3929.5,945.5714285714286,422.47767857142856,4029.6,945.5714285714286,422.47767857142856,4129.7,945.5714285714286,422.47767857142856,4229.8,945.5714285714286,422.47767857142856,4331.1,945.5714285714286,422.47767857142856,4434.8,945.5714285714286,422.47767857142856,4535,945.5714285714286,422.47767857142856,4639.5,945.5714285714286,422.47767857142856,4740.1,945.5714285714286,422.47767857142856,4840.2,945.5714285714286,422.47767857142856,4944.3]","[1395.8,1395.8,1000,0,395.8,""oops"",""up"",""right"",""good_move"",8491.5,7095.5,2834.2,5273.4,383.9,""smooth"",""up"",""up"",""good_move"",11324,2832.3,2377.2,8491.7,455.1,""oops"",""right"",""right"",""good_move"",14706.5,3382.2,2994.7,11324.3,387.5,""oops"",""up"",""left"",""bad_move"",17911.4,3204.5,2916.8,14706.9,287.7,""smooth"",""right"",""right"",""good_move"",20370.9,2459.3,2132.7,17911.7,326.5,""smooth"",""right"",""right"",""good_move"",22712.5,2341.2,2026.7,20371.3,314.5,""smooth"",""up"",""up"",""good_move"",26232,3519.1,3102.8,22712.9,416.3,""oops"",""up"",""left"",""bad_move""]","",""
"20073","","<div style=""width:500px;"">
  <p>What determined the result of this run?</p>
  </div>","0","html-slider-response","30","387446","0.0-5.0-1.4","226","1","2025-07-23 15:30:24","1f75c3e559b7213887762d5229550c2b","89.245.26.244","Mozilla/5.0 (Windows NT 10.0; Win64; x64) AppleWebKit/537.36 (KHTML, like Gecko) Chrome/135.0.0.0 Safari/537.36 OPR/120.0.0.0","WebKit","Opera","120.0.0.0","Windows","10.0","https://app.prolific.com/","de-DE,de;q=0.9,en-US;q=0.8,en;q=0.7,zh-CN;q=0.6,zh;q=0.5","6565f2ba13586fa869dd3b28","683db9eb0562dbf637994deb","6881000691af4618a930d146","2","1","6565f2ba13586fa869dd3b28","2","1","2025-07-23T15:36:51.712Z","","","","","","","","","","","AttribQ","","50","","","","","","","","","","","","","","","","","","","","","","","","","","","","",""
"3174","","<div style=""width:500px;"">
  <p>How much control did you have over the ball?</p>
  </div>","25","html-slider-response","31","390621","0.0-5.0-2.4","226","1","2025-07-23 15:30:24","1f75c3e559b7213887762d5229550c2b","89.245.26.244","Mozilla/5.0 (Windows NT 10.0; Win64; x64) AppleWebKit/537.36 (KHTML, like Gecko) Chrome/135.0.0.0 Safari/537.36 OPR/120.0.0.0","WebKit","Opera","120.0.0.0","Windows","10.0","https://app.prolific.com/","de-DE,de;q=0.9,en-US;q=0.8,en;q=0.7,zh-CN;q=0.6,zh;q=0.5","6565f2ba13586fa869dd3b28","683db9eb0562dbf637994deb","6881000691af4618a930d146","2","1","6565f2ba13586fa869dd3b28","2","1","2025-07-23T15:36:54.887Z","","","","","","","","","","","ControlQ","","50","","","","","","","","","","","","","","","","","","","","","","","","","","","","",""
"1774","","<div style=""width:500px;"">
  <p>How would you describe your current emotional state?</p>
  </div>","31","html-slider-response","32","392396","0.0-5.0-3.4","226","1","2025-07-23 15:30:24","1f75c3e559b7213887762d5229550c2b","89.245.26.244","Mozilla/5.0 (Windows NT 10.0; Win64; x64) AppleWebKit/537.36 (KHTML, like Gecko) Chrome/135.0.0.0 Safari/537.36 OPR/120.0.0.0","WebKit","Opera","120.0.0.0","Windows","10.0","https://app.prolific.com/","de-DE,de;q=0.9,en-US;q=0.8,en;q=0.7,zh-CN;q=0.6,zh;q=0.5","6565f2ba13586fa869dd3b28","683db9eb0562dbf637994deb","6881000691af4618a930d146","2","1","6565f2ba13586fa869dd3b28","2","1","2025-07-23T15:36:56.662Z","","","","","","","","","","","StressQ","","50","","","","","","","","","","","","","","","","","","","","","","","","","","","","",""
"2457","","<div style=""width:500px;"">
  <p>What best describes how you currently feel?</p>
  </div>","58","html-slider-response","33","394853","0.0-5.0-4.4","226","1","2025-07-23 15:30:24","1f75c3e559b7213887762d5229550c2b","89.245.26.244","Mozilla/5.0 (Windows NT 10.0; Win64; x64) AppleWebKit/537.36 (KHTML, like Gecko) Chrome/135.0.0.0 Safari/537.36 OPR/120.0.0.0","WebKit","Opera","120.0.0.0","Windows","10.0","https://app.prolific.com/","de-DE,de;q=0.9,en-US;q=0.8,en;q=0.7,zh-CN;q=0.6,zh;q=0.5","6565f2ba13586fa869dd3b28","683db9eb0562dbf637994deb","6881000691af4618a930d146","2","1","6565f2ba13586fa869dd3b28","2","1","2025-07-23T15:36:59.120Z","","","","","","","","","","","MotivationQ","","50","","","","","","","","","","","","","","","","","","","","","","","","","","","","",""
"","","","","ctl-task-cpt","34","454392","0.0-5.0-0.5","226","1","2025-07-23 15:30:24","1f75c3e559b7213887762d5229550c2b","89.245.26.244","Mozilla/5.0 (Windows NT 10.0; Win64; x64) AppleWebKit/537.36 (KHTML, like Gecko) Chrome/135.0.0.0 Safari/537.36 OPR/120.0.0.0","WebKit","Opera","120.0.0.0","Windows","10.0","https://app.prolific.com/","de-DE,de;q=0.9,en-US;q=0.8,en;q=0.7,zh-CN;q=0.6,zh;q=0.5","6565f2ba13586fa869dd3b28","683db9eb0562dbf637994deb","6881000691af4618a930d146","2","1","6565f2ba13586fa869dd3b28","2","1","2025-07-23T15:37:58.658Z","","","","","","","","","","","","","","win-only","0","g1:NW,g2:SE","0.5","6","0","395806.5","704.8","5705.4","56520.6","1","4","8","6","2","-8","-8","0","0","0","2485.1","3000","-2830","[""down"",""right""]","{""num_key_presses"":10,""num_perfect"":5,""num_errors"":0,""num_randdir"":5,""num_randdir_good_moves"":2,""num_whilered"":0,""num_whileblue"":0,""num_blue"":6,""num_good_moves"":7}","[427.57142857142856,412.47767857142856,0.1,427.57142857142856,412.47767857142856,100.6,427.57142857142856,412.47767857142856,201,427.57142857142856,412.47767857142856,305.5,427.57142857142856,414.47767857142856,422.3,433.57142857142856,420.47767857142856,525.7,433.57142857142856,420.47767857142856,631.3,435.57142857142856,422.47767857142856,736.2,439.57142857142856,424.47767857142856,840.7,441.57142857142856,424.47767857142856,941,441.57142857142856,424.47767857142856,1041.1,441.57142857142856,424.47767857142856,1155.8,441.57142857142856,424.47767857142856,1255.8,441.57142857142856,424.47767857142856,1361.9,441.57142857142856,424.47767857142856,1466.3,495.57142857142856,508.47767857142856,1571,533.5714285714286,588.4776785714286,1671.1,547.5714285714286,604.4776785714286,1771.7,755.5714285714286,750.4776785714286,1875.8,801.5714285714286,778.4776785714286,1976.2,801.5714285714286,778.4776785714286,2081,801.5714285714286,778.4776785714286,2181.4,801.5714285714286,778.4776785714286,2285.6,801.5714285714286,778.4776785714286,2385.7,793.5714285714286,772.4776785714286,2488.5,793.5714285714286,772.4776785714286,2591.2,763.5714285714286,754.4776785714286,2696.1,621.5714285714286,634.4776785714286,2796.3,591.5714285714286,602.4776785714286,2900.8,527.5714285714286,588.4776785714286,3002.4,527.5714285714286,586.4776785714286,3114.9,527.5714285714286,586.4776785714286,3216.2,527.5714285714286,586.4776785714286,3316.2,527.5714285714286,586.4776785714286,3420.4,527.5714285714286,586.4776785714286,3525.2,527.5714285714286,586.4776785714286,3625.2,527.5714285714286,586.4776785714286,3726.1,527.5714285714286,586.4776785714286,3830.6,527.5714285714286,586.4776785714286,3930.7,527.5714285714286,586.4776785714286,4030.9,527.5714285714286,586.4776785714286,4131.3,527.5714285714286,586.4776785714286,4232.5,527.5714285714286,586.4776785714286,4337,527.5714285714286,586.4776785714286,4441.1,527.5714285714286,586.4776785714286,4544,527.5714285714286,586.4776785714286,4645.5,527.5714285714286,586.4776785714286,4745.9,527.5714285714286,586.4776785714286,4851.1,527.5714285714286,586.4776785714286,4952.2]","[1367,1367,1000,0,367,""oops"",""down"",""left"",""bad_move"",3825.2,2458,2100.8,1367.3,357.2,""oops"",""down"",""up"",""bad_move"",10229.5,6403.9,2754.2,7111.4,363.9,""oops"",""right"",""right"",""good_move"",16419.2,6189.5,2407.8,13665.1,346.3,""smooth"",""right"",""right"",""good_move"",22013.6,5594.2,2127,19595,291.6,""smooth"",""down"",""down"",""good_move"",25045.6,3031.8,2657.6,22013.8,374.2,""smooth"",""down"",""down"",""good_move"",28488.4,3442.6,3121.8,25045.8,320.8,""smooth"",""right"",""right"",""good_move"",31572,3083.3,2767.8,28488.7,315.5,""smooth"",""right"",""right"",""good_move"",42340.8,10768.5,2803.6,39235.4,301.8,""oops"",""down"",""down"",""good_move"",48462.5,6121.4,1972.1,46174.7,315.7,""oops"",""down"",""left"",""bad_move""]","",""
"23886","","<div style=""width:500px;"">
  <p>What determined the result of this run?</p>
  </div>","20","html-slider-response","35","478279","0.0-5.0-1.5","226","1","2025-07-23 15:30:24","1f75c3e559b7213887762d5229550c2b","89.245.26.244","Mozilla/5.0 (Windows NT 10.0; Win64; x64) AppleWebKit/537.36 (KHTML, like Gecko) Chrome/135.0.0.0 Safari/537.36 OPR/120.0.0.0","WebKit","Opera","120.0.0.0","Windows","10.0","https://app.prolific.com/","de-DE,de;q=0.9,en-US;q=0.8,en;q=0.7,zh-CN;q=0.6,zh;q=0.5","6565f2ba13586fa869dd3b28","683db9eb0562dbf637994deb","6881000691af4618a930d146","2","1","6565f2ba13586fa869dd3b28","2","1","2025-07-23T15:38:22.545Z","","","","","","","","","","","AttribQ","","50","","","","","","","","","","","","","","","","","","","","","","","","","","","","",""
"2789","","<div style=""width:500px;"">
  <p>How much control did you have over the ball?</p>
  </div>","67","html-slider-response","36","481069","0.0-5.0-2.5","226","1","2025-07-23 15:30:24","1f75c3e559b7213887762d5229550c2b","89.245.26.244","Mozilla/5.0 (Windows NT 10.0; Win64; x64) AppleWebKit/537.36 (KHTML, like Gecko) Chrome/135.0.0.0 Safari/537.36 OPR/120.0.0.0","WebKit","Opera","120.0.0.0","Windows","10.0","https://app.prolific.com/","de-DE,de;q=0.9,en-US;q=0.8,en;q=0.7,zh-CN;q=0.6,zh;q=0.5","6565f2ba13586fa869dd3b28","683db9eb0562dbf637994deb","6881000691af4618a930d146","2","1","6565f2ba13586fa869dd3b28","2","1","2025-07-23T15:38:25.335Z","","","","","","","","","","","ControlQ","","50","","","","","","","","","","","","","","","","","","","","","","","","","","","","",""
"1642","","<div style=""width:500px;"">
  <p>How would you describe your current emotional state?</p>
  </div>","70","html-slider-response","37","482712","0.0-5.0-3.5","226","1","2025-07-23 15:30:24","1f75c3e559b7213887762d5229550c2b","89.245.26.244","Mozilla/5.0 (Windows NT 10.0; Win64; x64) AppleWebKit/537.36 (KHTML, like Gecko) Chrome/135.0.0.0 Safari/537.36 OPR/120.0.0.0","WebKit","Opera","120.0.0.0","Windows","10.0","https://app.prolific.com/","de-DE,de;q=0.9,en-US;q=0.8,en;q=0.7,zh-CN;q=0.6,zh;q=0.5","6565f2ba13586fa869dd3b28","683db9eb0562dbf637994deb","6881000691af4618a930d146","2","1","6565f2ba13586fa869dd3b28","2","1","2025-07-23T15:38:26.978Z","","","","","","","","","","","StressQ","","50","","","","","","","","","","","","","","","","","","","","","","","","","","","","",""
"1454","","<div style=""width:500px;"">
  <p>What best describes how you currently feel?</p>
  </div>","34","html-slider-response","38","484167","0.0-5.0-4.5","226","1","2025-07-23 15:30:24","1f75c3e559b7213887762d5229550c2b","89.245.26.244","Mozilla/5.0 (Windows NT 10.0; Win64; x64) AppleWebKit/537.36 (KHTML, like Gecko) Chrome/135.0.0.0 Safari/537.36 OPR/120.0.0.0","WebKit","Opera","120.0.0.0","Windows","10.0","https://app.prolific.com/","de-DE,de;q=0.9,en-US;q=0.8,en;q=0.7,zh-CN;q=0.6,zh;q=0.5","6565f2ba13586fa869dd3b28","683db9eb0562dbf637994deb","6881000691af4618a930d146","2","1","6565f2ba13586fa869dd3b28","2","1","2025-07-23T15:38:28.433Z","","","","","","","","","","","MotivationQ","","50","","","","","","","","","","","","","","","","","","","","","","","","","","","","",""
"","","","","ctl-task-cpt","39","521350","0.0-5.0-0.6","226","1","2025-07-23 15:30:24","1f75c3e559b7213887762d5229550c2b","89.245.26.244","Mozilla/5.0 (Windows NT 10.0; Win64; x64) AppleWebKit/537.36 (KHTML, like Gecko) Chrome/135.0.0.0 Safari/537.36 OPR/120.0.0.0","WebKit","Opera","120.0.0.0","Windows","10.0","https://app.prolific.com/","de-DE,de;q=0.9,en-US;q=0.8,en;q=0.7,zh-CN;q=0.6,zh;q=0.5","6565f2ba13586fa869dd3b28","683db9eb0562dbf637994deb","6881000691af4618a930d146","2","1","6565f2ba13586fa869dd3b28","2","1","2025-07-23T15:39:05.616Z","","","","","","","","","","","","","","win-only","3","g1:SW,g2:NE","0.4","7","0","485119.8","725.6","5730.6","34150.9","1","4","4","6","2","4","4","4","0","0.030303030303030304","1343","3000","285","[""up"",""right""]","{""num_key_presses"":8,""num_perfect"":3,""num_errors"":0,""num_randdir"":5,""num_randdir_good_moves"":4,""num_whilered"":0,""num_whileblue"":0,""num_blue"":2,""num_good_moves"":7}","[427.57142857142856,422.47767857142856,0.2,427.57142857142856,422.47767857142856,104.5,427.57142857142856,422.47767857142856,205.2,427.57142857142856,422.47767857142856,305.3,427.57142857142856,424.47767857142856,405.3,421.57142857142856,442.47767857142856,505.6,171.57142857142856,632.4776785714286,610.1,27.57142857142857,688.4776785714286,710.9,451.57142857142856,440.47767857142856,815.3,709.5714285714286,228.47767857142856,915.3,753.5714285714286,158.47767857142856,1019.9,771.5714285714286,102.47767857142857,1120.1,771.5714285714286,96.47767857142857,1220.6,771.5714285714286,96.47767857142857,1324.7,771.5714285714286,96.47767857142857,1430.5,771.5714285714286,96.47767857142857,1532.2,771.5714285714286,96.47767857142857,1635,771.5714285714286,96.47767857142857,1739.6,771.5714285714286,96.47767857142857,1839.7,771.5714285714286,96.47767857142857,1939.7,771.5714285714286,96.47767857142857,2045.1,771.5714285714286,96.47767857142857,2145.2,771.5714285714286,96.47767857142857,2251,771.5714285714286,96.47767857142857,2355.5,771.5714285714286,96.47767857142857,2459.9,771.5714285714286,96.47767857142857,2560.4,771.5714285714286,96.47767857142857,2664.7,771.5714285714286,96.47767857142857,2764.8,771.5714285714286,96.47767857142857,2865.6,771.5714285714286,96.47767857142857,2969.7,771.5714285714286,96.47767857142857,3069.9,771.5714285714286,96.47767857142857,3170.2,771.5714285714286,96.47767857142857,3274.7,771.5714285714286,96.47767857142857,3375,771.5714285714286,96.47767857142857,3475.1,771.5714285714286,96.47767857142857,3580,771.5714285714286,96.47767857142857,3680.1,771.5714285714286,96.47767857142857,3780.2,771.5714285714286,96.47767857142857,3880.4,771.5714285714286,96.47767857142857,3980.5,771.5714285714286,96.47767857142857,4084.7,771.5714285714286,96.47767857142857,4184.8,771.5714285714286,96.47767857142857,4284.8,771.5714285714286,96.47767857142857,4385,771.5714285714286,96.47767857142857,4485.2,771.5714285714286,96.47767857142857,4585.3,771.5714285714286,96.47767857142857,4685.5,771.5714285714286,96.47767857142857,4785.6,771.5714285714286,96.47767857142857,4889.7,771.5714285714286,96.47767857142857,4989.8]","[1479,1479,1000,0,479,""oops"",""right"",""up"",""good_move"",4677.2,3197.8,2801.9,1479.4,395.9,""oops"",""right"",""up"",""good_move"",7916,3238.7,2879.7,4677.3,359,""oops"",""right"",""down"",""bad_move"",10528.1,2611.7,2260.9,7916.4,350.8,""smooth"",""right"",""right"",""good_move"",20376.2,9847.7,2107.3,17934.7,334.2,""smooth"",""up"",""up"",""good_move"",23145.3,2768.8,2349.1,20376.5,419.7,""smooth"",""up"",""up"",""good_move"",25793.1,2647.6,2310.9,23145.5,336.7,""oops"",""right"",""right"",""good_move"",28331.3,2537.9,2234.7,25793.4,303.2,""oops"",""right"",""right"",""good_move""]","",""
"33806","","<div style=""width:500px;"">
  <p>What determined the result of this run?</p>
  </div>","26","html-slider-response","40","555157","0.0-5.0-1.6","226","1","2025-07-23 15:30:24","1f75c3e559b7213887762d5229550c2b","89.245.26.244","Mozilla/5.0 (Windows NT 10.0; Win64; x64) AppleWebKit/537.36 (KHTML, like Gecko) Chrome/135.0.0.0 Safari/537.36 OPR/120.0.0.0","WebKit","Opera","120.0.0.0","Windows","10.0","https://app.prolific.com/","de-DE,de;q=0.9,en-US;q=0.8,en;q=0.7,zh-CN;q=0.6,zh;q=0.5","6565f2ba13586fa869dd3b28","683db9eb0562dbf637994deb","6881000691af4618a930d146","2","1","6565f2ba13586fa869dd3b28","2","1","2025-07-23T15:39:39.423Z","","","","","","","","","","","AttribQ","","50","","","","","","","","","","","","","","","","","","","","","","","","","","","","",""
"3193","","<div style=""width:500px;"">
  <p>How much control did you have over the ball?</p>
  </div>","58","html-slider-response","41","558351","0.0-5.0-2.6","226","1","2025-07-23 15:30:24","1f75c3e559b7213887762d5229550c2b","89.245.26.244","Mozilla/5.0 (Windows NT 10.0; Win64; x64) AppleWebKit/537.36 (KHTML, like Gecko) Chrome/135.0.0.0 Safari/537.36 OPR/120.0.0.0","WebKit","Opera","120.0.0.0","Windows","10.0","https://app.prolific.com/","de-DE,de;q=0.9,en-US;q=0.8,en;q=0.7,zh-CN;q=0.6,zh;q=0.5","6565f2ba13586fa869dd3b28","683db9eb0562dbf637994deb","6881000691af4618a930d146","2","1","6565f2ba13586fa869dd3b28","2","1","2025-07-23T15:39:42.617Z","","","","","","","","","","","ControlQ","","50","","","","","","","","","","","","","","","","","","","","","","","","","","","","",""
"1765","","<div style=""width:500px;"">
  <p>How would you describe your current emotional state?</p>
  </div>","38","html-slider-response","42","560117","0.0-5.0-3.6","226","1","2025-07-23 15:30:24","1f75c3e559b7213887762d5229550c2b","89.245.26.244","Mozilla/5.0 (Windows NT 10.0; Win64; x64) AppleWebKit/537.36 (KHTML, like Gecko) Chrome/135.0.0.0 Safari/537.36 OPR/120.0.0.0","WebKit","Opera","120.0.0.0","Windows","10.0","https://app.prolific.com/","de-DE,de;q=0.9,en-US;q=0.8,en;q=0.7,zh-CN;q=0.6,zh;q=0.5","6565f2ba13586fa869dd3b28","683db9eb0562dbf637994deb","6881000691af4618a930d146","2","1","6565f2ba13586fa869dd3b28","2","1","2025-07-23T15:39:44.383Z","","","","","","","","","","","StressQ","","50","","","","","","","","","","","","","","","","","","","","","","","","","","","","",""
"1624","","<div style=""width:500px;"">
  <p>What best describes how you currently feel?</p>
  </div>","40","html-slider-response","43","561742","0.0-5.0-4.6","226","1","2025-07-23 15:30:24","1f75c3e559b7213887762d5229550c2b","89.245.26.244","Mozilla/5.0 (Windows NT 10.0; Win64; x64) AppleWebKit/537.36 (KHTML, like Gecko) Chrome/135.0.0.0 Safari/537.36 OPR/120.0.0.0","WebKit","Opera","120.0.0.0","Windows","10.0","https://app.prolific.com/","de-DE,de;q=0.9,en-US;q=0.8,en;q=0.7,zh-CN;q=0.6,zh;q=0.5","6565f2ba13586fa869dd3b28","683db9eb0562dbf637994deb","6881000691af4618a930d146","2","1","6565f2ba13586fa869dd3b28","2","1","2025-07-23T15:39:46.008Z","","","","","","","","","","","MotivationQ","","50","","","","","","","","","","","","","","","","","","","","","","","","","","","","",""
"","","","","ctl-task-cpt","44","632246","0.0-5.0-0.7","226","1","2025-07-23 15:30:24","1f75c3e559b7213887762d5229550c2b","89.245.26.244","Mozilla/5.0 (Windows NT 10.0; Win64; x64) AppleWebKit/537.36 (KHTML, like Gecko) Chrome/135.0.0.0 Safari/537.36 OPR/120.0.0.0","WebKit","Opera","120.0.0.0","Windows","10.0","https://app.prolific.com/","de-DE,de;q=0.9,en-US;q=0.8,en;q=0.7,zh-CN;q=0.6,zh;q=0.5","6565f2ba13586fa869dd3b28","683db9eb0562dbf637994deb","6881000691af4618a930d146","2","1","6565f2ba13586fa869dd3b28","2","1","2025-07-23T15:40:56.512Z","","","","","","","","","","","","","","win-only","2","g1:SE,g2:NW","0.3","8","0","562694.6","40429.6","45432.6","67485.3","1","4","8","6","2","-8","-8","0","4","0","1410.2","3000","-2415","[""left"",""up""]","{""num_key_presses"":7,""num_perfect"":3,""num_errors"":0,""num_randdir"":4,""num_randdir_good_moves"":0,""num_whilered"":0,""num_whileblue"":0,""num_blue"":0,""num_good_moves"":3}","[415.57142857142856,424.47767857142856,0.4,415.57142857142856,424.47767857142856,111.4,413.57142857142856,424.47767857142856,211.6,403.57142857142856,434.47767857142856,321.8,403.57142857142856,434.47767857142856,421.8,413.57142857142856,386.47767857142856,525.7,341.57142857142856,276.47767857142856,625.7,499.57142857142856,430.47767857142856,730.6,519.5714285714286,498.47767857142856,831.8,577.5714285714286,614.4776785714286,936.3,441.57142857142856,476.47767857142856,1041.2,65.57142857142857,170.47767857142856,1146,59.57142857142857,134.47767857142856,1246.6,61.57142857142857,96.47767857142857,1352.5,61.57142857142857,94.47767857142857,1456.5,61.57142857142857,94.47767857142857,1561.1,61.57142857142857,94.47767857142857,1661.2,61.57142857142857,94.47767857142857,1761.3,61.57142857142857,94.47767857142857,1861.3,61.57142857142857,94.47767857142857,1965.8,61.57142857142857,94.47767857142857,2066.5,61.57142857142857,94.47767857142857,2167,61.57142857142857,94.47767857142857,2267,61.57142857142857,94.47767857142857,2368.9,61.57142857142857,94.47767857142857,2470.8,61.57142857142857,94.47767857142857,2571.1,61.57142857142857,94.47767857142857,2675.9,61.57142857142857,94.47767857142857,2776.4,61.57142857142857,94.47767857142857,2876.5,61.57142857142857,94.47767857142857,2981.1,61.57142857142857,94.47767857142857,3086.6,61.57142857142857,94.47767857142857,3191.1,61.57142857142857,94.47767857142857,3291.4,61.57142857142857,94.47767857142857,3391.5,61.57142857142857,94.47767857142857,3491.6,61.57142857142857,94.47767857142857,3591.6,61.57142857142857,94.47767857142857,3695.7,61.57142857142857,94.47767857142857,3796.2,61.57142857142857,94.47767857142857,3901,61.57142857142857,94.47767857142857,4001.2,61.57142857142857,94.47767857142857,4101.3,61.57142857142857,94.47767857142857,4205.6,61.57142857142857,94.47767857142857,4306.5,61.57142857142857,94.47767857142857,4410.6,61.57142857142857,94.47767857142857,4511.3,61.57142857142857,94.47767857142857,4611.4,61.57142857142857,94.47767857142857,4713.4,61.57142857142857,94.47767857142857,4819,61.57142857142857,94.47767857142857,4919.9]","[1686.3,1686.3,1000,0,686.3,""oops"",""up"",""down"",""bad_move"",5281.7,3594.9,3181.1,1686.8,413.8,""oops"",""up"",""right"",""bad_move"",7104.4,1822.3,1338.7,5282.1,483.6,""smooth"",""up"",""up"",""good_move"",10174.7,3069.9,2670.3,7104.8,399.6,""smooth"",""up"",""up"",""good_move"",12999.4,2824.5,2487.4,10174.9,337.1,""oops"",""up"",""down"",""bad_move"",15512.9,2513.3,2191.7,12999.6,321.6,""oops"",""left"",""right"",""bad_move"",18907.4,3394.1,3069.3,15513.4,324.7,""smooth"",""up"",""up"",""good_move""]","",""
"15946","","<div style=""width:500px;"">
  <p>What determined the result of this run?</p>
  </div>","22","html-slider-response","45","648193","0.0-5.0-1.7","226","1","2025-07-23 15:30:24","1f75c3e559b7213887762d5229550c2b","89.245.26.244","Mozilla/5.0 (Windows NT 10.0; Win64; x64) AppleWebKit/537.36 (KHTML, like Gecko) Chrome/135.0.0.0 Safari/537.36 OPR/120.0.0.0","WebKit","Opera","120.0.0.0","Windows","10.0","https://app.prolific.com/","de-DE,de;q=0.9,en-US;q=0.8,en;q=0.7,zh-CN;q=0.6,zh;q=0.5","6565f2ba13586fa869dd3b28","683db9eb0562dbf637994deb","6881000691af4618a930d146","2","1","6565f2ba13586fa869dd3b28","2","1","2025-07-23T15:41:12.459Z","","","","","","","","","","","AttribQ","","50","","","","","","","","","","","","","","","","","","","","","","","","","","","","",""
"3012","","<div style=""width:500px;"">
  <p>How much control did you have over the ball?</p>
  </div>","16","html-slider-response","46","651206","0.0-5.0-2.7","226","1","2025-07-23 15:30:24","1f75c3e559b7213887762d5229550c2b","89.245.26.244","Mozilla/5.0 (Windows NT 10.0; Win64; x64) AppleWebKit/537.36 (KHTML, like Gecko) Chrome/135.0.0.0 Safari/537.36 OPR/120.0.0.0","WebKit","Opera","120.0.0.0","Windows","10.0","https://app.prolific.com/","de-DE,de;q=0.9,en-US;q=0.8,en;q=0.7,zh-CN;q=0.6,zh;q=0.5","6565f2ba13586fa869dd3b28","683db9eb0562dbf637994deb","6881000691af4618a930d146","2","1","6565f2ba13586fa869dd3b28","2","1","2025-07-23T15:41:15.472Z","","","","","","","","","","","ControlQ","","50","","","","","","","","","","","","","","","","","","","","","","","","","","","","",""
"2966","","<div style=""width:500px;"">
  <p>How would you describe your current emotional state?</p>
  </div>","45","html-slider-response","47","654173","0.0-5.0-3.7","226","1","2025-07-23 15:30:24","1f75c3e559b7213887762d5229550c2b","89.245.26.244","Mozilla/5.0 (Windows NT 10.0; Win64; x64) AppleWebKit/537.36 (KHTML, like Gecko) Chrome/135.0.0.0 Safari/537.36 OPR/120.0.0.0","WebKit","Opera","120.0.0.0","Windows","10.0","https://app.prolific.com/","de-DE,de;q=0.9,en-US;q=0.8,en;q=0.7,zh-CN;q=0.6,zh;q=0.5","6565f2ba13586fa869dd3b28","683db9eb0562dbf637994deb","6881000691af4618a930d146","2","1","6565f2ba13586fa869dd3b28","2","1","2025-07-23T15:41:18.439Z","","","","","","","","","","","StressQ","","50","","","","","","","","","","","","","","","","","","","","","","","","","","","","",""
"18759","","<div style=""width:500px;"">
  <p>What best describes how you currently feel?</p>
  </div>","41","html-slider-response","48","672933","0.0-5.0-4.7","226","1","2025-07-23 15:30:24","1f75c3e559b7213887762d5229550c2b","89.245.26.244","Mozilla/5.0 (Windows NT 10.0; Win64; x64) AppleWebKit/537.36 (KHTML, like Gecko) Chrome/135.0.0.0 Safari/537.36 OPR/120.0.0.0","WebKit","Opera","120.0.0.0","Windows","10.0","https://app.prolific.com/","de-DE,de;q=0.9,en-US;q=0.8,en;q=0.7,zh-CN;q=0.6,zh;q=0.5","6565f2ba13586fa869dd3b28","683db9eb0562dbf637994deb","6881000691af4618a930d146","2","1","6565f2ba13586fa869dd3b28","2","1","2025-07-23T15:41:37.199Z","","","","","","","","","","","MotivationQ","","50","","","","","","","","","","","","","","","","","","","","","","","","","","","","",""
"","","","","ctl-task-cpt","49","709416","0.0-5.0-0.8","226","1","2025-07-23 15:30:24","1f75c3e559b7213887762d5229550c2b","89.245.26.244","Mozilla/5.0 (Windows NT 10.0; Win64; x64) AppleWebKit/537.36 (KHTML, like Gecko) Chrome/135.0.0.0 Safari/537.36 OPR/120.0.0.0","WebKit","Opera","120.0.0.0","Windows","10.0","https://app.prolific.com/","de-DE,de;q=0.9,en-US;q=0.8,en;q=0.7,zh-CN;q=0.6,zh;q=0.5","6565f2ba13586fa869dd3b28","683db9eb0562dbf637994deb","6881000691af4618a930d146","2","1","6565f2ba13586fa869dd3b28","2","1","2025-07-23T15:42:13.682Z","","","","","","","","","","","","","","win-only","0","g1:NW,g2:SE","0.2","9","0","673885.9","909.8","5911.1","33465.2","1","4","4","6","2","-4","-4","0","0","0","842.7","3000","-2940","[""down"",""right""]","{""num_key_presses"":7,""num_perfect"":1,""num_errors"":0,""num_randdir"":6,""num_randdir_good_moves"":4,""num_whilered"":0,""num_whileblue"":0,""num_blue"":2,""num_good_moves"":5}","[416.57142857142856,410.47767857142856,0.2,416.57142857142856,410.47767857142856,100.5,416.57142857142856,410.47767857142856,200.8,416.57142857142856,410.47767857142856,305.4,446.57142857142856,430.47767857142856,405.5,596.5714285714286,550.4776785714286,506.4,682.5714285714286,642.4776785714286,610.6,738.5714285714286,730.4776785714286,715.6,744.5714285714286,752.4776785714286,820.5,744.5714285714286,752.4776785714286,921,744.5714285714286,752.4776785714286,1025.8,742.5714285714286,748.4776785714286,1126.4,738.5714285714286,742.4776785714286,1231.3,738.5714285714286,714.4776785714286,1336.5,662.5714285714286,694.4776785714286,1440.9,662.5714285714286,694.4776785714286,1541.1,662.5714285714286,694.4776785714286,1641.1,662.5714285714286,694.4776785714286,1746.3,662.5714285714286,694.4776785714286,1846.4,662.5714285714286,694.4776785714286,1951.1,662.5714285714286,694.4776785714286,2055.6,662.5714285714286,694.4776785714286,2155.8,662.5714285714286,694.4776785714286,2260.7,662.5714285714286,694.4776785714286,2361.3,662.5714285714286,694.4776785714286,2466.4,662.5714285714286,694.4776785714286,2570.8,662.5714285714286,694.4776785714286,2676.3,662.5714285714286,694.4776785714286,2780.4,662.5714285714286,694.4776785714286,2880.7,662.5714285714286,694.4776785714286,2983.1,662.5714285714286,694.4776785714286,3085.4,662.5714285714286,694.4776785714286,3186.4,662.5714285714286,694.4776785714286,3290.5,662.5714285714286,694.4776785714286,3396,662.5714285714286,694.4776785714286,3496.4,662.5714285714286,694.4776785714286,3599.4,662.5714285714286,694.4776785714286,3707.6,662.5714285714286,694.4776785714286,3817.4,662.5714285714286,694.4776785714286,3927.7,662.5714285714286,694.4776785714286,4040,662.5714285714286,694.4776785714286,4140.9,662.5714285714286,694.4776785714286,4248.3,662.5714285714286,694.4776785714286,4351.1,662.5714285714286,694.4776785714286,4455.4,662.5714285714286,694.4776785714286,4558.1,662.5714285714286,694.4776785714286,4664.1,662.5714285714286,694.4776785714286,4765.6,662.5714285714286,694.4776785714286,4870.6,662.5714285714286,694.4776785714286,4970.7]","[1365.9,1365.9,1000,0,365.9,""oops"",""down"",""right"",""good_move"",12053.7,10687.5,2370.7,9269.7,413.3,""oops"",""down"",""up"",""bad_move"",14685.9,2631.9,2258.2,12054,373.7,""oops"",""down"",""right"",""good_move"",17665.7,2979.5,2634.9,14686.2,344.6,""oops"",""down"",""left"",""bad_move"",20052.8,2386.7,1646.7,17666.1,740,""oops"",""down"",""down"",""good_move"",22478.9,2425.7,2070.4,20053.2,355.3,""oops"",""down"",""right"",""good_move"",24672.5,2193.3,1818.9,22479.2,374.4,""smooth"",""down"",""down"",""good_move""]","",""
"6003","","<div style=""width:500px;"">
  <p>What determined the result of this run?</p>
  </div>","18","html-slider-response","50","715420","0.0-5.0-1.8","226","1","2025-07-23 15:30:24","1f75c3e559b7213887762d5229550c2b","89.245.26.244","Mozilla/5.0 (Windows NT 10.0; Win64; x64) AppleWebKit/537.36 (KHTML, like Gecko) Chrome/135.0.0.0 Safari/537.36 OPR/120.0.0.0","WebKit","Opera","120.0.0.0","Windows","10.0","https://app.prolific.com/","de-DE,de;q=0.9,en-US;q=0.8,en;q=0.7,zh-CN;q=0.6,zh;q=0.5","6565f2ba13586fa869dd3b28","683db9eb0562dbf637994deb","6881000691af4618a930d146","2","1","6565f2ba13586fa869dd3b28","2","1","2025-07-23T15:42:19.686Z","","","","","","","","","","","AttribQ","","50","","","","","","","","","","","","","","","","","","","","","","","","","","","","",""
"1928","","<div style=""width:500px;"">
  <p>How much control did you have over the ball?</p>
  </div>","5","html-slider-response","51","717349","0.0-5.0-2.8","226","1","2025-07-23 15:30:24","1f75c3e559b7213887762d5229550c2b","89.245.26.244","Mozilla/5.0 (Windows NT 10.0; Win64; x64) AppleWebKit/537.36 (KHTML, like Gecko) Chrome/135.0.0.0 Safari/537.36 OPR/120.0.0.0","WebKit","Opera","120.0.0.0","Windows","10.0","https://app.prolific.com/","de-DE,de;q=0.9,en-US;q=0.8,en;q=0.7,zh-CN;q=0.6,zh;q=0.5","6565f2ba13586fa869dd3b28","683db9eb0562dbf637994deb","6881000691af4618a930d146","2","1","6565f2ba13586fa869dd3b28","2","1","2025-07-23T15:42:21.615Z","","","","","","","","","","","ControlQ","","50","","","","","","","","","","","","","","","","","","","","","","","","","","","","",""
"1683","","<div style=""width:500px;"">
  <p>How would you describe your current emotional state?</p>
  </div>","61","html-slider-response","52","719033","0.0-5.0-3.8","226","1","2025-07-23 15:30:24","1f75c3e559b7213887762d5229550c2b","89.245.26.244","Mozilla/5.0 (Windows NT 10.0; Win64; x64) AppleWebKit/537.36 (KHTML, like Gecko) Chrome/135.0.0.0 Safari/537.36 OPR/120.0.0.0","WebKit","Opera","120.0.0.0","Windows","10.0","https://app.prolific.com/","de-DE,de;q=0.9,en-US;q=0.8,en;q=0.7,zh-CN;q=0.6,zh;q=0.5","6565f2ba13586fa869dd3b28","683db9eb0562dbf637994deb","6881000691af4618a930d146","2","1","6565f2ba13586fa869dd3b28","2","1","2025-07-23T15:42:23.299Z","","","","","","","","","","","StressQ","","50","","","","","","","","","","","","","","","","","","","","","","","","","","","","",""
"2951","","<div style=""width:500px;"">
  <p>What best describes how you currently feel?</p>
  </div>","27","html-slider-response","53","721985","0.0-5.0-4.8","226","1","2025-07-23 15:30:24","1f75c3e559b7213887762d5229550c2b","89.245.26.244","Mozilla/5.0 (Windows NT 10.0; Win64; x64) AppleWebKit/537.36 (KHTML, like Gecko) Chrome/135.0.0.0 Safari/537.36 OPR/120.0.0.0","WebKit","Opera","120.0.0.0","Windows","10.0","https://app.prolific.com/","de-DE,de;q=0.9,en-US;q=0.8,en;q=0.7,zh-CN;q=0.6,zh;q=0.5","6565f2ba13586fa869dd3b28","683db9eb0562dbf637994deb","6881000691af4618a930d146","2","1","6565f2ba13586fa869dd3b28","2","1","2025-07-23T15:42:26.251Z","","","","","","","","","","","MotivationQ","","50","","","","","","","","","","","","","","","","","","","","","","","","","","","","",""
"","","","","ctl-task-cpt","54","764532","0.0-5.0-0.9","226","1","2025-07-23 15:30:24","1f75c3e559b7213887762d5229550c2b","89.245.26.244","Mozilla/5.0 (Windows NT 10.0; Win64; x64) AppleWebKit/537.36 (KHTML, like Gecko) Chrome/135.0.0.0 Safari/537.36 OPR/120.0.0.0","WebKit","Opera","120.0.0.0","Windows","10.0","https://app.prolific.com/","de-DE,de;q=0.9,en-US;q=0.8,en;q=0.7,zh-CN;q=0.6,zh;q=0.5","6565f2ba13586fa869dd3b28","683db9eb0562dbf637994deb","6881000691af4618a930d146","2","1","6565f2ba13586fa869dd3b28","2","1","2025-07-23T15:43:08.798Z","","","","","","","","","","","","","","win-only","1","g1:NE,g2:SW","0.4","10","0","722937.8","1456.5","6460.8","39530.5","1","4","8","6","2","-8","-8","0","0","0","755.3","3000","-2605","[""down"",""left""]","{""num_key_presses"":10,""num_perfect"":4,""num_errors"":0,""num_randdir"":6,""num_randdir_good_moves"":3,""num_whilered"":0,""num_whileblue"":0,""num_blue"":1,""num_good_moves"":7}","[416.57142857142856,416.47767857142856,0.1,416.57142857142856,416.47767857142856,104.7,416.57142857142856,416.47767857142856,209,416.57142857142856,416.47767857142856,321.5,350.57142857142856,488.47767857142856,423.8,84.57142857142857,690.4776785714286,536.3,68.57142857142857,714.4776785714286,639.9,62.57142857142857,730.4776785714286,744.4,64.57142857142857,728.4776785714286,852.1,66.57142857142857,724.4776785714286,952.6,66.57142857142857,724.4776785714286,1058.9,66.57142857142857,724.4776785714286,1159.2,66.57142857142857,724.4776785714286,1259.5,66.57142857142857,724.4776785714286,1359.5,66.57142857142857,724.4776785714286,1459.6,66.57142857142857,724.4776785714286,1567.2,66.57142857142857,724.4776785714286,1678.5,68.57142857142857,722.4776785714286,1780.3,68.57142857142857,722.4776785714286,1888.3,68.57142857142857,722.4776785714286,1988.7,68.57142857142857,722.4776785714286,2092.5,70.57142857142857,720.4776785714286,2194,70.57142857142857,720.4776785714286,2294.1,70.57142857142857,722.4776785714286,2397.5,72.57142857142857,720.4776785714286,2499.9,72.57142857142857,720.4776785714286,2603.7,72.57142857142857,720.4776785714286,2703.8,72.57142857142857,720.4776785714286,2804,72.57142857142857,720.4776785714286,2904.1,72.57142857142857,720.4776785714286,3004.5,72.57142857142857,720.4776785714286,3109.7,72.57142857142857,720.4776785714286,3219.9,72.57142857142857,720.4776785714286,3324.8,72.57142857142857,720.4776785714286,3429,72.57142857142857,720.4776785714286,3536.7,72.57142857142857,720.4776785714286,3638.8,72.57142857142857,720.4776785714286,3739.5,72.57142857142857,720.4776785714286,3844.1,72.57142857142857,720.4776785714286,3945.2,72.57142857142857,720.4776785714286,4052,72.57142857142857,720.4776785714286,4154.4,72.57142857142857,720.4776785714286,4259.2,72.57142857142857,720.4776785714286,4359.2,72.57142857142857,720.4776785714286,4464.2,72.57142857142857,720.4776785714286,4569.6,72.57142857142857,720.4776785714286,4674.1,72.57142857142857,720.4776785714286,4778.9,72.57142857142857,720.4776785714286,4878.9,72.57142857142857,720.4776785714286,4981.9]","[1352.8,1352.8,1000,0,352.8,""oops"",""left"",""down"",""good_move"",4665.9,3312.7,2973.6,1353.3,339.1,""smooth"",""left"",""left"",""good_move"",7370,2703.7,2336,4666.4,367.7,""oops"",""left"",""up"",""bad_move"",10163.7,2793.4,2436.1,7370.3,357.3,""oops"",""left"",""right"",""bad_move"",13151.5,2987.4,2647.4,10164.2,339.9,""oops"",""left"",""down"",""good_move"",15878,2726.2,2400.8,13151.8,325.4,""smooth"",""left"",""left"",""good_move"",17963.3,2084.9,1758.5,15878.5,326.3,""oops"",""down"",""down"",""good_move"",23926.9,5963.4,2178.6,21435.3,313,""oops"",""left"",""right"",""bad_move"",27403,3475.7,3168.7,23927.3,307,""smooth"",""down"",""down"",""good_move"",30014.2,2610.8,2272.5,27403.4,338.3,""smooth"",""left"",""left"",""good_move""]","",""
"2835","","<div style=""width:500px;"">
  <p>What determined the result of this run?</p>
  </div>","13","html-slider-response","55","767369","0.0-5.0-1.9","226","1","2025-07-23 15:30:24","1f75c3e559b7213887762d5229550c2b","89.245.26.244","Mozilla/5.0 (Windows NT 10.0; Win64; x64) AppleWebKit/537.36 (KHTML, like Gecko) Chrome/135.0.0.0 Safari/537.36 OPR/120.0.0.0","WebKit","Opera","120.0.0.0","Windows","10.0","https://app.prolific.com/","de-DE,de;q=0.9,en-US;q=0.8,en;q=0.7,zh-CN;q=0.6,zh;q=0.5","6565f2ba13586fa869dd3b28","683db9eb0562dbf637994deb","6881000691af4618a930d146","2","1","6565f2ba13586fa869dd3b28","2","1","2025-07-23T15:43:11.635Z","","","","","","","","","","","AttribQ","","50","","","","","","","","","","","","","","","","","","","","","","","","","","","","",""
"1919","","<div style=""width:500px;"">
  <p>How much control did you have over the ball?</p>
  </div>","9","html-slider-response","56","769289","0.0-5.0-2.9","226","1","2025-07-23 15:30:24","1f75c3e559b7213887762d5229550c2b","89.245.26.244","Mozilla/5.0 (Windows NT 10.0; Win64; x64) AppleWebKit/537.36 (KHTML, like Gecko) Chrome/135.0.0.0 Safari/537.36 OPR/120.0.0.0","WebKit","Opera","120.0.0.0","Windows","10.0","https://app.prolific.com/","de-DE,de;q=0.9,en-US;q=0.8,en;q=0.7,zh-CN;q=0.6,zh;q=0.5","6565f2ba13586fa869dd3b28","683db9eb0562dbf637994deb","6881000691af4618a930d146","2","1","6565f2ba13586fa869dd3b28","2","1","2025-07-23T15:43:13.555Z","","","","","","","","","","","ControlQ","","50","","","","","","","","","","","","","","","","","","","","","","","","","","","","",""
"2007","","<div style=""width:500px;"">
  <p>How would you describe your current emotional state?</p>
  </div>","65","html-slider-response","57","771297","0.0-5.0-3.9","226","1","2025-07-23 15:30:24","1f75c3e559b7213887762d5229550c2b","89.245.26.244","Mozilla/5.0 (Windows NT 10.0; Win64; x64) AppleWebKit/537.36 (KHTML, like Gecko) Chrome/135.0.0.0 Safari/537.36 OPR/120.0.0.0","WebKit","Opera","120.0.0.0","Windows","10.0","https://app.prolific.com/","de-DE,de;q=0.9,en-US;q=0.8,en;q=0.7,zh-CN;q=0.6,zh;q=0.5","6565f2ba13586fa869dd3b28","683db9eb0562dbf637994deb","6881000691af4618a930d146","2","1","6565f2ba13586fa869dd3b28","2","1","2025-07-23T15:43:15.563Z","","","","","","","","","","","StressQ","","50","","","","","","","","","","","","","","","","","","","","","","","","","","","","",""
"1698","","<div style=""width:500px;"">
  <p>What best describes how you currently feel?</p>
  </div>","33","html-slider-response","58","772996","0.0-5.0-4.9","226","1","2025-07-23 15:30:24","1f75c3e559b7213887762d5229550c2b","89.245.26.244","Mozilla/5.0 (Windows NT 10.0; Win64; x64) AppleWebKit/537.36 (KHTML, like Gecko) Chrome/135.0.0.0 Safari/537.36 OPR/120.0.0.0","WebKit","Opera","120.0.0.0","Windows","10.0","https://app.prolific.com/","de-DE,de;q=0.9,en-US;q=0.8,en;q=0.7,zh-CN;q=0.6,zh;q=0.5","6565f2ba13586fa869dd3b28","683db9eb0562dbf637994deb","6881000691af4618a930d146","2","1","6565f2ba13586fa869dd3b28","2","1","2025-07-23T15:43:17.262Z","","","","","","","","","","","MotivationQ","","50","","","","","","","","","","","","","","","","","","","","","","","","","","","","",""
"","","","","ctl-task-cpt","59","810851","0.0-5.0-0.10","226","1","2025-07-23 15:30:24","1f75c3e559b7213887762d5229550c2b","89.245.26.244","Mozilla/5.0 (Windows NT 10.0; Win64; x64) AppleWebKit/537.36 (KHTML, like Gecko) Chrome/135.0.0.0 Safari/537.36 OPR/120.0.0.0","WebKit","Opera","120.0.0.0","Windows","10.0","https://app.prolific.com/","de-DE,de;q=0.9,en-US;q=0.8,en;q=0.7,zh-CN;q=0.6,zh;q=0.5","6565f2ba13586fa869dd3b28","683db9eb0562dbf637994deb","6881000691af4618a930d146","2","1","6565f2ba13586fa869dd3b28","2","1","2025-07-23T15:43:55.117Z","","","","","","","","","","","","","","win-only","0","g1:NW,g2:SE","0.5","11","0","773950.1","804.7","5806.6","34835.9","1","4","8","6","2","-8","-9","0","0","0","611","3000","-2975","[""down"",""right""]","{""num_key_presses"":10,""num_perfect"":5,""num_errors"":1,""num_randdir"":4,""num_randdir_good_moves"":2,""num_whilered"":0,""num_whileblue"":0,""num_blue"":0,""num_good_moves"":7}","[420.57142857142856,420.47767857142856,0.2,420.57142857142856,420.47767857142856,106.1,420.57142857142856,420.47767857142856,207.2,426.57142857142856,430.47767857142856,307.8,606.5714285714286,600.4776785714286,411,736.5714285714286,692.4776785714286,511.1,736.5714285714286,698.4776785714286,621.8,736.5714285714286,698.4776785714286,726,736.5714285714286,698.4776785714286,826.1,742.5714285714286,690.4776785714286,931.2,744.5714285714286,696.4776785714286,1036.2,744.5714285714286,696.4776785714286,1136.4,744.5714285714286,696.4776785714286,1237.2,744.5714285714286,696.4776785714286,1337.5,744.5714285714286,696.4776785714286,1440.8,744.5714285714286,696.4776785714286,1541.1,744.5714285714286,696.4776785714286,1645.6,744.5714285714286,696.4776785714286,1746.4,744.5714285714286,696.4776785714286,1850.6,744.5714285714286,696.4776785714286,1951.9,744.5714285714286,696.4776785714286,2052.6,744.5714285714286,696.4776785714286,2156.2,744.5714285714286,696.4776785714286,2256.2,744.5714285714286,696.4776785714286,2356.8,744.5714285714286,696.4776785714286,2461,744.5714285714286,696.4776785714286,2561,744.5714285714286,696.4776785714286,2661.2,744.5714285714286,696.4776785714286,2765.6,744.5714285714286,696.4776785714286,2866.4,744.5714285714286,696.4776785714286,2970.5,744.5714285714286,696.4776785714286,3071.3,744.5714285714286,696.4776785714286,3171.3,744.5714285714286,696.4776785714286,3275.7,636.5714285714286,528.4776785714286,3376.7,-353.42857142857144,416.47767857142856,3481.3,-541.4285714285714,438.47767857142856,3586.3,-541.4285714285714,438.47767857142856,3691.3,-541.4285714285714,438.47767857142856,3793.1,-541.4285714285714,438.47767857142856,3897.7,-541.4285714285714,438.47767857142856,4001,-541.4285714285714,438.47767857142856,4105.4,-541.4285714285714,438.47767857142856,4206.1,-541.4285714285714,438.47767857142856,4306.4,-541.4285714285714,438.47767857142856,4406.6,-541.4285714285714,438.47767857142856,4510.8,-541.4285714285714,438.47767857142856,4612.4,-541.4285714285714,438.47767857142856,4717.2,-541.4285714285714,438.47767857142856,4821.7,-541.4285714285714,438.47767857142856,4925.6]","[1346.4,1346.4,1000,0,346.4,""oops"",""down"",""up"",""bad_move"",4330.1,2983.4,2504.2,1346.7,479.2,""smooth"",""right"",""right"",""good_move"",7248,2917.5,2564.2,4330.5,353.3,""oops"",""down"",""up"",""bad_move"",8071.1,822.8,1848.6,7248.3,-1025.8,""error"",""-"",""-"",""no_move"",11138.3,3067,1737.8,9078.7,321.8,""smooth"",""down"",""down"",""good_move"",14542,3403.3,3082.8,11138.7,320.5,""smooth"",""right"",""right"",""good_move"",17468.3,2926,2592.3,14542.3,333.7,""smooth"",""down"",""down"",""good_move"",20486.8,3018.2,2705.3,17468.6,312.9,""oops"",""right"",""down"",""good_move"",23343.1,2856.1,2582.6,20487,273.5,""oops"",""right"",""down"",""good_move"",26076.9,2733.7,2419.7,23343.2,314,""smooth"",""right"",""right"",""good_move""]","",""
"2396","","<div style=""width:500px;"">
  <p>What determined the result of this run?</p>
  </div>","13","html-slider-response","60","813248","0.0-5.0-1.10","226","1","2025-07-23 15:30:24","1f75c3e559b7213887762d5229550c2b","89.245.26.244","Mozilla/5.0 (Windows NT 10.0; Win64; x64) AppleWebKit/537.36 (KHTML, like Gecko) Chrome/135.0.0.0 Safari/537.36 OPR/120.0.0.0","WebKit","Opera","120.0.0.0","Windows","10.0","https://app.prolific.com/","de-DE,de;q=0.9,en-US;q=0.8,en;q=0.7,zh-CN;q=0.6,zh;q=0.5","6565f2ba13586fa869dd3b28","683db9eb0562dbf637994deb","6881000691af4618a930d146","2","1","6565f2ba13586fa869dd3b28","2","1","2025-07-23T15:43:57.514Z","","","","","","","","","","","AttribQ","","50","","","","","","","","","","","","","","","","","","","","","","","","","","","","",""
"1460","","<div style=""width:500px;"">
  <p>How much control did you have over the ball?</p>
  </div>","18","html-slider-response","61","814709","0.0-5.0-2.10","226","1","2025-07-23 15:30:24","1f75c3e559b7213887762d5229550c2b","89.245.26.244","Mozilla/5.0 (Windows NT 10.0; Win64; x64) AppleWebKit/537.36 (KHTML, like Gecko) Chrome/135.0.0.0 Safari/537.36 OPR/120.0.0.0","WebKit","Opera","120.0.0.0","Windows","10.0","https://app.prolific.com/","de-DE,de;q=0.9,en-US;q=0.8,en;q=0.7,zh-CN;q=0.6,zh;q=0.5","6565f2ba13586fa869dd3b28","683db9eb0562dbf637994deb","6881000691af4618a930d146","2","1","6565f2ba13586fa869dd3b28","2","1","2025-07-23T15:43:58.975Z","","","","","","","","","","","ControlQ","","50","","","","","","","","","","","","","","","","","","","","","","","","","","","","",""
"1675","","<div style=""width:500px;"">
  <p>How would you describe your current emotional state?</p>
  </div>","72","html-slider-response","62","816386","0.0-5.0-3.10","226","1","2025-07-23 15:30:24","1f75c3e559b7213887762d5229550c2b","89.245.26.244","Mozilla/5.0 (Windows NT 10.0; Win64; x64) AppleWebKit/537.36 (KHTML, like Gecko) Chrome/135.0.0.0 Safari/537.36 OPR/120.0.0.0","WebKit","Opera","120.0.0.0","Windows","10.0","https://app.prolific.com/","de-DE,de;q=0.9,en-US;q=0.8,en;q=0.7,zh-CN;q=0.6,zh;q=0.5","6565f2ba13586fa869dd3b28","683db9eb0562dbf637994deb","6881000691af4618a930d146","2","1","6565f2ba13586fa869dd3b28","2","1","2025-07-23T15:44:00.652Z","","","","","","","","","","","StressQ","","50","","","","","","","","","","","","","","","","","","","","","","","","","","","","",""
"1225","","<div style=""width:500px;"">
  <p>What best describes how you currently feel?</p>
  </div>","27","html-slider-response","63","817612","0.0-5.0-4.10","226","1","2025-07-23 15:30:24","1f75c3e559b7213887762d5229550c2b","89.245.26.244","Mozilla/5.0 (Windows NT 10.0; Win64; x64) AppleWebKit/537.36 (KHTML, like Gecko) Chrome/135.0.0.0 Safari/537.36 OPR/120.0.0.0","WebKit","Opera","120.0.0.0","Windows","10.0","https://app.prolific.com/","de-DE,de;q=0.9,en-US;q=0.8,en;q=0.7,zh-CN;q=0.6,zh;q=0.5","6565f2ba13586fa869dd3b28","683db9eb0562dbf637994deb","6881000691af4618a930d146","2","1","6565f2ba13586fa869dd3b28","2","1","2025-07-23T15:44:01.878Z","","","","","","","","","","","MotivationQ","","50","","","","","","","","","","","","","","","","","","","","","","","","","","","","",""
"","","","","ctl-task-cpt","64","850401","0.0-5.0-0.11","226","1","2025-07-23 15:30:24","1f75c3e559b7213887762d5229550c2b","89.245.26.244","Mozilla/5.0 (Windows NT 10.0; Win64; x64) AppleWebKit/537.36 (KHTML, like Gecko) Chrome/135.0.0.0 Safari/537.36 OPR/120.0.0.0","WebKit","Opera","120.0.0.0","Windows","10.0","https://app.prolific.com/","de-DE,de;q=0.9,en-US;q=0.8,en;q=0.7,zh-CN;q=0.6,zh;q=0.5","6565f2ba13586fa869dd3b28","683db9eb0562dbf637994deb","6881000691af4618a930d146","2","1","6565f2ba13586fa869dd3b28","2","1","2025-07-23T15:44:34.667Z","","","","","","","","","","","","","","win-only","2","g1:SE,g2:NW","0.6","12","0","818564.8","2198.9","7201.3","29770.5","1","4","4","6","2","4","4","4","0","0.030303030303030304","1106.2","3000","290","[""left"",""up""]","{""num_key_presses"":8,""num_perfect"":5,""num_errors"":0,""num_randdir"":3,""num_randdir_good_moves"":2,""num_whilered"":0,""num_whileblue"":0,""num_blue"":0,""num_good_moves"":7}","[420.57142857142856,412.47767857142856,0.2,420.57142857142856,412.47767857142856,101.9,420.57142857142856,412.47767857142856,206.5,420.57142857142856,412.47767857142856,307.2,424.57142857142856,420.47767857142856,411.6,572.5714285714286,586.4776785714286,512,622.5714285714286,642.4776785714286,612.1,442.57142857142856,510.47767857142856,712.1,148.57142857142856,214.47767857142856,817,124.57142857142857,160.47767857142856,917,98.57142857142857,98.47767857142857,1021.6,92.57142857142857,88.47767857142857,1121.6,92.57142857142857,88.47767857142857,1221.9,94.57142857142857,90.47767857142857,1326.5,106.57142857142857,94.47767857142857,1427.9,106.57142857142857,94.47767857142857,1531.6,106.57142857142857,96.47767857142857,1631.7,106.57142857142857,96.47767857142857,1737.1,106.57142857142857,96.47767857142857,1841.4,106.57142857142857,96.47767857142857,1942,106.57142857142857,96.47767857142857,2046.6,106.57142857142857,96.47767857142857,2146.8,106.57142857142857,96.47767857142857,2248.8,106.57142857142857,96.47767857142857,2351.3,106.57142857142857,96.47767857142857,2452.4,106.57142857142857,96.47767857142857,2557.2,106.57142857142857,96.47767857142857,2662.2,106.57142857142857,96.47767857142857,2768.5,106.57142857142857,96.47767857142857,2872.1,106.57142857142857,96.47767857142857,2972.4,106.57142857142857,96.47767857142857,3072.5,106.57142857142857,96.47767857142857,3176.3,106.57142857142857,96.47767857142857,3278.7,106.57142857142857,96.47767857142857,3382.2,106.57142857142857,96.47767857142857,3486.6,106.57142857142857,96.47767857142857,3587,106.57142857142857,96.47767857142857,3691.9,106.57142857142857,96.47767857142857,3792.1,106.57142857142857,96.47767857142857,3899.9,106.57142857142857,96.47767857142857,4012.4,106.57142857142857,96.47767857142857,4116.7,106.57142857142857,96.47767857142857,4221.7,106.57142857142857,96.47767857142857,4321.9,106.57142857142857,96.47767857142857,4422.1,106.57142857142857,96.47767857142857,4522.1,106.57142857142857,96.47767857142857,4626.9,106.57142857142857,96.47767857142857,4726.9,106.57142857142857,96.47767857142857,4827,106.57142857142857,96.47767857142857,4927.3]","[1572.7,1572.7,1000,0,572.7,""smooth"",""up"",""up"",""good_move"",5033.8,3460.7,3084.9,1573.1,375.8,""smooth"",""up"",""up"",""good_move"",8754.8,3720.8,3383.5,5034,337.3,""oops"",""left"",""down"",""bad_move"",11537.7,2782.5,2367.5,8755.2,415.1,""oops"",""up"",""left"",""good_move"",14883,3345,2968.5,11538,376.5,""oops"",""up"",""left"",""good_move"",17126.7,2243.6,1882.9,14883.1,360.7,""smooth"",""up"",""up"",""good_move"",19364.8,2237.8,1896.2,17127,341.6,""smooth"",""up"",""up"",""good_move"",22474.5,3109.5,2816.6,19365,292.9,""smooth"",""left"",""left"",""good_move""]","",""
"2063","","<div style=""width:500px;"">
  <p>What determined the result of this run?</p>
  </div>","22","html-slider-response","65","852465","0.0-5.0-1.11","226","1","2025-07-23 15:30:24","1f75c3e559b7213887762d5229550c2b","89.245.26.244","Mozilla/5.0 (Windows NT 10.0; Win64; x64) AppleWebKit/537.36 (KHTML, like Gecko) Chrome/135.0.0.0 Safari/537.36 OPR/120.0.0.0","WebKit","Opera","120.0.0.0","Windows","10.0","https://app.prolific.com/","de-DE,de;q=0.9,en-US;q=0.8,en;q=0.7,zh-CN;q=0.6,zh;q=0.5","6565f2ba13586fa869dd3b28","683db9eb0562dbf637994deb","6881000691af4618a930d146","2","1","6565f2ba13586fa869dd3b28","2","1","2025-07-23T15:44:36.731Z","","","","","","","","","","","AttribQ","","50","","","","","","","","","","","","","","","","","","","","","","","","","","","","",""
"2416","","<div style=""width:500px;"">
  <p>How much control did you have over the ball?</p>
  </div>","39","html-slider-response","66","854882","0.0-5.0-2.11","226","1","2025-07-23 15:30:24","1f75c3e559b7213887762d5229550c2b","89.245.26.244","Mozilla/5.0 (Windows NT 10.0; Win64; x64) AppleWebKit/537.36 (KHTML, like Gecko) Chrome/135.0.0.0 Safari/537.36 OPR/120.0.0.0","WebKit","Opera","120.0.0.0","Windows","10.0","https://app.prolific.com/","de-DE,de;q=0.9,en-US;q=0.8,en;q=0.7,zh-CN;q=0.6,zh;q=0.5","6565f2ba13586fa869dd3b28","683db9eb0562dbf637994deb","6881000691af4618a930d146","2","1","6565f2ba13586fa869dd3b28","2","1","2025-07-23T15:44:39.148Z","","","","","","","","","","","ControlQ","","50","","","","","","","","","","","","","","","","","","","","","","","","","","","","",""
"2282","","<div style=""width:500px;"">
  <p>How would you describe your current emotional state?</p>
  </div>","44","html-slider-response","67","857165","0.0-5.0-3.11","226","1","2025-07-23 15:30:24","1f75c3e559b7213887762d5229550c2b","89.245.26.244","Mozilla/5.0 (Windows NT 10.0; Win64; x64) AppleWebKit/537.36 (KHTML, like Gecko) Chrome/135.0.0.0 Safari/537.36 OPR/120.0.0.0","WebKit","Opera","120.0.0.0","Windows","10.0","https://app.prolific.com/","de-DE,de;q=0.9,en-US;q=0.8,en;q=0.7,zh-CN;q=0.6,zh;q=0.5","6565f2ba13586fa869dd3b28","683db9eb0562dbf637994deb","6881000691af4618a930d146","2","1","6565f2ba13586fa869dd3b28","2","1","2025-07-23T15:44:41.431Z","","","","","","","","","","","StressQ","","50","","","","","","","","","","","","","","","","","","","","","","","","","","","","",""
"5839","","<div style=""width:500px;"">
  <p>What best describes how you currently feel?</p>
  </div>","44","html-slider-response","68","863005","0.0-5.0-4.11","226","1","2025-07-23 15:30:24","1f75c3e559b7213887762d5229550c2b","89.245.26.244","Mozilla/5.0 (Windows NT 10.0; Win64; x64) AppleWebKit/537.36 (KHTML, like Gecko) Chrome/135.0.0.0 Safari/537.36 OPR/120.0.0.0","WebKit","Opera","120.0.0.0","Windows","10.0","https://app.prolific.com/","de-DE,de;q=0.9,en-US;q=0.8,en;q=0.7,zh-CN;q=0.6,zh;q=0.5","6565f2ba13586fa869dd3b28","683db9eb0562dbf637994deb","6881000691af4618a930d146","2","1","6565f2ba13586fa869dd3b28","2","1","2025-07-23T15:44:47.271Z","","","","","","","","","","","MotivationQ","","50","","","","","","","","","","","","","","","","","","","","","","","","","","","","",""
"","","","","ctl-task-cpt","69","897416","0.0-5.0-0.12","226","1","2025-07-23 15:30:24","1f75c3e559b7213887762d5229550c2b","89.245.26.244","Mozilla/5.0 (Windows NT 10.0; Win64; x64) AppleWebKit/537.36 (KHTML, like Gecko) Chrome/135.0.0.0 Safari/537.36 OPR/120.0.0.0","WebKit","Opera","120.0.0.0","Windows","10.0","https://app.prolific.com/","de-DE,de;q=0.9,en-US;q=0.8,en;q=0.7,zh-CN;q=0.6,zh;q=0.5","6565f2ba13586fa869dd3b28","683db9eb0562dbf637994deb","6881000691af4618a930d146","2","1","6565f2ba13586fa869dd3b28","2","1","2025-07-23T15:45:21.682Z","","","","","","","","","","","","","","win-only","0","g1:NW,g2:SE","0.7","13","0","863958.9","974.1","5975.1","31390.6","1","4","8","6","2","8","8","12","4","0.09090909090909091","775.7","3000","375","[""down"",""right""]","{""num_key_presses"":8,""num_perfect"":6,""num_errors"":0,""num_randdir"":2,""num_randdir_good_moves"":1,""num_whilered"":0,""num_whileblue"":0,""num_blue"":1,""num_good_moves"":7}","[406.57142857142856,410.47767857142856,0.1,406.57142857142856,410.47767857142856,101.7,406.57142857142856,410.47767857142856,202.2,406.57142857142856,410.47767857142856,306.4,412.57142857142856,410.47767857142856,406.4,632.5714285714286,554.4776785714286,506.6,720.5714285714286,668.4776785714286,606.6,776.5714285714286,768.4776785714286,706.6,786.5714285714286,784.4776785714286,812,782.5714285714286,782.4776785714286,916.6,730.5714285714286,738.4776785714286,1017.2,714.5714285714286,712.4776785714286,1121.1,698.5714285714286,708.4776785714286,1221.1,698.5714285714286,708.4776785714286,1321.6,698.5714285714286,708.4776785714286,1421.8,698.5714285714286,708.4776785714286,1526.2,698.5714285714286,708.4776785714286,1626.3,698.5714285714286,708.4776785714286,1731.2,698.5714285714286,708.4776785714286,1831.7,698.5714285714286,708.4776785714286,1937,698.5714285714286,708.4776785714286,2041.5,698.5714285714286,708.4776785714286,2143.9,698.5714285714286,708.4776785714286,2246.7,698.5714285714286,708.4776785714286,2351.2,698.5714285714286,708.4776785714286,2451.2,698.5714285714286,708.4776785714286,2551.2,698.5714285714286,708.4776785714286,2651.3,698.5714285714286,708.4776785714286,2756.1,698.5714285714286,708.4776785714286,2860.3,698.5714285714286,708.4776785714286,2963.1,698.5714285714286,708.4776785714286,3067.1,698.5714285714286,708.4776785714286,3171.3,698.5714285714286,708.4776785714286,3272,698.5714285714286,708.4776785714286,3376.3,698.5714285714286,708.4776785714286,3483.6,698.5714285714286,708.4776785714286,3586.5,698.5714285714286,708.4776785714286,3686.6,698.5714285714286,708.4776785714286,3791.2,698.5714285714286,708.4776785714286,3891.3,698.5714285714286,708.4776785714286,3991.3,698.5714285714286,708.4776785714286,4091.5,698.5714285714286,708.4776785714286,4194.6,698.5714285714286,708.4776785714286,4296.2,698.5714285714286,708.4776785714286,4400.9,698.5714285714286,708.4776785714286,4500.9,698.5714285714286,708.4776785714286,4600.9,698.5714285714286,708.4776785714286,4701.3,698.5714285714286,708.4776785714286,4801.5,698.5714285714286,708.4776785714286,4910.1]","[1346.9,1346.9,1000,0,346.9,""smooth"",""down"",""down"",""good_move"",4507.2,3159.7,2664.5,1347.5,495.2,""smooth"",""down"",""down"",""good_move"",7319.8,2812.5,2301.4,4507.3,511.1,""oops"",""right"",""up"",""bad_move"",10644.1,3323.8,2965.9,7320.3,357.9,""oops"",""down"",""right"",""good_move"",13324.5,2680,2350.7,10644.5,329.3,""smooth"",""down"",""down"",""good_move"",16092,2767.2,2480.6,13324.8,286.6,""smooth"",""right"",""right"",""good_move"",21795.2,5702.9,1995.4,19495.4,304.4,""smooth"",""down"",""down"",""good_move"",25307.8,3512.2,3142.8,21795.6,369.4,""smooth"",""right"",""right"",""good_move""]","",""
"6624","","<div style=""width:500px;"">
  <p>What determined the result of this run?</p>
  </div>","25","html-slider-response","70","904041","0.0-5.0-1.12","226","1","2025-07-23 15:30:24","1f75c3e559b7213887762d5229550c2b","89.245.26.244","Mozilla/5.0 (Windows NT 10.0; Win64; x64) AppleWebKit/537.36 (KHTML, like Gecko) Chrome/135.0.0.0 Safari/537.36 OPR/120.0.0.0","WebKit","Opera","120.0.0.0","Windows","10.0","https://app.prolific.com/","de-DE,de;q=0.9,en-US;q=0.8,en;q=0.7,zh-CN;q=0.6,zh;q=0.5","6565f2ba13586fa869dd3b28","683db9eb0562dbf637994deb","6881000691af4618a930d146","2","1","6565f2ba13586fa869dd3b28","2","1","2025-07-23T15:45:28.307Z","","","","","","","","","","","AttribQ","","50","","","","","","","","","","","","","","","","","","","","","","","","","","","","",""
"2625","","<div style=""width:500px;"">
  <p>How much control did you have over the ball?</p>
  </div>","58","html-slider-response","71","906667","0.0-5.0-2.12","226","1","2025-07-23 15:30:24","1f75c3e559b7213887762d5229550c2b","89.245.26.244","Mozilla/5.0 (Windows NT 10.0; Win64; x64) AppleWebKit/537.36 (KHTML, like Gecko) Chrome/135.0.0.0 Safari/537.36 OPR/120.0.0.0","WebKit","Opera","120.0.0.0","Windows","10.0","https://app.prolific.com/","de-DE,de;q=0.9,en-US;q=0.8,en;q=0.7,zh-CN;q=0.6,zh;q=0.5","6565f2ba13586fa869dd3b28","683db9eb0562dbf637994deb","6881000691af4618a930d146","2","1","6565f2ba13586fa869dd3b28","2","1","2025-07-23T15:45:30.933Z","","","","","","","","","","","ControlQ","","50","","","","","","","","","","","","","","","","","","","","","","","","","","","","",""
"1302","","<div style=""width:500px;"">
  <p>How would you describe your current emotional state?</p>
  </div>","43","html-slider-response","72","907970","0.0-5.0-3.12","226","1","2025-07-23 15:30:24","1f75c3e559b7213887762d5229550c2b","89.245.26.244","Mozilla/5.0 (Windows NT 10.0; Win64; x64) AppleWebKit/537.36 (KHTML, like Gecko) Chrome/135.0.0.0 Safari/537.36 OPR/120.0.0.0","WebKit","Opera","120.0.0.0","Windows","10.0","https://app.prolific.com/","de-DE,de;q=0.9,en-US;q=0.8,en;q=0.7,zh-CN;q=0.6,zh;q=0.5","6565f2ba13586fa869dd3b28","683db9eb0562dbf637994deb","6881000691af4618a930d146","2","1","6565f2ba13586fa869dd3b28","2","1","2025-07-23T15:45:32.236Z","","","","","","","","","","","StressQ","","50","","","","","","","","","","","","","","","","","","","","","","","","","","","","",""
"1250","","<div style=""width:500px;"">
  <p>What best describes how you currently feel?</p>
  </div>","56","html-slider-response","73","909221","0.0-5.0-4.12","226","1","2025-07-23 15:30:24","1f75c3e559b7213887762d5229550c2b","89.245.26.244","Mozilla/5.0 (Windows NT 10.0; Win64; x64) AppleWebKit/537.36 (KHTML, like Gecko) Chrome/135.0.0.0 Safari/537.36 OPR/120.0.0.0","WebKit","Opera","120.0.0.0","Windows","10.0","https://app.prolific.com/","de-DE,de;q=0.9,en-US;q=0.8,en;q=0.7,zh-CN;q=0.6,zh;q=0.5","6565f2ba13586fa869dd3b28","683db9eb0562dbf637994deb","6881000691af4618a930d146","2","1","6565f2ba13586fa869dd3b28","2","1","2025-07-23T15:45:33.487Z","","","","","","","","","","","MotivationQ","","50","","","","","","","","","","","","","","","","","","","","","","","","","","","","",""
