"rt","response_timestamp","stimulus","response","trial_type","trial_index","time_elapsed","internal_node_id","run_id","condition","recorded_at","source_code_version","ip","user_agent","device","browser","browser_version","platform","platform_version","referer","accept_language","PROLIFIC_PID","STUDY_ID","SESSION_ID","WEEK","BATCH","prolific_id","week","batch","realtime","success","responses","item_order","radio_event_ids","radio_event_times","key_event_times","mouse_event_times","straightlining","zigzagging","honeypot","eventType","view_history","slider_start","which_type","canvas_config","goals_layout","control_level","trial_number","tutorial_trial_number","trial_start_time","phase1_start_time","phase2_start_time","phase3_start_time","goal_1_value","goal_1_distance","goal_2_value","goal_2_distance","goal_selected","outcome","outcome_total","participant_final_score","participant_initial_score","participant_final_score_prop","goal_choice_rt","allocated_time","allocated_time_remaining","goal_direction","counts","mouse_movements","key_presses","question_order","question_id"
"7626","1752658922912","<p style='font-size:40px;line-height:1.25'><strong>Welcome to the experiment!</strong></p><p style='font-size:1.1em;line-height:1.25'>Thank you for participanting in our experiment again! You will be asked to play the Dysfunctional Ball Game again. We will briefly recap the rules before we start.</p><p style='font-size:1.1em;line-height:1.25'>Press <strong>Next</strong> to continue.</p>","0","custom-html-button-response","0","7629","0.0-0.0","93","1","2025-07-16 09:41:52","1f75c3e559b7213887762d5229550c2b","84.67.40.4","Mozilla/5.0 (Macintosh; Intel Mac OS X 10_15_7) AppleWebKit/537.36 (KHTML, like Gecko) Chrome/138.0.0.0 Safari/537.36","Macintosh","Chrome","138.0.0.0","OS X","10_15_7","https://app.prolific.com/","en-GB,en-US;q=0.9,en;q=0.8","6658ba167affbe300577b93d","68764874ac79eee8c1d4cb03","687773dab44b46fc0fe93db0","2","0","6658ba167affbe300577b93d","2","0","2025-07-16T09:42:02.913Z","","","","","","","","","","","","","","","","","","","","","","","","","","","","","","","","","","","","","","","","","",""
"3336","","","","fullscreen","1","11971","0.0-1.0","93","1","2025-07-16 09:41:52","1f75c3e559b7213887762d5229550c2b","84.67.40.4","Mozilla/5.0 (Macintosh; Intel Mac OS X 10_15_7) AppleWebKit/537.36 (KHTML, like Gecko) Chrome/138.0.0.0 Safari/537.36","Macintosh","Chrome","138.0.0.0","OS X","10_15_7","https://app.prolific.com/","en-GB,en-US;q=0.9,en;q=0.8","6658ba167affbe300577b93d","68764874ac79eee8c1d4cb03","687773dab44b46fc0fe93db0","2","0","6658ba167affbe300577b93d","2","0","","true","","","","","","","","","","","","","","","","","","","","","","","","","","","","","","","","","","","","","","","","",""
"3674","1752658930930","<p style='font-size:1.1em;line-height:1.25'>In the following, we will ask you a few questions relating to your feelings in the last 24 hours.<br></p><p style='font-size:1.1em;line-height:1.25'>Press the <strong>Next</strong> button to continue.</p>","0","custom-html-button-response","2","15646","0.0-2.0-0.0","93","1","2025-07-16 09:41:52","1f75c3e559b7213887762d5229550c2b","84.67.40.4","Mozilla/5.0 (Macintosh; Intel Mac OS X 10_15_7) AppleWebKit/537.36 (KHTML, like Gecko) Chrome/138.0.0.0 Safari/537.36","Macintosh","Chrome","138.0.0.0","OS X","10_15_7","https://app.prolific.com/","en-GB,en-US;q=0.9,en;q=0.8","6658ba167affbe300577b93d","68764874ac79eee8c1d4cb03","687773dab44b46fc0fe93db0","2","0","6658ba167affbe300577b93d","2","0","2025-07-16T09:42:10.931Z","","","","","","","","","","","","","","","","","","","","","","","","","","","","","","","","","","","","","","","","","",""
"59434.5","","","","survey-template","3","75088","0.0-2.0-1.0","93","1","2025-07-16 09:41:52","1f75c3e559b7213887762d5229550c2b","84.67.40.4","Mozilla/5.0 (Macintosh; Intel Mac OS X 10_15_7) AppleWebKit/537.36 (KHTML, like Gecko) Chrome/138.0.0.0 Safari/537.36","Macintosh","Chrome","138.0.0.0","OS X","10_15_7","https://app.prolific.com/","en-GB,en-US;q=0.9,en;q=0.8","6658ba167affbe300577b93d","68764874ac79eee8c1d4cb03","687773dab44b46fc0fe93db0","2","0","6658ba167affbe300577b93d","2","0","2025-07-16T09:43:10.372Z","","{""Q01"":""0"",""Q02"":""0"",""Q03"":""0"",""Q04"":""1"",""Q05"":""0"",""Q06"":""0"",""Q07"":""1"",""Q08"":""0"",""Q09"":""0"",""Q10"":""1"",""Q11"":""0"",""Q12"":""0"",""Q13"":""5"",""Q14"":""0"",""Q15"":""2"",""Q16"":""0"",""Q17"":""1"",""Q18"":""0"",""Q19"":""1"",""Q20"":""0"",""Q21"":""0"",""Q22"":""0""}","[0,1,2,3,4,5,6,7,8,9,10,11,12,13,14,15,16,17,18,19,20,21]","[""Q01"",""Q02"",""Q03"",""Q04"",""Q05"",""Q06"",""Q07"",""Q10"",""Q09"",""Q10"",""Q08"",""Q11"",""Q12"",""Q13"",""Q14"",""Q15"",""Q16"",""Q18"",""Q17"",""Q19"",""Q19"",""Q20"",""Q21"",""Q22""]","[2449.7999999999884,3214.9000000000233,4125.799999999988,7298.299999999988,8208.700000000012,9367.200000000012,10289.900000000023,12472.900000000023,13597.200000000012,14777.400000000023,17681.70000000001,21168.70000000001,22213.599999999977,23958.400000000023,27884.79999999999,38955.40000000002,40383.09999999998,44185.79999999999,44894.20000000001,52432,53501.20000000001,56055.09999999998,57573.5,58485.40000000002]","[]","[0.20000000001164153,2449.7999999999884,3214.9000000000233,4125.799999999988,7298.299999999988,8208.700000000012,9367.200000000012,10289.900000000023,10952.700000000012,11719.5,12472.900000000023,13597.200000000012,14035.599999999977,14777.400000000023,15823.200000000012,17681.70000000001,21168.70000000001,22213.599999999977,23958.400000000023,27884.79999999999,38955.40000000002,40383.09999999998,43241.59999999998,44185.79999999999,44894.20000000001,52432,53501.20000000001,56055.09999999998,57573.5,58485.40000000002,59429.5]","0.6818181818181818","0.5714285714285714","0","drsp","","","","","","","","","","","","","","","","","","","","","","","","","","","","","","",""
"6989.699999999953","","","","survey-template","4","82080","0.0-2.0-2.0","93","1","2025-07-16 09:41:52","1f75c3e559b7213887762d5229550c2b","84.67.40.4","Mozilla/5.0 (Macintosh; Intel Mac OS X 10_15_7) AppleWebKit/537.36 (KHTML, like Gecko) Chrome/138.0.0.0 Safari/537.36","Macintosh","Chrome","138.0.0.0","OS X","10_15_7","https://app.prolific.com/","en-GB,en-US;q=0.9,en;q=0.8","6658ba167affbe300577b93d","68764874ac79eee8c1d4cb03","687773dab44b46fc0fe93db0","2","0","6658ba167affbe300577b93d","2","0","2025-07-16T09:43:17.364Z","","{""Q01"":""1"",""Q02"":""2"",""Q03"":""1""}","[0,1,2]","[""Q01"",""Q02"",""Q03""]","[1982.5999999999767,4345.699999999953,5875.799999999988]","[]","[1982.5999999999767,4345.699999999953,5875.799999999988,6988.599999999977]","0.6666666666666666","0","0","stress","","","","","","","","","","","","","","","","","","","","","","","","","","","","","","",""
"32911","","","","instructions","5","114993","0.0-3.0-0.0","93","1","2025-07-16 09:41:52","1f75c3e559b7213887762d5229550c2b","84.67.40.4","Mozilla/5.0 (Macintosh; Intel Mac OS X 10_15_7) AppleWebKit/537.36 (KHTML, like Gecko) Chrome/138.0.0.0 Safari/537.36","Macintosh","Chrome","138.0.0.0","OS X","10_15_7","https://app.prolific.com/","en-GB,en-US;q=0.9,en;q=0.8","6658ba167affbe300577b93d","68764874ac79eee8c1d4cb03","687773dab44b46fc0fe93db0","2","0","6658ba167affbe300577b93d","2","0","","","","","","","","","","","","","[{""page_index"":0,""viewing_time"":32910}]","","","","","","","","","","","","","","","","","","","","","","","","","","","","","",""
"4824","","<p>Before you start with this game please answer the following three questions yourself. </p>
  <p>Through this game, we measure several aspects of your cognitive performance, such as reaction times, multi-tasking capabilities </p>
  <p>and the ability to assess the situation you are in.</p>
  <p></p>
  <p><b>How good do you usually are in such tasks?</b></p>","56","html-slider-response","6","119821","0.0-4.0-0.0","93","1","2025-07-16 09:41:52","1f75c3e559b7213887762d5229550c2b","84.67.40.4","Mozilla/5.0 (Macintosh; Intel Mac OS X 10_15_7) AppleWebKit/537.36 (KHTML, like Gecko) Chrome/138.0.0.0 Safari/537.36","Macintosh","Chrome","138.0.0.0","OS X","10_15_7","https://app.prolific.com/","en-GB,en-US;q=0.9,en;q=0.8","6658ba167affbe300577b93d","68764874ac79eee8c1d4cb03","687773dab44b46fc0fe93db0","2","0","6658ba167affbe300577b93d","2","0","2025-07-16T09:43:55.105Z","","","","","","","","","","","PreSkillQ","","50","","","","","","","","","","","","","","","","","","","","","","","","","","","","",""
"2232","","<div style=""width:500px;"">
  <p>How well do you think you will perform in this task compared to other participants?</p>
  </div>","57","html-slider-response","7","122055","0.0-4.0-1.0","93","1","2025-07-16 09:41:52","1f75c3e559b7213887762d5229550c2b","84.67.40.4","Mozilla/5.0 (Macintosh; Intel Mac OS X 10_15_7) AppleWebKit/537.36 (KHTML, like Gecko) Chrome/138.0.0.0 Safari/537.36","Macintosh","Chrome","138.0.0.0","OS X","10_15_7","https://app.prolific.com/","en-GB,en-US;q=0.9,en;q=0.8","6658ba167affbe300577b93d","68764874ac79eee8c1d4cb03","687773dab44b46fc0fe93db0","2","0","6658ba167affbe300577b93d","2","0","2025-07-16T09:43:57.339Z","","","","","","","","","","","PrePerfQ","","50","","","","","","","","","","","","","","","","","","","","","","","","","","","","",""
"2386","","<div style=""width:500px;"">
  <p>What best describes how you currently feel?</p>
  </div>","68","html-slider-response","8","124444","0.0-4.0-2.0","93","1","2025-07-16 09:41:52","1f75c3e559b7213887762d5229550c2b","84.67.40.4","Mozilla/5.0 (Macintosh; Intel Mac OS X 10_15_7) AppleWebKit/537.36 (KHTML, like Gecko) Chrome/138.0.0.0 Safari/537.36","Macintosh","Chrome","138.0.0.0","OS X","10_15_7","https://app.prolific.com/","en-GB,en-US;q=0.9,en;q=0.8","6658ba167affbe300577b93d","68764874ac79eee8c1d4cb03","687773dab44b46fc0fe93db0","2","0","6658ba167affbe300577b93d","2","0","2025-07-16T09:43:59.729Z","","","","","","","","","","","PreMotivationQ","","50","","","","","","","","","","","","","","","","","","","","","","","","","","","","",""
"","","","","ctl-task-cpt","9","167498","0.0-5.0-0.0","93","1","2025-07-16 09:41:52","1f75c3e559b7213887762d5229550c2b","84.67.40.4","Mozilla/5.0 (Macintosh; Intel Mac OS X 10_15_7) AppleWebKit/537.36 (KHTML, like Gecko) Chrome/138.0.0.0 Safari/537.36","Macintosh","Chrome","138.0.0.0","OS X","10_15_7","https://app.prolific.com/","en-GB,en-US;q=0.9,en;q=0.8","6658ba167affbe300577b93d","68764874ac79eee8c1d4cb03","687773dab44b46fc0fe93db0","2","0","6658ba167affbe300577b93d","2","0","2025-07-16T09:44:42.782Z","","","","","","","","","","","","","","win-only","3","g1:SW,g2:NE","1","1","0","127188.3","1547.2","6552.3","40042.6","1","4","4","6","2","4","4","4","0","0.030303030303030304","1865.3","3000","285","[""up"",""right""]","{""num_key_presses"":6,""num_perfect"":6,""num_errors"":0,""num_randdir"":0,""num_randdir_good_moves"":0,""num_whilered"":0,""num_whileblue"":0,""num_blue"":5,""num_good_moves"":6}","[696.2857142857143,688.0825892857143,1.6,696.2857142857143,688.0825892857143,102,696.2857142857143,688.0825892857143,202.4,696.2857142857143,688.0825892857143,303.7,696.2857142857143,688.0825892857143,404,696.2857142857143,688.0825892857143,504.6,696.2857142857143,688.0825892857143,609.1,696.2857142857143,688.0825892857143,709.1,696.2857142857143,688.0825892857143,814.5,696.2857142857143,688.0825892857143,919.2,696.2857142857143,688.0825892857143,1023.9,696.2857142857143,688.0825892857143,1124.8,696.2857142857143,688.0825892857143,1228.8,696.2857142857143,688.0825892857143,1331.7,1280.2857142857142,-87.91741071428571,1433.6,1314.2857142857142,-139.91741071428572,1534.4,1316.2857142857142,-27.917410714285708,1639.2,1302.2857142857142,84.08258928571429,1740.1,1298.2857142857142,112.08258928571429,1844.4,1298.2857142857142,112.08258928571429,1944.5,1298.2857142857142,112.08258928571429,2045.5,1298.2857142857142,112.08258928571429,2149.2,1298.2857142857142,112.08258928571429,2254.5,1298.2857142857142,112.08258928571429,2354.7,1298.2857142857142,112.08258928571429,2454.8,1298.2857142857142,112.08258928571429,2554.8,1298.2857142857142,112.08258928571429,2660.6,1298.2857142857142,112.08258928571429,2761.7,1298.2857142857142,112.08258928571429,2864.4,1298.2857142857142,112.08258928571429,2964.7,1298.2857142857142,112.08258928571429,3068.9,1298.2857142857142,112.08258928571429,3169.8,1298.2857142857142,112.08258928571429,3275.7,1298.2857142857142,112.08258928571429,3379.8,1298.2857142857142,112.08258928571429,3483.9,1298.2857142857142,112.08258928571429,3584.3,1298.2857142857142,112.08258928571429,3684.7,1298.2857142857142,112.08258928571429,3789.8,1298.2857142857142,112.08258928571429,3895.1,1298.2857142857142,112.08258928571429,3999,1298.2857142857142,112.08258928571429,4099.6,1298.2857142857142,112.08258928571429,4199.7,1298.2857142857142,112.08258928571429,4306.5,1298.2857142857142,112.08258928571429,4409.5,1298.2857142857142,112.08258928571429,4514,1298.2857142857142,112.08258928571429,4614.1,1298.2857142857142,112.08258928571429,4714.4,1298.2857142857142,112.08258928571429,4821.6,1298.2857142857142,112.08258928571429,4921.6]","[5313,5312.9,2845.4,2010.8,456.8,""smooth"",""right"",""right"",""good_move"",11671.4,6358.1,3105.2,8119.3,446.9,""smooth"",""up"",""up"",""good_move"",14338.4,2666.5,2125.5,11671.9,541.2,""smooth"",""up"",""up"",""good_move"",21036.2,6697.3,2857.8,17694.3,484.1,""smooth"",""right"",""right"",""good_move"",23743.3,2706.6,1940.1,21036.7,766.5,""smooth"",""up"",""up"",""good_move"",33399.3,9655.7,2492.3,30528.6,378.4,""smooth"",""right"",""right"",""good_move""]","",""
"2931","","<div style=""width:500px;"">
  <p>What determined the result of this run?</p>
  </div>","100","html-slider-response","10","170431","0.0-5.0-1.0","93","1","2025-07-16 09:41:52","1f75c3e559b7213887762d5229550c2b","84.67.40.4","Mozilla/5.0 (Macintosh; Intel Mac OS X 10_15_7) AppleWebKit/537.36 (KHTML, like Gecko) Chrome/138.0.0.0 Safari/537.36","Macintosh","Chrome","138.0.0.0","OS X","10_15_7","https://app.prolific.com/","en-GB,en-US;q=0.9,en;q=0.8","6658ba167affbe300577b93d","68764874ac79eee8c1d4cb03","687773dab44b46fc0fe93db0","2","0","6658ba167affbe300577b93d","2","0","2025-07-16T09:44:45.715Z","","","","","","","","","","","AttribQ","","50","","","","","","","","","","","","","","","","","","","","","","","","","","","","",""
"2534","","<div style=""width:500px;"">
  <p>How much control did you have over the ball?</p>
  </div>","100","html-slider-response","11","172967","0.0-5.0-2.0","93","1","2025-07-16 09:41:52","1f75c3e559b7213887762d5229550c2b","84.67.40.4","Mozilla/5.0 (Macintosh; Intel Mac OS X 10_15_7) AppleWebKit/537.36 (KHTML, like Gecko) Chrome/138.0.0.0 Safari/537.36","Macintosh","Chrome","138.0.0.0","OS X","10_15_7","https://app.prolific.com/","en-GB,en-US;q=0.9,en;q=0.8","6658ba167affbe300577b93d","68764874ac79eee8c1d4cb03","687773dab44b46fc0fe93db0","2","0","6658ba167affbe300577b93d","2","0","2025-07-16T09:44:48.251Z","","","","","","","","","","","ControlQ","","50","","","","","","","","","","","","","","","","","","","","","","","","","","","","",""
"3203","","<div style=""width:500px;"">
  <p>How would you describe your current emotional state?</p>
  </div>","23","html-slider-response","12","176172","0.0-5.0-3.0","93","1","2025-07-16 09:41:52","1f75c3e559b7213887762d5229550c2b","84.67.40.4","Mozilla/5.0 (Macintosh; Intel Mac OS X 10_15_7) AppleWebKit/537.36 (KHTML, like Gecko) Chrome/138.0.0.0 Safari/537.36","Macintosh","Chrome","138.0.0.0","OS X","10_15_7","https://app.prolific.com/","en-GB,en-US;q=0.9,en;q=0.8","6658ba167affbe300577b93d","68764874ac79eee8c1d4cb03","687773dab44b46fc0fe93db0","2","0","6658ba167affbe300577b93d","2","0","2025-07-16T09:44:51.456Z","","","","","","","","","","","StressQ","","50","","","","","","","","","","","","","","","","","","","","","","","","","","","","",""
"2411","","<div style=""width:500px;"">
  <p>What best describes how you currently feel?</p>
  </div>","88","html-slider-response","13","178585","0.0-5.0-4.0","93","1","2025-07-16 09:41:52","1f75c3e559b7213887762d5229550c2b","84.67.40.4","Mozilla/5.0 (Macintosh; Intel Mac OS X 10_15_7) AppleWebKit/537.36 (KHTML, like Gecko) Chrome/138.0.0.0 Safari/537.36","Macintosh","Chrome","138.0.0.0","OS X","10_15_7","https://app.prolific.com/","en-GB,en-US;q=0.9,en;q=0.8","6658ba167affbe300577b93d","68764874ac79eee8c1d4cb03","687773dab44b46fc0fe93db0","2","0","6658ba167affbe300577b93d","2","0","2025-07-16T09:44:53.869Z","","","","","","","","","","","MotivationQ","","50","","","","","","","","","","","","","","","","","","","","","","","","","","","","",""
"","","","","ctl-task-cpt","14","212293","0.0-5.0-0.1","93","1","2025-07-16 09:41:52","1f75c3e559b7213887762d5229550c2b","84.67.40.4","Mozilla/5.0 (Macintosh; Intel Mac OS X 10_15_7) AppleWebKit/537.36 (KHTML, like Gecko) Chrome/138.0.0.0 Safari/537.36","Macintosh","Chrome","138.0.0.0","OS X","10_15_7","https://app.prolific.com/","en-GB,en-US;q=0.9,en;q=0.8","6658ba167affbe300577b93d","68764874ac79eee8c1d4cb03","687773dab44b46fc0fe93db0","2","0","6658ba167affbe300577b93d","2","0","2025-07-16T09:45:27.578Z","","","","","","","","","","","","","","win-only","1","g1:NE,g2:SW","0.9","2","0","181324.4","1612.7","6621.7","30696.9","1","4","8","6","2","8","8","12","4","0.09090909090909091","1347.3","3000","605","[""down"",""left""]","{""num_key_presses"":6,""num_perfect"":6,""num_errors"":0,""num_randdir"":0,""num_randdir_good_moves"":0,""num_whilered"":0,""num_whileblue"":0,""num_blue"":3,""num_good_moves"":6}","[696.2857142857143,692.0825892857143,0.1,696.2857142857143,694.0825892857143,101.2,696.2857142857143,694.0825892857143,206.7,696.2857142857143,694.0825892857143,308,696.2857142857143,694.0825892857143,408.3,696.2857142857143,694.0825892857143,509.3,696.2857142857143,694.0825892857143,613.4,696.2857142857143,694.0825892857143,714,696.2857142857143,694.0825892857143,821.4,266.2857142857143,1070.0825892857142,923.9,-17.714285714285708,1242.0825892857142,1025.8,-23.714285714285708,1256.0825892857142,1130,44.28571428571429,1264.0825892857142,1239,100.28571428571429,1258.0825892857142,1339.5,102.28571428571429,1258.0825892857142,1444.2,102.28571428571429,1258.0825892857142,1551.5,102.28571428571429,1258.0825892857142,1652.1,102.28571428571429,1258.0825892857142,1752.2,102.28571428571429,1258.0825892857142,1853.2,102.28571428571429,1258.0825892857142,1958.9,102.28571428571429,1258.0825892857142,2064.3,102.28571428571429,1258.0825892857142,2165.8,102.28571428571429,1258.0825892857142,2265.8,102.28571428571429,1258.0825892857142,2368.1,102.28571428571429,1258.0825892857142,2468.8,102.28571428571429,1258.0825892857142,2569.1,102.28571428571429,1258.0825892857142,2673.8,102.28571428571429,1258.0825892857142,2774,102.28571428571429,1258.0825892857142,2883.1,102.28571428571429,1258.0825892857142,2986.4,102.28571428571429,1258.0825892857142,3088.4,102.28571428571429,1258.0825892857142,3198.6,102.28571428571429,1258.0825892857142,3298.8,102.28571428571429,1258.0825892857142,3404,102.28571428571429,1258.0825892857142,3510.7,102.28571428571429,1258.0825892857142,3613.3,102.28571428571429,1258.0825892857142,3714.5,102.28571428571429,1258.0825892857142,3819.1,102.28571428571429,1258.0825892857142,3927.7,102.28571428571429,1258.0825892857142,4031.4,102.28571428571429,1258.0825892857142,4133.5,102.28571428571429,1258.0825892857142,4234.1,102.28571428571429,1258.0825892857142,4342.3,102.28571428571429,1258.0825892857142,4444.6,102.28571428571429,1258.0825892857142,4547.7,102.28571428571429,1258.0825892857142,4649.4,102.28571428571429,1258.0825892857142,4753.1,102.28571428571429,1258.0825892857142,4854.3,102.28571428571429,1258.0825892857142,4955.9]","[1501.3,1501.3,1000,0,501.3,""smooth"",""down"",""down"",""good_move"",4449.1,2947.5,2567,1501.6,380.5,""smooth"",""down"",""down"",""good_move"",9241.4,4791.8,1519.9,7354.5,367,""smooth"",""down"",""down"",""good_move"",12883,3641.3,3189.3,9241.7,452,""smooth"",""left"",""left"",""good_move"",14618.7,1735.5,1223.2,12883.4,512.2,""smooth"",""left"",""left"",""good_move"",23986,9366.7,2634.8,20959.7,391.5,""smooth"",""left"",""left"",""good_move""]","",""
"2272","","<div style=""width:500px;"">
  <p>What determined the result of this run?</p>
  </div>","100","html-slider-response","15","214568","0.0-5.0-1.1","93","1","2025-07-16 09:41:52","1f75c3e559b7213887762d5229550c2b","84.67.40.4","Mozilla/5.0 (Macintosh; Intel Mac OS X 10_15_7) AppleWebKit/537.36 (KHTML, like Gecko) Chrome/138.0.0.0 Safari/537.36","Macintosh","Chrome","138.0.0.0","OS X","10_15_7","https://app.prolific.com/","en-GB,en-US;q=0.9,en;q=0.8","6658ba167affbe300577b93d","68764874ac79eee8c1d4cb03","687773dab44b46fc0fe93db0","2","0","6658ba167affbe300577b93d","2","0","2025-07-16T09:45:29.852Z","","","","","","","","","","","AttribQ","","50","","","","","","","","","","","","","","","","","","","","","","","","","","","","",""
"3052","","<div style=""width:500px;"">
  <p>How much control did you have over the ball?</p>
  </div>","100","html-slider-response","16","217622","0.0-5.0-2.1","93","1","2025-07-16 09:41:52","1f75c3e559b7213887762d5229550c2b","84.67.40.4","Mozilla/5.0 (Macintosh; Intel Mac OS X 10_15_7) AppleWebKit/537.36 (KHTML, like Gecko) Chrome/138.0.0.0 Safari/537.36","Macintosh","Chrome","138.0.0.0","OS X","10_15_7","https://app.prolific.com/","en-GB,en-US;q=0.9,en;q=0.8","6658ba167affbe300577b93d","68764874ac79eee8c1d4cb03","687773dab44b46fc0fe93db0","2","0","6658ba167affbe300577b93d","2","0","2025-07-16T09:45:32.906Z","","","","","","","","","","","ControlQ","","50","","","","","","","","","","","","","","","","","","","","","","","","","","","","",""
"2372","","<div style=""width:500px;"">
  <p>How would you describe your current emotional state?</p>
  </div>","21","html-slider-response","17","219996","0.0-5.0-3.1","93","1","2025-07-16 09:41:52","1f75c3e559b7213887762d5229550c2b","84.67.40.4","Mozilla/5.0 (Macintosh; Intel Mac OS X 10_15_7) AppleWebKit/537.36 (KHTML, like Gecko) Chrome/138.0.0.0 Safari/537.36","Macintosh","Chrome","138.0.0.0","OS X","10_15_7","https://app.prolific.com/","en-GB,en-US;q=0.9,en;q=0.8","6658ba167affbe300577b93d","68764874ac79eee8c1d4cb03","687773dab44b46fc0fe93db0","2","0","6658ba167affbe300577b93d","2","0","2025-07-16T09:45:35.280Z","","","","","","","","","","","StressQ","","50","","","","","","","","","","","","","","","","","","","","","","","","","","","","",""
"2084","","<div style=""width:500px;"">
  <p>What best describes how you currently feel?</p>
  </div>","90","html-slider-response","18","222082","0.0-5.0-4.1","93","1","2025-07-16 09:41:52","1f75c3e559b7213887762d5229550c2b","84.67.40.4","Mozilla/5.0 (Macintosh; Intel Mac OS X 10_15_7) AppleWebKit/537.36 (KHTML, like Gecko) Chrome/138.0.0.0 Safari/537.36","Macintosh","Chrome","138.0.0.0","OS X","10_15_7","https://app.prolific.com/","en-GB,en-US;q=0.9,en;q=0.8","6658ba167affbe300577b93d","68764874ac79eee8c1d4cb03","687773dab44b46fc0fe93db0","2","0","6658ba167affbe300577b93d","2","0","2025-07-16T09:45:37.367Z","","","","","","","","","","","MotivationQ","","50","","","","","","","","","","","","","","","","","","","","","","","","","","","","",""
"","","","","ctl-task-cpt","19","246773","0.0-5.0-0.2","93","1","2025-07-16 09:41:52","1f75c3e559b7213887762d5229550c2b","84.67.40.4","Mozilla/5.0 (Macintosh; Intel Mac OS X 10_15_7) AppleWebKit/537.36 (KHTML, like Gecko) Chrome/138.0.0.0 Safari/537.36","Macintosh","Chrome","138.0.0.0","OS X","10_15_7","https://app.prolific.com/","en-GB,en-US;q=0.9,en;q=0.8","6658ba167affbe300577b93d","68764874ac79eee8c1d4cb03","687773dab44b46fc0fe93db0","2","0","6658ba167affbe300577b93d","2","0","2025-07-16T09:46:02.057Z","","","","","","","","","","","","","","win-only","1","g1:NE,g2:SW","0.8","3","0","224823.4","897.9","5898.7","21672.9","1","4","4","6","2","4","4","16","12","0.12121212121212122","1598.9","3000","1080","[""down"",""left""]","{""num_key_presses"":6,""num_perfect"":5,""num_errors"":0,""num_randdir"":1,""num_randdir_good_moves"":1,""num_whilered"":0,""num_whileblue"":0,""num_blue"":0,""num_good_moves"":6}","[692.2857142857143,688.0825892857143,0.3,692.2857142857143,688.0825892857143,110.8,692.2857142857143,688.0825892857143,214.1,692.2857142857143,688.0825892857143,314.2,692.2857142857143,688.0825892857143,418.9,692.2857142857143,688.0825892857143,519.9,692.2857142857143,688.0825892857143,624.3,692.2857142857143,688.0825892857143,728.8,692.2857142857143,688.0825892857143,829.5,692.2857142857143,688.0825892857143,940.1,576.2857142857143,818.0825892857143,1040.2,122.28571428571429,1364.0825892857142,1142.2,70.28571428571429,1428.0825892857142,1246.5,58.28571428571429,1374.0825892857142,1350.1,174.28571428571428,1256.0825892857142,1458.7,174.28571428571428,1254.0825892857142,1559.6,174.28571428571428,1254.0825892857142,1664.6,174.28571428571428,1254.0825892857142,1764.8,174.28571428571428,1254.0825892857142,1868.7,174.28571428571428,1254.0825892857142,1974.2,174.28571428571428,1254.0825892857142,2074.7,174.28571428571428,1254.0825892857142,2175.6,174.28571428571428,1254.0825892857142,2280.1,174.28571428571428,1254.0825892857142,2383.8,174.28571428571428,1254.0825892857142,2489.3,174.28571428571428,1254.0825892857142,2603.5,174.28571428571428,1254.0825892857142,2709.7,174.28571428571428,1254.0825892857142,2809.7,174.28571428571428,1254.0825892857142,2909.8,174.28571428571428,1254.0825892857142,3014.2,174.28571428571428,1254.0825892857142,3118.2,174.28571428571428,1254.0825892857142,3220.1,174.28571428571428,1254.0825892857142,3324.8,174.28571428571428,1254.0825892857142,3429,174.28571428571428,1254.0825892857142,3533,174.28571428571428,1254.0825892857142,3633.2,174.28571428571428,1254.0825892857142,3733.3,174.28571428571428,1254.0825892857142,3834.8,174.28571428571428,1254.0825892857142,3939.7,174.28571428571428,1254.0825892857142,4040.1,174.28571428571428,1254.0825892857142,4144.9,174.28571428571428,1254.0825892857142,4252,174.28571428571428,1254.0825892857142,4355.4,174.28571428571428,1254.0825892857142,4456.9,174.28571428571428,1254.0825892857142,4561.3,174.28571428571428,1254.0825892857142,4668.5,174.28571428571428,1254.0825892857142,4768.7,174.28571428571428,1254.0825892857142,4869.2,174.28571428571428,1254.0825892857142,4973.5]","[1413.2,1413.2,1000,0,413.2,""smooth"",""down"",""down"",""good_move"",3591.1,2177.3,1780.7,1413.8,396.6,""smooth"",""down"",""down"",""good_move"",7023.5,3430.3,2998.1,3593.2,432.2,""smooth"",""down"",""down"",""good_move"",10087,3062.9,2667.1,7024.1,395.8,""smooth"",""left"",""left"",""good_move"",12539.9,2452.5,2053.8,10087.4,398.7,""smooth"",""left"",""left"",""good_move"",15660.5,3120.4,2719.4,12540.1,401,""oops"",""left"",""left"",""good_move""]","",""
"3845","","<div style=""width:500px;"">
  <p>What determined the result of this run?</p>
  </div>","100","html-slider-response","20","250619","0.0-5.0-1.2","93","1","2025-07-16 09:41:52","1f75c3e559b7213887762d5229550c2b","84.67.40.4","Mozilla/5.0 (Macintosh; Intel Mac OS X 10_15_7) AppleWebKit/537.36 (KHTML, like Gecko) Chrome/138.0.0.0 Safari/537.36","Macintosh","Chrome","138.0.0.0","OS X","10_15_7","https://app.prolific.com/","en-GB,en-US;q=0.9,en;q=0.8","6658ba167affbe300577b93d","68764874ac79eee8c1d4cb03","687773dab44b46fc0fe93db0","2","0","6658ba167affbe300577b93d","2","0","2025-07-16T09:46:05.903Z","","","","","","","","","","","AttribQ","","50","","","","","","","","","","","","","","","","","","","","","","","","","","","","",""
"2390","","<div style=""width:500px;"">
  <p>How much control did you have over the ball?</p>
  </div>","100","html-slider-response","21","253011","0.0-5.0-2.2","93","1","2025-07-16 09:41:52","1f75c3e559b7213887762d5229550c2b","84.67.40.4","Mozilla/5.0 (Macintosh; Intel Mac OS X 10_15_7) AppleWebKit/537.36 (KHTML, like Gecko) Chrome/138.0.0.0 Safari/537.36","Macintosh","Chrome","138.0.0.0","OS X","10_15_7","https://app.prolific.com/","en-GB,en-US;q=0.9,en;q=0.8","6658ba167affbe300577b93d","68764874ac79eee8c1d4cb03","687773dab44b46fc0fe93db0","2","0","6658ba167affbe300577b93d","2","0","2025-07-16T09:46:08.295Z","","","","","","","","","","","ControlQ","","50","","","","","","","","","","","","","","","","","","","","","","","","","","","","",""
"2776","","<div style=""width:500px;"">
  <p>How would you describe your current emotional state?</p>
  </div>","25","html-slider-response","22","255789","0.0-5.0-3.2","93","1","2025-07-16 09:41:52","1f75c3e559b7213887762d5229550c2b","84.67.40.4","Mozilla/5.0 (Macintosh; Intel Mac OS X 10_15_7) AppleWebKit/537.36 (KHTML, like Gecko) Chrome/138.0.0.0 Safari/537.36","Macintosh","Chrome","138.0.0.0","OS X","10_15_7","https://app.prolific.com/","en-GB,en-US;q=0.9,en;q=0.8","6658ba167affbe300577b93d","68764874ac79eee8c1d4cb03","687773dab44b46fc0fe93db0","2","0","6658ba167affbe300577b93d","2","0","2025-07-16T09:46:11.073Z","","","","","","","","","","","StressQ","","50","","","","","","","","","","","","","","","","","","","","","","","","","","","","",""
"2490","","<div style=""width:500px;"">
  <p>What best describes how you currently feel?</p>
  </div>","86","html-slider-response","23","258280","0.0-5.0-4.2","93","1","2025-07-16 09:41:52","1f75c3e559b7213887762d5229550c2b","84.67.40.4","Mozilla/5.0 (Macintosh; Intel Mac OS X 10_15_7) AppleWebKit/537.36 (KHTML, like Gecko) Chrome/138.0.0.0 Safari/537.36","Macintosh","Chrome","138.0.0.0","OS X","10_15_7","https://app.prolific.com/","en-GB,en-US;q=0.9,en;q=0.8","6658ba167affbe300577b93d","68764874ac79eee8c1d4cb03","687773dab44b46fc0fe93db0","2","0","6658ba167affbe300577b93d","2","0","2025-07-16T09:46:13.565Z","","","","","","","","","","","MotivationQ","","50","","","","","","","","","","","","","","","","","","","","","","","","","","","","",""
"","","","","ctl-task-cpt","24","288893","0.0-5.0-0.3","93","1","2025-07-16 09:41:52","1f75c3e559b7213887762d5229550c2b","84.67.40.4","Mozilla/5.0 (Macintosh; Intel Mac OS X 10_15_7) AppleWebKit/537.36 (KHTML, like Gecko) Chrome/138.0.0.0 Safari/537.36","Macintosh","Chrome","138.0.0.0","OS X","10_15_7","https://app.prolific.com/","en-GB,en-US;q=0.9,en;q=0.8","6658ba167affbe300577b93d","68764874ac79eee8c1d4cb03","687773dab44b46fc0fe93db0","2","0","6658ba167affbe300577b93d","2","0","2025-07-16T09:46:44.177Z","","","","","","","","","","","","","","win-only","1","g1:NE,g2:SW","0.7","4","0","261019.3","984.3","5988.4","27598.7","1","4","8","6","2","8","8","24","16","0.18181818181818182","1695.1","3000","825","[""down"",""left""]","{""num_key_presses"":8,""num_perfect"":5,""num_errors"":0,""num_randdir"":3,""num_randdir_good_moves"":2,""num_whilered"":0,""num_whileblue"":0,""num_blue"":0,""num_good_moves"":7}","[694.2857142857143,686.0825892857143,0.3,694.2857142857143,686.0825892857143,103,694.2857142857143,686.0825892857143,208.4,694.2857142857143,686.0825892857143,313.4,694.2857142857143,686.0825892857143,429.4,694.2857142857143,686.0825892857143,540.2,694.2857142857143,686.0825892857143,642,694.2857142857143,686.0825892857143,742.9,694.2857142857143,686.0825892857143,848.7,694.2857142857143,686.0825892857143,954.1,402.2857142857143,820.0825892857143,1054.1,-45.71428571428571,1134.0825892857142,1158.9,-27.714285714285708,1190.0825892857142,1261.5,138.28571428571428,1250.0825892857142,1367.5,190.28571428571428,1250.0825892857142,1471.5,190.28571428571428,1252.0825892857142,1580.5,190.28571428571428,1252.0825892857142,1687.7,190.28571428571428,1252.0825892857142,1788.3,190.28571428571428,1252.0825892857142,1889.7,190.28571428571428,1252.0825892857142,1992.2,190.28571428571428,1252.0825892857142,2104.5,190.28571428571428,1252.0825892857142,2207.5,190.28571428571428,1252.0825892857142,2308.6,190.28571428571428,1252.0825892857142,2409.8,190.28571428571428,1252.0825892857142,2517.8,190.28571428571428,1252.0825892857142,2619.6,190.28571428571428,1252.0825892857142,2723.4,190.28571428571428,1252.0825892857142,2833.1,190.28571428571428,1252.0825892857142,2936.2,190.28571428571428,1252.0825892857142,3041.5,190.28571428571428,1252.0825892857142,3143.6,190.28571428571428,1252.0825892857142,3251.6,190.28571428571428,1252.0825892857142,3356.2,190.28571428571428,1252.0825892857142,3457.6,190.28571428571428,1252.0825892857142,3566.2,190.28571428571428,1252.0825892857142,3669.4,190.28571428571428,1252.0825892857142,3771.6,190.28571428571428,1252.0825892857142,3873.6,190.28571428571428,1252.0825892857142,3983.8,190.28571428571428,1252.0825892857142,4087.8,190.28571428571428,1252.0825892857142,4195,190.28571428571428,1252.0825892857142,4304.2,190.28571428571428,1252.0825892857142,4407.3,190.28571428571428,1252.0825892857142,4514.3,190.28571428571428,1252.0825892857142,4617.9,190.28571428571428,1252.0825892857142,4727.9,190.28571428571428,1252.0825892857142,4830.8,190.28571428571428,1252.0825892857142,4935.7]","[1419.3,1419.3,1000,0,419.3,""smooth"",""down"",""down"",""good_move"",5119.6,3699.8,3273.4,1419.8,426.5,""smooth"",""down"",""down"",""good_move"",7986.9,2867,2460.8,5119.9,406.2,""smooth"",""down"",""down"",""good_move"",10432.4,2445.3,2019.1,7987.1,426.2,""smooth"",""left"",""left"",""good_move"",13193.6,2760.9,2435.3,10432.7,325.6,""smooth"",""left"",""left"",""good_move"",16020.8,2826.9,2469.2,13193.9,357.7,""oops"",""left"",""up"",""bad_move"",19034,3012.9,2597.1,16021.1,415.8,""oops"",""left"",""down"",""good_move"",21478.7,2444.3,2118.5,19034.4,325.8,""oops"",""left"",""left"",""good_move""]","",""
"2918","","<div style=""width:500px;"">
  <p>What determined the result of this run?</p>
  </div>","91","html-slider-response","25","291813","0.0-5.0-1.3","93","1","2025-07-16 09:41:52","1f75c3e559b7213887762d5229550c2b","84.67.40.4","Mozilla/5.0 (Macintosh; Intel Mac OS X 10_15_7) AppleWebKit/537.36 (KHTML, like Gecko) Chrome/138.0.0.0 Safari/537.36","Macintosh","Chrome","138.0.0.0","OS X","10_15_7","https://app.prolific.com/","en-GB,en-US;q=0.9,en;q=0.8","6658ba167affbe300577b93d","68764874ac79eee8c1d4cb03","687773dab44b46fc0fe93db0","2","0","6658ba167affbe300577b93d","2","0","2025-07-16T09:46:47.097Z","","","","","","","","","","","AttribQ","","50","","","","","","","","","","","","","","","","","","","","","","","","","","","","",""
"2847","","<div style=""width:500px;"">
  <p>How much control did you have over the ball?</p>
  </div>","92","html-slider-response","26","294663","0.0-5.0-2.3","93","1","2025-07-16 09:41:52","1f75c3e559b7213887762d5229550c2b","84.67.40.4","Mozilla/5.0 (Macintosh; Intel Mac OS X 10_15_7) AppleWebKit/537.36 (KHTML, like Gecko) Chrome/138.0.0.0 Safari/537.36","Macintosh","Chrome","138.0.0.0","OS X","10_15_7","https://app.prolific.com/","en-GB,en-US;q=0.9,en;q=0.8","6658ba167affbe300577b93d","68764874ac79eee8c1d4cb03","687773dab44b46fc0fe93db0","2","0","6658ba167affbe300577b93d","2","0","2025-07-16T09:46:49.947Z","","","","","","","","","","","ControlQ","","50","","","","","","","","","","","","","","","","","","","","","","","","","","","","",""
"2180","","<div style=""width:500px;"">
  <p>How would you describe your current emotional state?</p>
  </div>","21","html-slider-response","27","296845","0.0-5.0-3.3","93","1","2025-07-16 09:41:52","1f75c3e559b7213887762d5229550c2b","84.67.40.4","Mozilla/5.0 (Macintosh; Intel Mac OS X 10_15_7) AppleWebKit/537.36 (KHTML, like Gecko) Chrome/138.0.0.0 Safari/537.36","Macintosh","Chrome","138.0.0.0","OS X","10_15_7","https://app.prolific.com/","en-GB,en-US;q=0.9,en;q=0.8","6658ba167affbe300577b93d","68764874ac79eee8c1d4cb03","687773dab44b46fc0fe93db0","2","0","6658ba167affbe300577b93d","2","0","2025-07-16T09:46:52.129Z","","","","","","","","","","","StressQ","","50","","","","","","","","","","","","","","","","","","","","","","","","","","","","",""
"2166","","<div style=""width:500px;"">
  <p>What best describes how you currently feel?</p>
  </div>","83","html-slider-response","28","299013","0.0-5.0-4.3","93","1","2025-07-16 09:41:52","1f75c3e559b7213887762d5229550c2b","84.67.40.4","Mozilla/5.0 (Macintosh; Intel Mac OS X 10_15_7) AppleWebKit/537.36 (KHTML, like Gecko) Chrome/138.0.0.0 Safari/537.36","Macintosh","Chrome","138.0.0.0","OS X","10_15_7","https://app.prolific.com/","en-GB,en-US;q=0.9,en;q=0.8","6658ba167affbe300577b93d","68764874ac79eee8c1d4cb03","687773dab44b46fc0fe93db0","2","0","6658ba167affbe300577b93d","2","0","2025-07-16T09:46:54.297Z","","","","","","","","","","","MotivationQ","","50","","","","","","","","","","","","","","","","","","","","","","","","","","","","",""
"","","","","ctl-task-cpt","29","329390","0.0-5.0-0.4","93","1","2025-07-16 09:41:52","1f75c3e559b7213887762d5229550c2b","84.67.40.4","Mozilla/5.0 (Macintosh; Intel Mac OS X 10_15_7) AppleWebKit/537.36 (KHTML, like Gecko) Chrome/138.0.0.0 Safari/537.36","Macintosh","Chrome","138.0.0.0","OS X","10_15_7","https://app.prolific.com/","en-GB,en-US;q=0.9,en;q=0.8","6658ba167affbe300577b93d","68764874ac79eee8c1d4cb03","687773dab44b46fc0fe93db0","2","0","6658ba167affbe300577b93d","2","0","2025-07-16T09:47:24.675Z","","","","","","","","","","","","","","win-only","1","g1:NE,g2:SW","0.6","5","0","301749.6","973.2","5974.4","27343.3","1","4","8","6","2","8","8","32","24","0.24242424242424243","1067.3","3000","1625","[""down"",""left""]","{""num_key_presses"":6,""num_perfect"":5,""num_errors"":0,""num_randdir"":1,""num_randdir_good_moves"":1,""num_whilered"":0,""num_whileblue"":0,""num_blue"":1,""num_good_moves"":6}","[698.2857142857143,694.0825892857143,5.8,698.2857142857143,694.0825892857143,102.8,698.2857142857143,694.0825892857143,209.3,698.2857142857143,694.0825892857143,321,698.2857142857143,694.0825892857143,432.6,698.2857142857143,694.0825892857143,534.5,638.2857142857143,772.0825892857143,641.5,192.28571428571428,1244.0825892857142,745.3,140.28571428571428,1332.0825892857142,855.1,128.28571428571428,1318.0825892857142,963.3,124.28571428571429,1294.0825892857142,1066,124.28571428571429,1294.0825892857142,1166.5,124.28571428571429,1294.0825892857142,1268.2,124.28571428571429,1294.0825892857142,1375.5,124.28571428571429,1294.0825892857142,1476.1,124.28571428571429,1294.0825892857142,1582.6,124.28571428571429,1294.0825892857142,1696.4,124.28571428571429,1294.0825892857142,1802.7,124.28571428571429,1294.0825892857142,1910.2,124.28571428571429,1294.0825892857142,2017.4,124.28571428571429,1294.0825892857142,2126.5,124.28571428571429,1294.0825892857142,2227.7,124.28571428571429,1294.0825892857142,2327.9,124.28571428571429,1294.0825892857142,2432.8,124.28571428571429,1294.0825892857142,2543.5,124.28571428571429,1294.0825892857142,2645.1,124.28571428571429,1294.0825892857142,2748.5,124.28571428571429,1294.0825892857142,2855.6,124.28571428571429,1294.0825892857142,2957.6,124.28571428571429,1294.0825892857142,3059.3,124.28571428571429,1294.0825892857142,3162.4,124.28571428571429,1294.0825892857142,3263.5,124.28571428571429,1294.0825892857142,3377.9,124.28571428571429,1294.0825892857142,3478.7,124.28571428571429,1294.0825892857142,3578.8,124.28571428571429,1294.0825892857142,3681.9,124.28571428571429,1294.0825892857142,3789.6,124.28571428571429,1294.0825892857142,3894.7,124.28571428571429,1294.0825892857142,4004.1,124.28571428571429,1294.0825892857142,4107.4,124.28571428571429,1294.0825892857142,4211,124.28571428571429,1294.0825892857142,4320.7,124.28571428571429,1294.0825892857142,4420.9,124.28571428571429,1294.0825892857142,4523.1,124.28571428571429,1294.0825892857142,4630.9,124.28571428571429,1294.0825892857142,4734.4,124.28571428571429,1294.0825892857142,4838.8,124.28571428571429,1294.0825892857142,4942.3]","[1396.9,1396.9,1000,0,397,""smooth"",""down"",""down"",""good_move"",5574.6,4178,3735.1,1397.3,442.9,""smooth"",""down"",""down"",""good_move"",12534.9,6956.6,2738.4,9417.9,378.6,""oops"",""down"",""left"",""good_move"",15052.3,2516.8,1930.4,12535.5,586.4,""smooth"",""down"",""down"",""good_move"",17944.3,2891.8,2365,15052.5,526.8,""smooth"",""left"",""left"",""good_move"",21190.9,3245.2,2802.7,17945.7,442.5,""smooth"",""left"",""left"",""good_move""]","",""
"4844","","<div style=""width:500px;"">
  <p>What determined the result of this run?</p>
  </div>","95","html-slider-response","30","334236","0.0-5.0-1.4","93","1","2025-07-16 09:41:52","1f75c3e559b7213887762d5229550c2b","84.67.40.4","Mozilla/5.0 (Macintosh; Intel Mac OS X 10_15_7) AppleWebKit/537.36 (KHTML, like Gecko) Chrome/138.0.0.0 Safari/537.36","Macintosh","Chrome","138.0.0.0","OS X","10_15_7","https://app.prolific.com/","en-GB,en-US;q=0.9,en;q=0.8","6658ba167affbe300577b93d","68764874ac79eee8c1d4cb03","687773dab44b46fc0fe93db0","2","0","6658ba167affbe300577b93d","2","0","2025-07-16T09:47:29.520Z","","","","","","","","","","","AttribQ","","50","","","","","","","","","","","","","","","","","","","","","","","","","","","","",""
"1579","","<div style=""width:500px;"">
  <p>How much control did you have over the ball?</p>
  </div>","94","html-slider-response","31","335817","0.0-5.0-2.4","93","1","2025-07-16 09:41:52","1f75c3e559b7213887762d5229550c2b","84.67.40.4","Mozilla/5.0 (Macintosh; Intel Mac OS X 10_15_7) AppleWebKit/537.36 (KHTML, like Gecko) Chrome/138.0.0.0 Safari/537.36","Macintosh","Chrome","138.0.0.0","OS X","10_15_7","https://app.prolific.com/","en-GB,en-US;q=0.9,en;q=0.8","6658ba167affbe300577b93d","68764874ac79eee8c1d4cb03","687773dab44b46fc0fe93db0","2","0","6658ba167affbe300577b93d","2","0","2025-07-16T09:47:31.101Z","","","","","","","","","","","ControlQ","","50","","","","","","","","","","","","","","","","","","","","","","","","","","","","",""
"2026","","<div style=""width:500px;"">
  <p>How would you describe your current emotional state?</p>
  </div>","24","html-slider-response","32","337844","0.0-5.0-3.4","93","1","2025-07-16 09:41:52","1f75c3e559b7213887762d5229550c2b","84.67.40.4","Mozilla/5.0 (Macintosh; Intel Mac OS X 10_15_7) AppleWebKit/537.36 (KHTML, like Gecko) Chrome/138.0.0.0 Safari/537.36","Macintosh","Chrome","138.0.0.0","OS X","10_15_7","https://app.prolific.com/","en-GB,en-US;q=0.9,en;q=0.8","6658ba167affbe300577b93d","68764874ac79eee8c1d4cb03","687773dab44b46fc0fe93db0","2","0","6658ba167affbe300577b93d","2","0","2025-07-16T09:47:33.128Z","","","","","","","","","","","StressQ","","50","","","","","","","","","","","","","","","","","","","","","","","","","","","","",""
"1649","","<div style=""width:500px;"">
  <p>What best describes how you currently feel?</p>
  </div>","81","html-slider-response","33","339495","0.0-5.0-4.4","93","1","2025-07-16 09:41:52","1f75c3e559b7213887762d5229550c2b","84.67.40.4","Mozilla/5.0 (Macintosh; Intel Mac OS X 10_15_7) AppleWebKit/537.36 (KHTML, like Gecko) Chrome/138.0.0.0 Safari/537.36","Macintosh","Chrome","138.0.0.0","OS X","10_15_7","https://app.prolific.com/","en-GB,en-US;q=0.9,en;q=0.8","6658ba167affbe300577b93d","68764874ac79eee8c1d4cb03","687773dab44b46fc0fe93db0","2","0","6658ba167affbe300577b93d","2","0","2025-07-16T09:47:34.779Z","","","","","","","","","","","MotivationQ","","50","","","","","","","","","","","","","","","","","","","","","","","","","","","","",""
"","","","","ctl-task-cpt","34","421942","0.0-5.0-0.5","93","1","2025-07-16 09:41:52","1f75c3e559b7213887762d5229550c2b","84.67.40.4","Mozilla/5.0 (Macintosh; Intel Mac OS X 10_15_7) AppleWebKit/537.36 (KHTML, like Gecko) Chrome/138.0.0.0 Safari/537.36","Macintosh","Chrome","138.0.0.0","OS X","10_15_7","https://app.prolific.com/","en-GB,en-US;q=0.9,en;q=0.8","6658ba167affbe300577b93d","68764874ac79eee8c1d4cb03","687773dab44b46fc0fe93db0","2","0","6658ba167affbe300577b93d","2","0","2025-07-16T09:48:57.227Z","","","","","","","","","","","","","","win-only","2","g1:SE,g2:NW","0.5","6","0","342230.6","1187.8","6192.8","79433","1","4","4","6","2","-4","-4","28","32","0.21212121212121213","1897.8","3000","-1335","[""left"",""up""]","{""num_key_presses"":16,""num_perfect"":7,""num_errors"":0,""num_randdir"":9,""num_randdir_good_moves"":3,""num_whilered"":0,""num_whileblue"":0,""num_blue"":7,""num_good_moves"":10}","[688.2857142857143,696.0825892857143,0.6,688.2857142857143,696.0825892857143,100.1,688.2857142857143,696.0825892857143,200.6,688.2857142857143,696.0825892857143,300.7,688.2857142857143,696.0825892857143,411.4,688.2857142857143,696.0825892857143,512.8,688.2857142857143,696.0825892857143,620.6,688.2857142857143,696.0825892857143,734.8,688.2857142857143,696.0825892857143,835.6,660.2857142857143,674.0825892857143,953.7,206.28571428571428,328.0825892857143,1069.3,86.28571428571429,162.08258928571428,1172.2,86.28571428571429,162.08258928571428,1280.7,106.28571428571429,140.08258928571428,1390.4,160.28571428571428,92.08258928571429,1496.1,160.28571428571428,92.08258928571429,1600.6,160.28571428571428,92.08258928571429,1707.4,160.28571428571428,92.08258928571429,1811.5,160.28571428571428,92.08258928571429,1916.7,160.28571428571428,92.08258928571429,2019.3,160.28571428571428,92.08258928571429,2132.9,160.28571428571428,92.08258928571429,2235.9,160.28571428571428,92.08258928571429,2356.4,160.28571428571428,92.08258928571429,2459.9,160.28571428571428,92.08258928571429,2564.6,160.28571428571428,92.08258928571429,2670.6,160.28571428571428,92.08258928571429,2776.3,160.28571428571428,92.08258928571429,2884.6,160.28571428571428,92.08258928571429,2988.6,160.28571428571428,92.08258928571429,3093.5,160.28571428571428,92.08258928571429,3197.4,160.28571428571428,92.08258928571429,3315.1,160.28571428571428,92.08258928571429,3423.7,160.28571428571428,92.08258928571429,3545,160.28571428571428,92.08258928571429,3651.1,160.28571428571428,92.08258928571429,3755.1,160.28571428571428,92.08258928571429,3863.2,160.28571428571428,92.08258928571429,3964.8,160.28571428571428,92.08258928571429,4081.2,160.28571428571428,92.08258928571429,4189.7,160.28571428571428,92.08258928571429,4297.7,160.28571428571428,92.08258928571429,4400.2,160.28571428571428,92.08258928571429,4504.1,160.28571428571428,92.08258928571429,4605.3,160.28571428571428,92.08258928571429,4711.7,160.28571428571428,92.08258928571429,4817.8,160.28571428571428,92.08258928571429,4920.3]","[1720,1720,1000,0,720,""smooth"",""up"",""up"",""good_move"",4478.2,2752.9,2311.9,1725.4,441,""oops"",""up"",""left"",""good_move"",7288.7,2807.4,2373.3,4481.3,434.1,""smooth"",""up"",""up"",""good_move"",10313.6,3024.5,2639,7289.1,385.5,""oops"",""up"",""right"",""bad_move"",17084.6,6768.8,2757.1,13909.6,417.9,""smooth"",""left"",""left"",""good_move"",19512.4,2426.5,2007.8,17085.9,418.7,""smooth"",""left"",""left"",""good_move"",22712.2,3194.8,2867.3,19517.4,327.5,""smooth"",""left"",""left"",""good_move"",32642.8,9930.3,2379.3,29847.9,415.6,""oops"",""up"",""down"",""bad_move"",38902.6,6259.5,2212.9,36263.6,426.1,""oops"",""up"",""up"",""good_move"",41836.6,2932.2,2574.4,38904.4,357.8,""oops"",""up"",""down"",""bad_move"",44632.5,2795.5,2453.8,41837,341.7,""smooth"",""up"",""up"",""good_move"",47756.3,3120.7,2757.8,44635.6,362.9,""oops"",""up"",""down"",""bad_move"",54534.8,6778.3,2610,51507.4,417.4,""oops"",""up"",""right"",""bad_move"",57972.6,3434.4,2824.6,54538.2,609.8,""oops"",""up"",""left"",""good_move"",60651.9,2678.2,2265.7,57973.7,412.5,""oops"",""up"",""down"",""bad_move"",63089.1,2436.8,2011,60652.3,425.8,""smooth"",""up"",""up"",""good_move""]","",""
"2837","","<div style=""width:500px;"">
  <p>What determined the result of this run?</p>
  </div>","12","html-slider-response","35","424782","0.0-5.0-1.5","93","1","2025-07-16 09:41:52","1f75c3e559b7213887762d5229550c2b","84.67.40.4","Mozilla/5.0 (Macintosh; Intel Mac OS X 10_15_7) AppleWebKit/537.36 (KHTML, like Gecko) Chrome/138.0.0.0 Safari/537.36","Macintosh","Chrome","138.0.0.0","OS X","10_15_7","https://app.prolific.com/","en-GB,en-US;q=0.9,en;q=0.8","6658ba167affbe300577b93d","68764874ac79eee8c1d4cb03","687773dab44b46fc0fe93db0","2","0","6658ba167affbe300577b93d","2","0","2025-07-16T09:49:00.066Z","","","","","","","","","","","AttribQ","","50","","","","","","","","","","","","","","","","","","","","","","","","","","","","",""
"2044","","<div style=""width:500px;"">
  <p>How much control did you have over the ball?</p>
  </div>","16","html-slider-response","36","426828","0.0-5.0-2.5","93","1","2025-07-16 09:41:52","1f75c3e559b7213887762d5229550c2b","84.67.40.4","Mozilla/5.0 (Macintosh; Intel Mac OS X 10_15_7) AppleWebKit/537.36 (KHTML, like Gecko) Chrome/138.0.0.0 Safari/537.36","Macintosh","Chrome","138.0.0.0","OS X","10_15_7","https://app.prolific.com/","en-GB,en-US;q=0.9,en;q=0.8","6658ba167affbe300577b93d","68764874ac79eee8c1d4cb03","687773dab44b46fc0fe93db0","2","0","6658ba167affbe300577b93d","2","0","2025-07-16T09:49:02.112Z","","","","","","","","","","","ControlQ","","50","","","","","","","","","","","","","","","","","","","","","","","","","","","","",""
"2092","","<div style=""width:500px;"">
  <p>How would you describe your current emotional state?</p>
  </div>","24","html-slider-response","37","428922","0.0-5.0-3.5","93","1","2025-07-16 09:41:52","1f75c3e559b7213887762d5229550c2b","84.67.40.4","Mozilla/5.0 (Macintosh; Intel Mac OS X 10_15_7) AppleWebKit/537.36 (KHTML, like Gecko) Chrome/138.0.0.0 Safari/537.36","Macintosh","Chrome","138.0.0.0","OS X","10_15_7","https://app.prolific.com/","en-GB,en-US;q=0.9,en;q=0.8","6658ba167affbe300577b93d","68764874ac79eee8c1d4cb03","687773dab44b46fc0fe93db0","2","0","6658ba167affbe300577b93d","2","0","2025-07-16T09:49:04.207Z","","","","","","","","","","","StressQ","","50","","","","","","","","","","","","","","","","","","","","","","","","","","","","",""
"1768","","<div style=""width:500px;"">
  <p>What best describes how you currently feel?</p>
  </div>","67","html-slider-response","38","430693","0.0-5.0-4.5","93","1","2025-07-16 09:41:52","1f75c3e559b7213887762d5229550c2b","84.67.40.4","Mozilla/5.0 (Macintosh; Intel Mac OS X 10_15_7) AppleWebKit/537.36 (KHTML, like Gecko) Chrome/138.0.0.0 Safari/537.36","Macintosh","Chrome","138.0.0.0","OS X","10_15_7","https://app.prolific.com/","en-GB,en-US;q=0.9,en;q=0.8","6658ba167affbe300577b93d","68764874ac79eee8c1d4cb03","687773dab44b46fc0fe93db0","2","0","6658ba167affbe300577b93d","2","0","2025-07-16T09:49:05.977Z","","","","","","","","","","","MotivationQ","","50","","","","","","","","","","","","","","","","","","","","","","","","","","","","",""
"","","","","ctl-task-cpt","39","508372","0.0-5.0-0.6","93","1","2025-07-16 09:41:52","1f75c3e559b7213887762d5229550c2b","84.67.40.4","Mozilla/5.0 (Macintosh; Intel Mac OS X 10_15_7) AppleWebKit/537.36 (KHTML, like Gecko) Chrome/138.0.0.0 Safari/537.36","Macintosh","Chrome","138.0.0.0","OS X","10_15_7","https://app.prolific.com/","en-GB,en-US;q=0.9,en;q=0.8","6658ba167affbe300577b93d","68764874ac79eee8c1d4cb03","687773dab44b46fc0fe93db0","2","0","6658ba167affbe300577b93d","2","0","2025-07-16T09:50:23.656Z","","","","","","","","","","","","","","win-only","0","g1:NW,g2:SE","0.4","7","0","433427.5","1731.9","6744","74652.6","1","4","8","6","2","-8","-8","20","28","0.15151515151515152","1565.6","3000","-1305","[""down"",""right""]","{""num_key_presses"":17,""num_perfect"":7,""num_errors"":0,""num_randdir"":10,""num_randdir_good_moves"":4,""num_whilered"":0,""num_whileblue"":0,""num_blue"":5,""num_good_moves"":11}","[702.2857142857143,698.0825892857143,3.5,702.2857142857143,698.0825892857143,108.4,702.2857142857143,698.0825892857143,209.1,702.2857142857143,698.0825892857143,314.2,702.2857142857143,698.0825892857143,419.4,702.2857142857143,698.0825892857143,524.1,702.2857142857143,698.0825892857143,632.5,702.2857142857143,698.0825892857143,732.7,702.2857142857143,698.0825892857143,836.2,872.2857142857143,878.0825892857143,952.1,1250.2857142857142,1266.0825892857142,1060.4,1282.2857142857142,1294.0825892857142,1168.7,1294.2857142857142,1304.0825892857142,1278.2,1294.2857142857142,1304.0825892857142,1379.1,1294.2857142857142,1304.0825892857142,1487.2,1294.2857142857142,1304.0825892857142,1593,1294.2857142857142,1304.0825892857142,1700.9,1294.2857142857142,1304.0825892857142,1811.4,1294.2857142857142,1304.0825892857142,1918.4,1294.2857142857142,1304.0825892857142,2040.3,1294.2857142857142,1304.0825892857142,2143.9,1294.2857142857142,1304.0825892857142,2261.7,1294.2857142857142,1304.0825892857142,2362.1,1294.2857142857142,1304.0825892857142,2466.3,1294.2857142857142,1304.0825892857142,2567.8,1294.2857142857142,1304.0825892857142,2681.5,1294.2857142857142,1304.0825892857142,2782.6,1294.2857142857142,1304.0825892857142,2891.4,1294.2857142857142,1304.0825892857142,2995.6,1294.2857142857142,1304.0825892857142,3097.6,1294.2857142857142,1304.0825892857142,3198.5,1294.2857142857142,1304.0825892857142,3304.5,1294.2857142857142,1304.0825892857142,3405.4,1294.2857142857142,1304.0825892857142,3509.4,1294.2857142857142,1304.0825892857142,3610.3,1294.2857142857142,1304.0825892857142,3712.9,1294.2857142857142,1304.0825892857142,3816.6,1294.2857142857142,1304.0825892857142,3926,1294.2857142857142,1304.0825892857142,4037.6,1294.2857142857142,1304.0825892857142,4143,1294.2857142857142,1304.0825892857142,4250.3,1294.2857142857142,1304.0825892857142,4351.4,1294.2857142857142,1304.0825892857142,4462.8,1294.2857142857142,1304.0825892857142,4566.4,1294.2857142857142,1304.0825892857142,4669.1,1294.2857142857142,1304.0825892857142,4771.2,1294.2857142857142,1304.0825892857142,4882.7,1294.2857142857142,1304.0825892857142,4985.9]","[1391.9,1391.9,1000,0,391.9,""smooth"",""down"",""down"",""good_move"",4568,3174.8,2780.4,1393.2,394.4,""smooth"",""down"",""down"",""good_move"",7356.9,2788.5,2401,4568.4,387.5,""oops"",""right"",""up"",""bad_move"",13505.3,6145.9,2514.7,10503.1,487.5,""oops"",""right"",""up"",""bad_move"",16496.4,2989.5,2604.8,13506.9,384.7,""oops"",""down"",""up"",""bad_move"",19487.2,2989.5,2444.5,16497.7,545,""smooth"",""right"",""right"",""good_move"",26676.2,7185.9,2654.4,23547.9,474,""smooth"",""right"",""right"",""good_move"",29271.5,2594,2182.9,26677.5,411.1,""oops"",""right"",""right"",""good_move"",32007.9,2736.2,2310.5,29271.7,425.7,""oops"",""down"",""down"",""good_move"",37990,5979.9,2325.3,35333.2,331.5,""oops"",""down"",""left"",""bad_move"",40762.8,2771.5,2338.9,37991.3,432.6,""smooth"",""down"",""down"",""good_move"",43246.3,2479.5,1740.2,40766.8,739.3,""oops"",""down"",""up"",""bad_move"",53120,9871.8,2817.6,49915,387.4,""smooth"",""down"",""down"",""good_move"",56175.5,3055.3,2558.6,53120.2,496.7,""oops"",""down"",""down"",""good_move"",58698.3,2520,2079.9,56178.3,440.1,""oops"",""down"",""left"",""bad_move"",61317,2618.5,2205.9,58698.7,412.6,""oops"",""down"",""right"",""good_move"",64693.2,3375.1,2993.7,61318.2,381.4,""smooth"",""right"",""right"",""good_move""]","",""
"2588","","<div style=""width:500px;"">
  <p>What determined the result of this run?</p>
  </div>","24","html-slider-response","40","510962","0.0-5.0-1.6","93","1","2025-07-16 09:41:52","1f75c3e559b7213887762d5229550c2b","84.67.40.4","Mozilla/5.0 (Macintosh; Intel Mac OS X 10_15_7) AppleWebKit/537.36 (KHTML, like Gecko) Chrome/138.0.0.0 Safari/537.36","Macintosh","Chrome","138.0.0.0","OS X","10_15_7","https://app.prolific.com/","en-GB,en-US;q=0.9,en;q=0.8","6658ba167affbe300577b93d","68764874ac79eee8c1d4cb03","687773dab44b46fc0fe93db0","2","0","6658ba167affbe300577b93d","2","0","2025-07-16T09:50:26.247Z","","","","","","","","","","","AttribQ","","50","","","","","","","","","","","","","","","","","","","","","","","","","","","","",""
"1936","","<div style=""width:500px;"">
  <p>How much control did you have over the ball?</p>
  </div>","31","html-slider-response","41","512901","0.0-5.0-2.6","93","1","2025-07-16 09:41:52","1f75c3e559b7213887762d5229550c2b","84.67.40.4","Mozilla/5.0 (Macintosh; Intel Mac OS X 10_15_7) AppleWebKit/537.36 (KHTML, like Gecko) Chrome/138.0.0.0 Safari/537.36","Macintosh","Chrome","138.0.0.0","OS X","10_15_7","https://app.prolific.com/","en-GB,en-US;q=0.9,en;q=0.8","6658ba167affbe300577b93d","68764874ac79eee8c1d4cb03","687773dab44b46fc0fe93db0","2","0","6658ba167affbe300577b93d","2","0","2025-07-16T09:50:28.185Z","","","","","","","","","","","ControlQ","","50","","","","","","","","","","","","","","","","","","","","","","","","","","","","",""
"2317","","<div style=""width:500px;"">
  <p>How would you describe your current emotional state?</p>
  </div>","36","html-slider-response","42","515219","0.0-5.0-3.6","93","1","2025-07-16 09:41:52","1f75c3e559b7213887762d5229550c2b","84.67.40.4","Mozilla/5.0 (Macintosh; Intel Mac OS X 10_15_7) AppleWebKit/537.36 (KHTML, like Gecko) Chrome/138.0.0.0 Safari/537.36","Macintosh","Chrome","138.0.0.0","OS X","10_15_7","https://app.prolific.com/","en-GB,en-US;q=0.9,en;q=0.8","6658ba167affbe300577b93d","68764874ac79eee8c1d4cb03","687773dab44b46fc0fe93db0","2","0","6658ba167affbe300577b93d","2","0","2025-07-16T09:50:30.503Z","","","","","","","","","","","StressQ","","50","","","","","","","","","","","","","","","","","","","","","","","","","","","","",""
"1971","","<div style=""width:500px;"">
  <p>What best describes how you currently feel?</p>
  </div>","75","html-slider-response","43","517192","0.0-5.0-4.6","93","1","2025-07-16 09:41:52","1f75c3e559b7213887762d5229550c2b","84.67.40.4","Mozilla/5.0 (Macintosh; Intel Mac OS X 10_15_7) AppleWebKit/537.36 (KHTML, like Gecko) Chrome/138.0.0.0 Safari/537.36","Macintosh","Chrome","138.0.0.0","OS X","10_15_7","https://app.prolific.com/","en-GB,en-US;q=0.9,en;q=0.8","6658ba167affbe300577b93d","68764874ac79eee8c1d4cb03","687773dab44b46fc0fe93db0","2","0","6658ba167affbe300577b93d","2","0","2025-07-16T09:50:32.477Z","","","","","","","","","","","MotivationQ","","50","","","","","","","","","","","","","","","","","","","","","","","","","","","","",""
"","","","","ctl-task-cpt","44","594686","0.0-5.0-0.7","93","1","2025-07-16 09:41:52","1f75c3e559b7213887762d5229550c2b","84.67.40.4","Mozilla/5.0 (Macintosh; Intel Mac OS X 10_15_7) AppleWebKit/537.36 (KHTML, like Gecko) Chrome/138.0.0.0 Safari/537.36","Macintosh","Chrome","138.0.0.0","OS X","10_15_7","https://app.prolific.com/","en-GB,en-US;q=0.9,en;q=0.8","6658ba167affbe300577b93d","68764874ac79eee8c1d4cb03","687773dab44b46fc0fe93db0","2","0","6658ba167affbe300577b93d","2","0","2025-07-16T09:51:49.971Z","","","","","","","","","","","","","","win-only","0","g1:NW,g2:SE","0.3","8","0","519924.6","1353","6358.5","74464.9","1","4","4","6","2","4","3","23","20","0.17424242424242425","1656.7","3000","420","[""down"",""right""]","{""num_key_presses"":19,""num_perfect"":6,""num_errors"":1,""num_randdir"":12,""num_randdir_good_moves"":6,""num_whilered"":0,""num_whileblue"":0,""num_blue"":4,""num_good_moves"":12}","[700.2857142857143,684.0825892857143,2.6,700.2857142857143,684.0825892857143,104.7,700.2857142857143,684.0825892857143,218.6,700.2857142857143,684.0825892857143,322.8,700.2857142857143,684.0825892857143,427.6,700.2857142857143,684.0825892857143,541.5,700.2857142857143,684.0825892857143,646.9,700.2857142857143,684.0825892857143,755.6,700.2857142857143,684.0825892857143,868,1224.2857142857142,1078.0825892857142,973.5,1420.2857142857142,1292.0825892857142,1074.3,1424.2857142857142,1326.0825892857142,1188.4,1304.2857142857142,1320.0825892857142,1304.6,1296.2857142857142,1316.0825892857142,1406.6,1296.2857142857142,1316.0825892857142,1512.4,1296.2857142857142,1316.0825892857142,1621.9,1296.2857142857142,1316.0825892857142,1727.1,1296.2857142857142,1316.0825892857142,1830.4,1296.2857142857142,1316.0825892857142,1938.5,1296.2857142857142,1316.0825892857142,2044.6,1296.2857142857142,1316.0825892857142,2145.2,1296.2857142857142,1316.0825892857142,2252.8,1296.2857142857142,1316.0825892857142,2353.4,1296.2857142857142,1316.0825892857142,2461.5,1296.2857142857142,1316.0825892857142,2571,1296.2857142857142,1316.0825892857142,2700,1296.2857142857142,1316.0825892857142,2810.4,1296.2857142857142,1316.0825892857142,2919.5,1296.2857142857142,1316.0825892857142,3020.5,1296.2857142857142,1316.0825892857142,3124,1296.2857142857142,1316.0825892857142,3230.2,1296.2857142857142,1316.0825892857142,3339.3,1296.2857142857142,1316.0825892857142,3443.3,1296.2857142857142,1316.0825892857142,3543.5,1296.2857142857142,1316.0825892857142,3653.1,1296.2857142857142,1316.0825892857142,3761.3,1296.2857142857142,1316.0825892857142,3870.6,1296.2857142857142,1316.0825892857142,3973.6,1296.2857142857142,1316.0825892857142,4081.9,1296.2857142857142,1316.0825892857142,4187.9,1296.2857142857142,1316.0825892857142,4296.3,1296.2857142857142,1316.0825892857142,4407.6,1296.2857142857142,1316.0825892857142,4517.9,1296.2857142857142,1316.0825892857142,4626.6,1296.2857142857142,1316.0825892857142,4736.4,1296.2857142857142,1316.0825892857142,4839.6,1296.2857142857142,1316.0825892857142,4946.3]","[1533.2,1533.2,1000,0,533.2,""oops"",""right"",""down"",""good_move"",4282.6,2748.7,2364.9,1533.9,383.8,""smooth"",""right"",""right"",""good_move"",7318.2,3035.3,2719.5,4282.9,315.8,""oops"",""right"",""up"",""bad_move"",13944.7,6626.2,2550,11049.9,344.8,""oops"",""right"",""left"",""bad_move"",19622.9,5677.2,1928.3,17324.9,369.7,""oops"",""down"",""up"",""bad_move"",24518.2,4895.1,2680.2,23061.8,-1223.8,""error"",""-"",""-"",""no_move"",28795.5,4271.9,2782.6,25533.9,479.1,""oops"",""right"",""down"",""good_move"",31223.1,2426.3,2066.9,28796.8,359.4,""oops"",""right"",""left"",""bad_move"",34531.8,3306.7,2870.3,31225.1,436.4,""smooth"",""down"",""down"",""good_move"",36903.3,2368.8,1976.7,34534.5,392.1,""oops"",""down"",""down"",""good_move"",39658.3,2754.7,2195.3,36903.6,559.4,""smooth"",""down"",""down"",""good_move"",42602.2,2942.5,2575.3,39659.7,367.2,""smooth"",""right"",""right"",""good_move"",45960.5,3357.9,2987.4,42602.7,370.5,""oops"",""right"",""up"",""bad_move"",49298.9,3335.8,2642,45963.2,693.8,""oops"",""down"",""right"",""good_move"",52813.1,3512.2,3133.8,49300.9,378.4,""smooth"",""down"",""down"",""good_move"",59230.1,6415.3,2468.4,56342.7,419,""oops"",""right"",""right"",""good_move"",62384.8,3153.5,2662.7,59231.3,490.8,""oops"",""right"",""left"",""bad_move"",65617.9,3232.4,2838.8,62385.5,393.6,""oops"",""right"",""right"",""good_move"",67838.2,2218.4,1807.8,65619.8,410.6,""smooth"",""right"",""right"",""good_move""]","",""
"3599","","<div style=""width:500px;"">
  <p>What determined the result of this run?</p>
  </div>","39","html-slider-response","45","598287","0.0-5.0-1.7","93","1","2025-07-16 09:41:52","1f75c3e559b7213887762d5229550c2b","84.67.40.4","Mozilla/5.0 (Macintosh; Intel Mac OS X 10_15_7) AppleWebKit/537.36 (KHTML, like Gecko) Chrome/138.0.0.0 Safari/537.36","Macintosh","Chrome","138.0.0.0","OS X","10_15_7","https://app.prolific.com/","en-GB,en-US;q=0.9,en;q=0.8","6658ba167affbe300577b93d","68764874ac79eee8c1d4cb03","687773dab44b46fc0fe93db0","2","0","6658ba167affbe300577b93d","2","0","2025-07-16T09:51:53.571Z","","","","","","","","","","","AttribQ","","50","","","","","","","","","","","","","","","","","","","","","","","","","","","","",""
"2371","","<div style=""width:500px;"">
  <p>How much control did you have over the ball?</p>
  </div>","62","html-slider-response","46","600661","0.0-5.0-2.7","93","1","2025-07-16 09:41:52","1f75c3e559b7213887762d5229550c2b","84.67.40.4","Mozilla/5.0 (Macintosh; Intel Mac OS X 10_15_7) AppleWebKit/537.36 (KHTML, like Gecko) Chrome/138.0.0.0 Safari/537.36","Macintosh","Chrome","138.0.0.0","OS X","10_15_7","https://app.prolific.com/","en-GB,en-US;q=0.9,en;q=0.8","6658ba167affbe300577b93d","68764874ac79eee8c1d4cb03","687773dab44b46fc0fe93db0","2","0","6658ba167affbe300577b93d","2","0","2025-07-16T09:51:55.945Z","","","","","","","","","","","ControlQ","","50","","","","","","","","","","","","","","","","","","","","","","","","","","","","",""
"1654","","<div style=""width:500px;"">
  <p>How would you describe your current emotional state?</p>
  </div>","41","html-slider-response","47","602317","0.0-5.0-3.7","93","1","2025-07-16 09:41:52","1f75c3e559b7213887762d5229550c2b","84.67.40.4","Mozilla/5.0 (Macintosh; Intel Mac OS X 10_15_7) AppleWebKit/537.36 (KHTML, like Gecko) Chrome/138.0.0.0 Safari/537.36","Macintosh","Chrome","138.0.0.0","OS X","10_15_7","https://app.prolific.com/","en-GB,en-US;q=0.9,en;q=0.8","6658ba167affbe300577b93d","68764874ac79eee8c1d4cb03","687773dab44b46fc0fe93db0","2","0","6658ba167affbe300577b93d","2","0","2025-07-16T09:51:57.601Z","","","","","","","","","","","StressQ","","50","","","","","","","","","","","","","","","","","","","","","","","","","","","","",""
"1565","","<div style=""width:500px;"">
  <p>What best describes how you currently feel?</p>
  </div>","69","html-slider-response","48","603883","0.0-5.0-4.7","93","1","2025-07-16 09:41:52","1f75c3e559b7213887762d5229550c2b","84.67.40.4","Mozilla/5.0 (Macintosh; Intel Mac OS X 10_15_7) AppleWebKit/537.36 (KHTML, like Gecko) Chrome/138.0.0.0 Safari/537.36","Macintosh","Chrome","138.0.0.0","OS X","10_15_7","https://app.prolific.com/","en-GB,en-US;q=0.9,en;q=0.8","6658ba167affbe300577b93d","68764874ac79eee8c1d4cb03","687773dab44b46fc0fe93db0","2","0","6658ba167affbe300577b93d","2","0","2025-07-16T09:51:59.168Z","","","","","","","","","","","MotivationQ","","50","","","","","","","","","","","","","","","","","","","","","","","","","","","","",""
"","","","","ctl-task-cpt","49","694699","0.0-5.0-0.8","93","1","2025-07-16 09:41:52","1f75c3e559b7213887762d5229550c2b","84.67.40.4","Mozilla/5.0 (Macintosh; Intel Mac OS X 10_15_7) AppleWebKit/537.36 (KHTML, like Gecko) Chrome/138.0.0.0 Safari/537.36","Macintosh","Chrome","138.0.0.0","OS X","10_15_7","https://app.prolific.com/","en-GB,en-US;q=0.9,en;q=0.8","6658ba167affbe300577b93d","68764874ac79eee8c1d4cb03","687773dab44b46fc0fe93db0","2","0","6658ba167affbe300577b93d","2","0","2025-07-16T09:53:29.983Z","","","","","","","","","","","","","","win-only","2","g1:SE,g2:NW","0.2","9","0","606611","1544.6","6552.9","87784.2","1","4","4","6","2","-4","-4","19","23","0.14393939393939395","1179.5","3000","-1015","[""left"",""up""]","{""num_key_presses"":19,""num_perfect"":4,""num_errors"":0,""num_randdir"":15,""num_randdir_good_moves"":5,""num_whilered"":0,""num_whileblue"":0,""num_blue"":6,""num_good_moves"":9}","[688.2857142857143,692.0825892857143,4.2,688.2857142857143,692.0825892857143,100.4,688.2857142857143,692.0825892857143,204.6,688.2857142857143,692.0825892857143,313.4,688.2857142857143,692.0825892857143,429.4,688.2857142857143,692.0825892857143,541.4,688.2857142857143,692.0825892857143,654.9,688.2857142857143,692.0825892857143,758.4,582.2857142857143,614.0825892857143,872.9,244.28571428571428,252.08258928571428,982.2,144.28571428571428,160.08258928571428,1091.9,136.28571428571428,154.08258928571428,1194,136.28571428571428,154.08258928571428,1312.1,136.28571428571428,154.08258928571428,1413.5,136.28571428571428,154.08258928571428,1513.8,136.28571428571428,154.08258928571428,1615.6,136.28571428571428,154.08258928571428,1730.2,136.28571428571428,154.08258928571428,1832.7,136.28571428571428,154.08258928571428,1941,136.28571428571428,154.08258928571428,2090.8,136.28571428571428,154.08258928571428,2212.5,136.28571428571428,154.08258928571428,2324.6,136.28571428571428,154.08258928571428,2426.9,136.28571428571428,154.08258928571428,2545.3,136.28571428571428,154.08258928571428,2654.1,136.28571428571428,154.08258928571428,2760.6,136.28571428571428,154.08258928571428,2872.7,136.28571428571428,154.08258928571428,2980.5,136.28571428571428,154.08258928571428,3080.6,136.28571428571428,154.08258928571428,3195,136.28571428571428,154.08258928571428,3300,136.28571428571428,154.08258928571428,3407,136.28571428571428,154.08258928571428,3508.8,136.28571428571428,154.08258928571428,3624.3,136.28571428571428,154.08258928571428,3728.4,136.28571428571428,154.08258928571428,3831.2,136.28571428571428,154.08258928571428,3936.8,136.28571428571428,154.08258928571428,4043.2,136.28571428571428,154.08258928571428,4146.3,136.28571428571428,154.08258928571428,4255.5,136.28571428571428,154.08258928571428,4364.3,136.28571428571428,154.08258928571428,4473.6,136.28571428571428,154.08258928571428,4579.3,136.28571428571428,154.08258928571428,4688.3,136.28571428571428,154.08258928571428,4789,136.28571428571428,154.08258928571428,4904.7]","[7876.3,7876.3,2680.7,4736.1,459.5,""oops"",""up"",""down"",""bad_move"",10871.5,2992.6,2604,7878.9,388.6,""smooth"",""left"",""left"",""good_move"",13926.2,3054,2090.6,10872.2,963.4,""oops"",""left"",""up"",""good_move"",20158.8,6224.9,2239.5,17427.5,491.8,""oops"",""left"",""up"",""good_move"",23815.5,3656.5,3180.5,20159,476,""oops"",""left"",""right"",""bad_move"",27505.6,3688.9,3227.3,23816.7,461.6,""oops"",""left"",""left"",""good_move"",30505.9,2998.4,2427.7,27507.7,570.6,""oops"",""left"",""right"",""bad_move"",33530.7,3022.1,2583.3,30508.6,438.8,""smooth"",""left"",""left"",""good_move"",40925.8,7394.9,3074.8,37298.1,552.9,""oops"",""up"",""right"",""bad_move"",43948.6,3019.3,2579,40929.3,440.3,""oops"",""up"",""down"",""bad_move"",46640.6,2689.3,1961.5,43951.4,727.7,""oops"",""left"",""right"",""bad_move"",50078.3,3434.9,2984.7,46643.4,450.2,""smooth"",""left"",""left"",""good_move"",53382.7,3303.1,2867.5,50079.6,435.6,""oops"",""left"",""left"",""good_move"",56522.1,3139.1,2188.4,53383,950.7,""oops"",""left"",""right"",""bad_move"",60363.1,3838.7,3398.9,56524.4,439.8,""oops"",""left"",""down"",""bad_move"",63304.3,2938.7,2077.4,60365.6,861.3,""oops"",""left"",""up"",""good_move"",69491.3,6185.6,2203.2,66784.6,503.6,""smooth"",""left"",""left"",""good_move"",72772.8,3279.8,2116.3,69493,1163.5,""oops"",""left"",""right"",""bad_move"",78622.2,5847.3,1682.7,76451.9,487.6,""oops"",""left"",""right"",""bad_move""]","",""
"2655","","<div style=""width:500px;"">
  <p>What determined the result of this run?</p>
  </div>","7","html-slider-response","50","697358","0.0-5.0-1.8","93","1","2025-07-16 09:41:52","1f75c3e559b7213887762d5229550c2b","84.67.40.4","Mozilla/5.0 (Macintosh; Intel Mac OS X 10_15_7) AppleWebKit/537.36 (KHTML, like Gecko) Chrome/138.0.0.0 Safari/537.36","Macintosh","Chrome","138.0.0.0","OS X","10_15_7","https://app.prolific.com/","en-GB,en-US;q=0.9,en;q=0.8","6658ba167affbe300577b93d","68764874ac79eee8c1d4cb03","687773dab44b46fc0fe93db0","2","0","6658ba167affbe300577b93d","2","0","2025-07-16T09:53:32.643Z","","","","","","","","","","","AttribQ","","50","","","","","","","","","","","","","","","","","","","","","","","","","","","","",""
"2338","","<div style=""width:500px;"">
  <p>How much control did you have over the ball?</p>
  </div>","8","html-slider-response","51","699699","0.0-5.0-2.8","93","1","2025-07-16 09:41:52","1f75c3e559b7213887762d5229550c2b","84.67.40.4","Mozilla/5.0 (Macintosh; Intel Mac OS X 10_15_7) AppleWebKit/537.36 (KHTML, like Gecko) Chrome/138.0.0.0 Safari/537.36","Macintosh","Chrome","138.0.0.0","OS X","10_15_7","https://app.prolific.com/","en-GB,en-US;q=0.9,en;q=0.8","6658ba167affbe300577b93d","68764874ac79eee8c1d4cb03","687773dab44b46fc0fe93db0","2","0","6658ba167affbe300577b93d","2","0","2025-07-16T09:53:34.983Z","","","","","","","","","","","ControlQ","","50","","","","","","","","","","","","","","","","","","","","","","","","","","","","",""
"2277","","<div style=""width:500px;"">
  <p>How would you describe your current emotional state?</p>
  </div>","67","html-slider-response","52","701978","0.0-5.0-3.8","93","1","2025-07-16 09:41:52","1f75c3e559b7213887762d5229550c2b","84.67.40.4","Mozilla/5.0 (Macintosh; Intel Mac OS X 10_15_7) AppleWebKit/537.36 (KHTML, like Gecko) Chrome/138.0.0.0 Safari/537.36","Macintosh","Chrome","138.0.0.0","OS X","10_15_7","https://app.prolific.com/","en-GB,en-US;q=0.9,en;q=0.8","6658ba167affbe300577b93d","68764874ac79eee8c1d4cb03","687773dab44b46fc0fe93db0","2","0","6658ba167affbe300577b93d","2","0","2025-07-16T09:53:37.262Z","","","","","","","","","","","StressQ","","50","","","","","","","","","","","","","","","","","","","","","","","","","","","","",""
"1910","","<div style=""width:500px;"">
  <p>What best describes how you currently feel?</p>
  </div>","69","html-slider-response","53","703891","0.0-5.0-4.8","93","1","2025-07-16 09:41:52","1f75c3e559b7213887762d5229550c2b","84.67.40.4","Mozilla/5.0 (Macintosh; Intel Mac OS X 10_15_7) AppleWebKit/537.36 (KHTML, like Gecko) Chrome/138.0.0.0 Safari/537.36","Macintosh","Chrome","138.0.0.0","OS X","10_15_7","https://app.prolific.com/","en-GB,en-US;q=0.9,en;q=0.8","6658ba167affbe300577b93d","68764874ac79eee8c1d4cb03","687773dab44b46fc0fe93db0","2","0","6658ba167affbe300577b93d","2","0","2025-07-16T09:53:39.175Z","","","","","","","","","","","MotivationQ","","50","","","","","","","","","","","","","","","","","","","","","","","","","","","","",""
"","","","","ctl-task-cpt","54","774838","0.0-5.0-0.9","93","1","2025-07-16 09:41:52","1f75c3e559b7213887762d5229550c2b","84.67.40.4","Mozilla/5.0 (Macintosh; Intel Mac OS X 10_15_7) AppleWebKit/537.36 (KHTML, like Gecko) Chrome/138.0.0.0 Safari/537.36","Macintosh","Chrome","138.0.0.0","OS X","10_15_7","https://app.prolific.com/","en-GB,en-US;q=0.9,en;q=0.8","6658ba167affbe300577b93d","68764874ac79eee8c1d4cb03","687773dab44b46fc0fe93db0","2","0","6658ba167affbe300577b93d","2","0","2025-07-16T09:54:50.122Z","","","","","","","","","","","","","","win-only","0","g1:NW,g2:SE","0.4","10","0","706618.9","1262.6","6281","67909.3","1","4","8","6","2","8","8","27","19","0.20454545454545456","1251.9","3000","815","[""down"",""right""]","{""num_key_presses"":18,""num_perfect"":8,""num_errors"":0,""num_randdir"":10,""num_randdir_good_moves"":4,""num_whilered"":0,""num_whileblue"":0,""num_blue"":2,""num_good_moves"":12}","[696.2857142857143,686.0825892857143,4.8,696.2857142857143,686.0825892857143,104.6,696.2857142857143,686.0825892857143,214.1,696.2857142857143,686.0825892857143,325.3,696.2857142857143,686.0825892857143,432.8,696.2857142857143,686.0825892857143,538,734.2857142857143,718.0825892857143,642.7,1082.2857142857142,1130.0825892857142,756.4,1182.2857142857142,1214.0825892857142,872.4,1218.2857142857142,1282.0825892857142,995.2,1236.2857142857142,1284.0825892857142,1095.4,1240.2857142857142,1278.0825892857142,1195.4,1240.2857142857142,1278.0825892857142,1313.8,1240.2857142857142,1278.0825892857142,1437,1240.2857142857142,1278.0825892857142,1550.4,1240.2857142857142,1278.0825892857142,1664,1240.2857142857142,1278.0825892857142,1781.8,1240.2857142857142,1278.0825892857142,1887.9,1240.2857142857142,1278.0825892857142,1988.2,1240.2857142857142,1278.0825892857142,2102.2,1240.2857142857142,1278.0825892857142,2218.1,1240.2857142857142,1278.0825892857142,2319.1,1240.2857142857142,1278.0825892857142,2427.7,1240.2857142857142,1278.0825892857142,2528.8,1240.2857142857142,1278.0825892857142,2634.8,1240.2857142857142,1278.0825892857142,2742.3,1240.2857142857142,1278.0825892857142,2848.5,1240.2857142857142,1278.0825892857142,2959.6,1240.2857142857142,1278.0825892857142,3063,1240.2857142857142,1278.0825892857142,3171.2,1240.2857142857142,1278.0825892857142,3281.1,1240.2857142857142,1278.0825892857142,3391.1,1240.2857142857142,1278.0825892857142,3493.8,1240.2857142857142,1278.0825892857142,3611,1240.2857142857142,1278.0825892857142,3722.8,1240.2857142857142,1278.0825892857142,3837.9,1240.2857142857142,1278.0825892857142,3943.7,1240.2857142857142,1278.0825892857142,4056.8,1240.2857142857142,1278.0825892857142,4159.2,1240.2857142857142,1278.0825892857142,4270.7,1240.2857142857142,1278.0825892857142,4381.5,1240.2857142857142,1278.0825892857142,4487.5,1240.2857142857142,1278.0825892857142,4588.7,1240.2857142857142,1278.0825892857142,4690.9,1240.2857142857142,1278.0825892857142,4800.6,1240.2857142857142,1278.0825892857142,4913.7]","[1510.5,1510.5,1000,0,510.5,""smooth"",""right"",""right"",""good_move"",5198.2,3687.2,3256.2,1511.1,431,""smooth"",""down"",""down"",""good_move"",14747.5,9547,1859.4,12502.4,385.7,""oops"",""right"",""right"",""good_move"",17695.9,2948.1,2406.6,14747.9,541.4,""oops"",""right"",""up"",""bad_move"",20974.8,3277.6,2098.5,17697.2,1179.1,""oops"",""right"",""up"",""bad_move"",23935.9,2960.8,2585.9,20975.1,374.9,""oops"",""down"",""up"",""bad_move"",26945.3,3007.4,1516.8,23937.9,1490.6,""smooth"",""right"",""right"",""good_move"",29805,2857,2437.3,26948.1,419.7,""smooth"",""down"",""down"",""good_move"",32317.1,2511.7,2139,29805.4,372.7,""oops"",""down"",""down"",""good_move"",35355,3036.6,2438.5,32318.4,598.1,""oops"",""down"",""left"",""bad_move"",38929.7,3574.2,3200.8,35355.5,373.4,""smooth"",""down"",""down"",""good_move"",42103.1,3171.5,2702.6,38931.7,468.8,""smooth"",""down"",""down"",""good_move"",45141.6,3038.1,2656.7,42103.6,381.4,""oops"",""right"",""up"",""bad_move"",48477.3,3335.3,2068.9,45142.1,1266.4,""oops"",""down"",""down"",""good_move"",51804.9,3323.4,2966.8,48481.6,356.6,""oops"",""down"",""up"",""bad_move"",55026.5,3218.3,2440.5,51808.3,777.7,""smooth"",""down"",""down"",""good_move"",58220.2,3192.1,2839.4,55028.1,352.7,""oops"",""right"",""down"",""good_move"",61279.4,3057.2,2676.7,58222.9,379.8,""smooth"",""right"",""right"",""good_move""]","",""
"2253","","<div style=""width:500px;"">
  <p>What determined the result of this run?</p>
  </div>","27","html-slider-response","55","777093","0.0-5.0-1.9","93","1","2025-07-16 09:41:52","1f75c3e559b7213887762d5229550c2b","84.67.40.4","Mozilla/5.0 (Macintosh; Intel Mac OS X 10_15_7) AppleWebKit/537.36 (KHTML, like Gecko) Chrome/138.0.0.0 Safari/537.36","Macintosh","Chrome","138.0.0.0","OS X","10_15_7","https://app.prolific.com/","en-GB,en-US;q=0.9,en;q=0.8","6658ba167affbe300577b93d","68764874ac79eee8c1d4cb03","687773dab44b46fc0fe93db0","2","0","6658ba167affbe300577b93d","2","0","2025-07-16T09:54:52.377Z","","","","","","","","","","","AttribQ","","50","","","","","","","","","","","","","","","","","","","","","","","","","","","","",""
"2069","","<div style=""width:500px;"">
  <p>How much control did you have over the ball?</p>
  </div>","29","html-slider-response","56","779164","0.0-5.0-2.9","93","1","2025-07-16 09:41:52","1f75c3e559b7213887762d5229550c2b","84.67.40.4","Mozilla/5.0 (Macintosh; Intel Mac OS X 10_15_7) AppleWebKit/537.36 (KHTML, like Gecko) Chrome/138.0.0.0 Safari/537.36","Macintosh","Chrome","138.0.0.0","OS X","10_15_7","https://app.prolific.com/","en-GB,en-US;q=0.9,en;q=0.8","6658ba167affbe300577b93d","68764874ac79eee8c1d4cb03","687773dab44b46fc0fe93db0","2","0","6658ba167affbe300577b93d","2","0","2025-07-16T09:54:54.448Z","","","","","","","","","","","ControlQ","","50","","","","","","","","","","","","","","","","","","","","","","","","","","","","",""
"1723","","<div style=""width:500px;"">
  <p>How would you describe your current emotional state?</p>
  </div>","61","html-slider-response","57","780889","0.0-5.0-3.9","93","1","2025-07-16 09:41:52","1f75c3e559b7213887762d5229550c2b","84.67.40.4","Mozilla/5.0 (Macintosh; Intel Mac OS X 10_15_7) AppleWebKit/537.36 (KHTML, like Gecko) Chrome/138.0.0.0 Safari/537.36","Macintosh","Chrome","138.0.0.0","OS X","10_15_7","https://app.prolific.com/","en-GB,en-US;q=0.9,en;q=0.8","6658ba167affbe300577b93d","68764874ac79eee8c1d4cb03","687773dab44b46fc0fe93db0","2","0","6658ba167affbe300577b93d","2","0","2025-07-16T09:54:56.173Z","","","","","","","","","","","StressQ","","50","","","","","","","","","","","","","","","","","","","","","","","","","","","","",""
"1729","","<div style=""width:500px;"">
  <p>What best describes how you currently feel?</p>
  </div>","86","html-slider-response","58","782620","0.0-5.0-4.9","93","1","2025-07-16 09:41:52","1f75c3e559b7213887762d5229550c2b","84.67.40.4","Mozilla/5.0 (Macintosh; Intel Mac OS X 10_15_7) AppleWebKit/537.36 (KHTML, like Gecko) Chrome/138.0.0.0 Safari/537.36","Macintosh","Chrome","138.0.0.0","OS X","10_15_7","https://app.prolific.com/","en-GB,en-US;q=0.9,en;q=0.8","6658ba167affbe300577b93d","68764874ac79eee8c1d4cb03","687773dab44b46fc0fe93db0","2","0","6658ba167affbe300577b93d","2","0","2025-07-16T09:54:57.905Z","","","","","","","","","","","MotivationQ","","50","","","","","","","","","","","","","","","","","","","","","","","","","","","","",""
"","","","","ctl-task-cpt","59","856904","0.0-5.0-0.10","93","1","2025-07-16 09:41:52","1f75c3e559b7213887762d5229550c2b","84.67.40.4","Mozilla/5.0 (Macintosh; Intel Mac OS X 10_15_7) AppleWebKit/537.36 (KHTML, like Gecko) Chrome/138.0.0.0 Safari/537.36","Macintosh","Chrome","138.0.0.0","OS X","10_15_7","https://app.prolific.com/","en-GB,en-US;q=0.9,en;q=0.8","6658ba167affbe300577b93d","68764874ac79eee8c1d4cb03","687773dab44b46fc0fe93db0","2","0","6658ba167affbe300577b93d","2","0","2025-07-16T09:56:12.188Z","","","","","","","","","","","","","","win-only","2","g1:SE,g2:NW","0.5","11","0","785345.5","1317.2","6317.5","71251.6","1","4","4","6","2","4","4","31","27","0.23484848484848486","1086.3","3000","650","[""left"",""up""]","{""num_key_presses"":14,""num_perfect"":8,""num_errors"":0,""num_randdir"":6,""num_randdir_good_moves"":2,""num_whilered"":0,""num_whileblue"":0,""num_blue"":5,""num_good_moves"":10}","[700.2857142857143,694.0825892857143,7.2,700.2857142857143,694.0825892857143,104.8,700.2857142857143,694.0825892857143,217.8,700.2857142857143,694.0825892857143,321.4,700.2857142857143,694.0825892857143,428.8,700.2857142857143,694.0825892857143,530.1,700.2857142857143,694.0825892857143,636.5,652.2857142857143,672.0825892857143,740.7,268.2857142857143,244.08258928571428,861.3,162.28571428571428,144.08258928571428,982.6,152.28571428571428,132.08258928571428,1092.6,152.28571428571428,132.08258928571428,1209.3,152.28571428571428,132.08258928571428,1312.5,152.28571428571428,132.08258928571428,1428.1,152.28571428571428,132.08258928571428,1540.3,152.28571428571428,132.08258928571428,1657.1,152.28571428571428,132.08258928571428,1758.1,152.28571428571428,132.08258928571428,1865.5,152.28571428571428,132.08258928571428,1982.7,152.28571428571428,132.08258928571428,2092.9,152.28571428571428,132.08258928571428,2201.4,152.28571428571428,132.08258928571428,2313.7,152.28571428571428,132.08258928571428,2430.4,152.28571428571428,132.08258928571428,2545.2,152.28571428571428,132.08258928571428,2652.7,152.28571428571428,132.08258928571428,2766.2,152.28571428571428,132.08258928571428,2879.2,152.28571428571428,132.08258928571428,2982.3,152.28571428571428,132.08258928571428,3101.7,152.28571428571428,132.08258928571428,3203.6,152.28571428571428,132.08258928571428,3307.1,152.28571428571428,132.08258928571428,3425.3,152.28571428571428,132.08258928571428,3526,152.28571428571428,132.08258928571428,3651.7,152.28571428571428,132.08258928571428,3756.5,152.28571428571428,132.08258928571428,3866.7,152.28571428571428,132.08258928571428,3972.7,152.28571428571428,132.08258928571428,4081.9,152.28571428571428,132.08258928571428,4198.3,152.28571428571428,132.08258928571428,4316,152.28571428571428,132.08258928571428,4432.4,152.28571428571428,132.08258928571428,4545.5,152.28571428571428,132.08258928571428,4661.5,152.28571428571428,132.08258928571428,4773.5,152.28571428571428,132.08258928571428,4878.4,152.28571428571428,132.08258928571428,4987.4]","[1490,1490,1000,0,490,""smooth"",""up"",""up"",""good_move"",4816.4,3324.9,1936.9,1491.5,1388,""smooth"",""up"",""up"",""good_move"",8298,3481.4,1976.2,4816.7,1505.1,""oops"",""up"",""down"",""bad_move"",10829.2,2529.9,2085.8,8299.3,444.1,""smooth"",""left"",""left"",""good_move"",20779.7,9949.1,2698.7,17746.1,334.9,""smooth"",""left"",""left"",""good_move"",24397.8,3617.8,2720.3,20780,897.5,""oops"",""up"",""right"",""bad_move"",27167.8,2769.6,2375,24398.2,394.6,""oops"",""left"",""down"",""bad_move"",30009.9,2838.7,2465.7,27171.3,373,""oops"",""left"",""up"",""good_move"",37120,7107.9,2675.1,33988.1,456.8,""smooth"",""left"",""left"",""good_move"",41235.9,4115.8,2009.7,37120.1,2106.1,""oops"",""left"",""right"",""bad_move"",44990.6,3754.6,2431.3,41236,1323.3,""oops"",""left"",""left"",""good_move"",49848.6,4855.8,2139.8,44992.8,2716,""smooth"",""left"",""left"",""good_move"",61021,11170.8,2851.9,57766.7,402.4,""smooth"",""up"",""up"",""good_move"",64620.6,3595.7,1405.9,61025,2189.8,""smooth"",""up"",""up"",""good_move""]","",""
"1784","","<div style=""width:500px;"">
  <p>What determined the result of this run?</p>
  </div>","27","html-slider-response","60","858690","0.0-5.0-1.10","93","1","2025-07-16 09:41:52","1f75c3e559b7213887762d5229550c2b","84.67.40.4","Mozilla/5.0 (Macintosh; Intel Mac OS X 10_15_7) AppleWebKit/537.36 (KHTML, like Gecko) Chrome/138.0.0.0 Safari/537.36","Macintosh","Chrome","138.0.0.0","OS X","10_15_7","https://app.prolific.com/","en-GB,en-US;q=0.9,en;q=0.8","6658ba167affbe300577b93d","68764874ac79eee8c1d4cb03","687773dab44b46fc0fe93db0","2","0","6658ba167affbe300577b93d","2","0","2025-07-16T09:56:13.974Z","","","","","","","","","","","AttribQ","","50","","","","","","","","","","","","","","","","","","","","","","","","","","","","",""
"1986","","<div style=""width:500px;"">
  <p>How much control did you have over the ball?</p>
  </div>","39","html-slider-response","61","860680","0.0-5.0-2.10","93","1","2025-07-16 09:41:52","1f75c3e559b7213887762d5229550c2b","84.67.40.4","Mozilla/5.0 (Macintosh; Intel Mac OS X 10_15_7) AppleWebKit/537.36 (KHTML, like Gecko) Chrome/138.0.0.0 Safari/537.36","Macintosh","Chrome","138.0.0.0","OS X","10_15_7","https://app.prolific.com/","en-GB,en-US;q=0.9,en;q=0.8","6658ba167affbe300577b93d","68764874ac79eee8c1d4cb03","687773dab44b46fc0fe93db0","2","0","6658ba167affbe300577b93d","2","0","2025-07-16T09:56:15.965Z","","","","","","","","","","","ControlQ","","50","","","","","","","","","","","","","","","","","","","","","","","","","","","","",""
"1825","","<div style=""width:500px;"">
  <p>How would you describe your current emotional state?</p>
  </div>","67","html-slider-response","62","862507","0.0-5.0-3.10","93","1","2025-07-16 09:41:52","1f75c3e559b7213887762d5229550c2b","84.67.40.4","Mozilla/5.0 (Macintosh; Intel Mac OS X 10_15_7) AppleWebKit/537.36 (KHTML, like Gecko) Chrome/138.0.0.0 Safari/537.36","Macintosh","Chrome","138.0.0.0","OS X","10_15_7","https://app.prolific.com/","en-GB,en-US;q=0.9,en;q=0.8","6658ba167affbe300577b93d","68764874ac79eee8c1d4cb03","687773dab44b46fc0fe93db0","2","0","6658ba167affbe300577b93d","2","0","2025-07-16T09:56:17.791Z","","","","","","","","","","","StressQ","","50","","","","","","","","","","","","","","","","","","","","","","","","","","","","",""
"1227","","<div style=""width:500px;"">
  <p>What best describes how you currently feel?</p>
  </div>","76","html-slider-response","63","863736","0.0-5.0-4.10","93","1","2025-07-16 09:41:52","1f75c3e559b7213887762d5229550c2b","84.67.40.4","Mozilla/5.0 (Macintosh; Intel Mac OS X 10_15_7) AppleWebKit/537.36 (KHTML, like Gecko) Chrome/138.0.0.0 Safari/537.36","Macintosh","Chrome","138.0.0.0","OS X","10_15_7","https://app.prolific.com/","en-GB,en-US;q=0.9,en;q=0.8","6658ba167affbe300577b93d","68764874ac79eee8c1d4cb03","687773dab44b46fc0fe93db0","2","0","6658ba167affbe300577b93d","2","0","2025-07-16T09:56:19.020Z","","","","","","","","","","","MotivationQ","","50","","","","","","","","","","","","","","","","","","","","","","","","","","","","",""
"","","","","ctl-task-cpt","64","914845","0.0-5.0-0.11","93","1","2025-07-16 09:41:52","1f75c3e559b7213887762d5229550c2b","84.67.40.4","Mozilla/5.0 (Macintosh; Intel Mac OS X 10_15_7) AppleWebKit/537.36 (KHTML, like Gecko) Chrome/138.0.0.0 Safari/537.36","Macintosh","Chrome","138.0.0.0","OS X","10_15_7","https://app.prolific.com/","en-GB,en-US;q=0.9,en;q=0.8","6658ba167affbe300577b93d","68764874ac79eee8c1d4cb03","687773dab44b46fc0fe93db0","2","0","6658ba167affbe300577b93d","2","0","2025-07-16T09:57:10.130Z","","","","","","","","","","","","","","win-only","0","g1:NW,g2:SE","0.6","12","0","866456.8","1984.1","6985.5","48080.2","1","4","8","6","2","8","8","39","31","0.29545454545454547","1291.8","3000","1855","[""down"",""right""]","{""num_key_presses"":10,""num_perfect"":6,""num_errors"":0,""num_randdir"":4,""num_randdir_good_moves"":2,""num_whilered"":0,""num_whileblue"":0,""num_blue"":3,""num_good_moves"":8}","[698.2857142857143,684.0825892857143,0.4,698.2857142857143,684.0825892857143,118.4,698.2857142857143,684.0825892857143,221.6,698.2857142857143,684.0825892857143,335.4,698.2857142857143,684.0825892857143,457.5,698.2857142857143,684.0825892857143,570.3,698.2857142857143,684.0825892857143,674.5,706.2857142857143,696.0825892857143,784.8,1138.2857142857142,1254.0825892857142,899.5,1252.2857142857142,1340.0825892857142,1023.6,1262.2857142857142,1342.0825892857142,1132.1,1272.2857142857142,1324.0825892857142,1250.8,1272.2857142857142,1324.0825892857142,1361.4,1272.2857142857142,1324.0825892857142,1468.4,1272.2857142857142,1324.0825892857142,1579.5,1272.2857142857142,1324.0825892857142,1682.7,1272.2857142857142,1324.0825892857142,1787.6,1272.2857142857142,1324.0825892857142,1896.6,1272.2857142857142,1324.0825892857142,2011.5,1272.2857142857142,1324.0825892857142,2123.7,1272.2857142857142,1324.0825892857142,2232.9,1272.2857142857142,1324.0825892857142,2335.3,1272.2857142857142,1324.0825892857142,2450.1,1272.2857142857142,1324.0825892857142,2574.7,1272.2857142857142,1324.0825892857142,2690,1272.2857142857142,1324.0825892857142,2794.9,1272.2857142857142,1324.0825892857142,2908.5,1272.2857142857142,1324.0825892857142,3020.3,1272.2857142857142,1324.0825892857142,3124,1272.2857142857142,1324.0825892857142,3235.3,1272.2857142857142,1324.0825892857142,3345.9,1272.2857142857142,1324.0825892857142,3448.9,1272.2857142857142,1324.0825892857142,3571,1272.2857142857142,1324.0825892857142,3674.2,1272.2857142857142,1324.0825892857142,3792.7,1272.2857142857142,1324.0825892857142,3901.7,1272.2857142857142,1324.0825892857142,4012.4,1272.2857142857142,1324.0825892857142,4112.8,1272.2857142857142,1324.0825892857142,4226.4,1272.2857142857142,1324.0825892857142,4330.3,1272.2857142857142,1324.0825892857142,4450.5,1272.2857142857142,1324.0825892857142,4561.2,1272.2857142857142,1324.0825892857142,4664,1272.2857142857142,1324.0825892857142,4766.4,1272.2857142857142,1324.0825892857142,4879,1272.2857142857142,1324.0825892857142,4987]","[1577.7,1577.7,1000,0,577.7,""smooth"",""down"",""down"",""good_move"",4776.6,3198.6,2729.4,1578,469.2,""smooth"",""down"",""down"",""good_move"",11636.7,6859.9,2630.2,8564.2,442.3,""smooth"",""down"",""down"",""good_move"",14743.1,3104.9,2695.5,11638.2,409.4,""oops"",""right"",""left"",""bad_move"",25242,10497.6,2126.7,22605.5,509.8,""oops"",""right"",""right"",""good_move"",28103.2,2861,2270.5,25242.3,590.5,""smooth"",""right"",""right"",""good_move"",31263.1,3157.7,2710.1,28105.4,447.6,""smooth"",""right"",""right"",""good_move"",34249.5,2986.3,2604.1,31263.2,382.2,""oops"",""right"",""left"",""bad_move"",37949,3698.2,2665.5,34250.8,1032.7,""oops"",""right"",""right"",""good_move"",40751.7,2801,2386.3,37950.7,414.7,""smooth"",""right"",""right"",""good_move""]","",""
"3284","","<div style=""width:500px;"">
  <p>What determined the result of this run?</p>
  </div>","75","html-slider-response","65","918132","0.0-5.0-1.11","93","1","2025-07-16 09:41:52","1f75c3e559b7213887762d5229550c2b","84.67.40.4","Mozilla/5.0 (Macintosh; Intel Mac OS X 10_15_7) AppleWebKit/537.36 (KHTML, like Gecko) Chrome/138.0.0.0 Safari/537.36","Macintosh","Chrome","138.0.0.0","OS X","10_15_7","https://app.prolific.com/","en-GB,en-US;q=0.9,en;q=0.8","6658ba167affbe300577b93d","68764874ac79eee8c1d4cb03","687773dab44b46fc0fe93db0","2","0","6658ba167affbe300577b93d","2","0","2025-07-16T09:57:13.416Z","","","","","","","","","","","AttribQ","","50","","","","","","","","","","","","","","","","","","","","","","","","","","","","",""
"2432","","<div style=""width:500px;"">
  <p>How much control did you have over the ball?</p>
  </div>","66","html-slider-response","66","920566","0.0-5.0-2.11","93","1","2025-07-16 09:41:52","1f75c3e559b7213887762d5229550c2b","84.67.40.4","Mozilla/5.0 (Macintosh; Intel Mac OS X 10_15_7) AppleWebKit/537.36 (KHTML, like Gecko) Chrome/138.0.0.0 Safari/537.36","Macintosh","Chrome","138.0.0.0","OS X","10_15_7","https://app.prolific.com/","en-GB,en-US;q=0.9,en;q=0.8","6658ba167affbe300577b93d","68764874ac79eee8c1d4cb03","687773dab44b46fc0fe93db0","2","0","6658ba167affbe300577b93d","2","0","2025-07-16T09:57:15.850Z","","","","","","","","","","","ControlQ","","50","","","","","","","","","","","","","","","","","","","","","","","","","","","","",""
"2560","","<div style=""width:500px;"">
  <p>How would you describe your current emotional state?</p>
  </div>","66","html-slider-response","67","923132","0.0-5.0-3.11","93","1","2025-07-16 09:41:52","1f75c3e559b7213887762d5229550c2b","84.67.40.4","Mozilla/5.0 (Macintosh; Intel Mac OS X 10_15_7) AppleWebKit/537.36 (KHTML, like Gecko) Chrome/138.0.0.0 Safari/537.36","Macintosh","Chrome","138.0.0.0","OS X","10_15_7","https://app.prolific.com/","en-GB,en-US;q=0.9,en;q=0.8","6658ba167affbe300577b93d","68764874ac79eee8c1d4cb03","687773dab44b46fc0fe93db0","2","0","6658ba167affbe300577b93d","2","0","2025-07-16T09:57:18.416Z","","","","","","","","","","","StressQ","","50","","","","","","","","","","","","","","","","","","","","","","","","","","","","",""
"1717","","<div style=""width:500px;"">
  <p>What best describes how you currently feel?</p>
  </div>","71","html-slider-response","68","924851","0.0-5.0-4.11","93","1","2025-07-16 09:41:52","1f75c3e559b7213887762d5229550c2b","84.67.40.4","Mozilla/5.0 (Macintosh; Intel Mac OS X 10_15_7) AppleWebKit/537.36 (KHTML, like Gecko) Chrome/138.0.0.0 Safari/537.36","Macintosh","Chrome","138.0.0.0","OS X","10_15_7","https://app.prolific.com/","en-GB,en-US;q=0.9,en;q=0.8","6658ba167affbe300577b93d","68764874ac79eee8c1d4cb03","687773dab44b46fc0fe93db0","2","0","6658ba167affbe300577b93d","2","0","2025-07-16T09:57:20.135Z","","","","","","","","","","","MotivationQ","","50","","","","","","","","","","","","","","","","","","","","","","","","","","","","",""
"","","","","ctl-task-cpt","69","957405","0.0-5.0-0.12","93","1","2025-07-16 09:41:52","1f75c3e559b7213887762d5229550c2b","84.67.40.4","Mozilla/5.0 (Macintosh; Intel Mac OS X 10_15_7) AppleWebKit/537.36 (KHTML, like Gecko) Chrome/138.0.0.0 Safari/537.36","Macintosh","Chrome","138.0.0.0","OS X","10_15_7","https://app.prolific.com/","en-GB,en-US;q=0.9,en;q=0.8","6658ba167affbe300577b93d","68764874ac79eee8c1d4cb03","687773dab44b46fc0fe93db0","2","0","6658ba167affbe300577b93d","2","0","2025-07-16T09:57:52.690Z","","","","","","","","","","","","","","win-only","3","g1:SW,g2:NE","0.7","13","0","927568.9","912.6","5930.8","29534.6","1","4","8","6","2","8","8","47","39","0.3560606060606061","1151.3","3000","2355","[""up"",""right""]","{""num_key_presses"":6,""num_perfect"":6,""num_errors"":0,""num_randdir"":0,""num_randdir_good_moves"":0,""num_whilered"":0,""num_whileblue"":0,""num_blue"":1,""num_good_moves"":6}","[700.2857142857143,686.0825892857143,0.2,700.2857142857143,686.0825892857143,105.3,700.2857142857143,686.0825892857143,213.8,700.2857142857143,686.0825892857143,316.3,700.2857142857143,686.0825892857143,430.2,700.2857142857143,686.0825892857143,540.2,700.2857142857143,686.0825892857143,650.2,704.2857142857143,682.0825892857143,754.6,1098.2857142857142,314.0825892857143,855.1,1256.2857142857142,158.08258928571428,977.1,1266.2857142857142,138.08258928571428,1077.6,1266.2857142857142,136.08258928571428,1192.1,1266.2857142857142,136.08258928571428,1302,1266.2857142857142,136.08258928571428,1410,1266.2857142857142,136.08258928571428,1525.5,1266.2857142857142,136.08258928571428,1639.3,1266.2857142857142,136.08258928571428,1745.1,1266.2857142857142,136.08258928571428,1851.4,1266.2857142857142,136.08258928571428,1956.9,1266.2857142857142,136.08258928571428,2065.6,1266.2857142857142,136.08258928571428,2180,1266.2857142857142,136.08258928571428,2291.4,1266.2857142857142,136.08258928571428,2392.2,1266.2857142857142,136.08258928571428,2507.6,1266.2857142857142,136.08258928571428,2616.4,1266.2857142857142,136.08258928571428,2719.1,1266.2857142857142,136.08258928571428,2828.4,1266.2857142857142,136.08258928571428,2937.5,1266.2857142857142,136.08258928571428,3042,1266.2857142857142,136.08258928571428,3157.4,1266.2857142857142,136.08258928571428,3268.4,1266.2857142857142,136.08258928571428,3383.1,1266.2857142857142,136.08258928571428,3504.8,1266.2857142857142,136.08258928571428,3613,1266.2857142857142,136.08258928571428,3713.3,1266.2857142857142,136.08258928571428,3815.3,1266.2857142857142,136.08258928571428,3929.5,1266.2857142857142,136.08258928571428,4049.4,1266.2857142857142,136.08258928571428,4149.4,1266.2857142857142,136.08258928571428,4254.6,1266.2857142857142,136.08258928571428,4368.4,1266.2857142857142,136.08258928571428,4476.4,1266.2857142857142,136.08258928571428,4580,1266.2857142857142,136.08258928571428,4702.3,1266.2857142857142,136.08258928571428,4806.1,1266.2857142857142,136.08258928571428,4927.1]","[4871.4,4871.4,2385,2023.1,463.3,""smooth"",""up"",""up"",""good_move"",8692.3,3817.7,2497.6,4874.6,1320.1,""smooth"",""up"",""up"",""good_move"",12502.7,3806,3142.5,8696.7,663.5,""smooth"",""up"",""up"",""good_move"",16897.8,4394.8,2133.4,12503,2261.4,""smooth"",""right"",""right"",""good_move"",19874.8,2943.6,2310.8,16931.2,632.8,""smooth"",""right"",""right"",""good_move"",23149.8,3273.8,2922.5,19876,351.5,""smooth"",""right"",""right"",""good_move""]","",""
"2321","","<div style=""width:500px;"">
  <p>What determined the result of this run?</p>
  </div>","100","html-slider-response","70","959728","0.0-5.0-1.12","93","1","2025-07-16 09:41:52","1f75c3e559b7213887762d5229550c2b","84.67.40.4","Mozilla/5.0 (Macintosh; Intel Mac OS X 10_15_7) AppleWebKit/537.36 (KHTML, like Gecko) Chrome/138.0.0.0 Safari/537.36","Macintosh","Chrome","138.0.0.0","OS X","10_15_7","https://app.prolific.com/","en-GB,en-US;q=0.9,en;q=0.8","6658ba167affbe300577b93d","68764874ac79eee8c1d4cb03","687773dab44b46fc0fe93db0","2","0","6658ba167affbe300577b93d","2","0","2025-07-16T09:57:55.012Z","","","","","","","","","","","AttribQ","","50","","","","","","","","","","","","","","","","","","","","","","","","","","","","",""
"2100","","<div style=""width:500px;"">
  <p>How much control did you have over the ball?</p>
  </div>","100","html-slider-response","71","961829","0.0-5.0-2.12","93","1","2025-07-16 09:41:52","1f75c3e559b7213887762d5229550c2b","84.67.40.4","Mozilla/5.0 (Macintosh; Intel Mac OS X 10_15_7) AppleWebKit/537.36 (KHTML, like Gecko) Chrome/138.0.0.0 Safari/537.36","Macintosh","Chrome","138.0.0.0","OS X","10_15_7","https://app.prolific.com/","en-GB,en-US;q=0.9,en;q=0.8","6658ba167affbe300577b93d","68764874ac79eee8c1d4cb03","687773dab44b46fc0fe93db0","2","0","6658ba167affbe300577b93d","2","0","2025-07-16T09:57:57.113Z","","","","","","","","","","","ControlQ","","50","","","","","","","","","","","","","","","","","","","","","","","","","","","","",""
"2506","","<div style=""width:500px;"">
  <p>How would you describe your current emotional state?</p>
  </div>","63","html-slider-response","72","964337","0.0-5.0-3.12","93","1","2025-07-16 09:41:52","1f75c3e559b7213887762d5229550c2b","84.67.40.4","Mozilla/5.0 (Macintosh; Intel Mac OS X 10_15_7) AppleWebKit/537.36 (KHTML, like Gecko) Chrome/138.0.0.0 Safari/537.36","Macintosh","Chrome","138.0.0.0","OS X","10_15_7","https://app.prolific.com/","en-GB,en-US;q=0.9,en;q=0.8","6658ba167affbe300577b93d","68764874ac79eee8c1d4cb03","687773dab44b46fc0fe93db0","2","0","6658ba167affbe300577b93d","2","0","2025-07-16T09:57:59.621Z","","","","","","","","","","","StressQ","","50","","","","","","","","","","","","","","","","","","","","","","","","","","","","",""
"1697","","<div style=""width:500px;"">
  <p>What best describes how you currently feel?</p>
  </div>","96","html-slider-response","73","966035","0.0-5.0-4.12","93","1","2025-07-16 09:41:52","1f75c3e559b7213887762d5229550c2b","84.67.40.4","Mozilla/5.0 (Macintosh; Intel Mac OS X 10_15_7) AppleWebKit/537.36 (KHTML, like Gecko) Chrome/138.0.0.0 Safari/537.36","Macintosh","Chrome","138.0.0.0","OS X","10_15_7","https://app.prolific.com/","en-GB,en-US;q=0.9,en;q=0.8","6658ba167affbe300577b93d","68764874ac79eee8c1d4cb03","687773dab44b46fc0fe93db0","2","0","6658ba167affbe300577b93d","2","0","2025-07-16T09:58:01.320Z","","","","","","","","","","","MotivationQ","","50","","","","","","","","","","","","","","","","","","","","","","","","","","","","",""
