"rt","response_timestamp","stimulus","response","trial_type","trial_index","time_elapsed","internal_node_id","run_id","condition","recorded_at","source_code_version","ip","user_agent","device","browser","browser_version","platform","platform_version","referer","accept_language","PROLIFIC_PID","STUDY_ID","SESSION_ID","WEEK","BATCH","prolific_id","week","batch","realtime","success","responses","item_order","radio_event_ids","radio_event_times","key_event_times","mouse_event_times","straightlining","zigzagging","honeypot","eventType","view_history","slider_start","which_type","canvas_config","goals_layout","control_level","trial_number","tutorial_trial_number","trial_start_time","phase1_start_time","phase2_start_time","phase3_start_time","goal_1_value","goal_1_distance","goal_2_value","goal_2_distance","goal_selected","outcome","outcome_total","participant_final_score","participant_initial_score","participant_final_score_prop","goal_choice_rt","allocated_time","allocated_time_remaining","goal_direction","counts","mouse_movements","key_presses","question_order","question_id"
"10910","1752654591255","<p style='font-size:40px;line-height:1.25'><strong>Welcome to the experiment!</strong></p><p style='font-size:1.1em;line-height:1.25'>Thank you for participanting in our experiment again! You will be asked to play the Dysfunctional Ball Game again. We will briefly recap the rules before we start.</p><p style='font-size:1.1em;line-height:1.25'>Press <strong>Next</strong> to continue.</p>","0","custom-html-button-response","0","10913","0.0-0.0","64","1","2025-07-16 08:29:38","1f75c3e559b7213887762d5229550c2b","165.165.119.136","Mozilla/5.0 (Windows NT 10.0; Win64; x64) AppleWebKit/537.36 (KHTML, like Gecko) Chrome/138.0.0.0 Safari/537.36","WebKit","Chrome","138.0.0.0","Windows","10.0","https://app.prolific.com/","en-US,en;q=0.9","60a50457d02bfc23c02d4717","68764874ac79eee8c1d4cb03","687762da68123c2b4da93849","2","0","60a50457d02bfc23c02d4717","2","0","2025-07-16T08:29:51.256Z","","","","","","","","","","","","","","","","","","","","","","","","","","","","","","","","","","","","","","","","","",""
"14005","","","","fullscreen","1","25928","0.0-1.0","64","1","2025-07-16 08:29:38","1f75c3e559b7213887762d5229550c2b","165.165.119.136","Mozilla/5.0 (Windows NT 10.0; Win64; x64) AppleWebKit/537.36 (KHTML, like Gecko) Chrome/138.0.0.0 Safari/537.36","WebKit","Chrome","138.0.0.0","Windows","10.0","https://app.prolific.com/","en-US,en;q=0.9","60a50457d02bfc23c02d4717","68764874ac79eee8c1d4cb03","687762da68123c2b4da93849","2","0","60a50457d02bfc23c02d4717","2","0","","true","","","","","","","","","","","","","","","","","","","","","","","","","","","","","","","","","","","","","","","","",""
"76069","1752654682341","<p style='font-size:1.1em;line-height:1.25'>In the following, we will ask you a few questions relating to your feelings in the last 24 hours.<br></p><p style='font-size:1.1em;line-height:1.25'>Press the <strong>Next</strong> button to continue.</p>","0","custom-html-button-response","2","101998","0.0-2.0-0.0","64","1","2025-07-16 08:29:38","1f75c3e559b7213887762d5229550c2b","165.165.119.136","Mozilla/5.0 (Windows NT 10.0; Win64; x64) AppleWebKit/537.36 (KHTML, like Gecko) Chrome/138.0.0.0 Safari/537.36","WebKit","Chrome","138.0.0.0","Windows","10.0","https://app.prolific.com/","en-US,en;q=0.9","60a50457d02bfc23c02d4717","68764874ac79eee8c1d4cb03","687762da68123c2b4da93849","2","0","60a50457d02bfc23c02d4717","2","0","2025-07-16T08:31:22.342Z","","","","","","","","","","","","","","","","","","","","","","","","","","","","","","","","","","","","","","","","","",""
"205095.19999998808","","","","survey-template","3","307098","0.0-2.0-1.0","64","1","2025-07-16 08:29:38","1f75c3e559b7213887762d5229550c2b","165.165.119.136","Mozilla/5.0 (Windows NT 10.0; Win64; x64) AppleWebKit/537.36 (KHTML, like Gecko) Chrome/138.0.0.0 Safari/537.36","WebKit","Chrome","138.0.0.0","Windows","10.0","https://app.prolific.com/","en-US,en;q=0.9","60a50457d02bfc23c02d4717","68764874ac79eee8c1d4cb03","687762da68123c2b4da93849","2","0","60a50457d02bfc23c02d4717","2","0","2025-07-16T08:34:47.442Z","","{""Q01"":""1"",""Q02"":""1"",""Q03"":""1"",""Q04"":""3"",""Q05"":""1"",""Q06"":""1"",""Q07"":""1"",""Q08"":""1"",""Q09"":""1"",""Q10"":""2"",""Q11"":""1"",""Q12"":""2"",""Q13"":""5"",""Q14"":""3"",""Q15"":""1"",""Q16"":""1"",""Q17"":""3"",""Q18"":""1"",""Q19"":""2"",""Q20"":""1"",""Q21"":""1"",""Q22"":""1""}","[0,1,2,3,4,5,6,7,8,9,10,11,12,13,14,15,16,17,18,19,20,21]","[""Q01"",""Q02"",""Q03"",""Q04"",""Q05"",""Q06"",""Q07"",""Q08"",""Q09"",""Q10"",""Q11"",""Q13"",""Q12"",""Q14"",""Q15"",""Q16"",""Q17"",""Q18"",""Q19"",""Q20"",""Q21"",""Q22""]","[81629,104132.19999998808,105847.09999999404,110428.69999998808,112940.80000001192,114756.80000001192,116573.5,118532.80000001192,123756.59999999404,126292,129604.19999998808,153828.59999999404,172195.90000000596,174588.30000001192,179420.5,184180.40000000596,186331.90000000596,189276.5,194812.5,197716.30000001192,199675.80000001192,202331.5]","[]","[0.30000001192092896,79884.69999998808,81108.69999998808,81629,104132.19999998808,105847.09999999404,109861,110428.69999998808,112940.80000001192,114756.80000001192,116573.5,118532.80000001192,123756.59999999404,125676.59999999404,126292,129604.19999998808,153828.59999999404,172195.90000000596,174588.30000001192,177860.5,178533.40000000596,179420.5,182100.69999998808,183076.40000000596,183693.69999998808,184180.40000000596,186331.90000000596,188347.80000001192,189276.5,194812.5,197132.5,197716.30000001192,199675.80000001192,202331.5,205092.69999998808]","0.6818181818181818","0.23809523809523808","0","drsp","","","","","","","","","","","","","","","","","","","","","","","","","","","","","","",""
"58418","","","","survey-template","4","365518","0.0-2.0-2.0","64","1","2025-07-16 08:29:38","1f75c3e559b7213887762d5229550c2b","165.165.119.136","Mozilla/5.0 (Windows NT 10.0; Win64; x64) AppleWebKit/537.36 (KHTML, like Gecko) Chrome/138.0.0.0 Safari/537.36","WebKit","Chrome","138.0.0.0","Windows","10.0","https://app.prolific.com/","en-US,en;q=0.9","60a50457d02bfc23c02d4717","68764874ac79eee8c1d4cb03","687762da68123c2b4da93849","2","0","60a50457d02bfc23c02d4717","2","0","2025-07-16T08:35:45.861Z","","{""Q01"":""3"",""Q02"":""1"",""Q03"":""1""}","[0,1,2]","[""Q01"",""Q02"",""Q03""]","[15369.5,22041.09999999404,56849.30000001192]","[]","[15369.5,21393.70000001788,22041.09999999404,55913.5,56849.30000001192,58417.5]","0.3333333333333333","0.5","0","stress","","","","","","","","","","","","","","","","","","","","","","","","","","","","","","",""
"118946","","","","instructions","5","484465","0.0-3.0-0.0","64","1","2025-07-16 08:29:38","1f75c3e559b7213887762d5229550c2b","165.165.119.136","Mozilla/5.0 (Windows NT 10.0; Win64; x64) AppleWebKit/537.36 (KHTML, like Gecko) Chrome/138.0.0.0 Safari/537.36","WebKit","Chrome","138.0.0.0","Windows","10.0","https://app.prolific.com/","en-US,en;q=0.9","60a50457d02bfc23c02d4717","68764874ac79eee8c1d4cb03","687762da68123c2b4da93849","2","0","60a50457d02bfc23c02d4717","2","0","","","","","","","","","","","","","[{""page_index"":0,""viewing_time"":118946}]","","","","","","","","","","","","","","","","","","","","","","","","","","","","","",""
"43936","","<p>Before you start with this game please answer the following three questions yourself. </p>
  <p>Through this game, we measure several aspects of your cognitive performance, such as reaction times, multi-tasking capabilities </p>
  <p>and the ability to assess the situation you are in.</p>
  <p></p>
  <p><b>How good do you usually are in such tasks?</b></p>","44","html-slider-response","6","528404","0.0-4.0-0.0","64","1","2025-07-16 08:29:38","1f75c3e559b7213887762d5229550c2b","165.165.119.136","Mozilla/5.0 (Windows NT 10.0; Win64; x64) AppleWebKit/537.36 (KHTML, like Gecko) Chrome/138.0.0.0 Safari/537.36","WebKit","Chrome","138.0.0.0","Windows","10.0","https://app.prolific.com/","en-US,en;q=0.9","60a50457d02bfc23c02d4717","68764874ac79eee8c1d4cb03","687762da68123c2b4da93849","2","0","60a50457d02bfc23c02d4717","2","0","2025-07-16T08:38:28.747Z","","","","","","","","","","","PreSkillQ","","50","","","","","","","","","","","","","","","","","","","","","","","","","","","","",""
"5855","","<div style=""width:500px;"">
  <p>How well do you think you will perform in this task compared to other participants?</p>
  </div>","33","html-slider-response","7","534261","0.0-4.0-1.0","64","1","2025-07-16 08:29:38","1f75c3e559b7213887762d5229550c2b","165.165.119.136","Mozilla/5.0 (Windows NT 10.0; Win64; x64) AppleWebKit/537.36 (KHTML, like Gecko) Chrome/138.0.0.0 Safari/537.36","WebKit","Chrome","138.0.0.0","Windows","10.0","https://app.prolific.com/","en-US,en;q=0.9","60a50457d02bfc23c02d4717","68764874ac79eee8c1d4cb03","687762da68123c2b4da93849","2","0","60a50457d02bfc23c02d4717","2","0","2025-07-16T08:38:34.604Z","","","","","","","","","","","PrePerfQ","","50","","","","","","","","","","","","","","","","","","","","","","","","","","","","",""
"94398","","<div style=""width:500px;"">
  <p>What best describes how you currently feel?</p>
  </div>","79","html-slider-response","8","628660","0.0-4.0-2.0","64","1","2025-07-16 08:29:38","1f75c3e559b7213887762d5229550c2b","165.165.119.136","Mozilla/5.0 (Windows NT 10.0; Win64; x64) AppleWebKit/537.36 (KHTML, like Gecko) Chrome/138.0.0.0 Safari/537.36","WebKit","Chrome","138.0.0.0","Windows","10.0","https://app.prolific.com/","en-US,en;q=0.9","60a50457d02bfc23c02d4717","68764874ac79eee8c1d4cb03","687762da68123c2b4da93849","2","0","60a50457d02bfc23c02d4717","2","0","2025-07-16T08:40:09.003Z","","","","","","","","","","","PreMotivationQ","","50","","","","","","","","","","","","","","","","","","","","","","","","","","","","",""
"","","","","ctl-task-cpt","9","726826","0.0-5.0-0.0","64","1","2025-07-16 08:29:38","1f75c3e559b7213887762d5229550c2b","165.165.119.136","Mozilla/5.0 (Windows NT 10.0; Win64; x64) AppleWebKit/537.36 (KHTML, like Gecko) Chrome/138.0.0.0 Safari/537.36","WebKit","Chrome","138.0.0.0","Windows","10.0","https://app.prolific.com/","en-US,en;q=0.9","60a50457d02bfc23c02d4717","68764874ac79eee8c1d4cb03","687762da68123c2b4da93849","2","0","60a50457d02bfc23c02d4717","2","0","2025-07-16T08:41:47.169Z","","","","","","","","","","","","","","win-only","2","g1:SE,g2:NW","1","1","0","631069.7","68180.2","73180.5","95107.5","1","4","8","6","1","1","1","1","0","0.007575757575757576","1920.8","3000","685","[""down"",""right""]","{""num_key_presses"":4,""num_perfect"":4,""num_errors"":0,""num_randdir"":0,""num_randdir_good_moves"":0,""num_whilered"":0,""num_whileblue"":0,""num_blue"":3,""num_good_moves"":4}","[418.57142857142856,409.47767857142856,1.2,418.57142857142856,409.47767857142856,100.3,418.57142857142856,409.47767857142856,205.3,418.57142857142856,409.47767857142856,305.4,418.57142857142856,409.47767857142856,406,418.57142857142856,409.47767857142856,507.2,418.57142857142856,409.47767857142856,616.5,418.57142857142856,409.47767857142856,716.8,418.57142857142856,409.47767857142856,820.3,418.57142857142856,409.47767857142856,920.8,418.57142857142856,409.47767857142856,1026.1,418.57142857142856,409.47767857142856,1133.6,430.57142857142856,430.47767857142856,1234.3,522.5714285714286,522.4776785714286,1335.8,619.5714285714286,629.4776785714286,1440.3,641.5714285714286,647.4776785714286,1542.3,735.5714285714286,735.4776785714286,1651.5,784.5714285714286,771.4776785714286,1755.5,791.5714285714286,775.4776785714286,1856.1,791.5714285714286,775.4776785714286,1961.5,790.5714285714286,775.4776785714286,2066.9,775.5714285714286,769.4776785714286,2166.9,775.5714285714286,769.4776785714286,2270.7,775.5714285714286,769.4776785714286,2371.5,775.5714285714286,769.4776785714286,2476.4,775.5714285714286,769.4776785714286,2583.3,775.5714285714286,769.4776785714286,2683.7,775.5714285714286,769.4776785714286,2783.7,775.5714285714286,769.4776785714286,2885.2,775.5714285714286,769.4776785714286,2985.6,775.5714285714286,769.4776785714286,3085.6,775.5714285714286,769.4776785714286,3191.4,775.5714285714286,769.4776785714286,3291.5,775.5714285714286,769.4776785714286,3391.6,775.5714285714286,769.4776785714286,3491.6,775.5714285714286,769.4776785714286,3596.2,775.5714285714286,769.4776785714286,3699.8,775.5714285714286,769.4776785714286,3800.4,775.5714285714286,769.4776785714286,3906.5,775.5714285714286,769.4776785714286,4011.3,775.5714285714286,769.4776785714286,4116.7,775.5714285714286,769.4776785714286,4216.7,775.5714285714286,769.4776785714286,4316.7,775.5714285714286,769.4776785714286,4420.8,775.5714285714286,769.4776785714286,4521.2,775.5714285714286,769.4776785714286,4625.3,775.5714285714286,769.4776785714286,4725.3,775.5714285714286,769.4776785714286,4833,775.5714285714286,769.4776785714286,4933.5]","[1532.7,1532.7,1000,0,532.7,""smooth"",""right"",""right"",""good_move"",15058.5,13525.4,2965.7,11532.3,560.5,""smooth"",""down"",""down"",""good_move"",19370.1,4311.3,3213.7,15058.8,1097.6,""smooth"",""right"",""right"",""good_move"",21824.3,2454,2043.8,19370.3,410.2,""smooth"",""down"",""down"",""good_move""]","",""
"5561","","<div style=""width:500px;"">
  <p>What determined the result of this run?</p>
  </div>","100","html-slider-response","10","732388","0.0-5.0-1.0","64","1","2025-07-16 08:29:38","1f75c3e559b7213887762d5229550c2b","165.165.119.136","Mozilla/5.0 (Windows NT 10.0; Win64; x64) AppleWebKit/537.36 (KHTML, like Gecko) Chrome/138.0.0.0 Safari/537.36","WebKit","Chrome","138.0.0.0","Windows","10.0","https://app.prolific.com/","en-US,en;q=0.9","60a50457d02bfc23c02d4717","68764874ac79eee8c1d4cb03","687762da68123c2b4da93849","2","0","60a50457d02bfc23c02d4717","2","0","2025-07-16T08:41:52.731Z","","","","","","","","","","","AttribQ","","50","","","","","","","","","","","","","","","","","","","","","","","","","","","","",""
"72698","","<div style=""width:500px;"">
  <p>How much control did you have over the ball?</p>
  </div>","100","html-slider-response","11","805088","0.0-5.0-2.0","64","1","2025-07-16 08:29:38","1f75c3e559b7213887762d5229550c2b","165.165.119.136","Mozilla/5.0 (Windows NT 10.0; Win64; x64) AppleWebKit/537.36 (KHTML, like Gecko) Chrome/138.0.0.0 Safari/537.36","WebKit","Chrome","138.0.0.0","Windows","10.0","https://app.prolific.com/","en-US,en;q=0.9","60a50457d02bfc23c02d4717","68764874ac79eee8c1d4cb03","687762da68123c2b4da93849","2","0","60a50457d02bfc23c02d4717","2","0","2025-07-16T08:43:05.431Z","","","","","","","","","","","ControlQ","","50","","","","","","","","","","","","","","","","","","","","","","","","","","","","",""
"42143","","<div style=""width:500px;"">
  <p>How would you describe your current emotional state?</p>
  </div>","100","html-slider-response","12","847232","0.0-5.0-3.0","64","1","2025-07-16 08:29:38","1f75c3e559b7213887762d5229550c2b","165.165.119.136","Mozilla/5.0 (Windows NT 10.0; Win64; x64) AppleWebKit/537.36 (KHTML, like Gecko) Chrome/138.0.0.0 Safari/537.36","WebKit","Chrome","138.0.0.0","Windows","10.0","https://app.prolific.com/","en-US,en;q=0.9","60a50457d02bfc23c02d4717","68764874ac79eee8c1d4cb03","687762da68123c2b4da93849","2","0","60a50457d02bfc23c02d4717","2","0","2025-07-16T08:43:47.575Z","","","","","","","","","","","StressQ","","50","","","","","","","","","","","","","","","","","","","","","","","","","","","","",""
"10311","","<div style=""width:500px;"">
  <p>What best describes how you currently feel?</p>
  </div>","72","html-slider-response","13","857544","0.0-5.0-4.0","64","1","2025-07-16 08:29:38","1f75c3e559b7213887762d5229550c2b","165.165.119.136","Mozilla/5.0 (Windows NT 10.0; Win64; x64) AppleWebKit/537.36 (KHTML, like Gecko) Chrome/138.0.0.0 Safari/537.36","WebKit","Chrome","138.0.0.0","Windows","10.0","https://app.prolific.com/","en-US,en;q=0.9","60a50457d02bfc23c02d4717","68764874ac79eee8c1d4cb03","687762da68123c2b4da93849","2","0","60a50457d02bfc23c02d4717","2","0","2025-07-16T08:43:57.887Z","","","","","","","","","","","MotivationQ","","50","","","","","","","","","","","","","","","","","","","","","","","","","","","","",""
"","","","","ctl-task-cpt","14","897953","0.0-5.0-0.1","64","1","2025-07-16 08:29:38","1f75c3e559b7213887762d5229550c2b","165.165.119.136","Mozilla/5.0 (Windows NT 10.0; Win64; x64) AppleWebKit/537.36 (KHTML, like Gecko) Chrome/138.0.0.0 Safari/537.36","WebKit","Chrome","138.0.0.0","Windows","10.0","https://app.prolific.com/","en-US,en;q=0.9","60a50457d02bfc23c02d4717","68764874ac79eee8c1d4cb03","687762da68123c2b4da93849","2","0","60a50457d02bfc23c02d4717","2","0","2025-07-16T08:44:38.296Z","","","","","","","","","","","","","","win-only","0","g1:NW,g2:SE","0.9","2","0","859903.3","13677.9","18681.2","37392.2","1","4","4","6","1","1","0","1","1","0.007575757575757576","2240.6","3000","295","[""left"",""up""]","{""num_key_presses"":6,""num_perfect"":4,""num_errors"":1,""num_randdir"":1,""num_randdir_good_moves"":0,""num_whilered"":0,""num_whileblue"":1,""num_blue"":2,""num_good_moves"":5}","[409.57142857142856,412.47767857142856,0.2,409.57142857142856,412.47767857142856,103.3,409.57142857142856,412.47767857142856,203.5,409.57142857142856,412.47767857142856,307.7,409.57142857142856,412.47767857142856,408.3,409.57142857142856,412.47767857142856,509.4,409.57142857142856,412.47767857142856,613.7,406.57142857142856,412.47767857142856,715.2,394.57142857142856,406.47767857142856,817.8,261.57142857142856,353.47767857142856,918,177.57142857142856,272.47767857142856,1023.1,124.57142857142857,200.47767857142856,1123.5,123.57142857142857,187.47767857142856,1228.2,113.57142857142857,164.47767857142856,1329,105.57142857142857,146.47767857142856,1433,99.57142857142857,135.47767857142856,1533.5,99.57142857142857,134.47767857142856,1633.5,99.57142857142857,133.47767857142856,1738.1,99.57142857142857,133.47767857142856,1838.2,99.57142857142857,133.47767857142856,1939.9,99.57142857142857,133.47767857142856,2043.6,99.57142857142857,133.47767857142856,2148.1,99.57142857142857,133.47767857142856,2249.1,99.57142857142857,133.47767857142856,2349.1,99.57142857142857,133.47767857142856,2449.5,99.57142857142857,133.47767857142856,2552.7,99.57142857142857,133.47767857142856,2652.7,146.57142857142856,528.4776785714286,2752.8,177.57142857142856,836.4776785714286,2858.7,163.57142857142856,839.4776785714286,2963.9,37.57142857142857,745.4776785714286,3069.8,-171.42857142857144,655.4776785714286,3173.3,-187.42857142857144,646.4776785714286,3273.4,-191.42857142857144,642.4776785714286,3377.7,-193.42857142857144,642.4776785714286,3478.5,-193.42857142857144,642.4776785714286,3582.7,-193.42857142857144,642.4776785714286,3683.1,-193.42857142857144,642.4776785714286,3787.6,-193.42857142857144,642.4776785714286,3887.7,-193.42857142857144,642.4776785714286,3988.9,-193.42857142857144,642.4776785714286,4093.3,-193.42857142857144,642.4776785714286,4198.7,-193.42857142857144,642.4776785714286,4299.1,-193.42857142857144,642.4776785714286,4399.2,-193.42857142857144,642.4776785714286,4502.8,-193.42857142857144,642.4776785714286,4603,-193.42857142857144,642.4776785714286,4703.4,-193.42857142857144,642.4776785714286,4808.4,-193.42857142857144,642.4776785714286,4912.5]","[1448,1447.9,1000,0.1,447.9,""smooth"",""left"",""left"",""good_move"",4166.5,2718.1,2298.8,1448.4,419.3,""smooth"",""left"",""left"",""good_move"",7432.6,3265.8,2944.9,4166.8,320.9,""while_blue"",""up"",""up"",""good_move"",10493.2,3060.1,2209.2,7433.2,850.8,""oops"",""up"",""right"",""bad_move"",13089.3,2596,2005.8,10493.4,590.2,""smooth"",""left"",""left"",""good_move"",18625,5535.4,1635.7,16556.2,433.1,""smooth"",""up"",""up"",""good_move""]","",""
"6411","","<div style=""width:500px;"">
  <p>What determined the result of this run?</p>
  </div>","89","html-slider-response","15","904365","0.0-5.0-1.1","64","1","2025-07-16 08:29:38","1f75c3e559b7213887762d5229550c2b","165.165.119.136","Mozilla/5.0 (Windows NT 10.0; Win64; x64) AppleWebKit/537.36 (KHTML, like Gecko) Chrome/138.0.0.0 Safari/537.36","WebKit","Chrome","138.0.0.0","Windows","10.0","https://app.prolific.com/","en-US,en;q=0.9","60a50457d02bfc23c02d4717","68764874ac79eee8c1d4cb03","687762da68123c2b4da93849","2","0","60a50457d02bfc23c02d4717","2","0","2025-07-16T08:44:44.708Z","","","","","","","","","","","AttribQ","","50","","","","","","","","","","","","","","","","","","","","","","","","","","","","",""
"4745","","<div style=""width:500px;"">
  <p>How much control did you have over the ball?</p>
  </div>","87","html-slider-response","16","909111","0.0-5.0-2.1","64","1","2025-07-16 08:29:38","1f75c3e559b7213887762d5229550c2b","165.165.119.136","Mozilla/5.0 (Windows NT 10.0; Win64; x64) AppleWebKit/537.36 (KHTML, like Gecko) Chrome/138.0.0.0 Safari/537.36","WebKit","Chrome","138.0.0.0","Windows","10.0","https://app.prolific.com/","en-US,en;q=0.9","60a50457d02bfc23c02d4717","68764874ac79eee8c1d4cb03","687762da68123c2b4da93849","2","0","60a50457d02bfc23c02d4717","2","0","2025-07-16T08:44:49.454Z","","","","","","","","","","","ControlQ","","50","","","","","","","","","","","","","","","","","","","","","","","","","","","","",""
"11640","","<div style=""width:500px;"">
  <p>How would you describe your current emotional state?</p>
  </div>","78","html-slider-response","17","920751","0.0-5.0-3.1","64","1","2025-07-16 08:29:38","1f75c3e559b7213887762d5229550c2b","165.165.119.136","Mozilla/5.0 (Windows NT 10.0; Win64; x64) AppleWebKit/537.36 (KHTML, like Gecko) Chrome/138.0.0.0 Safari/537.36","WebKit","Chrome","138.0.0.0","Windows","10.0","https://app.prolific.com/","en-US,en;q=0.9","60a50457d02bfc23c02d4717","68764874ac79eee8c1d4cb03","687762da68123c2b4da93849","2","0","60a50457d02bfc23c02d4717","2","0","2025-07-16T08:45:01.094Z","","","","","","","","","","","StressQ","","50","","","","","","","","","","","","","","","","","","","","","","","","","","","","",""
"3210","","<div style=""width:500px;"">
  <p>What best describes how you currently feel?</p>
  </div>","65","html-slider-response","18","923963","0.0-5.0-4.1","64","1","2025-07-16 08:29:38","1f75c3e559b7213887762d5229550c2b","165.165.119.136","Mozilla/5.0 (Windows NT 10.0; Win64; x64) AppleWebKit/537.36 (KHTML, like Gecko) Chrome/138.0.0.0 Safari/537.36","WebKit","Chrome","138.0.0.0","Windows","10.0","https://app.prolific.com/","en-US,en;q=0.9","60a50457d02bfc23c02d4717","68764874ac79eee8c1d4cb03","687762da68123c2b4da93849","2","0","60a50457d02bfc23c02d4717","2","0","2025-07-16T08:45:04.306Z","","","","","","","","","","","MotivationQ","","50","","","","","","","","","","","","","","","","","","","","","","","","","","","","",""
"","","","","ctl-task-cpt","19","951074","0.0-5.0-0.2","64","1","2025-07-16 08:29:38","1f75c3e559b7213887762d5229550c2b","165.165.119.136","Mozilla/5.0 (Windows NT 10.0; Win64; x64) AppleWebKit/537.36 (KHTML, like Gecko) Chrome/138.0.0.0 Safari/537.36","WebKit","Chrome","138.0.0.0","Windows","10.0","https://app.prolific.com/","en-US,en;q=0.9","60a50457d02bfc23c02d4717","68764874ac79eee8c1d4cb03","687762da68123c2b4da93849","2","0","60a50457d02bfc23c02d4717","2","0","2025-07-16T08:45:31.417Z","","","","","","","","","","","","","","win-only","2","g1:SE,g2:NW","0.8","3","0","926321.5","2574.5","7575.8","24100.9","1","4","8","6","1","1","1","2","1","0.015151515151515152","1952.6","3000","670","[""down"",""right""]","{""num_key_presses"":6,""num_perfect"":5,""num_errors"":0,""num_randdir"":1,""num_randdir_good_moves"":0,""num_whilered"":0,""num_whileblue"":0,""num_blue"":0,""num_good_moves"":5}","[424.57142857142856,424.47767857142856,0.2,424.57142857142856,424.47767857142856,100.9,424.57142857142856,424.47767857142856,201.1,424.57142857142856,424.47767857142856,301.5,424.57142857142856,424.47767857142856,406.5,424.57142857142856,424.47767857142856,506.7,424.57142857142856,424.47767857142856,607,424.57142857142856,424.47767857142856,712,424.57142857142856,424.47767857142856,818.6,490.57142857142856,453.47767857142856,921,570.5714285714286,511.47767857142856,1034.3,623.5714285714286,575.4776785714286,1135.6,659.5714285714286,615.4776785714286,1236,683.5714285714286,637.4776785714286,1341.8,747.5714285714286,684.4776785714286,1446,764.5714285714286,702.4776785714286,1546.3,773.5714285714286,716.4776785714286,1650.8,774.5714285714286,722.4776785714286,1751.2,774.5714285714286,722.4776785714286,1851.4,774.5714285714286,722.4776785714286,1951.5,774.5714285714286,722.4776785714286,2051.7,774.5714285714286,722.4776785714286,2156.4,774.5714285714286,722.4776785714286,2256.5,774.5714285714286,722.4776785714286,2360.8,774.5714285714286,722.4776785714286,2462.1,774.5714285714286,722.4776785714286,2562.1,774.5714285714286,722.4776785714286,2662.2,774.5714285714286,722.4776785714286,2762.2,774.5714285714286,722.4776785714286,2869.1,774.5714285714286,722.4776785714286,2971.4,774.5714285714286,722.4776785714286,3072.5,774.5714285714286,722.4776785714286,3176,774.5714285714286,722.4776785714286,3276.4,770.5714285714286,717.4776785714286,3376.4,636.5714285714286,610.4776785714286,3476.8,549.5714285714286,568.4776785714286,3584.8,391.57142857142856,520.4776785714286,3686.9,-63.42857142857143,382.47767857142856,3790.9,-277.42857142857144,356.47767857142856,3892.7,-278.42857142857144,356.47767857142856,4000.7,-278.42857142857144,356.47767857142856,4101.5,-278.42857142857144,356.47767857142856,4201.6,-278.42857142857144,356.47767857142856,4301.6,-278.42857142857144,356.47767857142856,4407.6,-278.42857142857144,356.47767857142856,4512.3,-278.42857142857144,356.47767857142856,4619,-278.42857142857144,356.47767857142856,4719.5,-278.42857142857144,356.47767857142856,4821.6,-278.42857142857144,356.47767857142856,4926.1]","[1682.5,1682.5,1000,0,682.5,""smooth"",""down"",""down"",""good_move"",4582.4,2899.6,2402.7,1682.8,496.9,""smooth"",""down"",""down"",""good_move"",8283,3700.6,3294,4582.4,406.6,""smooth"",""right"",""right"",""good_move"",11149.2,2865.8,2463.4,8283.4,402.4,""oops"",""right"",""up"",""bad_move"",13332.3,2182.9,1789.9,11149.4,393,""smooth"",""right"",""right"",""good_move"",16432.6,3100,2762.5,13332.6,337.5,""smooth"",""down"",""down"",""good_move""]","",""
"51737","","<div style=""width:500px;"">
  <p>What determined the result of this run?</p>
  </div>","85","html-slider-response","20","1002812","0.0-5.0-1.2","64","1","2025-07-16 08:29:38","1f75c3e559b7213887762d5229550c2b","165.165.119.136","Mozilla/5.0 (Windows NT 10.0; Win64; x64) AppleWebKit/537.36 (KHTML, like Gecko) Chrome/138.0.0.0 Safari/537.36","WebKit","Chrome","138.0.0.0","Windows","10.0","https://app.prolific.com/","en-US,en;q=0.9","60a50457d02bfc23c02d4717","68764874ac79eee8c1d4cb03","687762da68123c2b4da93849","2","0","60a50457d02bfc23c02d4717","2","0","2025-07-16T08:46:23.155Z","","","","","","","","","","","AttribQ","","50","","","","","","","","","","","","","","","","","","","","","","","","","","","","",""
"16077","","<div style=""width:500px;"">
  <p>How much control did you have over the ball?</p>
  </div>","89","html-slider-response","21","1018890","0.0-5.0-2.2","64","1","2025-07-16 08:29:38","1f75c3e559b7213887762d5229550c2b","165.165.119.136","Mozilla/5.0 (Windows NT 10.0; Win64; x64) AppleWebKit/537.36 (KHTML, like Gecko) Chrome/138.0.0.0 Safari/537.36","WebKit","Chrome","138.0.0.0","Windows","10.0","https://app.prolific.com/","en-US,en;q=0.9","60a50457d02bfc23c02d4717","68764874ac79eee8c1d4cb03","687762da68123c2b4da93849","2","0","60a50457d02bfc23c02d4717","2","0","2025-07-16T08:46:39.233Z","","","","","","","","","","","ControlQ","","50","","","","","","","","","","","","","","","","","","","","","","","","","","","","",""
"8412","","<div style=""width:500px;"">
  <p>How would you describe your current emotional state?</p>
  </div>","66","html-slider-response","22","1027303","0.0-5.0-3.2","64","1","2025-07-16 08:29:38","1f75c3e559b7213887762d5229550c2b","165.165.119.136","Mozilla/5.0 (Windows NT 10.0; Win64; x64) AppleWebKit/537.36 (KHTML, like Gecko) Chrome/138.0.0.0 Safari/537.36","WebKit","Chrome","138.0.0.0","Windows","10.0","https://app.prolific.com/","en-US,en;q=0.9","60a50457d02bfc23c02d4717","68764874ac79eee8c1d4cb03","687762da68123c2b4da93849","2","0","60a50457d02bfc23c02d4717","2","0","2025-07-16T08:46:47.647Z","","","","","","","","","","","StressQ","","50","","","","","","","","","","","","","","","","","","","","","","","","","","","","",""
"18151","","<div style=""width:500px;"">
  <p>What best describes how you currently feel?</p>
  </div>","79","html-slider-response","23","1045456","0.0-5.0-4.2","64","1","2025-07-16 08:29:38","1f75c3e559b7213887762d5229550c2b","165.165.119.136","Mozilla/5.0 (Windows NT 10.0; Win64; x64) AppleWebKit/537.36 (KHTML, like Gecko) Chrome/138.0.0.0 Safari/537.36","WebKit","Chrome","138.0.0.0","Windows","10.0","https://app.prolific.com/","en-US,en;q=0.9","60a50457d02bfc23c02d4717","68764874ac79eee8c1d4cb03","687762da68123c2b4da93849","2","0","60a50457d02bfc23c02d4717","2","0","2025-07-16T08:47:05.799Z","","","","","","","","","","","MotivationQ","","50","","","","","","","","","","","","","","","","","","","","","","","","","","","","",""
"","","","","ctl-task-cpt","24","1080021","0.0-5.0-0.3","64","1","2025-07-16 08:29:38","1f75c3e559b7213887762d5229550c2b","165.165.119.136","Mozilla/5.0 (Windows NT 10.0; Win64; x64) AppleWebKit/537.36 (KHTML, like Gecko) Chrome/138.0.0.0 Safari/537.36","WebKit","Chrome","138.0.0.0","Windows","10.0","https://app.prolific.com/","en-US,en;q=0.9","60a50457d02bfc23c02d4717","68764874ac79eee8c1d4cb03","687762da68123c2b4da93849","2","0","60a50457d02bfc23c02d4717","2","0","2025-07-16T08:47:40.365Z","","","","","","","","","","","","","","win-only","2","g1:SE,g2:NW","0.7","4","0","1047814.7","9680.3","14686.6","31547.2","1","4","4","6","1","-1","-1","1","2","0.007575757575757576","1453.7","3000","-2440","[""down"",""right""]","{""num_key_presses"":5,""num_perfect"":3,""num_errors"":0,""num_randdir"":2,""num_randdir_good_moves"":0,""num_whilered"":0,""num_whileblue"":0,""num_blue"":0,""num_good_moves"":3}","[421.57142857142856,418.47767857142856,0.2,421.57142857142856,418.47767857142856,101.7,421.57142857142856,418.47767857142856,205.6,421.57142857142856,418.47767857142856,307.5,421.57142857142856,418.47767857142856,417.3,421.57142857142856,418.47767857142856,520.6,421.57142857142856,418.47767857142856,620.7,421.57142857142856,418.47767857142856,726.1,481.57142857142856,462.47767857142856,833.9,523.5714285714286,502.47767857142856,934.4,666.5714285714286,671.4776785714286,1034.9,696.5714285714286,705.4776785714286,1135.8,714.5714285714286,729.4776785714286,1241.2,723.5714285714286,736.4776785714286,1350,723.5714285714286,736.4776785714286,1450.3,723.5714285714286,736.4776785714286,1550.8,723.5714285714286,736.4776785714286,1656.6,747.5714285714286,735.4776785714286,1760.5,856.5714285714286,713.4776785714286,1868.2,979.5714285714286,684.4776785714286,1970,994.5714285714286,672.4776785714286,2070.4,994.5714285714286,666.4776785714286,2170.7,993.5714285714286,666.4776785714286,2283.9,993.5714285714286,666.4776785714286,2383.9,993.5714285714286,666.4776785714286,2486.2,993.5714285714286,666.4776785714286,2591.3,993.5714285714286,666.4776785714286,2691.3,993.5714285714286,666.4776785714286,2800.3,993.5714285714286,666.4776785714286,2900.5,993.5714285714286,666.4776785714286,3000.7,993.5714285714286,666.4776785714286,3105.4,993.5714285714286,666.4776785714286,3206.5,993.5714285714286,666.4776785714286,3310.2,993.5714285714286,666.4776785714286,3410.4,993.5714285714286,666.4776785714286,3510.4,993.5714285714286,666.4776785714286,3610.5,993.5714285714286,666.4776785714286,3718.5,993.5714285714286,666.4776785714286,3820.3,993.5714285714286,666.4776785714286,3920.3,993.5714285714286,666.4776785714286,4034.2,993.5714285714286,666.4776785714286,4135.3,993.5714285714286,666.4776785714286,4235.9,993.5714285714286,666.4776785714286,4340.6,993.5714285714286,666.4776785714286,4451.1,993.5714285714286,666.4776785714286,4555.6,993.5714285714286,666.4776785714286,4660.6,993.5714285714286,666.4776785714286,4760.6,993.5714285714286,666.4776785714286,4869.2,993.5714285714286,666.4776785714286,4970.4]","[1561.3,1561.3,1000,0,561.3,""oops"",""down"",""up"",""bad_move"",4493.3,2931.7,2388.6,1561.6,543.1,""smooth"",""right"",""right"",""good_move"",7054.4,2560.8,2153.3,4493.6,407.5,""smooth"",""down"",""down"",""good_move"",9993.7,2938.7,2493.7,7055,445,""smooth"",""down"",""down"",""good_move"",13600.1,3606.1,3207,9994,399.1,""oops"",""right"",""up"",""bad_move""]","",""
"3536","","<div style=""width:500px;"">
  <p>What determined the result of this run?</p>
  </div>","66","html-slider-response","25","1083559","0.0-5.0-1.3","64","1","2025-07-16 08:29:38","1f75c3e559b7213887762d5229550c2b","165.165.119.136","Mozilla/5.0 (Windows NT 10.0; Win64; x64) AppleWebKit/537.36 (KHTML, like Gecko) Chrome/138.0.0.0 Safari/537.36","WebKit","Chrome","138.0.0.0","Windows","10.0","https://app.prolific.com/","en-US,en;q=0.9","60a50457d02bfc23c02d4717","68764874ac79eee8c1d4cb03","687762da68123c2b4da93849","2","0","60a50457d02bfc23c02d4717","2","0","2025-07-16T08:47:43.902Z","","","","","","","","","","","AttribQ","","50","","","","","","","","","","","","","","","","","","","","","","","","","","","","",""
"2952","","<div style=""width:500px;"">
  <p>How much control did you have over the ball?</p>
  </div>","65","html-slider-response","26","1086511","0.0-5.0-2.3","64","1","2025-07-16 08:29:38","1f75c3e559b7213887762d5229550c2b","165.165.119.136","Mozilla/5.0 (Windows NT 10.0; Win64; x64) AppleWebKit/537.36 (KHTML, like Gecko) Chrome/138.0.0.0 Safari/537.36","WebKit","Chrome","138.0.0.0","Windows","10.0","https://app.prolific.com/","en-US,en;q=0.9","60a50457d02bfc23c02d4717","68764874ac79eee8c1d4cb03","687762da68123c2b4da93849","2","0","60a50457d02bfc23c02d4717","2","0","2025-07-16T08:47:46.854Z","","","","","","","","","","","ControlQ","","50","","","","","","","","","","","","","","","","","","","","","","","","","","","","",""
"3807","","<div style=""width:500px;"">
  <p>How would you describe your current emotional state?</p>
  </div>","88","html-slider-response","27","1090319","0.0-5.0-3.3","64","1","2025-07-16 08:29:38","1f75c3e559b7213887762d5229550c2b","165.165.119.136","Mozilla/5.0 (Windows NT 10.0; Win64; x64) AppleWebKit/537.36 (KHTML, like Gecko) Chrome/138.0.0.0 Safari/537.36","WebKit","Chrome","138.0.0.0","Windows","10.0","https://app.prolific.com/","en-US,en;q=0.9","60a50457d02bfc23c02d4717","68764874ac79eee8c1d4cb03","687762da68123c2b4da93849","2","0","60a50457d02bfc23c02d4717","2","0","2025-07-16T08:47:50.662Z","","","","","","","","","","","StressQ","","50","","","","","","","","","","","","","","","","","","","","","","","","","","","","",""
"4367","","<div style=""width:500px;"">
  <p>What best describes how you currently feel?</p>
  </div>","67","html-slider-response","28","1094687","0.0-5.0-4.3","64","1","2025-07-16 08:29:38","1f75c3e559b7213887762d5229550c2b","165.165.119.136","Mozilla/5.0 (Windows NT 10.0; Win64; x64) AppleWebKit/537.36 (KHTML, like Gecko) Chrome/138.0.0.0 Safari/537.36","WebKit","Chrome","138.0.0.0","Windows","10.0","https://app.prolific.com/","en-US,en;q=0.9","60a50457d02bfc23c02d4717","68764874ac79eee8c1d4cb03","687762da68123c2b4da93849","2","0","60a50457d02bfc23c02d4717","2","0","2025-07-16T08:47:55.030Z","","","","","","","","","","","MotivationQ","","50","","","","","","","","","","","","","","","","","","","","","","","","","","","","",""
"","","","","ctl-task-cpt","29","1122255","0.0-5.0-0.4","64","1","2025-07-16 08:29:38","1f75c3e559b7213887762d5229550c2b","165.165.119.136","Mozilla/5.0 (Windows NT 10.0; Win64; x64) AppleWebKit/537.36 (KHTML, like Gecko) Chrome/138.0.0.0 Safari/537.36","WebKit","Chrome","138.0.0.0","Windows","10.0","https://app.prolific.com/","en-US,en;q=0.9","60a50457d02bfc23c02d4717","68764874ac79eee8c1d4cb03","687762da68123c2b4da93849","2","0","60a50457d02bfc23c02d4717","2","0","2025-07-16T08:48:22.598Z","","","","","","","","","","","","","","win-only","2","g1:SE,g2:NW","0.6","5","0","1097045.8","1335.3","6336.2","24551.2","1","4","8","6","1","1","1","2","1","0.015151515151515152","1159.7","3000","1485","[""down"",""right""]","{""num_key_presses"":4,""num_perfect"":3,""num_errors"":0,""num_randdir"":1,""num_randdir_good_moves"":1,""num_whilered"":0,""num_whileblue"":0,""num_blue"":2,""num_good_moves"":4}","[417.57142857142856,416.47767857142856,0.2,417.57142857142856,416.47767857142856,100.2,417.57142857142856,416.47767857142856,208.5,417.57142857142856,416.47767857142856,314.4,417.57142857142856,416.47767857142856,415.7,630.5714285714286,445.47767857142856,520.9,709.5714285714286,456.47767857142856,633.2,709.5714285714286,456.47767857142856,733.5,709.5714285714286,456.47767857142856,835.2,730.5714285714286,658.4776785714286,940.2,757.5714285714286,713.4776785714286,1041.4,758.5714285714286,737.4776785714286,1149.9,758.5714285714286,738.4776785714286,1250.3,758.5714285714286,738.4776785714286,1350.3,818.5714285714286,651.4776785714286,1450.5,1029.5714285714287,527.4776785714286,1564.9,1042.5714285714287,511.47767857142856,1670.5,1043.5714285714287,508.47767857142856,1770.7,1043.5714285714287,508.47767857142856,1883.6,1043.5714285714287,508.47767857142856,1986,960.5714285714286,491.47767857142856,2086.1,716.5714285714286,438.47767857142856,2200.8,715.5714285714286,438.47767857142856,2305.3,715.5714285714286,438.47767857142856,2405.7,715.5714285714286,438.47767857142856,2510.4,715.5714285714286,438.47767857142856,2615.1,862.5714285714286,424.47767857142856,2716,1002.5714285714286,420.47767857142856,2820.9,1023.5714285714286,414.47767857142856,2925,1027.5714285714287,414.47767857142856,3032.7,1027.5714285714287,414.47767857142856,3135.5,1027.5714285714287,414.47767857142856,3240.1,1027.5714285714287,414.47767857142856,3340.2,1027.5714285714287,414.47767857142856,3449.6,1027.5714285714287,414.47767857142856,3550.6,1027.5714285714287,414.47767857142856,3657,1027.5714285714287,414.47767857142856,3765.2,1027.5714285714287,414.47767857142856,3865.4,1027.5714285714287,414.47767857142856,3965.5,1027.5714285714287,414.47767857142856,4066,1027.5714285714287,414.47767857142856,4169.9,1027.5714285714287,414.47767857142856,4270.6,1027.5714285714287,414.47767857142856,4371.2,1027.5714285714287,414.47767857142856,4471.2,1027.5714285714287,414.47767857142856,4576.4,1027.5714285714287,414.47767857142856,4681.5,1027.5714285714287,414.47767857142856,4783.1,1027.5714285714287,414.47767857142856,4885.2,1027.5714285714287,414.47767857142856,4998.9]","[1629.4,1629.4,1000,0,629.4,""smooth"",""down"",""down"",""good_move"",5233.4,3603.6,3198.7,1629.8,404.9,""smooth"",""down"",""down"",""good_move"",8297.4,3063.8,2551.5,5233.6,512.3,""oops"",""right"",""right"",""good_move"",18114,9816.2,2077.1,15614.6,422.3,""smooth"",""right"",""right"",""good_move""]","",""
"33719","","<div style=""width:500px;"">
  <p>What determined the result of this run?</p>
  </div>","81","html-slider-response","30","1155975","0.0-5.0-1.4","64","1","2025-07-16 08:29:38","1f75c3e559b7213887762d5229550c2b","165.165.119.136","Mozilla/5.0 (Windows NT 10.0; Win64; x64) AppleWebKit/537.36 (KHTML, like Gecko) Chrome/138.0.0.0 Safari/537.36","WebKit","Chrome","138.0.0.0","Windows","10.0","https://app.prolific.com/","en-US,en;q=0.9","60a50457d02bfc23c02d4717","68764874ac79eee8c1d4cb03","687762da68123c2b4da93849","2","0","60a50457d02bfc23c02d4717","2","0","2025-07-16T08:48:56.318Z","","","","","","","","","","","AttribQ","","50","","","","","","","","","","","","","","","","","","","","","","","","","","","","",""
"9438","","<div style=""width:500px;"">
  <p>How much control did you have over the ball?</p>
  </div>","85","html-slider-response","31","1165415","0.0-5.0-2.4","64","1","2025-07-16 08:29:38","1f75c3e559b7213887762d5229550c2b","165.165.119.136","Mozilla/5.0 (Windows NT 10.0; Win64; x64) AppleWebKit/537.36 (KHTML, like Gecko) Chrome/138.0.0.0 Safari/537.36","WebKit","Chrome","138.0.0.0","Windows","10.0","https://app.prolific.com/","en-US,en;q=0.9","60a50457d02bfc23c02d4717","68764874ac79eee8c1d4cb03","687762da68123c2b4da93849","2","0","60a50457d02bfc23c02d4717","2","0","2025-07-16T08:49:05.758Z","","","","","","","","","","","ControlQ","","50","","","","","","","","","","","","","","","","","","","","","","","","","","","","",""
"15784","","<div style=""width:500px;"">
  <p>How would you describe your current emotional state?</p>
  </div>","79","html-slider-response","32","1181200","0.0-5.0-3.4","64","1","2025-07-16 08:29:38","1f75c3e559b7213887762d5229550c2b","165.165.119.136","Mozilla/5.0 (Windows NT 10.0; Win64; x64) AppleWebKit/537.36 (KHTML, like Gecko) Chrome/138.0.0.0 Safari/537.36","WebKit","Chrome","138.0.0.0","Windows","10.0","https://app.prolific.com/","en-US,en;q=0.9","60a50457d02bfc23c02d4717","68764874ac79eee8c1d4cb03","687762da68123c2b4da93849","2","0","60a50457d02bfc23c02d4717","2","0","2025-07-16T08:49:21.544Z","","","","","","","","","","","StressQ","","50","","","","","","","","","","","","","","","","","","","","","","","","","","","","",""
"11677","","<div style=""width:500px;"">
  <p>What best describes how you currently feel?</p>
  </div>","81","html-slider-response","33","1192879","0.0-5.0-4.4","64","1","2025-07-16 08:29:38","1f75c3e559b7213887762d5229550c2b","165.165.119.136","Mozilla/5.0 (Windows NT 10.0; Win64; x64) AppleWebKit/537.36 (KHTML, like Gecko) Chrome/138.0.0.0 Safari/537.36","WebKit","Chrome","138.0.0.0","Windows","10.0","https://app.prolific.com/","en-US,en;q=0.9","60a50457d02bfc23c02d4717","68764874ac79eee8c1d4cb03","687762da68123c2b4da93849","2","0","60a50457d02bfc23c02d4717","2","0","2025-07-16T08:49:33.222Z","","","","","","","","","","","MotivationQ","","50","","","","","","","","","","","","","","","","","","","","","","","","","","","","",""
"","","","","ctl-task-cpt","34","1248237","0.0-5.0-0.5","64","1","2025-07-16 08:29:38","1f75c3e559b7213887762d5229550c2b","165.165.119.136","Mozilla/5.0 (Windows NT 10.0; Win64; x64) AppleWebKit/537.36 (KHTML, like Gecko) Chrome/138.0.0.0 Safari/537.36","WebKit","Chrome","138.0.0.0","Windows","10.0","https://app.prolific.com/","en-US,en;q=0.9","60a50457d02bfc23c02d4717","68764874ac79eee8c1d4cb03","687762da68123c2b4da93849","2","0","60a50457d02bfc23c02d4717","2","0","2025-07-16T08:50:28.580Z","","","","","","","","","","","","","","win-only","1","g1:NE,g2:SW","0.5","6","0","1195237.4","1792.2","6796.2","52336.9","1","4","4","6","1","-1","-2","0","2","0","1225.8","3000","-2270","[""up"",""right""]","{""num_key_presses"":8,""num_perfect"":3,""num_errors"":1,""num_randdir"":4,""num_randdir_good_moves"":0,""num_whilered"":0,""num_whileblue"":1,""num_blue"":7,""num_good_moves"":4}","[409.57142857142856,422.47767857142856,0.2,409.57142857142856,422.47767857142856,103.1,409.57142857142856,422.47767857142856,203.3,409.57142857142856,422.47767857142856,309.7,518.5714285714286,420.47767857142856,414.1,835.5714285714286,429.47767857142856,518.4,959.5714285714286,432.47767857142856,618.5,918.5714285714286,341.47767857142856,723.3,865.5714285714286,201.47767857142856,830.1,847.5714285714286,175.47767857142856,934,819.5714285714286,133.47767857142856,1039.2,795.5714285714286,97.47767857142857,1143.8,795.5714285714286,97.47767857142857,1249.9,795.5714285714286,97.47767857142857,1353.2,795.5714285714286,97.47767857142857,1453.3,822.5714285714286,107.47767857142857,1554,1060.5714285714287,174.47767857142856,1656.2,1103.5714285714287,207.47767857142856,1761.3,1116.5714285714287,229.47767857142856,1863.3,1119.5714285714287,235.47767857142856,1963.4,1119.5714285714287,235.47767857142856,2063.7,1119.5714285714287,235.47767857142856,2164.7,1119.5714285714287,235.47767857142856,2268.7,1119.5714285714287,235.47767857142856,2369.3,1119.5714285714287,235.47767857142856,2469.3,1119.5714285714287,235.47767857142856,2575.7,1119.5714285714287,235.47767857142856,2675.8,1119.5714285714287,235.47767857142856,2776.7,1119.5714285714287,235.47767857142856,2880,1119.5714285714287,235.47767857142856,2984,1119.5714285714287,235.47767857142856,3084,1119.5714285714287,235.47767857142856,3189.1,1119.5714285714287,235.47767857142856,3289.8,1119.5714285714287,235.47767857142856,3393.4,1119.5714285714287,235.47767857142856,3496.5,1119.5714285714287,235.47767857142856,3598.2,1119.5714285714287,235.47767857142856,3699.1,1119.5714285714287,235.47767857142856,3804,1119.5714285714287,235.47767857142856,3911,1119.5714285714287,235.47767857142856,4011.1,1119.5714285714287,235.47767857142856,4111.5,1119.5714285714287,235.47767857142856,4213,1119.5714285714287,235.47767857142856,4313.2,1119.5714285714287,235.47767857142856,4413.5,1119.5714285714287,235.47767857142856,4519,1119.5714285714287,235.47767857142856,4619,1119.5714285714287,235.47767857142856,4723.5,1119.5714285714287,235.47767857142856,4828.5,1119.5714285714287,235.47767857142856,4929.2]","[7695,7695,2406.8,4678.9,609.3,""oops"",""right"",""down"",""bad_move"",10768,3072.6,2005.2,7695.4,1067.4,""oops"",""up"",""left"",""bad_move"",20578.6,9810.3,2571.7,17684.2,322.7,""smooth"",""up"",""up"",""good_move"",24121.5,3542.5,3162.1,20579,380.5,""smooth"",""up"",""up"",""good_move"",26875.8,2754,2369,24121.8,385,""smooth"",""up"",""up"",""good_move"",29428.6,2552.6,2188,26876,364.6,""while_blue"",""right"",""right"",""good_move"",36161.4,6732.4,2719.9,33064.6,376.9,""oops"",""right"",""down"",""bad_move"",38850.7,2689,2255.8,36161.8,433.2,""oops"",""right"",""down"",""bad_move""]","",""
"11001","","<div style=""width:500px;"">
  <p>What determined the result of this run?</p>
  </div>","36","html-slider-response","35","1259239","0.0-5.0-1.5","64","1","2025-07-16 08:29:38","1f75c3e559b7213887762d5229550c2b","165.165.119.136","Mozilla/5.0 (Windows NT 10.0; Win64; x64) AppleWebKit/537.36 (KHTML, like Gecko) Chrome/138.0.0.0 Safari/537.36","WebKit","Chrome","138.0.0.0","Windows","10.0","https://app.prolific.com/","en-US,en;q=0.9","60a50457d02bfc23c02d4717","68764874ac79eee8c1d4cb03","687762da68123c2b4da93849","2","0","60a50457d02bfc23c02d4717","2","0","2025-07-16T08:50:39.582Z","","","","","","","","","","","AttribQ","","50","","","","","","","","","","","","","","","","","","","","","","","","","","","","",""
"16126","","<div style=""width:500px;"">
  <p>How much control did you have over the ball?</p>
  </div>","33","html-slider-response","36","1275367","0.0-5.0-2.5","64","1","2025-07-16 08:29:38","1f75c3e559b7213887762d5229550c2b","165.165.119.136","Mozilla/5.0 (Windows NT 10.0; Win64; x64) AppleWebKit/537.36 (KHTML, like Gecko) Chrome/138.0.0.0 Safari/537.36","WebKit","Chrome","138.0.0.0","Windows","10.0","https://app.prolific.com/","en-US,en;q=0.9","60a50457d02bfc23c02d4717","68764874ac79eee8c1d4cb03","687762da68123c2b4da93849","2","0","60a50457d02bfc23c02d4717","2","0","2025-07-16T08:50:55.710Z","","","","","","","","","","","ControlQ","","50","","","","","","","","","","","","","","","","","","","","","","","","","","","","",""
"24847","","<div style=""width:500px;"">
  <p>How would you describe your current emotional state?</p>
  </div>","89","html-slider-response","37","1300215","0.0-5.0-3.5","64","1","2025-07-16 08:29:38","1f75c3e559b7213887762d5229550c2b","165.165.119.136","Mozilla/5.0 (Windows NT 10.0; Win64; x64) AppleWebKit/537.36 (KHTML, like Gecko) Chrome/138.0.0.0 Safari/537.36","WebKit","Chrome","138.0.0.0","Windows","10.0","https://app.prolific.com/","en-US,en;q=0.9","60a50457d02bfc23c02d4717","68764874ac79eee8c1d4cb03","687762da68123c2b4da93849","2","0","60a50457d02bfc23c02d4717","2","0","2025-07-16T08:51:20.558Z","","","","","","","","","","","StressQ","","50","","","","","","","","","","","","","","","","","","","","","","","","","","","","",""
"2878","","<div style=""width:500px;"">
  <p>What best describes how you currently feel?</p>
  </div>","73","html-slider-response","38","1303094","0.0-5.0-4.5","64","1","2025-07-16 08:29:38","1f75c3e559b7213887762d5229550c2b","165.165.119.136","Mozilla/5.0 (Windows NT 10.0; Win64; x64) AppleWebKit/537.36 (KHTML, like Gecko) Chrome/138.0.0.0 Safari/537.36","WebKit","Chrome","138.0.0.0","Windows","10.0","https://app.prolific.com/","en-US,en;q=0.9","60a50457d02bfc23c02d4717","68764874ac79eee8c1d4cb03","687762da68123c2b4da93849","2","0","60a50457d02bfc23c02d4717","2","0","2025-07-16T08:51:23.438Z","","","","","","","","","","","MotivationQ","","50","","","","","","","","","","","","","","","","","","","","","","","","","","","","",""
"","","","","ctl-task-cpt","39","1342753","0.0-5.0-0.6","64","1","2025-07-16 08:29:38","1f75c3e559b7213887762d5229550c2b","165.165.119.136","Mozilla/5.0 (Windows NT 10.0; Win64; x64) AppleWebKit/537.36 (KHTML, like Gecko) Chrome/138.0.0.0 Safari/537.36","WebKit","Chrome","138.0.0.0","Windows","10.0","https://app.prolific.com/","en-US,en;q=0.9","60a50457d02bfc23c02d4717","68764874ac79eee8c1d4cb03","687762da68123c2b4da93849","2","0","60a50457d02bfc23c02d4717","2","0","2025-07-16T08:52:03.096Z","","","","","","","","","","","","","","win-only","1","g1:NE,g2:SW","0.4","7","0","1305453.5","20439.5","25440.4","36641.8","1","4","4","6","1","1","1","1","0","0.007575757575757576","1300.2","3000","1275","[""up"",""right""]","{""num_key_presses"":4,""num_perfect"":4,""num_errors"":0,""num_randdir"":0,""num_randdir_good_moves"":0,""num_whilered"":0,""num_whileblue"":0,""num_blue"":0,""num_good_moves"":4}","[413.57142857142856,416.47767857142856,0.2,413.57142857142856,416.47767857142856,108.6,413.57142857142856,416.47767857142856,210.9,413.57142857142856,416.47767857142856,311.6,413.57142857142856,416.47767857142856,412.1,413.57142857142856,416.47767857142856,516.7,407.57142857142856,109.47767857142857,622.2,401.57142857142856,101.47767857142857,722.2,492.57142857142856,130.47767857142856,836.3,563.5714285714286,95.47767857142857,936.6,673.5714285714286,85.47767857142857,1040.9,724.5714285714286,93.47767857142857,1149.7,743.5714285714286,93.47767857142857,1251.3,743.5714285714286,93.47767857142857,1351.4,743.5714285714286,93.47767857142857,1468.8,743.5714285714286,93.47767857142857,1571.5,743.5714285714286,93.47767857142857,1676.6,743.5714285714286,93.47767857142857,1776.6,743.5714285714286,93.47767857142857,1881.7,743.5714285714286,93.47767857142857,1982.2,743.5714285714286,93.47767857142857,2086.5,743.5714285714286,93.47767857142857,2186.5,743.5714285714286,93.47767857142857,2301.8,743.5714285714286,93.47767857142857,2406.3,743.5714285714286,93.47767857142857,2506.7,743.5714285714286,93.47767857142857,2611.2,743.5714285714286,93.47767857142857,2712.1,743.5714285714286,93.47767857142857,2816.1,743.5714285714286,93.47767857142857,2933.6,743.5714285714286,93.47767857142857,3035.3,743.5714285714286,93.47767857142857,3136.5,743.5714285714286,93.47767857142857,3241.5,743.5714285714286,93.47767857142857,3346.4,743.5714285714286,93.47767857142857,3452.6,743.5714285714286,93.47767857142857,3567.5,743.5714285714286,93.47767857142857,3668.1,743.5714285714286,93.47767857142857,3768.2,743.5714285714286,93.47767857142857,3871,743.5714285714286,93.47767857142857,3972.9,743.5714285714286,93.47767857142857,4077,743.5714285714286,93.47767857142857,4182.2,743.5714285714286,93.47767857142857,4282.2,743.5714285714286,93.47767857142857,4385.5,743.5714285714286,93.47767857142857,4487.5,743.5714285714286,93.47767857142857,4590.9,743.5714285714286,93.47767857142857,4691.3,743.5714285714286,93.47767857142857,4796.4,743.5714285714286,93.47767857142857,4896.5]","[1948.7,1948.7,1000,0,948.7,""smooth"",""right"",""right"",""good_move"",4852.3,2903.3,2411.1,1949,492.2,""smooth"",""up"",""up"",""good_move"",8540.5,3688,3314.3,4852.5,373.7,""smooth"",""up"",""up"",""good_move"",11081.1,2540.3,2045.7,8540.8,494.6,""smooth"",""right"",""right"",""good_move""]","",""
"32588","","<div style=""width:500px;"">
  <p>What determined the result of this run?</p>
  </div>","62","html-slider-response","40","1375343","0.0-5.0-1.6","64","1","2025-07-16 08:29:38","1f75c3e559b7213887762d5229550c2b","165.165.119.136","Mozilla/5.0 (Windows NT 10.0; Win64; x64) AppleWebKit/537.36 (KHTML, like Gecko) Chrome/138.0.0.0 Safari/537.36","WebKit","Chrome","138.0.0.0","Windows","10.0","https://app.prolific.com/","en-US,en;q=0.9","60a50457d02bfc23c02d4717","68764874ac79eee8c1d4cb03","687762da68123c2b4da93849","2","0","60a50457d02bfc23c02d4717","2","0","2025-07-16T08:52:35.686Z","","","","","","","","","","","AttribQ","","50","","","","","","","","","","","","","","","","","","","","","","","","","","","","",""
"8639","","<div style=""width:500px;"">
  <p>How much control did you have over the ball?</p>
  </div>","73","html-slider-response","41","1383983","0.0-5.0-2.6","64","1","2025-07-16 08:29:38","1f75c3e559b7213887762d5229550c2b","165.165.119.136","Mozilla/5.0 (Windows NT 10.0; Win64; x64) AppleWebKit/537.36 (KHTML, like Gecko) Chrome/138.0.0.0 Safari/537.36","WebKit","Chrome","138.0.0.0","Windows","10.0","https://app.prolific.com/","en-US,en;q=0.9","60a50457d02bfc23c02d4717","68764874ac79eee8c1d4cb03","687762da68123c2b4da93849","2","0","60a50457d02bfc23c02d4717","2","0","2025-07-16T08:52:44.326Z","","","","","","","","","","","ControlQ","","50","","","","","","","","","","","","","","","","","","","","","","","","","","","","",""
"12662","","<div style=""width:500px;"">
  <p>How would you describe your current emotional state?</p>
  </div>","100","html-slider-response","42","1396646","0.0-5.0-3.6","64","1","2025-07-16 08:29:38","1f75c3e559b7213887762d5229550c2b","165.165.119.136","Mozilla/5.0 (Windows NT 10.0; Win64; x64) AppleWebKit/537.36 (KHTML, like Gecko) Chrome/138.0.0.0 Safari/537.36","WebKit","Chrome","138.0.0.0","Windows","10.0","https://app.prolific.com/","en-US,en;q=0.9","60a50457d02bfc23c02d4717","68764874ac79eee8c1d4cb03","687762da68123c2b4da93849","2","0","60a50457d02bfc23c02d4717","2","0","2025-07-16T08:52:56.989Z","","","","","","","","","","","StressQ","","50","","","","","","","","","","","","","","","","","","","","","","","","","","","","",""
"5814","","<div style=""width:500px;"">
  <p>What best describes how you currently feel?</p>
  </div>","78","html-slider-response","43","1402462","0.0-5.0-4.6","64","1","2025-07-16 08:29:38","1f75c3e559b7213887762d5229550c2b","165.165.119.136","Mozilla/5.0 (Windows NT 10.0; Win64; x64) AppleWebKit/537.36 (KHTML, like Gecko) Chrome/138.0.0.0 Safari/537.36","WebKit","Chrome","138.0.0.0","Windows","10.0","https://app.prolific.com/","en-US,en;q=0.9","60a50457d02bfc23c02d4717","68764874ac79eee8c1d4cb03","687762da68123c2b4da93849","2","0","60a50457d02bfc23c02d4717","2","0","2025-07-16T08:53:02.805Z","","","","","","","","","","","MotivationQ","","50","","","","","","","","","","","","","","","","","","","","","","","","","","","","",""
"","","","","ctl-task-cpt","44","1501332","0.0-5.0-0.7","64","1","2025-07-16 08:29:38","1f75c3e559b7213887762d5229550c2b","165.165.119.136","Mozilla/5.0 (Windows NT 10.0; Win64; x64) AppleWebKit/537.36 (KHTML, like Gecko) Chrome/138.0.0.0 Safari/537.36","WebKit","Chrome","138.0.0.0","Windows","10.0","https://app.prolific.com/","en-US,en;q=0.9","60a50457d02bfc23c02d4717","68764874ac79eee8c1d4cb03","687762da68123c2b4da93849","2","0","60a50457d02bfc23c02d4717","2","0","2025-07-16T08:54:41.675Z","","","","","","","","","","","","","","win-only","3","g1:SW,g2:NE","0.3","8","0","1404821.6","69085.3","74085.7","95851","1","4","8","6","1","1","0","1","1","0.007575757575757576","1496.2","3000","455","[""down"",""left""]","{""num_key_presses"":6,""num_perfect"":2,""num_errors"":1,""num_randdir"":3,""num_randdir_good_moves"":2,""num_whilered"":0,""num_whileblue"":1,""num_blue"":2,""num_good_moves"":5}","[426.57142857142856,420.47767857142856,0.2,426.57142857142856,420.47767857142856,101.1,426.57142857142856,420.47767857142856,205.1,426.57142857142856,420.47767857142856,306,426.57142857142856,420.47767857142856,411.1,440.57142857142856,417.47767857142856,513.3,506.57142857142856,412.47767857142856,616.6,611.5714285714286,345.47767857142856,721.6,573.5714285714286,375.47767857142856,831.7,288.57142857142856,682.4776785714286,936.5,194.57142857142856,807.4776785714286,1048.8,150.57142857142856,839.4776785714286,1150.5,124.57142857142857,844.4776785714286,1250.8,115.57142857142857,830.4776785714286,1352,84.57142857142857,783.4776785714286,1455.1,77.57142857142857,768.4776785714286,1566.2,77.57142857142857,768.4776785714286,1670.7,77.57142857142857,768.4776785714286,1775.5,78.57142857142857,766.4776785714286,1877,537.5714285714286,652.4776785714286,1980.1,1042.5714285714287,572.4776785714286,2080.5,1125.5714285714287,554.4776785714286,2185.6,1151.5714285714287,545.4776785714286,2285.9,1162.5714285714287,543.4776785714286,2395,1163.5714285714287,542.4776785714286,2497.3,1163.5714285714287,542.4776785714286,2600.9,1163.5714285714287,542.4776785714286,2700.9,1163.5714285714287,542.4776785714286,2810.9,1163.5714285714287,542.4776785714286,2915.2,1163.5714285714287,542.4776785714286,3020.4,1163.5714285714287,542.4776785714286,3120.8,1163.5714285714287,542.4776785714286,3226.5,1163.5714285714287,542.4776785714286,3335.3,1163.5714285714287,542.4776785714286,3437,1163.5714285714287,542.4776785714286,3540.4,1163.5714285714287,542.4776785714286,3646.3,1163.5714285714287,542.4776785714286,3748.7,1163.5714285714287,542.4776785714286,3850.2,1163.5714285714287,542.4776785714286,3950.4,1163.5714285714287,542.4776785714286,4050.9,1163.5714285714287,542.4776785714286,4155,1163.5714285714287,542.4776785714286,4260.5,1163.5714285714287,542.4776785714286,4367,1163.5714285714287,542.4776785714286,4470.7,1163.5714285714287,542.4776785714286,4571.2,1163.5714285714287,542.4776785714286,4680.2,1163.5714285714287,542.4776785714286,4780.4,1163.5714285714287,542.4776785714286,4882.3,1163.5714285714287,542.4776785714286,4985.4]","[1953.1,1953.1,1000,0,953.1,""smooth"",""left"",""left"",""good_move"",4885.9,2932.4,2461.1,1953.5,471.3,""while_blue"",""left"",""down"",""good_move"",8269.7,3383.5,2670.2,4886.2,713.3,""oops"",""left"",""left"",""good_move"",12166,3896,3390.1,8270,505.9,""oops"",""down"",""right"",""bad_move"",15161.8,2995.6,2479.4,12166.3,516.1,""smooth"",""left"",""left"",""good_move"",21662.1,6500,2522.8,18584.7,554.6,""oops"",""down"",""down"",""good_move""]","",""
"47640","","<div style=""width:500px;"">
  <p>What determined the result of this run?</p>
  </div>","57","html-slider-response","45","1548973","0.0-5.0-1.7","64","1","2025-07-16 08:29:38","1f75c3e559b7213887762d5229550c2b","165.165.119.136","Mozilla/5.0 (Windows NT 10.0; Win64; x64) AppleWebKit/537.36 (KHTML, like Gecko) Chrome/138.0.0.0 Safari/537.36","WebKit","Chrome","138.0.0.0","Windows","10.0","https://app.prolific.com/","en-US,en;q=0.9","60a50457d02bfc23c02d4717","68764874ac79eee8c1d4cb03","687762da68123c2b4da93849","2","0","60a50457d02bfc23c02d4717","2","0","2025-07-16T08:55:29.316Z","","","","","","","","","","","AttribQ","","50","","","","","","","","","","","","","","","","","","","","","","","","","","","","",""
"7370","","<div style=""width:500px;"">
  <p>How much control did you have over the ball?</p>
  </div>","58","html-slider-response","46","1556345","0.0-5.0-2.7","64","1","2025-07-16 08:29:38","1f75c3e559b7213887762d5229550c2b","165.165.119.136","Mozilla/5.0 (Windows NT 10.0; Win64; x64) AppleWebKit/537.36 (KHTML, like Gecko) Chrome/138.0.0.0 Safari/537.36","WebKit","Chrome","138.0.0.0","Windows","10.0","https://app.prolific.com/","en-US,en;q=0.9","60a50457d02bfc23c02d4717","68764874ac79eee8c1d4cb03","687762da68123c2b4da93849","2","0","60a50457d02bfc23c02d4717","2","0","2025-07-16T08:55:36.688Z","","","","","","","","","","","ControlQ","","50","","","","","","","","","","","","","","","","","","","","","","","","","","","","",""
"4740","","<div style=""width:500px;"">
  <p>How would you describe your current emotional state?</p>
  </div>","71","html-slider-response","47","1561086","0.0-5.0-3.7","64","1","2025-07-16 08:29:38","1f75c3e559b7213887762d5229550c2b","165.165.119.136","Mozilla/5.0 (Windows NT 10.0; Win64; x64) AppleWebKit/537.36 (KHTML, like Gecko) Chrome/138.0.0.0 Safari/537.36","WebKit","Chrome","138.0.0.0","Windows","10.0","https://app.prolific.com/","en-US,en;q=0.9","60a50457d02bfc23c02d4717","68764874ac79eee8c1d4cb03","687762da68123c2b4da93849","2","0","60a50457d02bfc23c02d4717","2","0","2025-07-16T08:55:41.429Z","","","","","","","","","","","StressQ","","50","","","","","","","","","","","","","","","","","","","","","","","","","","","","",""
"3743","","<div style=""width:500px;"">
  <p>What best describes how you currently feel?</p>
  </div>","70","html-slider-response","48","1564830","0.0-5.0-4.7","64","1","2025-07-16 08:29:38","1f75c3e559b7213887762d5229550c2b","165.165.119.136","Mozilla/5.0 (Windows NT 10.0; Win64; x64) AppleWebKit/537.36 (KHTML, like Gecko) Chrome/138.0.0.0 Safari/537.36","WebKit","Chrome","138.0.0.0","Windows","10.0","https://app.prolific.com/","en-US,en;q=0.9","60a50457d02bfc23c02d4717","68764874ac79eee8c1d4cb03","687762da68123c2b4da93849","2","0","60a50457d02bfc23c02d4717","2","0","2025-07-16T08:55:45.173Z","","","","","","","","","","","MotivationQ","","50","","","","","","","","","","","","","","","","","","","","","","","","","","","","",""
"","","","","ctl-task-cpt","49","1600816","0.0-5.0-0.8","64","1","2025-07-16 08:29:38","1f75c3e559b7213887762d5229550c2b","165.165.119.136","Mozilla/5.0 (Windows NT 10.0; Win64; x64) AppleWebKit/537.36 (KHTML, like Gecko) Chrome/138.0.0.0 Safari/537.36","WebKit","Chrome","138.0.0.0","Windows","10.0","https://app.prolific.com/","en-US,en;q=0.9","60a50457d02bfc23c02d4717","68764874ac79eee8c1d4cb03","687762da68123c2b4da93849","2","0","60a50457d02bfc23c02d4717","2","0","2025-07-16T08:56:21.160Z","","","","","","","","","","","","","","win-only","0","g1:NW,g2:SE","0.2","9","0","1567189","8231.9","13233.5","32968.2","1","4","8","6","1","1","1","2","1","0.015151515151515152","1224.1","3000","960","[""left"",""up""]","{""num_key_presses"":6,""num_perfect"":2,""num_errors"":0,""num_randdir"":4,""num_randdir_good_moves"":3,""num_whilered"":0,""num_whileblue"":0,""num_blue"":1,""num_good_moves"":5}","[417.57142857142856,418.47767857142856,0.1,417.57142857142856,418.47767857142856,101.8,417.57142857142856,418.47767857142856,220.1,417.57142857142856,418.47767857142856,321.6,417.57142857142856,418.47767857142856,423.6,417.57142857142856,418.47767857142856,524.6,463.57142857142856,418.47767857142856,630.2,423.57142857142856,294.47767857142856,733.3,229.57142857142856,20.47767857142857,835.2,178.57142857142856,3.4776785714285694,952.1,128.57142857142856,27.47767857142857,1052.2,103.57142857142857,59.47767857142857,1154.7,90.57142857142857,72.47767857142857,1258.8,90.57142857142857,72.47767857142857,1360.6,90.57142857142857,72.47767857142857,1463.6,90.57142857142857,72.47767857142857,1568.3,133.57142857142856,72.47767857142857,1669.6,618.5714285714286,100.47767857142857,1787.8,864.5714285714286,143.47767857142856,1889.1,955.5714285714286,162.47767857142856,2001,1040.5714285714287,188.47767857142856,2103.1,1067.5714285714287,197.47767857142856,2204.3,1066.5714285714287,199.47767857142856,2304.9,1066.5714285714287,199.47767857142856,2408.3,1066.5714285714287,199.47767857142856,2508.6,1066.5714285714287,199.47767857142856,2609,1066.5714285714287,199.47767857142856,2709.5,1066.5714285714287,199.47767857142856,2814.1,1066.5714285714287,199.47767857142856,2914.4,1066.5714285714287,199.47767857142856,3015.4,1066.5714285714287,199.47767857142856,3119.5,1066.5714285714287,199.47767857142856,3219.7,1066.5714285714287,199.47767857142856,3336.5,1066.5714285714287,199.47767857142856,3438.9,1066.5714285714287,199.47767857142856,3544.9,1066.5714285714287,199.47767857142856,3649,1066.5714285714287,199.47767857142856,3749.6,1066.5714285714287,199.47767857142856,3850.3,1066.5714285714287,199.47767857142856,3953.5,1066.5714285714287,199.47767857142856,4054.3,1066.5714285714287,199.47767857142856,4171.2,1066.5714285714287,199.47767857142856,4271.3,1066.5714285714287,199.47767857142856,4374.2,1066.5714285714287,199.47767857142856,4479.8,1066.5714285714287,199.47767857142856,4584,1066.5714285714287,199.47767857142856,4702.9,1066.5714285714287,199.47767857142856,4803,1066.5714285714287,199.47767857142856,4903.5]","[1544.3,1544.3,1000,0,544.3,""oops"",""left"",""up"",""good_move"",3817.4,2272.8,1670.7,1544.7,602,""oops"",""left"",""down"",""bad_move"",10498.1,6680.3,3103.9,6842.3,551.9,""smooth"",""left"",""left"",""good_move"",13906,3407.7,3010.1,10498.3,397.6,""oops"",""left"",""up"",""good_move"",17048.8,3142.6,2656.6,13906.3,486,""smooth"",""left"",""left"",""good_move"",19596.2,2547.2,2142.2,17049,405,""oops"",""up"",""up"",""good_move""]","",""
"27924","","<div style=""width:500px;"">
  <p>What determined the result of this run?</p>
  </div>","55","html-slider-response","50","1628742","0.0-5.0-1.8","64","1","2025-07-16 08:29:38","1f75c3e559b7213887762d5229550c2b","165.165.119.136","Mozilla/5.0 (Windows NT 10.0; Win64; x64) AppleWebKit/537.36 (KHTML, like Gecko) Chrome/138.0.0.0 Safari/537.36","WebKit","Chrome","138.0.0.0","Windows","10.0","https://app.prolific.com/","en-US,en;q=0.9","60a50457d02bfc23c02d4717","68764874ac79eee8c1d4cb03","687762da68123c2b4da93849","2","0","60a50457d02bfc23c02d4717","2","0","2025-07-16T08:56:49.085Z","","","","","","","","","","","AttribQ","","50","","","","","","","","","","","","","","","","","","","","","","","","","","","","",""
"4078","","<div style=""width:500px;"">
  <p>How much control did you have over the ball?</p>
  </div>","51","html-slider-response","51","1632821","0.0-5.0-2.8","64","1","2025-07-16 08:29:38","1f75c3e559b7213887762d5229550c2b","165.165.119.136","Mozilla/5.0 (Windows NT 10.0; Win64; x64) AppleWebKit/537.36 (KHTML, like Gecko) Chrome/138.0.0.0 Safari/537.36","WebKit","Chrome","138.0.0.0","Windows","10.0","https://app.prolific.com/","en-US,en;q=0.9","60a50457d02bfc23c02d4717","68764874ac79eee8c1d4cb03","687762da68123c2b4da93849","2","0","60a50457d02bfc23c02d4717","2","0","2025-07-16T08:56:53.164Z","","","","","","","","","","","ControlQ","","50","","","","","","","","","","","","","","","","","","","","","","","","","","","","",""
"17847","","<div style=""width:500px;"">
  <p>How would you describe your current emotional state?</p>
  </div>","79","html-slider-response","52","1650670","0.0-5.0-3.8","64","1","2025-07-16 08:29:38","1f75c3e559b7213887762d5229550c2b","165.165.119.136","Mozilla/5.0 (Windows NT 10.0; Win64; x64) AppleWebKit/537.36 (KHTML, like Gecko) Chrome/138.0.0.0 Safari/537.36","WebKit","Chrome","138.0.0.0","Windows","10.0","https://app.prolific.com/","en-US,en;q=0.9","60a50457d02bfc23c02d4717","68764874ac79eee8c1d4cb03","687762da68123c2b4da93849","2","0","60a50457d02bfc23c02d4717","2","0","2025-07-16T08:57:11.013Z","","","","","","","","","","","StressQ","","50","","","","","","","","","","","","","","","","","","","","","","","","","","","","",""
"24390","","<div style=""width:500px;"">
  <p>What best describes how you currently feel?</p>
  </div>","82","html-slider-response","53","1675061","0.0-5.0-4.8","64","1","2025-07-16 08:29:38","1f75c3e559b7213887762d5229550c2b","165.165.119.136","Mozilla/5.0 (Windows NT 10.0; Win64; x64) AppleWebKit/537.36 (KHTML, like Gecko) Chrome/138.0.0.0 Safari/537.36","WebKit","Chrome","138.0.0.0","Windows","10.0","https://app.prolific.com/","en-US,en;q=0.9","60a50457d02bfc23c02d4717","68764874ac79eee8c1d4cb03","687762da68123c2b4da93849","2","0","60a50457d02bfc23c02d4717","2","0","2025-07-16T08:57:35.405Z","","","","","","","","","","","MotivationQ","","50","","","","","","","","","","","","","","","","","","","","","","","","","","","","",""
"","","","","ctl-task-cpt","54","1723138","0.0-5.0-0.9","64","1","2025-07-16 08:29:38","1f75c3e559b7213887762d5229550c2b","165.165.119.136","Mozilla/5.0 (Windows NT 10.0; Win64; x64) AppleWebKit/537.36 (KHTML, like Gecko) Chrome/138.0.0.0 Safari/537.36","WebKit","Chrome","138.0.0.0","Windows","10.0","https://app.prolific.com/","en-US,en;q=0.9","60a50457d02bfc23c02d4717","68764874ac79eee8c1d4cb03","687762da68123c2b4da93849","2","0","60a50457d02bfc23c02d4717","2","0","2025-07-16T08:58:23.481Z","","","","","","","","","","","","","","win-only","3","g1:SW,g2:NE","0.4","10","0","1677421.5","15813.1","20815.9","45056.6","1","4","4","6","1","-1","-1","1","2","0.007575757575757576","2919.2","3000","-2505","[""down"",""left""]","{""num_key_presses"":5,""num_perfect"":2,""num_errors"":0,""num_randdir"":3,""num_randdir_good_moves"":0,""num_whilered"":0,""num_whileblue"":0,""num_blue"":2,""num_good_moves"":2}","[416.57142857142856,411.47767857142856,0.4,416.57142857142856,411.47767857142856,102.2,416.57142857142856,411.47767857142856,203.1,416.57142857142856,411.47767857142856,319.1,416.57142857142856,411.47767857142856,423.2,416.57142857142856,411.47767857142856,537,425.57142857142856,403.47767857142856,639.1,510.57142857142856,366.47767857142856,751.2,466.57142857142856,370.47767857142856,852.3,324.57142857142856,428.47767857142856,952.6,187.57142857142856,555.4776785714286,1058.4,89.57142857142857,660.4776785714286,1158.6,47.57142857142857,718.4776785714286,1262.6,46.57142857142857,745.4776785714286,1366.4,49.57142857142857,749.4776785714286,1467.9,52.57142857142857,750.4776785714286,1572.9,56.57142857142857,751.4776785714286,1677.5,56.57142857142857,751.4776785714286,1784,56.57142857142857,751.4776785714286,1886.6,56.57142857142857,751.4776785714286,1987.1,56.57142857142857,751.4776785714286,2087.3,56.57142857142857,751.4776785714286,2187.5,56.57142857142857,751.4776785714286,2287.7,56.57142857142857,751.4776785714286,2387.8,56.57142857142857,751.4776785714286,2487.9,56.57142857142857,751.4776785714286,2593.6,56.57142857142857,751.4776785714286,2697.6,56.57142857142857,751.4776785714286,2800.2,56.57142857142857,751.4776785714286,2900.4,56.57142857142857,751.4776785714286,3002.5,56.57142857142857,751.4776785714286,3109.7,56.57142857142857,751.4776785714286,3214.8,73.57142857142857,747.4776785714286,3317.7,707.5714285714286,671.4776785714286,3423.3,1375.5714285714287,624.4776785714286,3536.4,1375.5714285714287,616.4776785714286,3638.1,1375.5714285714287,612.4776785714286,3750.8,1375.5714285714287,612.4776785714286,3852.2,1375.5714285714287,612.4776785714286,3952.5,1375.5714285714287,612.4776785714286,4052.9,1375.5714285714287,612.4776785714286,4163.2,1375.5714285714287,612.4776785714286,4263.5,1375.5714285714287,612.4776785714286,4364.4,1375.5714285714287,612.4776785714286,4465.1,1375.5714285714287,612.4776785714286,4567.2,1375.5714285714287,612.4776785714286,4667.2,1375.5714285714287,612.4776785714286,4778.9,1375.5714285714287,612.4776785714286,4886.4,1375.5714285714287,612.4776785714286,4988.5]","[1713,1713,1000,0,713,""smooth"",""left"",""left"",""good_move"",4515.9,2802.3,2314.3,1713.6,488,""smooth"",""down"",""down"",""good_move"",7605.8,3089.6,2589.9,4516.2,499.7,""oops"",""left"",""up"",""bad_move"",18509.6,10903.4,2324.7,15279.5,905.4,""oops"",""down"",""up"",""bad_move"",21828.5,3318.6,2497.8,18509.9,820.8,""oops"",""down"",""right"",""bad_move""]","",""
"11586","","<div style=""width:500px;"">
  <p>What determined the result of this run?</p>
  </div>","42","html-slider-response","55","1734725","0.0-5.0-1.9","64","1","2025-07-16 08:29:38","1f75c3e559b7213887762d5229550c2b","165.165.119.136","Mozilla/5.0 (Windows NT 10.0; Win64; x64) AppleWebKit/537.36 (KHTML, like Gecko) Chrome/138.0.0.0 Safari/537.36","WebKit","Chrome","138.0.0.0","Windows","10.0","https://app.prolific.com/","en-US,en;q=0.9","60a50457d02bfc23c02d4717","68764874ac79eee8c1d4cb03","687762da68123c2b4da93849","2","0","60a50457d02bfc23c02d4717","2","0","2025-07-16T08:58:35.068Z","","","","","","","","","","","AttribQ","","50","","","","","","","","","","","","","","","","","","","","","","","","","","","","",""
"29328","","<div style=""width:500px;"">
  <p>How much control did you have over the ball?</p>
  </div>","31","html-slider-response","56","1764055","0.0-5.0-2.9","64","1","2025-07-16 08:29:38","1f75c3e559b7213887762d5229550c2b","165.165.119.136","Mozilla/5.0 (Windows NT 10.0; Win64; x64) AppleWebKit/537.36 (KHTML, like Gecko) Chrome/138.0.0.0 Safari/537.36","WebKit","Chrome","138.0.0.0","Windows","10.0","https://app.prolific.com/","en-US,en;q=0.9","60a50457d02bfc23c02d4717","68764874ac79eee8c1d4cb03","687762da68123c2b4da93849","2","0","60a50457d02bfc23c02d4717","2","0","2025-07-16T08:59:04.398Z","","","","","","","","","","","ControlQ","","50","","","","","","","","","","","","","","","","","","","","","","","","","","","","",""
"9572","","<div style=""width:500px;"">
  <p>How would you describe your current emotional state?</p>
  </div>","67","html-slider-response","57","1773629","0.0-5.0-3.9","64","1","2025-07-16 08:29:38","1f75c3e559b7213887762d5229550c2b","165.165.119.136","Mozilla/5.0 (Windows NT 10.0; Win64; x64) AppleWebKit/537.36 (KHTML, like Gecko) Chrome/138.0.0.0 Safari/537.36","WebKit","Chrome","138.0.0.0","Windows","10.0","https://app.prolific.com/","en-US,en;q=0.9","60a50457d02bfc23c02d4717","68764874ac79eee8c1d4cb03","687762da68123c2b4da93849","2","0","60a50457d02bfc23c02d4717","2","0","2025-07-16T08:59:13.972Z","","","","","","","","","","","StressQ","","50","","","","","","","","","","","","","","","","","","","","","","","","","","","","",""
"12814","","<div style=""width:500px;"">
  <p>What best describes how you currently feel?</p>
  </div>","45","html-slider-response","58","1786445","0.0-5.0-4.9","64","1","2025-07-16 08:29:38","1f75c3e559b7213887762d5229550c2b","165.165.119.136","Mozilla/5.0 (Windows NT 10.0; Win64; x64) AppleWebKit/537.36 (KHTML, like Gecko) Chrome/138.0.0.0 Safari/537.36","WebKit","Chrome","138.0.0.0","Windows","10.0","https://app.prolific.com/","en-US,en;q=0.9","60a50457d02bfc23c02d4717","68764874ac79eee8c1d4cb03","687762da68123c2b4da93849","2","0","60a50457d02bfc23c02d4717","2","0","2025-07-16T08:59:26.788Z","","","","","","","","","","","MotivationQ","","50","","","","","","","","","","","","","","","","","","","","","","","","","","","","",""
"","","","","ctl-task-cpt","59","1823058","0.0-5.0-0.10","64","1","2025-07-16 08:29:38","1f75c3e559b7213887762d5229550c2b","165.165.119.136","Mozilla/5.0 (Windows NT 10.0; Win64; x64) AppleWebKit/537.36 (KHTML, like Gecko) Chrome/138.0.0.0 Safari/537.36","WebKit","Chrome","138.0.0.0","Windows","10.0","https://app.prolific.com/","en-US,en;q=0.9","60a50457d02bfc23c02d4717","68764874ac79eee8c1d4cb03","687762da68123c2b4da93849","2","0","60a50457d02bfc23c02d4717","2","0","2025-07-16T09:00:03.401Z","","","","","","","","","","","","","","win-only","1","g1:NE,g2:SW","0.5","11","0","1788804.6","4477.3","9482.9","33590.2","1","4","4","6","1","-1","-1","0","1","0","1024.8","3000","-2380","[""up"",""right""]","{""num_key_presses"":8,""num_perfect"":4,""num_errors"":0,""num_randdir"":4,""num_randdir_good_moves"":1,""num_whilered"":0,""num_whileblue"":0,""num_blue"":0,""num_good_moves"":5}","[414.57142857142856,417.47767857142856,0.2,414.57142857142856,417.47767857142856,103,414.57142857142856,417.47767857142856,216.2,414.57142857142856,417.47767857142856,323.7,493.57142857142856,464.47767857142856,428.8,541.5714285714286,333.47767857142856,529.2,613.5714285714286,122.47767857142857,630.8,690.5714285714286,58.47767857142857,731.5,722.5714285714286,45.47767857142857,832.9,761.5714285714286,76.47767857142857,943.6,768.5714285714286,80.47767857142857,1046.8,768.5714285714286,80.47767857142857,1149.2,768.5714285714286,80.47767857142857,1255.1,780.5714285714286,101.47767857142857,1360.1,924.5714285714286,195.47767857142856,1465.5,1026.5714285714287,281.47767857142856,1568.3,1029.5714285714287,282.47767857142856,1670.6,1029.5714285714287,282.47767857142856,1774.5,1029.5714285714287,282.47767857142856,1883.2,1029.5714285714287,282.47767857142856,1984.2,1029.5714285714287,282.47767857142856,2089.3,1029.5714285714287,282.47767857142856,2204.5,1029.5714285714287,282.47767857142856,2309.2,1029.5714285714287,282.47767857142856,2410.3,1029.5714285714287,282.47767857142856,2513.6,1029.5714285714287,282.47767857142856,2614.2,1029.5714285714287,282.47767857142856,2718.4,1029.5714285714287,282.47767857142856,2819.3,1029.5714285714287,282.47767857142856,2920.3,1029.5714285714287,282.47767857142856,3023.6,1029.5714285714287,282.47767857142856,3124.1,1029.5714285714287,282.47767857142856,3234.2,1029.5714285714287,282.47767857142856,3334.2,1029.5714285714287,282.47767857142856,3438,1029.5714285714287,282.47767857142856,3538.6,1029.5714285714287,282.47767857142856,3643.7,1029.5714285714287,282.47767857142856,3749.1,1029.5714285714287,282.47767857142856,3853.1,1029.5714285714287,282.47767857142856,3953.6,1029.5714285714287,282.47767857142856,4054.9,1029.5714285714287,282.47767857142856,4159.4,1029.5714285714287,282.47767857142856,4266.7,1029.5714285714287,282.47767857142856,4368.4,1029.5714285714287,282.47767857142856,4473.4,1029.5714285714287,282.47767857142856,4586.1,1029.5714285714287,282.47767857142856,4689.1,1029.5714285714287,282.47767857142856,4789.1,1029.5714285714287,282.47767857142856,4893.6]","[1464.1,1464.1,1000,0,464.1,""smooth"",""up"",""up"",""good_move"",3923.6,2459.2,1915.7,1464.4,543.5,""oops"",""up"",""down"",""bad_move"",6659.9,2736,2055.2,3924,680.7,""oops"",""right"",""up"",""good_move"",9480.5,2820.3,2432.6,6660.2,387.7,""smooth"",""up"",""up"",""good_move"",12679.7,3199.2,2762.1,9480.5,437.1,""smooth"",""right"",""right"",""good_move"",15724.8,3044.5,2711.1,12680.3,333.4,""oops"",""right"",""left"",""bad_move"",19329.3,3604.2,3058.7,15725.1,545.5,""oops"",""right"",""left"",""bad_move"",21752.6,2423,2086,19329.6,337,""smooth"",""right"",""right"",""good_move""]","",""
"3361","","<div style=""width:500px;"">
  <p>What determined the result of this run?</p>
  </div>","31","html-slider-response","60","1826421","0.0-5.0-1.10","64","1","2025-07-16 08:29:38","1f75c3e559b7213887762d5229550c2b","165.165.119.136","Mozilla/5.0 (Windows NT 10.0; Win64; x64) AppleWebKit/537.36 (KHTML, like Gecko) Chrome/138.0.0.0 Safari/537.36","WebKit","Chrome","138.0.0.0","Windows","10.0","https://app.prolific.com/","en-US,en;q=0.9","60a50457d02bfc23c02d4717","68764874ac79eee8c1d4cb03","687762da68123c2b4da93849","2","0","60a50457d02bfc23c02d4717","2","0","2025-07-16T09:00:06.764Z","","","","","","","","","","","AttribQ","","50","","","","","","","","","","","","","","","","","","","","","","","","","","","","",""
"11551","","<div style=""width:500px;"">
  <p>How much control did you have over the ball?</p>
  </div>","33","html-slider-response","61","1837973","0.0-5.0-2.10","64","1","2025-07-16 08:29:38","1f75c3e559b7213887762d5229550c2b","165.165.119.136","Mozilla/5.0 (Windows NT 10.0; Win64; x64) AppleWebKit/537.36 (KHTML, like Gecko) Chrome/138.0.0.0 Safari/537.36","WebKit","Chrome","138.0.0.0","Windows","10.0","https://app.prolific.com/","en-US,en;q=0.9","60a50457d02bfc23c02d4717","68764874ac79eee8c1d4cb03","687762da68123c2b4da93849","2","0","60a50457d02bfc23c02d4717","2","0","2025-07-16T09:00:18.316Z","","","","","","","","","","","ControlQ","","50","","","","","","","","","","","","","","","","","","","","","","","","","","","","",""
"16813","","<div style=""width:500px;"">
  <p>How would you describe your current emotional state?</p>
  </div>","81","html-slider-response","62","1854788","0.0-5.0-3.10","64","1","2025-07-16 08:29:38","1f75c3e559b7213887762d5229550c2b","165.165.119.136","Mozilla/5.0 (Windows NT 10.0; Win64; x64) AppleWebKit/537.36 (KHTML, like Gecko) Chrome/138.0.0.0 Safari/537.36","WebKit","Chrome","138.0.0.0","Windows","10.0","https://app.prolific.com/","en-US,en;q=0.9","60a50457d02bfc23c02d4717","68764874ac79eee8c1d4cb03","687762da68123c2b4da93849","2","0","60a50457d02bfc23c02d4717","2","0","2025-07-16T09:00:35.131Z","","","","","","","","","","","StressQ","","50","","","","","","","","","","","","","","","","","","","","","","","","","","","","",""
"33615","","<div style=""width:500px;"">
  <p>What best describes how you currently feel?</p>
  </div>","52","html-slider-response","63","1888405","0.0-5.0-4.10","64","1","2025-07-16 08:29:38","1f75c3e559b7213887762d5229550c2b","165.165.119.136","Mozilla/5.0 (Windows NT 10.0; Win64; x64) AppleWebKit/537.36 (KHTML, like Gecko) Chrome/138.0.0.0 Safari/537.36","WebKit","Chrome","138.0.0.0","Windows","10.0","https://app.prolific.com/","en-US,en;q=0.9","60a50457d02bfc23c02d4717","68764874ac79eee8c1d4cb03","687762da68123c2b4da93849","2","0","60a50457d02bfc23c02d4717","2","0","2025-07-16T09:01:08.748Z","","","","","","","","","","","MotivationQ","","50","","","","","","","","","","","","","","","","","","","","","","","","","","","","",""
"","","","","ctl-task-cpt","64","1944971","0.0-5.0-0.11","64","1","2025-07-16 08:29:38","1f75c3e559b7213887762d5229550c2b","165.165.119.136","Mozilla/5.0 (Windows NT 10.0; Win64; x64) AppleWebKit/537.36 (KHTML, like Gecko) Chrome/138.0.0.0 Safari/537.36","WebKit","Chrome","138.0.0.0","Windows","10.0","https://app.prolific.com/","en-US,en;q=0.9","60a50457d02bfc23c02d4717","68764874ac79eee8c1d4cb03","687762da68123c2b4da93849","2","0","60a50457d02bfc23c02d4717","2","0","2025-07-16T09:02:05.314Z","","","","","","","","","","","","","","win-only","1","g1:NE,g2:SW","0.6","12","0","1890764.9","34677.8","39681.2","53558","1","4","8","6","1","1","1","1","0","0.007575757575757576","1252.2","3000","1560","[""up"",""right""]","{""num_key_presses"":4,""num_perfect"":3,""num_errors"":0,""num_randdir"":1,""num_randdir_good_moves"":1,""num_whilered"":0,""num_whileblue"":0,""num_blue"":1,""num_good_moves"":4}","[417.57142857142856,419.47767857142856,0.3,417.57142857142856,419.47767857142856,101.7,417.57142857142856,419.47767857142856,205.5,417.57142857142856,419.47767857142856,309,417.57142857142856,419.47767857142856,422.4,417.57142857142856,419.47767857142856,524.1,417.57142857142856,419.47767857142856,624.6,440.57142857142856,341.47767857142856,729.6,560.5714285714286,15.47767857142857,831.2,590.5714285714286,11.47767857142857,942.2,634.5714285714286,20.47767857142857,1042.5,754.5714285714286,64.47767857142857,1154,756.5714285714286,69.47767857142857,1257,756.5714285714286,69.47767857142857,1358.7,756.5714285714286,69.47767857142857,1464.2,756.5714285714286,69.47767857142857,1569.4,959.5714285714286,86.47767857142857,1677,1128.5714285714287,99.47767857142857,1781.7,1133.5714285714287,101.47767857142857,1884.1,1135.5714285714287,105.47767857142857,1989,1135.5714285714287,117.47767857142857,2103.7,1135.5714285714287,124.47767857142857,2208.9,1135.5714285714287,131.47767857142856,2309.9,1135.5714285714287,134.47767857142856,2424.7,1135.5714285714287,139.47767857142856,2538.4,1135.5714285714287,146.47767857142856,2639.3,1135.5714285714287,147.47767857142856,2739.6,1135.5714285714287,147.47767857142856,2843.7,1135.5714285714287,147.47767857142856,2948.8,1135.5714285714287,147.47767857142856,3054.6,1135.5714285714287,147.47767857142856,3159,1135.5714285714287,147.47767857142856,3272.3,1135.5714285714287,147.47767857142856,3372.3,1135.5714285714287,147.47767857142856,3473.7,1135.5714285714287,147.47767857142856,3589.2,1135.5714285714287,147.47767857142856,3689.2,1135.5714285714287,147.47767857142856,3793.3,1135.5714285714287,147.47767857142856,3898.6,1135.5714285714287,147.47767857142856,3998.9,1135.5714285714287,147.47767857142856,4104,1135.5714285714287,147.47767857142856,4208.2,1135.5714285714287,147.47767857142856,4324.3,1135.5714285714287,147.47767857142856,4428.7,1135.5714285714287,147.47767857142856,4529.5,1135.5714285714287,147.47767857142856,4633.3,1135.5714285714287,147.47767857142856,4739.6,1135.5714285714287,147.47767857142856,4853.2,1135.5714285714287,147.47767857142856,4958.7]","[4421.7,4421.7,1780.3,2004.4,637,""smooth"",""up"",""up"",""good_move"",7432.8,3010.6,2565.2,4422.2,445.4,""oops"",""up"",""up"",""good_move"",10478.2,3045.3,2607,7433,438.3,""smooth"",""right"",""right"",""good_move"",13772.6,3294,2862.5,10478.6,431.5,""smooth"",""right"",""right"",""good_move""]","",""
"8200","","<div style=""width:500px;"">
  <p>What determined the result of this run?</p>
  </div>","79","html-slider-response","65","1953172","0.0-5.0-1.11","64","1","2025-07-16 08:29:38","1f75c3e559b7213887762d5229550c2b","165.165.119.136","Mozilla/5.0 (Windows NT 10.0; Win64; x64) AppleWebKit/537.36 (KHTML, like Gecko) Chrome/138.0.0.0 Safari/537.36","WebKit","Chrome","138.0.0.0","Windows","10.0","https://app.prolific.com/","en-US,en;q=0.9","60a50457d02bfc23c02d4717","68764874ac79eee8c1d4cb03","687762da68123c2b4da93849","2","0","60a50457d02bfc23c02d4717","2","0","2025-07-16T09:02:13.516Z","","","","","","","","","","","AttribQ","","50","","","","","","","","","","","","","","","","","","","","","","","","","","","","",""
"17446","","<div style=""width:500px;"">
  <p>How much control did you have over the ball?</p>
  </div>","72","html-slider-response","66","1970621","0.0-5.0-2.11","64","1","2025-07-16 08:29:38","1f75c3e559b7213887762d5229550c2b","165.165.119.136","Mozilla/5.0 (Windows NT 10.0; Win64; x64) AppleWebKit/537.36 (KHTML, like Gecko) Chrome/138.0.0.0 Safari/537.36","WebKit","Chrome","138.0.0.0","Windows","10.0","https://app.prolific.com/","en-US,en;q=0.9","60a50457d02bfc23c02d4717","68764874ac79eee8c1d4cb03","687762da68123c2b4da93849","2","0","60a50457d02bfc23c02d4717","2","0","2025-07-16T09:02:30.964Z","","","","","","","","","","","ControlQ","","50","","","","","","","","","","","","","","","","","","","","","","","","","","","","",""
"8133","","<div style=""width:500px;"">
  <p>How would you describe your current emotional state?</p>
  </div>","49","html-slider-response","67","1978756","0.0-5.0-3.11","64","1","2025-07-16 08:29:38","1f75c3e559b7213887762d5229550c2b","165.165.119.136","Mozilla/5.0 (Windows NT 10.0; Win64; x64) AppleWebKit/537.36 (KHTML, like Gecko) Chrome/138.0.0.0 Safari/537.36","WebKit","Chrome","138.0.0.0","Windows","10.0","https://app.prolific.com/","en-US,en;q=0.9","60a50457d02bfc23c02d4717","68764874ac79eee8c1d4cb03","687762da68123c2b4da93849","2","0","60a50457d02bfc23c02d4717","2","0","2025-07-16T09:02:39.100Z","","","","","","","","","","","StressQ","","50","","","","","","","","","","","","","","","","","","","","","","","","","","","","",""
"11573","","<div style=""width:500px;"">
  <p>What best describes how you currently feel?</p>
  </div>","53","html-slider-response","68","1990332","0.0-5.0-4.11","64","1","2025-07-16 08:29:38","1f75c3e559b7213887762d5229550c2b","165.165.119.136","Mozilla/5.0 (Windows NT 10.0; Win64; x64) AppleWebKit/537.36 (KHTML, like Gecko) Chrome/138.0.0.0 Safari/537.36","WebKit","Chrome","138.0.0.0","Windows","10.0","https://app.prolific.com/","en-US,en;q=0.9","60a50457d02bfc23c02d4717","68764874ac79eee8c1d4cb03","687762da68123c2b4da93849","2","0","60a50457d02bfc23c02d4717","2","0","2025-07-16T09:02:50.675Z","","","","","","","","","","","MotivationQ","","50","","","","","","","","","","","","","","","","","","","","","","","","","","","","",""
"","","","","ctl-task-cpt","69","2019826","0.0-5.0-0.12","64","1","2025-07-16 08:29:38","1f75c3e559b7213887762d5229550c2b","165.165.119.136","Mozilla/5.0 (Windows NT 10.0; Win64; x64) AppleWebKit/537.36 (KHTML, like Gecko) Chrome/138.0.0.0 Safari/537.36","WebKit","Chrome","138.0.0.0","Windows","10.0","https://app.prolific.com/","en-US,en;q=0.9","60a50457d02bfc23c02d4717","68764874ac79eee8c1d4cb03","687762da68123c2b4da93849","2","0","60a50457d02bfc23c02d4717","2","0","2025-07-16T09:03:20.169Z","","","","","","","","","","","","","","win-only","3","g1:SW,g2:NE","0.7","13","0","1992691","1190.2","6192.3","26487.2","1","4","8","6","1","1","1","2","1","0.015151515151515152","1355.9","3000","1555","[""down"",""left""]","{""num_key_presses"":4,""num_perfect"":3,""num_errors"":0,""num_randdir"":1,""num_randdir_good_moves"":1,""num_whilered"":0,""num_whileblue"":0,""num_blue"":3,""num_good_moves"":4}","[412.57142857142856,413.47767857142856,0.3,412.57142857142856,413.47767857142856,100.9,412.57142857142856,413.47767857142856,205.2,412.57142857142856,413.47767857142856,306.5,499.57142857142856,413.47767857142856,411.3,593.5714285714286,385.47767857142856,512.4,624.5714285714286,251.47767857142856,616.1,630.5714285714286,222.47767857142856,729.7,342.57142857142856,358.47767857142856,830.9,242.57142857142856,478.47767857142856,936.4,137.57142857142856,636.4776785714286,1058.1,95.57142857142857,702.4776785714286,1161.6,86.57142857142857,724.4776785714286,1266.9,88.57142857142857,743.4776785714286,1381.3,88.57142857142857,743.4776785714286,1482,88.57142857142857,743.4776785714286,1582.4,188.57142857142856,750.4776785714286,1685.4,650.5714285714286,820.4776785714286,1786,994.5714285714286,843.4776785714286,1891.3,1149.5714285714287,824.4776785714286,1995.7,1194.5714285714287,775.4776785714286,2100.9,1194.5714285714287,775.4776785714286,2202,1194.5714285714287,775.4776785714286,2302.1,1194.5714285714287,775.4776785714286,2407.3,1194.5714285714287,775.4776785714286,2517.3,1194.5714285714287,775.4776785714286,2630.8,1194.5714285714287,775.4776785714286,2731.6,1194.5714285714287,775.4776785714286,2848.9,1194.5714285714287,775.4776785714286,2950.5,1194.5714285714287,775.4776785714286,3050.6,1194.5714285714287,775.4776785714286,3151.8,1194.5714285714287,775.4776785714286,3265.9,1194.5714285714287,775.4776785714286,3369,1194.5714285714287,775.4776785714286,3480.6,1194.5714285714287,775.4776785714286,3585.8,1194.5714285714287,775.4776785714286,3690.7,1194.5714285714287,775.4776785714286,3791.1,1194.5714285714287,775.4776785714286,3896.6,1194.5714285714287,775.4776785714286,3998.2,1194.5714285714287,775.4776785714286,4102.9,1194.5714285714287,775.4776785714286,4205.5,1194.5714285714287,775.4776785714286,4305.7,1194.5714285714287,775.4776785714286,4416.1,1194.5714285714287,775.4776785714286,4520.3,1194.5714285714287,775.4776785714286,4621.7,1194.5714285714287,775.4776785714286,4726,1194.5714285714287,775.4776785714286,4831.1,1194.5714285714287,775.4776785714286,4935.1]","[1526.3,1526.3,1000,0,526.3,""smooth"",""left"",""left"",""good_move"",7224.7,5697.9,2467.8,4068.2,688.7,""smooth"",""down"",""down"",""good_move"",13110.7,5885.7,2052,10614.3,444.4,""oops"",""left"",""down"",""good_move"",20188.6,7077.7,2746.7,17013,428.9,""smooth"",""left"",""left"",""good_move""]","",""
"5033","","<div style=""width:500px;"">
  <p>What determined the result of this run?</p>
  </div>","74","html-slider-response","70","2024861","0.0-5.0-1.12","64","1","2025-07-16 08:29:38","1f75c3e559b7213887762d5229550c2b","165.165.119.136","Mozilla/5.0 (Windows NT 10.0; Win64; x64) AppleWebKit/537.36 (KHTML, like Gecko) Chrome/138.0.0.0 Safari/537.36","WebKit","Chrome","138.0.0.0","Windows","10.0","https://app.prolific.com/","en-US,en;q=0.9","60a50457d02bfc23c02d4717","68764874ac79eee8c1d4cb03","687762da68123c2b4da93849","2","0","60a50457d02bfc23c02d4717","2","0","2025-07-16T09:03:25.204Z","","","","","","","","","","","AttribQ","","50","","","","","","","","","","","","","","","","","","","","","","","","","","","","",""
"3430","","<div style=""width:500px;"">
  <p>How much control did you have over the ball?</p>
  </div>","64","html-slider-response","71","2028292","0.0-5.0-2.12","64","1","2025-07-16 08:29:38","1f75c3e559b7213887762d5229550c2b","165.165.119.136","Mozilla/5.0 (Windows NT 10.0; Win64; x64) AppleWebKit/537.36 (KHTML, like Gecko) Chrome/138.0.0.0 Safari/537.36","WebKit","Chrome","138.0.0.0","Windows","10.0","https://app.prolific.com/","en-US,en;q=0.9","60a50457d02bfc23c02d4717","68764874ac79eee8c1d4cb03","687762da68123c2b4da93849","2","0","60a50457d02bfc23c02d4717","2","0","2025-07-16T09:03:28.635Z","","","","","","","","","","","ControlQ","","50","","","","","","","","","","","","","","","","","","","","","","","","","","","","",""
"6702","","<div style=""width:500px;"">
  <p>How would you describe your current emotional state?</p>
  </div>","84","html-slider-response","72","2034996","0.0-5.0-3.12","64","1","2025-07-16 08:29:38","1f75c3e559b7213887762d5229550c2b","165.165.119.136","Mozilla/5.0 (Windows NT 10.0; Win64; x64) AppleWebKit/537.36 (KHTML, like Gecko) Chrome/138.0.0.0 Safari/537.36","WebKit","Chrome","138.0.0.0","Windows","10.0","https://app.prolific.com/","en-US,en;q=0.9","60a50457d02bfc23c02d4717","68764874ac79eee8c1d4cb03","687762da68123c2b4da93849","2","0","60a50457d02bfc23c02d4717","2","0","2025-07-16T09:03:35.339Z","","","","","","","","","","","StressQ","","50","","","","","","","","","","","","","","","","","","","","","","","","","","","","",""
"9646","","<div style=""width:500px;"">
  <p>What best describes how you currently feel?</p>
  </div>","57","html-slider-response","73","2044644","0.0-5.0-4.12","64","1","2025-07-16 08:29:38","1f75c3e559b7213887762d5229550c2b","165.165.119.136","Mozilla/5.0 (Windows NT 10.0; Win64; x64) AppleWebKit/537.36 (KHTML, like Gecko) Chrome/138.0.0.0 Safari/537.36","WebKit","Chrome","138.0.0.0","Windows","10.0","https://app.prolific.com/","en-US,en;q=0.9","60a50457d02bfc23c02d4717","68764874ac79eee8c1d4cb03","687762da68123c2b4da93849","2","0","60a50457d02bfc23c02d4717","2","0","2025-07-16T09:03:44.987Z","","","","","","","","","","","MotivationQ","","50","","","","","","","","","","","","","","","","","","","","","","","","","","","","",""
"","","","","ctl-task-cpt","74","2081370","0.0-5.0-0.13","64","1","2025-07-16 08:29:38","1f75c3e559b7213887762d5229550c2b","165.165.119.136","Mozilla/5.0 (Windows NT 10.0; Win64; x64) AppleWebKit/537.36 (KHTML, like Gecko) Chrome/138.0.0.0 Safari/537.36","WebKit","Chrome","138.0.0.0","Windows","10.0","https://app.prolific.com/","en-US,en;q=0.9","60a50457d02bfc23c02d4717","68764874ac79eee8c1d4cb03","687762da68123c2b4da93849","2","0","60a50457d02bfc23c02d4717","2","0","2025-07-16T09:04:21.713Z","","","","","","","","","","","","","","win-only","1","g1:NE,g2:SW","0.8","14","0","2047003.7","1389.3","6407","33684.8","1","4","4","6","1","1","0","2","2","0.015151515151515152","1001.3","3000","2550","[""up"",""right""]","{""num_key_presses"":6,""num_perfect"":5,""num_errors"":1,""num_randdir"":0,""num_randdir_good_moves"":0,""num_whilered"":0,""num_whileblue"":1,""num_blue"":3,""num_good_moves"":5}","[411.57142857142856,413.47767857142856,0.2,411.57142857142856,413.47767857142856,102.9,411.57142857142856,413.47767857142856,216,600.5714285714286,411.47767857142856,323.1,947.5714285714286,409.47767857142856,434.6,1040.5714285714287,400.47767857142856,546.2,1009.5714285714286,341.47767857142856,660.5,804.5714285714286,182.47767857142856,779.1,766.5714285714286,123.47767857142857,889.2,761.5714285714286,112.47767857142857,1001.8,761.5714285714286,111.47767857142857,1110.7,761.5714285714286,111.47767857142857,1227,909.5714285714286,122.47767857142857,1335.5,1044.5714285714287,153.47767857142856,1446.4,1044.5714285714287,153.47767857142856,1553.7,1044.5714285714287,153.47767857142856,1660.9,1044.5714285714287,153.47767857142856,1766.7,1044.5714285714287,153.47767857142856,1872.6,1044.5714285714287,153.47767857142856,1977.9,1044.5714285714287,153.47767857142856,2081.7,1044.5714285714287,153.47767857142856,2183.6,1044.5714285714287,153.47767857142856,2288.2,1044.5714285714287,153.47767857142856,2394.1,1044.5714285714287,153.47767857142856,2496.8,1044.5714285714287,153.47767857142856,2601.6,1044.5714285714287,153.47767857142856,2705.3,1044.5714285714287,153.47767857142856,2824.1,1044.5714285714287,153.47767857142856,2930.2,1044.5714285714287,153.47767857142856,3038.7,1044.5714285714287,153.47767857142856,3154.5,1044.5714285714287,153.47767857142856,3264,1044.5714285714287,153.47767857142856,3371.4,1044.5714285714287,153.47767857142856,3475,1044.5714285714287,153.47767857142856,3578.6,1044.5714285714287,153.47767857142856,3680.6,1044.5714285714287,153.47767857142856,3792.8,1044.5714285714287,153.47767857142856,3900.7,1044.5714285714287,153.47767857142856,4005,1044.5714285714287,153.47767857142856,4109,1044.5714285714287,153.47767857142856,4215.1,1044.5714285714287,153.47767857142856,4320.1,1044.5714285714287,153.47767857142856,4425.1,1044.5714285714287,153.47767857142856,4529.2,1044.5714285714287,153.47767857142856,4635.8,1044.5714285714287,153.47767857142856,4740.6,1044.5714285714287,153.47767857142856,4848.2,1044.5714285714287,153.47767857142856,4953.9]","[1540.7,1540.7,1000,0,540.7,""smooth"",""up"",""up"",""good_move"",8641.9,7100.9,1966.1,6237.2,438.6,""smooth"",""up"",""up"",""good_move"",14642.5,6000.6,2705.6,8641.9,3295,""smooth"",""right"",""right"",""good_move"",17681.2,3038.5,2631.7,14642.7,406.8,""while_blue"",""right"",""down"",""bad_move"",20886.4,3204.7,2562.3,17681.7,642.4,""smooth"",""right"",""right"",""good_move"",26690.1,5803.5,1877.8,24205.7,606.6,""smooth"",""up"",""up"",""good_move""]","",""
"6160","","<div style=""width:500px;"">
  <p>What determined the result of this run?</p>
  </div>","45","html-slider-response","75","2087533","0.0-5.0-1.13","64","1","2025-07-16 08:29:38","1f75c3e559b7213887762d5229550c2b","165.165.119.136","Mozilla/5.0 (Windows NT 10.0; Win64; x64) AppleWebKit/537.36 (KHTML, like Gecko) Chrome/138.0.0.0 Safari/537.36","WebKit","Chrome","138.0.0.0","Windows","10.0","https://app.prolific.com/","en-US,en;q=0.9","60a50457d02bfc23c02d4717","68764874ac79eee8c1d4cb03","687762da68123c2b4da93849","2","0","60a50457d02bfc23c02d4717","2","0","2025-07-16T09:04:27.876Z","","","","","","","","","","","AttribQ","","50","","","","","","","","","","","","","","","","","","","","","","","","","","","","",""
"12372","","<div style=""width:500px;"">
  <p>How much control did you have over the ball?</p>
  </div>","60","html-slider-response","76","2099909","0.0-5.0-2.13","64","1","2025-07-16 08:29:38","1f75c3e559b7213887762d5229550c2b","165.165.119.136","Mozilla/5.0 (Windows NT 10.0; Win64; x64) AppleWebKit/537.36 (KHTML, like Gecko) Chrome/138.0.0.0 Safari/537.36","WebKit","Chrome","138.0.0.0","Windows","10.0","https://app.prolific.com/","en-US,en;q=0.9","60a50457d02bfc23c02d4717","68764874ac79eee8c1d4cb03","687762da68123c2b4da93849","2","0","60a50457d02bfc23c02d4717","2","0","2025-07-16T09:04:40.252Z","","","","","","","","","","","ControlQ","","50","","","","","","","","","","","","","","","","","","","","","","","","","","","","",""
"10829","","<div style=""width:500px;"">
  <p>How would you describe your current emotional state?</p>
  </div>","100","html-slider-response","77","2110741","0.0-5.0-3.13","64","1","2025-07-16 08:29:38","1f75c3e559b7213887762d5229550c2b","165.165.119.136","Mozilla/5.0 (Windows NT 10.0; Win64; x64) AppleWebKit/537.36 (KHTML, like Gecko) Chrome/138.0.0.0 Safari/537.36","WebKit","Chrome","138.0.0.0","Windows","10.0","https://app.prolific.com/","en-US,en;q=0.9","60a50457d02bfc23c02d4717","68764874ac79eee8c1d4cb03","687762da68123c2b4da93849","2","0","60a50457d02bfc23c02d4717","2","0","2025-07-16T09:04:51.085Z","","","","","","","","","","","StressQ","","50","","","","","","","","","","","","","","","","","","","","","","","","","","","","",""
"24419","","<div style=""width:500px;"">
  <p>What best describes how you currently feel?</p>
  </div>","60","html-slider-response","78","2135164","0.0-5.0-4.13","64","1","2025-07-16 08:29:38","1f75c3e559b7213887762d5229550c2b","165.165.119.136","Mozilla/5.0 (Windows NT 10.0; Win64; x64) AppleWebKit/537.36 (KHTML, like Gecko) Chrome/138.0.0.0 Safari/537.36","WebKit","Chrome","138.0.0.0","Windows","10.0","https://app.prolific.com/","en-US,en;q=0.9","60a50457d02bfc23c02d4717","68764874ac79eee8c1d4cb03","687762da68123c2b4da93849","2","0","60a50457d02bfc23c02d4717","2","0","2025-07-16T09:05:15.507Z","","","","","","","","","","","MotivationQ","","50","","","","","","","","","","","","","","","","","","","","","","","","","","","","",""
