"rt","response_timestamp","stimulus","response","trial_type","trial_index","time_elapsed","internal_node_id","run_id","condition","recorded_at","source_code_version","ip","user_agent","device","browser","browser_version","platform","platform_version","referer","accept_language","PROLIFIC_PID","STUDY_ID","SESSION_ID","WEEK","BATCH","prolific_id","week","batch","realtime","success","responses","item_order","radio_event_ids","radio_event_times","key_event_times","mouse_event_times","straightlining","zigzagging","honeypot","eventType","view_history","slider_start","which_type","canvas_config","goals_layout","control_level","trial_number","tutorial_trial_number","trial_start_time","phase1_start_time","phase2_start_time","phase3_start_time","goal_1_value","goal_1_distance","goal_2_value","goal_2_distance","goal_selected","outcome","outcome_total","participant_final_score","participant_initial_score","participant_final_score_prop","goal_choice_rt","allocated_time","allocated_time_remaining","goal_direction","counts","mouse_movements","key_presses","question_order","question_id"
"4007","1752667999902","<p style='font-size:40px;line-height:1.25'><strong>Welcome to the experiment!</strong></p><p style='font-size:1.1em;line-height:1.25'>Thank you for participanting in our experiment again! You will be asked to play the Dysfunctional Ball Game again. We will briefly recap the rules before we start.</p><p style='font-size:1.1em;line-height:1.25'>Press <strong>Next</strong> to continue.</p>","0","custom-html-button-response","0","4009","0.0-0.0","111","1","2025-07-16 12:13:12","1f75c3e559b7213887762d5229550c2b","76.221.209.152","Mozilla/5.0 (Windows NT 10.0; Win64; x64) AppleWebKit/537.36 (KHTML, like Gecko) Chrome/138.0.0.0 Safari/537.36","WebKit","Chrome","138.0.0.0","Windows","10.0","https://app.prolific.com/","en-US,en;q=0.9,de;q=0.8,zh-TW;q=0.7,zh-CN;q=0.6,zh;q=0.5","5d617ba9364f9a0019f1dac3","68764874ac79eee8c1d4cb03","68779755e60503be98097441","2","0","5d617ba9364f9a0019f1dac3","2","0","2025-07-16T12:13:19.903Z","","","","","","","","","","","","","","","","","","","","","","","","","","","","","","","","","","","","","","","","","",""
"1375","","","","fullscreen","1","6389","0.0-1.0","111","1","2025-07-16 12:13:12","1f75c3e559b7213887762d5229550c2b","76.221.209.152","Mozilla/5.0 (Windows NT 10.0; Win64; x64) AppleWebKit/537.36 (KHTML, like Gecko) Chrome/138.0.0.0 Safari/537.36","WebKit","Chrome","138.0.0.0","Windows","10.0","https://app.prolific.com/","en-US,en;q=0.9,de;q=0.8,zh-TW;q=0.7,zh-CN;q=0.6,zh;q=0.5","5d617ba9364f9a0019f1dac3","68764874ac79eee8c1d4cb03","68779755e60503be98097441","2","0","5d617ba9364f9a0019f1dac3","2","0","","true","","","","","","","","","","","","","","","","","","","","","","","","","","","","","","","","","","","","","","","","",""
"1455","1752668003739","<p style='font-size:1.1em;line-height:1.25'>In the following, we will ask you a few questions relating to your feelings in the last 24 hours.<br></p><p style='font-size:1.1em;line-height:1.25'>Press the <strong>Next</strong> button to continue.</p>","0","custom-html-button-response","2","7845","0.0-2.0-0.0","111","1","2025-07-16 12:13:12","1f75c3e559b7213887762d5229550c2b","76.221.209.152","Mozilla/5.0 (Windows NT 10.0; Win64; x64) AppleWebKit/537.36 (KHTML, like Gecko) Chrome/138.0.0.0 Safari/537.36","WebKit","Chrome","138.0.0.0","Windows","10.0","https://app.prolific.com/","en-US,en;q=0.9,de;q=0.8,zh-TW;q=0.7,zh-CN;q=0.6,zh;q=0.5","5d617ba9364f9a0019f1dac3","68764874ac79eee8c1d4cb03","68779755e60503be98097441","2","0","5d617ba9364f9a0019f1dac3","2","0","2025-07-16T12:13:23.739Z","","","","","","","","","","","","","","","","","","","","","","","","","","","","","","","","","","","","","","","","","",""
"101192.69999998808","","","","survey-template","3","109041","0.0-2.0-1.0","111","1","2025-07-16 12:13:12","1f75c3e559b7213887762d5229550c2b","76.221.209.152","Mozilla/5.0 (Windows NT 10.0; Win64; x64) AppleWebKit/537.36 (KHTML, like Gecko) Chrome/138.0.0.0 Safari/537.36","WebKit","Chrome","138.0.0.0","Windows","10.0","https://app.prolific.com/","en-US,en;q=0.9,de;q=0.8,zh-TW;q=0.7,zh-CN;q=0.6,zh;q=0.5","5d617ba9364f9a0019f1dac3","68764874ac79eee8c1d4cb03","68779755e60503be98097441","2","0","5d617ba9364f9a0019f1dac3","2","0","2025-07-16T12:15:04.935Z","","{""Q01"":""1"",""Q02"":""1"",""Q03"":""1"",""Q04"":""2"",""Q05"":""1"",""Q06"":""1"",""Q07"":""2"",""Q08"":""0"",""Q09"":""3"",""Q10"":""2"",""Q11"":""3"",""Q12"":""0"",""Q13"":""5"",""Q14"":""1"",""Q15"":""0"",""Q16"":""1"",""Q17"":""2"",""Q18"":""0"",""Q19"":""0"",""Q20"":""1"",""Q21"":""2"",""Q22"":""0""}","[0,1,2,3,4,5,6,7,8,9,10,11,12,13,14,15,16,17,18,19,20,21]","[""Q01"",""Q02"",""Q03"",""Q04"",""Q05"",""Q06"",""Q07"",""Q08"",""Q09"",""Q10"",""Q11"",""Q12"",""Q13"",""Q14"",""Q15"",""Q16"",""Q17"",""Q18"",""Q19"",""Q20"",""Q21"",""Q21"",""Q22""]","[2756.5999999940395,3685.0999999940395,4539.4000000059605,6049,7855,10188.699999988079,11165.90000000596,12487.09999999404,14050.59999999404,17378.09999999404,18073.69999998808,19832.59999999404,21852.69999998808,23551.90000000596,25115.30000001192,27443.19999998808,29453.69999998808,92878.19999998808,93702,96045.09999999404,97828.5,98200.5,100372]","[]","[1.4000000059604645,2756.5999999940395,3685.0999999940395,4539.4000000059605,6049,7855,10188.699999988079,11165.90000000596,12487.09999999404,14050.59999999404,15566.90000000596,17378.09999999404,18073.69999998808,19832.59999999404,21056.40000000596,21852.69999998808,23056.40000000596,23551.90000000596,25115.30000001192,27443.19999998808,29453.69999998808,91935.59999999404,92878.19999998808,93702,95082.19999998808,96045.09999999404,97828.5,98200.5,99988.19999998808,100372,101189]","0.36363636363636365","0.5238095238095238","0","drsp","","","","","","","","","","","","","","","","","","","","","","","","","","","","","","",""
"7291.300000011921","","","","survey-template","4","116334","0.0-2.0-2.0","111","1","2025-07-16 12:13:12","1f75c3e559b7213887762d5229550c2b","76.221.209.152","Mozilla/5.0 (Windows NT 10.0; Win64; x64) AppleWebKit/537.36 (KHTML, like Gecko) Chrome/138.0.0.0 Safari/537.36","WebKit","Chrome","138.0.0.0","Windows","10.0","https://app.prolific.com/","en-US,en;q=0.9,de;q=0.8,zh-TW;q=0.7,zh-CN;q=0.6,zh;q=0.5","5d617ba9364f9a0019f1dac3","68764874ac79eee8c1d4cb03","68779755e60503be98097441","2","0","5d617ba9364f9a0019f1dac3","2","0","2025-07-16T12:15:12.228Z","","{""Q01"":""2"",""Q02"":""5"",""Q03"":""2""}","[0,1,2]","[""Q01"",""Q02"",""Q03"",""Q03""]","[1988.9000000059605,3806.5,4977.800000011921,6622.0999999940395]","[]","[1988.9000000059605,3806.5,4977.800000011921,5595.0999999940395,6622.0999999940395,7290.5]","0.6666666666666666","0","0","stress","","","","","","","","","","","","","","","","","","","","","","","","","","","","","","",""
"7391","","","","instructions","5","123726","0.0-3.0-0.0","111","1","2025-07-16 12:13:12","1f75c3e559b7213887762d5229550c2b","76.221.209.152","Mozilla/5.0 (Windows NT 10.0; Win64; x64) AppleWebKit/537.36 (KHTML, like Gecko) Chrome/138.0.0.0 Safari/537.36","WebKit","Chrome","138.0.0.0","Windows","10.0","https://app.prolific.com/","en-US,en;q=0.9,de;q=0.8,zh-TW;q=0.7,zh-CN;q=0.6,zh;q=0.5","5d617ba9364f9a0019f1dac3","68764874ac79eee8c1d4cb03","68779755e60503be98097441","2","0","5d617ba9364f9a0019f1dac3","2","0","","","","","","","","","","","","","[{""page_index"":0,""viewing_time"":7391}]","","","","","","","","","","","","","","","","","","","","","","","","","","","","","",""
"42002","","<p>Before you start with this game please answer the following three questions yourself. </p>
  <p>Through this game, we measure several aspects of your cognitive performance, such as reaction times, multi-tasking capabilities </p>
  <p>and the ability to assess the situation you are in.</p>
  <p></p>
  <p><b>How good do you usually are in such tasks?</b></p>","0","html-slider-response","6","165729","0.0-4.0-0.0","111","1","2025-07-16 12:13:12","1f75c3e559b7213887762d5229550c2b","76.221.209.152","Mozilla/5.0 (Windows NT 10.0; Win64; x64) AppleWebKit/537.36 (KHTML, like Gecko) Chrome/138.0.0.0 Safari/537.36","WebKit","Chrome","138.0.0.0","Windows","10.0","https://app.prolific.com/","en-US,en;q=0.9,de;q=0.8,zh-TW;q=0.7,zh-CN;q=0.6,zh;q=0.5","5d617ba9364f9a0019f1dac3","68764874ac79eee8c1d4cb03","68779755e60503be98097441","2","0","5d617ba9364f9a0019f1dac3","2","0","2025-07-16T12:16:01.623Z","","","","","","","","","","","PreSkillQ","","50","","","","","","","","","","","","","","","","","","","","","","","","","","","","",""
"2380","","<div style=""width:500px;"">
  <p>How well do you think you will perform in this task compared to other participants?</p>
  </div>","0","html-slider-response","7","168111","0.0-4.0-1.0","111","1","2025-07-16 12:13:12","1f75c3e559b7213887762d5229550c2b","76.221.209.152","Mozilla/5.0 (Windows NT 10.0; Win64; x64) AppleWebKit/537.36 (KHTML, like Gecko) Chrome/138.0.0.0 Safari/537.36","WebKit","Chrome","138.0.0.0","Windows","10.0","https://app.prolific.com/","en-US,en;q=0.9,de;q=0.8,zh-TW;q=0.7,zh-CN;q=0.6,zh;q=0.5","5d617ba9364f9a0019f1dac3","68764874ac79eee8c1d4cb03","68779755e60503be98097441","2","0","5d617ba9364f9a0019f1dac3","2","0","2025-07-16T12:16:04.005Z","","","","","","","","","","","PrePerfQ","","50","","","","","","","","","","","","","","","","","","","","","","","","","","","","",""
"3303","","<div style=""width:500px;"">
  <p>What best describes how you currently feel?</p>
  </div>","48","html-slider-response","8","171414","0.0-4.0-2.0","111","1","2025-07-16 12:13:12","1f75c3e559b7213887762d5229550c2b","76.221.209.152","Mozilla/5.0 (Windows NT 10.0; Win64; x64) AppleWebKit/537.36 (KHTML, like Gecko) Chrome/138.0.0.0 Safari/537.36","WebKit","Chrome","138.0.0.0","Windows","10.0","https://app.prolific.com/","en-US,en;q=0.9,de;q=0.8,zh-TW;q=0.7,zh-CN;q=0.6,zh;q=0.5","5d617ba9364f9a0019f1dac3","68764874ac79eee8c1d4cb03","68779755e60503be98097441","2","0","5d617ba9364f9a0019f1dac3","2","0","2025-07-16T12:16:07.308Z","","","","","","","","","","","PreMotivationQ","","50","","","","","","","","","","","","","","","","","","","","","","","","","","","","",""
"","","","","ctl-task-cpt","9","207708","0.0-5.0-0.0","111","1","2025-07-16 12:13:12","1f75c3e559b7213887762d5229550c2b","76.221.209.152","Mozilla/5.0 (Windows NT 10.0; Win64; x64) AppleWebKit/537.36 (KHTML, like Gecko) Chrome/138.0.0.0 Safari/537.36","WebKit","Chrome","138.0.0.0","Windows","10.0","https://app.prolific.com/","en-US,en;q=0.9,de;q=0.8,zh-TW;q=0.7,zh-CN;q=0.6,zh;q=0.5","5d617ba9364f9a0019f1dac3","68764874ac79eee8c1d4cb03","68779755e60503be98097441","2","0","5d617ba9364f9a0019f1dac3","2","0","2025-07-16T12:16:43.602Z","","","","","","","","","","","","","","win-only","0","g1:NW,g2:SE","1","1","0","174228.4","15415.8","20421.4","33287","1","4","8","6","1","1","0","0","0","0","1251.3","3000","1225","[""left"",""up""]","{""num_key_presses"":5,""num_perfect"":4,""num_errors"":1,""num_randdir"":0,""num_randdir_good_moves"":0,""num_whilered"":0,""num_whileblue"":0,""num_blue"":0,""num_good_moves"":4}","[416.5714133126395,411.57142761775424,0.4,416.5714133126395,410.32142761775424,100.9,415.3214133126395,409.07142761775424,201.6,412.8214133126395,407.82142761775424,306.7,411.5714133126395,407.82142761775424,409.9,411.5714133126395,407.82142761775424,510.7,401.5714133126395,397.82142761775424,614.6,400.3214133126395,397.82142761775424,714.6,386.5714133126395,386.57142761775424,815.3,220.3214133126395,202.82142761775424,921.2,42.82141331263951,111.57142761775425,1021.5,42.82141331263951,111.57142761775425,1125.8,70.3214133126395,85.32142761775425,1230.8,71.5714133126395,84.07142761775425,1335,60.32141331263951,80.32142761775425,1435.6,-105.9285866873605,61.57142761775425,1541.1,-123.4285866873605,60.32142761775425,1645.1,-123.4285866873605,60.32142761775425,1745.2,-123.4285866873605,60.32142761775425,1845.6,-123.4285866873605,60.32142761775425,1945.7,-123.4285866873605,60.32142761775425,2050.1,-123.4285866873605,60.32142761775425,2155.4,-123.4285866873605,60.32142761775425,2260,-123.4285866873605,60.32142761775425,2360.9,-123.4285866873605,60.32142761775425,2461.3,-123.4285866873605,60.32142761775425,2565.1,-123.4285866873605,60.32142761775425,2670.5,-123.4285866873605,60.32142761775425,2771,-123.4285866873605,60.32142761775425,2874.8,-123.4285866873605,60.32142761775425,2975.7,-123.4285866873605,60.32142761775425,3076,-123.4285866873605,60.32142761775425,3180.1,-123.4285866873605,60.32142761775425,3280.2,-123.4285866873605,60.32142761775425,3380.3,-123.4285866873605,60.32142761775425,3480.4,-123.4285866873605,60.32142761775425,3586,-123.4285866873605,60.32142761775425,3689.7,-123.4285866873605,60.32142761775425,3795.5,-123.4285866873605,60.32142761775425,3896.2,-123.4285866873605,60.32142761775425,4000.9,-123.4285866873605,60.32142761775425,4105.3,-123.4285866873605,60.32142761775425,4205.3,-123.4285866873605,60.32142761775425,4310.1,-123.4285866873605,60.32142761775425,4410.9,-123.4285866873605,60.32142761775425,4515.6,-123.4285866873605,60.32142761775425,4615.7,-123.4285866873605,60.32142761775425,4720.3,-123.4285866873605,60.32142761775425,4821.2,-123.4285866873605,60.32142761775425,4924.8]","[842.4,842.4,1000,0,-157.6,""error"",""-"",""-"",""no_move"",5081.4,4238.8,2816.2,1845,420.2,""smooth"",""up"",""up"",""good_move"",7913.2,2831,2354.7,5082.2,476.3,""smooth"",""left"",""left"",""good_move"",10361.3,2447.7,1931.5,7913.6,516.2,""smooth"",""up"",""up"",""good_move"",12778,2416.6,2027.8,10361.4,388.8,""smooth"",""left"",""left"",""good_move""]","",""
"5744","","<div style=""width:500px;"">
  <p>What determined the result of this run?</p>
  </div>","100","html-slider-response","10","213455","0.0-5.0-1.0","111","1","2025-07-16 12:13:12","1f75c3e559b7213887762d5229550c2b","76.221.209.152","Mozilla/5.0 (Windows NT 10.0; Win64; x64) AppleWebKit/537.36 (KHTML, like Gecko) Chrome/138.0.0.0 Safari/537.36","WebKit","Chrome","138.0.0.0","Windows","10.0","https://app.prolific.com/","en-US,en;q=0.9,de;q=0.8,zh-TW;q=0.7,zh-CN;q=0.6,zh;q=0.5","5d617ba9364f9a0019f1dac3","68764874ac79eee8c1d4cb03","68779755e60503be98097441","2","0","5d617ba9364f9a0019f1dac3","2","0","2025-07-16T12:16:49.349Z","","","","","","","","","","","AttribQ","","50","","","","","","","","","","","","","","","","","","","","","","","","","","","","",""
"1787","","<div style=""width:500px;"">
  <p>How much control did you have over the ball?</p>
  </div>","100","html-slider-response","11","215243","0.0-5.0-2.0","111","1","2025-07-16 12:13:12","1f75c3e559b7213887762d5229550c2b","76.221.209.152","Mozilla/5.0 (Windows NT 10.0; Win64; x64) AppleWebKit/537.36 (KHTML, like Gecko) Chrome/138.0.0.0 Safari/537.36","WebKit","Chrome","138.0.0.0","Windows","10.0","https://app.prolific.com/","en-US,en;q=0.9,de;q=0.8,zh-TW;q=0.7,zh-CN;q=0.6,zh;q=0.5","5d617ba9364f9a0019f1dac3","68764874ac79eee8c1d4cb03","68779755e60503be98097441","2","0","5d617ba9364f9a0019f1dac3","2","0","2025-07-16T12:16:51.137Z","","","","","","","","","","","ControlQ","","50","","","","","","","","","","","","","","","","","","","","","","","","","","","","",""
"2511","","<div style=""width:500px;"">
  <p>How would you describe your current emotional state?</p>
  </div>","33","html-slider-response","12","217754","0.0-5.0-3.0","111","1","2025-07-16 12:13:12","1f75c3e559b7213887762d5229550c2b","76.221.209.152","Mozilla/5.0 (Windows NT 10.0; Win64; x64) AppleWebKit/537.36 (KHTML, like Gecko) Chrome/138.0.0.0 Safari/537.36","WebKit","Chrome","138.0.0.0","Windows","10.0","https://app.prolific.com/","en-US,en;q=0.9,de;q=0.8,zh-TW;q=0.7,zh-CN;q=0.6,zh;q=0.5","5d617ba9364f9a0019f1dac3","68764874ac79eee8c1d4cb03","68779755e60503be98097441","2","0","5d617ba9364f9a0019f1dac3","2","0","2025-07-16T12:16:53.649Z","","","","","","","","","","","StressQ","","50","","","","","","","","","","","","","","","","","","","","","","","","","","","","",""
"3137","","<div style=""width:500px;"">
  <p>What best describes how you currently feel?</p>
  </div>","42","html-slider-response","13","220892","0.0-5.0-4.0","111","1","2025-07-16 12:13:12","1f75c3e559b7213887762d5229550c2b","76.221.209.152","Mozilla/5.0 (Windows NT 10.0; Win64; x64) AppleWebKit/537.36 (KHTML, like Gecko) Chrome/138.0.0.0 Safari/537.36","WebKit","Chrome","138.0.0.0","Windows","10.0","https://app.prolific.com/","en-US,en;q=0.9,de;q=0.8,zh-TW;q=0.7,zh-CN;q=0.6,zh;q=0.5","5d617ba9364f9a0019f1dac3","68764874ac79eee8c1d4cb03","68779755e60503be98097441","2","0","5d617ba9364f9a0019f1dac3","2","0","2025-07-16T12:16:56.787Z","","","","","","","","","","","MotivationQ","","50","","","","","","","","","","","","","","","","","","","","","","","","","","","","",""
"","","","","ctl-task-cpt","14","249689","0.0-5.0-0.1","111","1","2025-07-16 12:13:12","1f75c3e559b7213887762d5229550c2b","76.221.209.152","Mozilla/5.0 (Windows NT 10.0; Win64; x64) AppleWebKit/537.36 (KHTML, like Gecko) Chrome/138.0.0.0 Safari/537.36","WebKit","Chrome","138.0.0.0","Windows","10.0","https://app.prolific.com/","en-US,en;q=0.9,de;q=0.8,zh-TW;q=0.7,zh-CN;q=0.6,zh;q=0.5","5d617ba9364f9a0019f1dac3","68764874ac79eee8c1d4cb03","68779755e60503be98097441","2","0","5d617ba9364f9a0019f1dac3","2","0","2025-07-16T12:17:25.583Z","","","","","","","","","","","","","","win-only","1","g1:NE,g2:SW","0.9","2","0","223706.7","9274.9","14276.3","25776.7","1","4","4","6","1","1","1","1","0","0.007575757575757576","1108.9","3000","300","[""up"",""right""]","{""num_key_presses"":4,""num_perfect"":4,""num_errors"":0,""num_randdir"":0,""num_randdir_good_moves"":0,""num_whilered"":0,""num_whileblue"":0,""num_blue"":0,""num_good_moves"":4}","[411.5714133126395,424.07142761775424,0.9,411.5714133126395,424.07142761775424,100.7,411.5714133126395,422.82142761775424,201.3,426.5714133126395,426.57142761775424,302.5,1291.5714133126396,436.57142761775424,406.1,1341.5714133126396,436.57142761775424,510.9,1341.5714133126396,436.57142761775424,611.1,1032.8214133126396,372.82142761775424,711.5,762.8214133126395,356.57142761775424,815.5,629.0714133126395,260.32142761775424,916.2,706.5714133126395,132.82142761775424,1017.2,719.0714133126395,91.57142761775425,1121.9,719.0714133126395,91.57142761775425,1226.9,719.0714133126395,91.57142761775425,1331.1,719.0714133126395,91.57142761775425,1437.6,662.8214133126395,110.32142761775425,1541.5,1114.0714133126396,185.32142761775424,1642.4,1369.0714133126396,185.32142761775424,1746.5,1369.0714133126396,185.32142761775424,1848,1369.0714133126396,185.32142761775424,1951.8,1369.0714133126396,185.32142761775424,2056.3,1369.0714133126396,185.32142761775424,2156.5,1369.0714133126396,185.32142761775424,2262.6,1369.0714133126396,185.32142761775424,2366.5,1369.0714133126396,185.32142761775424,2471.7,1369.0714133126396,185.32142761775424,2576.6,1369.0714133126396,185.32142761775424,2676.6,1369.0714133126396,185.32142761775424,2781,1369.0714133126396,185.32142761775424,2881.7,1369.0714133126396,185.32142761775424,2986.8,1369.0714133126396,185.32142761775424,3091.2,896.5714133126395,412.82142761775424,3191.5,834.0714133126395,389.07142761775424,3291.7,591.5714133126395,389.07142761775424,3397.4,589.0714133126395,385.32142761775424,3501.1,592.8214133126395,380.32142761775424,3601.5,616.5714133126395,347.82142761775424,3701.6,514.0714133126395,276.57142761775424,3801.7,502.8214133126395,149.07142761775424,3906.2,527.8214133126395,102.82142761775425,4006.5,530.3214133126395,101.57142761775425,4107.5,530.3214133126395,101.57142761775425,4212.2,530.3214133126395,101.57142761775425,4317.1,530.3214133126395,101.57142761775425,4420.7,530.3214133126395,101.57142761775425,4520.7,530.3214133126395,101.57142761775425,4626.4,530.3214133126395,101.57142761775425,4731,530.3214133126395,101.57142761775425,4836.8,530.3214133126395,101.57142761775425,4941.9]","[1557.7,1557.7,1000,0,557.7,""smooth"",""up"",""up"",""good_move"",4988.3,3430.1,2395.4,1558.4,1034.6,""smooth"",""right"",""right"",""good_move"",8739.9,3751.2,3022.5,4988.7,728.7,""smooth"",""up"",""up"",""good_move"",11411.4,2671.4,2249.9,8740,421.5,""smooth"",""right"",""right"",""good_move""]","",""
"3266","","<div style=""width:500px;"">
  <p>What determined the result of this run?</p>
  </div>","100","html-slider-response","15","252956","0.0-5.0-1.1","111","1","2025-07-16 12:13:12","1f75c3e559b7213887762d5229550c2b","76.221.209.152","Mozilla/5.0 (Windows NT 10.0; Win64; x64) AppleWebKit/537.36 (KHTML, like Gecko) Chrome/138.0.0.0 Safari/537.36","WebKit","Chrome","138.0.0.0","Windows","10.0","https://app.prolific.com/","en-US,en;q=0.9,de;q=0.8,zh-TW;q=0.7,zh-CN;q=0.6,zh;q=0.5","5d617ba9364f9a0019f1dac3","68764874ac79eee8c1d4cb03","68779755e60503be98097441","2","0","5d617ba9364f9a0019f1dac3","2","0","2025-07-16T12:17:28.850Z","","","","","","","","","","","AttribQ","","50","","","","","","","","","","","","","","","","","","","","","","","","","","","","",""
"1996","","<div style=""width:500px;"">
  <p>How much control did you have over the ball?</p>
  </div>","100","html-slider-response","16","254952","0.0-5.0-2.1","111","1","2025-07-16 12:13:12","1f75c3e559b7213887762d5229550c2b","76.221.209.152","Mozilla/5.0 (Windows NT 10.0; Win64; x64) AppleWebKit/537.36 (KHTML, like Gecko) Chrome/138.0.0.0 Safari/537.36","WebKit","Chrome","138.0.0.0","Windows","10.0","https://app.prolific.com/","en-US,en;q=0.9,de;q=0.8,zh-TW;q=0.7,zh-CN;q=0.6,zh;q=0.5","5d617ba9364f9a0019f1dac3","68764874ac79eee8c1d4cb03","68779755e60503be98097441","2","0","5d617ba9364f9a0019f1dac3","2","0","2025-07-16T12:17:30.847Z","","","","","","","","","","","ControlQ","","50","","","","","","","","","","","","","","","","","","","","","","","","","","","","",""
"2027","","<div style=""width:500px;"">
  <p>How would you describe your current emotional state?</p>
  </div>","35","html-slider-response","17","256981","0.0-5.0-3.1","111","1","2025-07-16 12:13:12","1f75c3e559b7213887762d5229550c2b","76.221.209.152","Mozilla/5.0 (Windows NT 10.0; Win64; x64) AppleWebKit/537.36 (KHTML, like Gecko) Chrome/138.0.0.0 Safari/537.36","WebKit","Chrome","138.0.0.0","Windows","10.0","https://app.prolific.com/","en-US,en;q=0.9,de;q=0.8,zh-TW;q=0.7,zh-CN;q=0.6,zh;q=0.5","5d617ba9364f9a0019f1dac3","68764874ac79eee8c1d4cb03","68779755e60503be98097441","2","0","5d617ba9364f9a0019f1dac3","2","0","2025-07-16T12:17:32.875Z","","","","","","","","","","","StressQ","","50","","","","","","","","","","","","","","","","","","","","","","","","","","","","",""
"3089","","<div style=""width:500px;"">
  <p>What best describes how you currently feel?</p>
  </div>","38","html-slider-response","18","260070","0.0-5.0-4.1","111","1","2025-07-16 12:13:12","1f75c3e559b7213887762d5229550c2b","76.221.209.152","Mozilla/5.0 (Windows NT 10.0; Win64; x64) AppleWebKit/537.36 (KHTML, like Gecko) Chrome/138.0.0.0 Safari/537.36","WebKit","Chrome","138.0.0.0","Windows","10.0","https://app.prolific.com/","en-US,en;q=0.9,de;q=0.8,zh-TW;q=0.7,zh-CN;q=0.6,zh;q=0.5","5d617ba9364f9a0019f1dac3","68764874ac79eee8c1d4cb03","68779755e60503be98097441","2","0","5d617ba9364f9a0019f1dac3","2","0","2025-07-16T12:17:35.964Z","","","","","","","","","","","MotivationQ","","50","","","","","","","","","","","","","","","","","","","","","","","","","","","","",""
"","","","","ctl-task-cpt","19","283443","0.0-5.0-0.2","111","1","2025-07-16 12:13:12","1f75c3e559b7213887762d5229550c2b","76.221.209.152","Mozilla/5.0 (Windows NT 10.0; Win64; x64) AppleWebKit/537.36 (KHTML, like Gecko) Chrome/138.0.0.0 Safari/537.36","WebKit","Chrome","138.0.0.0","Windows","10.0","https://app.prolific.com/","en-US,en;q=0.9,de;q=0.8,zh-TW;q=0.7,zh-CN;q=0.6,zh;q=0.5","5d617ba9364f9a0019f1dac3","68764874ac79eee8c1d4cb03","68779755e60503be98097441","2","0","5d617ba9364f9a0019f1dac3","2","0","2025-07-16T12:17:59.337Z","","","","","","","","","","","","","","win-only","2","g1:SE,g2:NW","0.8","3","0","262884.5","2135.4","7140.8","20355.2","1","4","8","6","1","1","1","2","1","0.015151515151515152","1035.5","3000","1410","[""down"",""right""]","{""num_key_presses"":4,""num_perfect"":4,""num_errors"":0,""num_randdir"":0,""num_randdir_good_moves"":0,""num_whilered"":0,""num_whileblue"":0,""num_blue"":1,""num_good_moves"":4}","[411.5714133126395,412.82142761775424,0.2,411.5714133126395,414.07142761775424,101,410.3214133126395,414.07142761775424,201.1,272.8214133126395,454.07142761775424,305.5,4.071413312639507,515.3214276177542,410.1,106.5714133126395,497.82142761775424,515,196.5714133126395,369.07142761775424,616.2,676.5714133126395,779.0714276177542,716.2,771.5714133126395,849.0714276177542,816.4,736.5714133126395,816.5714276177542,920.3,736.5714133126395,782.8214276177542,1020.5,736.5714133126395,782.8214276177542,1120.6,837.8214133126395,846.5714276177542,1225.2,1126.5714133126396,870.3214276177542,1330.5,1137.8214133126396,812.8214276177542,1437.5,1136.5714133126396,809.0714276177542,1540,1136.5714133126396,809.0714276177542,1640.2,1136.5714133126396,809.0714276177542,1741.3,1136.5714133126396,809.0714276177542,1845.5,1136.5714133126396,809.0714276177542,1946.6,1136.5714133126396,809.0714276177542,2051.1,1136.5714133126396,809.0714276177542,2151.9,1136.5714133126396,809.0714276177542,2255.6,1136.5714133126396,809.0714276177542,2360.3,1136.5714133126396,809.0714276177542,2464,1136.5714133126396,809.0714276177542,2565,1136.5714133126396,809.0714276177542,2670.7,1136.5714133126396,809.0714276177542,2776.4,1136.5714133126396,809.0714276177542,2881,1136.5714133126396,809.0714276177542,2986.1,1136.5714133126396,809.0714276177542,3091.7,1136.5714133126396,809.0714276177542,3195.8,1136.5714133126396,809.0714276177542,3299.8,1136.5714133126396,809.0714276177542,3400.9,1136.5714133126396,809.0714276177542,3501.7,1136.5714133126396,809.0714276177542,3605.8,1136.5714133126396,809.0714276177542,3709.8,1136.5714133126396,809.0714276177542,3810.1,1136.5714133126396,809.0714276177542,3911.2,1136.5714133126396,809.0714276177542,4011.8,1136.5714133126396,809.0714276177542,4115.7,1136.5714133126396,809.0714276177542,4219.8,1136.5714133126396,809.0714276177542,4320.2,1136.5714133126396,809.0714276177542,4425.2,1136.5714133126396,809.0714276177542,4525.4,1136.5714133126396,809.0714276177542,4630.3,1136.5714133126396,809.0714276177542,4730.7,1136.5714133126396,809.0714276177542,4835.7,1136.5714133126396,809.0714276177542,4939.2]","[1462.7,1462.8,1000,0,462.8,""smooth"",""down"",""down"",""good_move"",7081.2,5618,2115.4,4535.8,430,""smooth"",""down"",""down"",""good_move"",9932.4,2851.1,2474.8,7081.3,376.4,""smooth"",""right"",""right"",""good_move"",13122.4,3189.4,2844,9933,345.4,""smooth"",""right"",""right"",""good_move""]","",""
"2879","","<div style=""width:500px;"">
  <p>What determined the result of this run?</p>
  </div>","100","html-slider-response","20","286323","0.0-5.0-1.2","111","1","2025-07-16 12:13:12","1f75c3e559b7213887762d5229550c2b","76.221.209.152","Mozilla/5.0 (Windows NT 10.0; Win64; x64) AppleWebKit/537.36 (KHTML, like Gecko) Chrome/138.0.0.0 Safari/537.36","WebKit","Chrome","138.0.0.0","Windows","10.0","https://app.prolific.com/","en-US,en;q=0.9,de;q=0.8,zh-TW;q=0.7,zh-CN;q=0.6,zh;q=0.5","5d617ba9364f9a0019f1dac3","68764874ac79eee8c1d4cb03","68779755e60503be98097441","2","0","5d617ba9364f9a0019f1dac3","2","0","2025-07-16T12:18:02.217Z","","","","","","","","","","","AttribQ","","50","","","","","","","","","","","","","","","","","","","","","","","","","","","","",""
"1924","","<div style=""width:500px;"">
  <p>How much control did you have over the ball?</p>
  </div>","100","html-slider-response","21","288249","0.0-5.0-2.2","111","1","2025-07-16 12:13:12","1f75c3e559b7213887762d5229550c2b","76.221.209.152","Mozilla/5.0 (Windows NT 10.0; Win64; x64) AppleWebKit/537.36 (KHTML, like Gecko) Chrome/138.0.0.0 Safari/537.36","WebKit","Chrome","138.0.0.0","Windows","10.0","https://app.prolific.com/","en-US,en;q=0.9,de;q=0.8,zh-TW;q=0.7,zh-CN;q=0.6,zh;q=0.5","5d617ba9364f9a0019f1dac3","68764874ac79eee8c1d4cb03","68779755e60503be98097441","2","0","5d617ba9364f9a0019f1dac3","2","0","2025-07-16T12:18:04.143Z","","","","","","","","","","","ControlQ","","50","","","","","","","","","","","","","","","","","","","","","","","","","","","","",""
"2579","","<div style=""width:500px;"">
  <p>How would you describe your current emotional state?</p>
  </div>","37","html-slider-response","22","290829","0.0-5.0-3.2","111","1","2025-07-16 12:13:12","1f75c3e559b7213887762d5229550c2b","76.221.209.152","Mozilla/5.0 (Windows NT 10.0; Win64; x64) AppleWebKit/537.36 (KHTML, like Gecko) Chrome/138.0.0.0 Safari/537.36","WebKit","Chrome","138.0.0.0","Windows","10.0","https://app.prolific.com/","en-US,en;q=0.9,de;q=0.8,zh-TW;q=0.7,zh-CN;q=0.6,zh;q=0.5","5d617ba9364f9a0019f1dac3","68764874ac79eee8c1d4cb03","68779755e60503be98097441","2","0","5d617ba9364f9a0019f1dac3","2","0","2025-07-16T12:18:06.723Z","","","","","","","","","","","StressQ","","50","","","","","","","","","","","","","","","","","","","","","","","","","","","","",""
"2177","","<div style=""width:500px;"">
  <p>What best describes how you currently feel?</p>
  </div>","44","html-slider-response","23","293007","0.0-5.0-4.2","111","1","2025-07-16 12:13:12","1f75c3e559b7213887762d5229550c2b","76.221.209.152","Mozilla/5.0 (Windows NT 10.0; Win64; x64) AppleWebKit/537.36 (KHTML, like Gecko) Chrome/138.0.0.0 Safari/537.36","WebKit","Chrome","138.0.0.0","Windows","10.0","https://app.prolific.com/","en-US,en;q=0.9,de;q=0.8,zh-TW;q=0.7,zh-CN;q=0.6,zh;q=0.5","5d617ba9364f9a0019f1dac3","68764874ac79eee8c1d4cb03","68779755e60503be98097441","2","0","5d617ba9364f9a0019f1dac3","2","0","2025-07-16T12:18:08.901Z","","","","","","","","","","","MotivationQ","","50","","","","","","","","","","","","","","","","","","","","","","","","","","","","",""
"","","","","ctl-task-cpt","24","322045","0.0-5.0-0.3","111","1","2025-07-16 12:13:12","1f75c3e559b7213887762d5229550c2b","76.221.209.152","Mozilla/5.0 (Windows NT 10.0; Win64; x64) AppleWebKit/537.36 (KHTML, like Gecko) Chrome/138.0.0.0 Safari/537.36","WebKit","Chrome","138.0.0.0","Windows","10.0","https://app.prolific.com/","en-US,en;q=0.9,de;q=0.8,zh-TW;q=0.7,zh-CN;q=0.6,zh;q=0.5","5d617ba9364f9a0019f1dac3","68764874ac79eee8c1d4cb03","68779755e60503be98097441","2","0","5d617ba9364f9a0019f1dac3","2","0","2025-07-16T12:18:37.939Z","","","","","","","","","","","","","","win-only","3","g1:SW,g2:NE","0.7","4","0","295821.4","790.9","5792.1","26021","1","4","4","6","1","1","1","3","2","0.022727272727272728","722.7","3000","610","[""down"",""left""]","{""num_key_presses"":6,""num_perfect"":4,""num_errors"":0,""num_randdir"":2,""num_randdir_good_moves"":1,""num_whilered"":0,""num_whileblue"":0,""num_blue"":1,""num_good_moves"":5}","[420.3214133126395,417.82142761775424,0.1,420.3214133126395,416.57142761775424,100.9,351.5714133126395,436.57142761775424,205.7,107.8214133126395,681.5714276177542,309.5,116.5714133126395,701.5714276177542,410.4,126.5714133126395,697.8214276177542,515.3,120.3214133126395,742.8214276177542,619.5,117.8214133126395,795.3214276177542,721.3,117.8214133126395,795.3214276177542,824.9,109.0714133126395,797.8214276177542,930.9,72.8214133126395,960.3214276177542,1036.4,-38.42858668736049,957.8214276177542,1141.4,-38.42858668736049,957.8214276177542,1245.5,-38.42858668736049,957.8214276177542,1349.5,-38.42858668736049,957.8214276177542,1450.8,-38.42858668736049,957.8214276177542,1555.5,-38.42858668736049,957.8214276177542,1660.6,-38.42858668736049,957.8214276177542,1761,-38.42858668736049,957.8214276177542,1861.1,-38.42858668736049,957.8214276177542,1961.1,-38.42858668736049,957.8214276177542,2066.3,-38.42858668736049,957.8214276177542,2170.7,-38.42858668736049,957.8214276177542,2270.9,-38.42858668736049,957.8214276177542,2374.5,-38.42858668736049,957.8214276177542,2474.5,-38.42858668736049,957.8214276177542,2580.7,-38.42858668736049,957.8214276177542,2685.4,-38.42858668736049,957.8214276177542,2785.5,-38.42858668736049,957.8214276177542,2890.3,-38.42858668736049,957.8214276177542,2994.6,-38.42858668736049,957.8214276177542,3100.6,-38.42858668736049,957.8214276177542,3205.5,-38.42858668736049,957.8214276177542,3310.3,-38.42858668736049,957.8214276177542,3414.9,-38.42858668736049,957.8214276177542,3515.5,-38.42858668736049,957.8214276177542,3621,-38.42858668736049,957.8214276177542,3725.3,-38.42858668736049,957.8214276177542,3825.8,-38.42858668736049,957.8214276177542,3930.5,-38.42858668736049,957.8214276177542,4035.3,-38.42858668736049,957.8214276177542,4135.7,-38.42858668736049,957.8214276177542,4239.8,-38.42858668736049,957.8214276177542,4340.6,-38.42858668736049,957.8214276177542,4445.6,-38.42858668736049,957.8214276177542,4550.4,-38.42858668736049,957.8214276177542,4656.1,-38.42858668736049,957.8214276177542,4760.7,-38.42858668736049,957.8214276177542,4860.8,-38.42858668736049,957.8214276177542,4964.6]","[1365.1,1365.1,1000,0,365.1,""smooth"",""down"",""down"",""good_move"",4301.6,2936.2,2477.5,1365.4,458.7,""oops"",""down"",""down"",""good_move"",6741.5,2439.7,2031,4301.8,408.7,""oops"",""left"",""right"",""bad_move"",13685,6943.1,2809.8,10491.6,383.7,""smooth"",""left"",""left"",""good_move"",16501.3,2816,2413.3,13685.3,402.7,""smooth"",""left"",""left"",""good_move"",20142.9,3641.5,3242.6,16501.4,398.9,""smooth"",""left"",""left"",""good_move""]","",""
"2857","","<div style=""width:500px;"">
  <p>What determined the result of this run?</p>
  </div>","34","html-slider-response","25","324904","0.0-5.0-1.3","111","1","2025-07-16 12:13:12","1f75c3e559b7213887762d5229550c2b","76.221.209.152","Mozilla/5.0 (Windows NT 10.0; Win64; x64) AppleWebKit/537.36 (KHTML, like Gecko) Chrome/138.0.0.0 Safari/537.36","WebKit","Chrome","138.0.0.0","Windows","10.0","https://app.prolific.com/","en-US,en;q=0.9,de;q=0.8,zh-TW;q=0.7,zh-CN;q=0.6,zh;q=0.5","5d617ba9364f9a0019f1dac3","68764874ac79eee8c1d4cb03","68779755e60503be98097441","2","0","5d617ba9364f9a0019f1dac3","2","0","2025-07-16T12:18:40.798Z","","","","","","","","","","","AttribQ","","50","","","","","","","","","","","","","","","","","","","","","","","","","","","","",""
"3795","","<div style=""width:500px;"">
  <p>How much control did you have over the ball?</p>
  </div>","66","html-slider-response","26","328699","0.0-5.0-2.3","111","1","2025-07-16 12:13:12","1f75c3e559b7213887762d5229550c2b","76.221.209.152","Mozilla/5.0 (Windows NT 10.0; Win64; x64) AppleWebKit/537.36 (KHTML, like Gecko) Chrome/138.0.0.0 Safari/537.36","WebKit","Chrome","138.0.0.0","Windows","10.0","https://app.prolific.com/","en-US,en;q=0.9,de;q=0.8,zh-TW;q=0.7,zh-CN;q=0.6,zh;q=0.5","5d617ba9364f9a0019f1dac3","68764874ac79eee8c1d4cb03","68779755e60503be98097441","2","0","5d617ba9364f9a0019f1dac3","2","0","2025-07-16T12:18:44.594Z","","","","","","","","","","","ControlQ","","50","","","","","","","","","","","","","","","","","","","","","","","","","","","","",""
"2739","","<div style=""width:500px;"">
  <p>How would you describe your current emotional state?</p>
  </div>","63","html-slider-response","27","331440","0.0-5.0-3.3","111","1","2025-07-16 12:13:12","1f75c3e559b7213887762d5229550c2b","76.221.209.152","Mozilla/5.0 (Windows NT 10.0; Win64; x64) AppleWebKit/537.36 (KHTML, like Gecko) Chrome/138.0.0.0 Safari/537.36","WebKit","Chrome","138.0.0.0","Windows","10.0","https://app.prolific.com/","en-US,en;q=0.9,de;q=0.8,zh-TW;q=0.7,zh-CN;q=0.6,zh;q=0.5","5d617ba9364f9a0019f1dac3","68764874ac79eee8c1d4cb03","68779755e60503be98097441","2","0","5d617ba9364f9a0019f1dac3","2","0","2025-07-16T12:18:47.334Z","","","","","","","","","","","StressQ","","50","","","","","","","","","","","","","","","","","","","","","","","","","","","","",""
"5707","","<div style=""width:500px;"">
  <p>What best describes how you currently feel?</p>
  </div>","44","html-slider-response","28","337148","0.0-5.0-4.3","111","1","2025-07-16 12:13:12","1f75c3e559b7213887762d5229550c2b","76.221.209.152","Mozilla/5.0 (Windows NT 10.0; Win64; x64) AppleWebKit/537.36 (KHTML, like Gecko) Chrome/138.0.0.0 Safari/537.36","WebKit","Chrome","138.0.0.0","Windows","10.0","https://app.prolific.com/","en-US,en;q=0.9,de;q=0.8,zh-TW;q=0.7,zh-CN;q=0.6,zh;q=0.5","5d617ba9364f9a0019f1dac3","68764874ac79eee8c1d4cb03","68779755e60503be98097441","2","0","5d617ba9364f9a0019f1dac3","2","0","2025-07-16T12:18:53.042Z","","","","","","","","","","","MotivationQ","","50","","","","","","","","","","","","","","","","","","","","","","","","","","","","",""
"","","","","ctl-task-cpt","29","366252","0.0-5.0-0.4","111","1","2025-07-16 12:13:12","1f75c3e559b7213887762d5229550c2b","76.221.209.152","Mozilla/5.0 (Windows NT 10.0; Win64; x64) AppleWebKit/537.36 (KHTML, like Gecko) Chrome/138.0.0.0 Safari/537.36","WebKit","Chrome","138.0.0.0","Windows","10.0","https://app.prolific.com/","en-US,en;q=0.9,de;q=0.8,zh-TW;q=0.7,zh-CN;q=0.6,zh;q=0.5","5d617ba9364f9a0019f1dac3","68764874ac79eee8c1d4cb03","68779755e60503be98097441","2","0","5d617ba9364f9a0019f1dac3","2","0","2025-07-16T12:19:22.146Z","","","","","","","","","","","","","","win-only","0","g1:NW,g2:SE","0.6","5","0","339962.4","847.4","5848.8","26085.8","1","4","8","6","1","1","1","4","3","0.030303030303030304","950.5","3000","340","[""left"",""up""]","{""num_key_presses"":6,""num_perfect"":3,""num_errors"":0,""num_randdir"":3,""num_randdir_good_moves"":2,""num_whilered"":0,""num_whileblue"":0,""num_blue"":1,""num_good_moves"":5}","[426.5714133126395,420.32142761775424,0,426.5714133126395,420.32142761775424,106.4,330.3214133126395,426.57142761775424,208.3,76.5714133126395,509.07142761775424,310,34.07141331263951,566.5714276177542,413.1,36.57141331263951,535.3214276177542,513.1,37.82141331263951,272.82142761775424,614.3,56.57141331263951,126.57142761775425,718.4,54.07141331263951,124.07142761775425,819.2,54.07141331263951,124.07142761775425,923.3,54.07141331263951,124.07142761775425,1023.6,41.57141331263951,125.32142761775425,1125.9,-333.4285866873605,161.57142761775424,1230.2,-340.9285866873605,162.82142761775424,1334.6,-340.9285866873605,162.82142761775424,1438.8,-340.9285866873605,162.82142761775424,1539.2,-340.9285866873605,162.82142761775424,1643.4,-340.9285866873605,162.82142761775424,1752,-340.9285866873605,162.82142761775424,1854.8,-340.9285866873605,162.82142761775424,1958.9,-340.9285866873605,162.82142761775424,2065.6,-340.9285866873605,162.82142761775424,2168.5,-340.9285866873605,162.82142761775424,2275.6,-340.9285866873605,162.82142761775424,2380,-340.9285866873605,162.82142761775424,2484.5,-340.9285866873605,162.82142761775424,2587.8,-340.9285866873605,162.82142761775424,2690.7,-340.9285866873605,162.82142761775424,2793.4,-340.9285866873605,162.82142761775424,2895.3,-340.9285866873605,162.82142761775424,2998.7,-340.9285866873605,162.82142761775424,3104.8,-340.9285866873605,162.82142761775424,3208.2,-340.9285866873605,162.82142761775424,3313.6,-340.9285866873605,162.82142761775424,3413.6,-340.9285866873605,162.82142761775424,3514.3,-340.9285866873605,162.82142761775424,3618.5,-340.9285866873605,162.82142761775424,3718.8,-340.9285866873605,162.82142761775424,3823.9,-340.9285866873605,162.82142761775424,3929,-340.9285866873605,162.82142761775424,4033.8,-340.9285866873605,162.82142761775424,4139,-340.9285866873605,162.82142761775424,4244.2,-340.9285866873605,162.82142761775424,4344.4,-340.9285866873605,162.82142761775424,4446.1,-340.9285866873605,162.82142761775424,4548.5,-340.9285866873605,162.82142761775424,4648.9,-340.9285866873605,162.82142761775424,4749.4,-340.9285866873605,162.82142761775424,4856.1,-340.9285866873605,162.82142761775424,4959.6]","[4745.3,4745.3,2262.9,2006.7,475.7,""smooth"",""left"",""left"",""good_move"",7872.5,3126.8,2631.8,4745.7,495,""oops"",""up"",""right"",""bad_move"",11087.7,3214.1,2786,7873.6,428.1,""oops"",""left"",""left"",""good_move"",14577.1,3489.1,3021.9,11088,467.2,""oops"",""up"",""left"",""good_move"",17704.7,3127.4,2740.8,14577.3,386.6,""smooth"",""up"",""up"",""good_move"",20153.6,2448.3,1988.7,17705.4,459.6,""smooth"",""up"",""up"",""good_move""]","",""
"2657","","<div style=""width:500px;"">
  <p>What determined the result of this run?</p>
  </div>","15","html-slider-response","30","368910","0.0-5.0-1.4","111","1","2025-07-16 12:13:12","1f75c3e559b7213887762d5229550c2b","76.221.209.152","Mozilla/5.0 (Windows NT 10.0; Win64; x64) AppleWebKit/537.36 (KHTML, like Gecko) Chrome/138.0.0.0 Safari/537.36","WebKit","Chrome","138.0.0.0","Windows","10.0","https://app.prolific.com/","en-US,en;q=0.9,de;q=0.8,zh-TW;q=0.7,zh-CN;q=0.6,zh;q=0.5","5d617ba9364f9a0019f1dac3","68764874ac79eee8c1d4cb03","68779755e60503be98097441","2","0","5d617ba9364f9a0019f1dac3","2","0","2025-07-16T12:19:24.804Z","","","","","","","","","","","AttribQ","","50","","","","","","","","","","","","","","","","","","","","","","","","","","","","",""
"1683","","<div style=""width:500px;"">
  <p>How much control did you have over the ball?</p>
  </div>","40","html-slider-response","31","370594","0.0-5.0-2.4","111","1","2025-07-16 12:13:12","1f75c3e559b7213887762d5229550c2b","76.221.209.152","Mozilla/5.0 (Windows NT 10.0; Win64; x64) AppleWebKit/537.36 (KHTML, like Gecko) Chrome/138.0.0.0 Safari/537.36","WebKit","Chrome","138.0.0.0","Windows","10.0","https://app.prolific.com/","en-US,en;q=0.9,de;q=0.8,zh-TW;q=0.7,zh-CN;q=0.6,zh;q=0.5","5d617ba9364f9a0019f1dac3","68764874ac79eee8c1d4cb03","68779755e60503be98097441","2","0","5d617ba9364f9a0019f1dac3","2","0","2025-07-16T12:19:26.488Z","","","","","","","","","","","ControlQ","","50","","","","","","","","","","","","","","","","","","","","","","","","","","","","",""
"2221","","<div style=""width:500px;"">
  <p>How would you describe your current emotional state?</p>
  </div>","58","html-slider-response","32","372817","0.0-5.0-3.4","111","1","2025-07-16 12:13:12","1f75c3e559b7213887762d5229550c2b","76.221.209.152","Mozilla/5.0 (Windows NT 10.0; Win64; x64) AppleWebKit/537.36 (KHTML, like Gecko) Chrome/138.0.0.0 Safari/537.36","WebKit","Chrome","138.0.0.0","Windows","10.0","https://app.prolific.com/","en-US,en;q=0.9,de;q=0.8,zh-TW;q=0.7,zh-CN;q=0.6,zh;q=0.5","5d617ba9364f9a0019f1dac3","68764874ac79eee8c1d4cb03","68779755e60503be98097441","2","0","5d617ba9364f9a0019f1dac3","2","0","2025-07-16T12:19:28.711Z","","","","","","","","","","","StressQ","","50","","","","","","","","","","","","","","","","","","","","","","","","","","","","",""
"2768","","<div style=""width:500px;"">
  <p>What best describes how you currently feel?</p>
  </div>","54","html-slider-response","33","375587","0.0-5.0-4.4","111","1","2025-07-16 12:13:12","1f75c3e559b7213887762d5229550c2b","76.221.209.152","Mozilla/5.0 (Windows NT 10.0; Win64; x64) AppleWebKit/537.36 (KHTML, like Gecko) Chrome/138.0.0.0 Safari/537.36","WebKit","Chrome","138.0.0.0","Windows","10.0","https://app.prolific.com/","en-US,en;q=0.9,de;q=0.8,zh-TW;q=0.7,zh-CN;q=0.6,zh;q=0.5","5d617ba9364f9a0019f1dac3","68764874ac79eee8c1d4cb03","68779755e60503be98097441","2","0","5d617ba9364f9a0019f1dac3","2","0","2025-07-16T12:19:31.481Z","","","","","","","","","","","MotivationQ","","50","","","","","","","","","","","","","","","","","","","","","","","","","","","","",""
"","","","","ctl-task-cpt","34","405832","0.0-5.0-0.5","111","1","2025-07-16 12:13:12","1f75c3e559b7213887762d5229550c2b","76.221.209.152","Mozilla/5.0 (Windows NT 10.0; Win64; x64) AppleWebKit/537.36 (KHTML, like Gecko) Chrome/138.0.0.0 Safari/537.36","WebKit","Chrome","138.0.0.0","Windows","10.0","https://app.prolific.com/","en-US,en;q=0.9,de;q=0.8,zh-TW;q=0.7,zh-CN;q=0.6,zh;q=0.5","5d617ba9364f9a0019f1dac3","68764874ac79eee8c1d4cb03","68779755e60503be98097441","2","0","5d617ba9364f9a0019f1dac3","2","0","2025-07-16T12:20:01.726Z","","","","","","","","","","","","","","win-only","1","g1:NE,g2:SW","0.5","6","0","378400.9","630.2","5633.1","27225.7","1","4","4","6","1","1","1","5","4","0.03787878787878788","914.9","3000","190","[""up"",""right""]","{""num_key_presses"":6,""num_perfect"":5,""num_errors"":0,""num_randdir"":1,""num_randdir_good_moves"":0,""num_whilered"":0,""num_whileblue"":0,""num_blue"":2,""num_good_moves"":5}","[414.0714133126395,415.32142761775424,0.3,414.0714133126395,415.32142761775424,103.1,286.5714133126395,421.57142761775424,210.4,14.071413312639507,442.82142761775424,312.2,-8.428586687360493,436.57142761775424,416,-8.428586687360493,436.57142761775424,520.1,479.0714133126395,231.57142761775424,620.3,811.5714133126395,84.07142761775425,731.3,807.8214133126395,81.57142761775425,837.8,811.5714133126395,70.32142761775425,937.9,811.5714133126395,70.32142761775425,1041.3,744.0714133126395,-18.428572382245747,1145.3,711.5714133126395,-72.17857238224575,1251.7,711.5714133126395,-72.17857238224575,1356.7,711.5714133126395,-72.17857238224575,1460.8,711.5714133126395,-72.17857238224575,1562.3,711.5714133126395,-72.17857238224575,1665.7,711.5714133126395,-72.17857238224575,1765.7,711.5714133126395,-72.17857238224575,1866,711.5714133126395,-72.17857238224575,1967.6,711.5714133126395,-72.17857238224575,2076,711.5714133126395,-72.17857238224575,2181.2,711.5714133126395,-72.17857238224575,2285.7,711.5714133126395,-72.17857238224575,2385.7,711.5714133126395,-72.17857238224575,2486.1,711.5714133126395,-72.17857238224575,2590.7,711.5714133126395,-72.17857238224575,2696.5,711.5714133126395,-72.17857238224575,2800.6,711.5714133126395,-72.17857238224575,2901,711.5714133126395,-72.17857238224575,3001.6,711.5714133126395,-72.17857238224575,3106.9,711.5714133126395,-72.17857238224575,3210.9,711.5714133126395,-72.17857238224575,3315.4,711.5714133126395,-72.17857238224575,3415.6,711.5714133126395,-72.17857238224575,3516.4,711.5714133126395,-72.17857238224575,3620.6,711.5714133126395,-72.17857238224575,3727.8,711.5714133126395,-72.17857238224575,3831.7,711.5714133126395,-72.17857238224575,3931.7,711.5714133126395,-72.17857238224575,4035.3,711.5714133126395,-72.17857238224575,4136.2,711.5714133126395,-72.17857238224575,4240.7,711.5714133126395,-72.17857238224575,4340.7,711.5714133126395,-72.17857238224575,4446.2,711.5714133126395,-72.17857238224575,4550.8,711.5714133126395,-72.17857238224575,4656.9,711.5714133126395,-72.17857238224575,4760.4,711.5714133126395,-72.17857238224575,4860.7,711.5714133126395,-72.17857238224575,4965.6]","[1517,1517,1000,0,517,""smooth"",""up"",""up"",""good_move"",7938.2,6419.9,2733.3,4812.6,392.3,""oops"",""right"",""down"",""bad_move"",10697.1,2758.5,2149.3,7938.6,609.2,""smooth"",""up"",""up"",""good_move"",17441.6,6743.9,2308.9,14683.9,448.8,""smooth"",""right"",""right"",""good_move"",19353.4,1911.5,1392.1,17441.9,519.4,""smooth"",""up"",""up"",""good_move"",21506.3,2152.5,1720.9,19353.8,431.6,""smooth"",""right"",""right"",""good_move""]","",""
"3428","","<div style=""width:500px;"">
  <p>What determined the result of this run?</p>
  </div>","16","html-slider-response","35","409260","0.0-5.0-1.5","111","1","2025-07-16 12:13:12","1f75c3e559b7213887762d5229550c2b","76.221.209.152","Mozilla/5.0 (Windows NT 10.0; Win64; x64) AppleWebKit/537.36 (KHTML, like Gecko) Chrome/138.0.0.0 Safari/537.36","WebKit","Chrome","138.0.0.0","Windows","10.0","https://app.prolific.com/","en-US,en;q=0.9,de;q=0.8,zh-TW;q=0.7,zh-CN;q=0.6,zh;q=0.5","5d617ba9364f9a0019f1dac3","68764874ac79eee8c1d4cb03","68779755e60503be98097441","2","0","5d617ba9364f9a0019f1dac3","2","0","2025-07-16T12:20:05.155Z","","","","","","","","","","","AttribQ","","50","","","","","","","","","","","","","","","","","","","","","","","","","","","","",""
"1999","","<div style=""width:500px;"">
  <p>How much control did you have over the ball?</p>
  </div>","41","html-slider-response","36","411260","0.0-5.0-2.5","111","1","2025-07-16 12:13:12","1f75c3e559b7213887762d5229550c2b","76.221.209.152","Mozilla/5.0 (Windows NT 10.0; Win64; x64) AppleWebKit/537.36 (KHTML, like Gecko) Chrome/138.0.0.0 Safari/537.36","WebKit","Chrome","138.0.0.0","Windows","10.0","https://app.prolific.com/","en-US,en;q=0.9,de;q=0.8,zh-TW;q=0.7,zh-CN;q=0.6,zh;q=0.5","5d617ba9364f9a0019f1dac3","68764874ac79eee8c1d4cb03","68779755e60503be98097441","2","0","5d617ba9364f9a0019f1dac3","2","0","2025-07-16T12:20:07.155Z","","","","","","","","","","","ControlQ","","50","","","","","","","","","","","","","","","","","","","","","","","","","","","","",""
"3079","","<div style=""width:500px;"">
  <p>How would you describe your current emotional state?</p>
  </div>","55","html-slider-response","37","414340","0.0-5.0-3.5","111","1","2025-07-16 12:13:12","1f75c3e559b7213887762d5229550c2b","76.221.209.152","Mozilla/5.0 (Windows NT 10.0; Win64; x64) AppleWebKit/537.36 (KHTML, like Gecko) Chrome/138.0.0.0 Safari/537.36","WebKit","Chrome","138.0.0.0","Windows","10.0","https://app.prolific.com/","en-US,en;q=0.9,de;q=0.8,zh-TW;q=0.7,zh-CN;q=0.6,zh;q=0.5","5d617ba9364f9a0019f1dac3","68764874ac79eee8c1d4cb03","68779755e60503be98097441","2","0","5d617ba9364f9a0019f1dac3","2","0","2025-07-16T12:20:10.235Z","","","","","","","","","","","StressQ","","50","","","","","","","","","","","","","","","","","","","","","","","","","","","","",""
"3362","","<div style=""width:500px;"">
  <p>What best describes how you currently feel?</p>
  </div>","41","html-slider-response","38","417705","0.0-5.0-4.5","111","1","2025-07-16 12:13:12","1f75c3e559b7213887762d5229550c2b","76.221.209.152","Mozilla/5.0 (Windows NT 10.0; Win64; x64) AppleWebKit/537.36 (KHTML, like Gecko) Chrome/138.0.0.0 Safari/537.36","WebKit","Chrome","138.0.0.0","Windows","10.0","https://app.prolific.com/","en-US,en;q=0.9,de;q=0.8,zh-TW;q=0.7,zh-CN;q=0.6,zh;q=0.5","5d617ba9364f9a0019f1dac3","68764874ac79eee8c1d4cb03","68779755e60503be98097441","2","0","5d617ba9364f9a0019f1dac3","2","0","2025-07-16T12:20:13.599Z","","","","","","","","","","","MotivationQ","","50","","","","","","","","","","","","","","","","","","","","","","","","","","","","",""
"","","","","ctl-task-cpt","39","447278","0.0-5.0-0.6","111","1","2025-07-16 12:13:12","1f75c3e559b7213887762d5229550c2b","76.221.209.152","Mozilla/5.0 (Windows NT 10.0; Win64; x64) AppleWebKit/537.36 (KHTML, like Gecko) Chrome/138.0.0.0 Safari/537.36","WebKit","Chrome","138.0.0.0","Windows","10.0","https://app.prolific.com/","en-US,en;q=0.9,de;q=0.8,zh-TW;q=0.7,zh-CN;q=0.6,zh;q=0.5","5d617ba9364f9a0019f1dac3","68764874ac79eee8c1d4cb03","68779755e60503be98097441","2","0","5d617ba9364f9a0019f1dac3","2","0","2025-07-16T12:20:43.172Z","","","","","","","","","","","","","","win-only","2","g1:SE,g2:NW","0.4","7","0","420521.7","642.8","5648","26550.9","1","4","8","6","1","-1","-1","4","5","0.030303030303030304","895","3000","-2940","[""down"",""right""]","{""num_key_presses"":6,""num_perfect"":2,""num_errors"":0,""num_randdir"":4,""num_randdir_good_moves"":2,""num_whilered"":0,""num_whileblue"":0,""num_blue"":1,""num_good_moves"":4}","[409.0714133126395,412.82142761775424,0.1,409.0714133126395,412.82142761775424,107,377.8214133126395,412.82142761775424,207.6,-129.6785866873605,501.57142761775424,310.4,240.3214133126395,506.57142761775424,412.5,734.0714133126395,716.5714276177542,513.9,761.5714133126395,747.8214276177542,619.6,786.5714133126395,742.8214276177542,724.4,786.5714133126395,746.5714276177542,828.4,774.0714133126395,780.3214276177542,929,771.5714133126395,781.5714276177542,1032.8,801.5714133126395,862.8214276177542,1133.3,672.8214133126395,960.3214276177542,1237.5,575.3214133126395,960.3214276177542,1340.9,446.5714133126395,960.3214276177542,1444.4,444.0714133126395,960.3214276177542,1544.8,444.0714133126395,960.3214276177542,1647.5,444.0714133126395,960.3214276177542,1749.2,444.0714133126395,960.3214276177542,1856,444.0714133126395,960.3214276177542,1957.9,444.0714133126395,960.3214276177542,2059.7,444.0714133126395,960.3214276177542,2163.7,444.0714133126395,960.3214276177542,2264.4,444.0714133126395,960.3214276177542,2367.6,444.0714133126395,960.3214276177542,2472.9,444.0714133126395,960.3214276177542,2578.2,444.0714133126395,960.3214276177542,2683.6,444.0714133126395,960.3214276177542,2788.5,444.0714133126395,960.3214276177542,2895.6,444.0714133126395,960.3214276177542,3003.6,444.0714133126395,960.3214276177542,3109,444.0714133126395,960.3214276177542,3209.9,444.0714133126395,960.3214276177542,3310.1,444.0714133126395,960.3214276177542,3413.6,444.0714133126395,960.3214276177542,3514.4,444.0714133126395,960.3214276177542,3617.6,444.0714133126395,960.3214276177542,3720.4,444.0714133126395,960.3214276177542,3824.7,444.0714133126395,960.3214276177542,3928.4,444.0714133126395,960.3214276177542,4028.7,444.0714133126395,960.3214276177542,4132,444.0714133126395,960.3214276177542,4233.7,444.0714133126395,960.3214276177542,4337,444.0714133126395,960.3214276177542,4439,444.0714133126395,960.3214276177542,4543.2,444.0714133126395,960.3214276177542,4648.8,444.0714133126395,960.3214276177542,4755.6,444.0714133126395,960.3214276177542,4858.4,444.0714133126395,960.3214276177542,4963.1]","[1506.2,1506.2,1000,0,506.2,""smooth"",""down"",""down"",""good_move"",4025.9,2518.6,2079.3,1507.3,439.3,""oops"",""down"",""down"",""good_move"",6329.5,2303.1,1876.1,4026.4,427,""oops"",""right"",""up"",""bad_move"",9010,2680.3,2224.6,6329.8,455.6,""smooth"",""down"",""down"",""good_move"",11340.6,2330.3,1861.2,9010.3,469.1,""oops"",""right"",""right"",""good_move"",17057.6,5715.8,1957.3,14662.3,438,""oops"",""right"",""up"",""bad_move""]","",""
"2002","","<div style=""width:500px;"">
  <p>What determined the result of this run?</p>
  </div>","0","html-slider-response","40","449285","0.0-5.0-1.6","111","1","2025-07-16 12:13:12","1f75c3e559b7213887762d5229550c2b","76.221.209.152","Mozilla/5.0 (Windows NT 10.0; Win64; x64) AppleWebKit/537.36 (KHTML, like Gecko) Chrome/138.0.0.0 Safari/537.36","WebKit","Chrome","138.0.0.0","Windows","10.0","https://app.prolific.com/","en-US,en;q=0.9,de;q=0.8,zh-TW;q=0.7,zh-CN;q=0.6,zh;q=0.5","5d617ba9364f9a0019f1dac3","68764874ac79eee8c1d4cb03","68779755e60503be98097441","2","0","5d617ba9364f9a0019f1dac3","2","0","2025-07-16T12:20:45.179Z","","","","","","","","","","","AttribQ","","50","","","","","","","","","","","","","","","","","","","","","","","","","","","","",""
"1796","","<div style=""width:500px;"">
  <p>How much control did you have over the ball?</p>
  </div>","15","html-slider-response","41","451083","0.0-5.0-2.6","111","1","2025-07-16 12:13:12","1f75c3e559b7213887762d5229550c2b","76.221.209.152","Mozilla/5.0 (Windows NT 10.0; Win64; x64) AppleWebKit/537.36 (KHTML, like Gecko) Chrome/138.0.0.0 Safari/537.36","WebKit","Chrome","138.0.0.0","Windows","10.0","https://app.prolific.com/","en-US,en;q=0.9,de;q=0.8,zh-TW;q=0.7,zh-CN;q=0.6,zh;q=0.5","5d617ba9364f9a0019f1dac3","68764874ac79eee8c1d4cb03","68779755e60503be98097441","2","0","5d617ba9364f9a0019f1dac3","2","0","2025-07-16T12:20:46.977Z","","","","","","","","","","","ControlQ","","50","","","","","","","","","","","","","","","","","","","","","","","","","","","","",""
"1901","","<div style=""width:500px;"">
  <p>How would you describe your current emotional state?</p>
  </div>","82","html-slider-response","42","452984","0.0-5.0-3.6","111","1","2025-07-16 12:13:12","1f75c3e559b7213887762d5229550c2b","76.221.209.152","Mozilla/5.0 (Windows NT 10.0; Win64; x64) AppleWebKit/537.36 (KHTML, like Gecko) Chrome/138.0.0.0 Safari/537.36","WebKit","Chrome","138.0.0.0","Windows","10.0","https://app.prolific.com/","en-US,en;q=0.9,de;q=0.8,zh-TW;q=0.7,zh-CN;q=0.6,zh;q=0.5","5d617ba9364f9a0019f1dac3","68764874ac79eee8c1d4cb03","68779755e60503be98097441","2","0","5d617ba9364f9a0019f1dac3","2","0","2025-07-16T12:20:48.879Z","","","","","","","","","","","StressQ","","50","","","","","","","","","","","","","","","","","","","","","","","","","","","","",""
"2596","","<div style=""width:500px;"">
  <p>What best describes how you currently feel?</p>
  </div>","54","html-slider-response","43","455581","0.0-5.0-4.6","111","1","2025-07-16 12:13:12","1f75c3e559b7213887762d5229550c2b","76.221.209.152","Mozilla/5.0 (Windows NT 10.0; Win64; x64) AppleWebKit/537.36 (KHTML, like Gecko) Chrome/138.0.0.0 Safari/537.36","WebKit","Chrome","138.0.0.0","Windows","10.0","https://app.prolific.com/","en-US,en;q=0.9,de;q=0.8,zh-TW;q=0.7,zh-CN;q=0.6,zh;q=0.5","5d617ba9364f9a0019f1dac3","68764874ac79eee8c1d4cb03","68779755e60503be98097441","2","0","5d617ba9364f9a0019f1dac3","2","0","2025-07-16T12:20:51.475Z","","","","","","","","","","","MotivationQ","","50","","","","","","","","","","","","","","","","","","","","","","","","","","","","",""
"","","","","ctl-task-cpt","44","495615","0.0-5.0-0.7","111","1","2025-07-16 12:13:12","1f75c3e559b7213887762d5229550c2b","76.221.209.152","Mozilla/5.0 (Windows NT 10.0; Win64; x64) AppleWebKit/537.36 (KHTML, like Gecko) Chrome/138.0.0.0 Safari/537.36","WebKit","Chrome","138.0.0.0","Windows","10.0","https://app.prolific.com/","en-US,en;q=0.9,de;q=0.8,zh-TW;q=0.7,zh-CN;q=0.6,zh;q=0.5","5d617ba9364f9a0019f1dac3","68764874ac79eee8c1d4cb03","68779755e60503be98097441","2","0","5d617ba9364f9a0019f1dac3","2","0","2025-07-16T12:21:31.510Z","","","","","","","","","","","","","","win-only","1","g1:NE,g2:SW","0.3","8","0","458395.7","2373.4","7375.8","37013.1","1","4","4","6","1","-1","-1","3","4","0.022727272727272728","1292.4","3000","-2940","[""up"",""right""]","{""num_key_presses"":7,""num_perfect"":2,""num_errors"":0,""num_randdir"":5,""num_randdir_good_moves"":2,""num_whilered"":0,""num_whileblue"":0,""num_blue"":2,""num_good_moves"":3}","[406.5714133126395,415.32142761775424,0.1,406.5714133126395,414.07142761775424,101.9,407.8214133126395,414.07142761775424,210.4,439.0714133126395,446.57142761775424,312.7,441.5714133126395,506.57142761775424,413.2,441.5714133126395,506.57142761775424,517.4,420.3214133126395,499.07142761775424,622.1,412.8214133126395,475.32142761775424,723.4,415.3214133126395,471.57142761775424,825.8,429.0714133126395,441.57142761775424,927.9,451.5714133126395,374.07142761775424,1028.4,632.8214133126395,141.57142761775424,1133.8,739.0714133126395,69.07142761775425,1237.7,745.3214133126395,67.82142761775425,1337.7,751.5714133126395,65.32142761775425,1443,761.5714133126395,7.821427617754253,1547.7,741.5714133126395,-109.67857238224575,1652.5,741.5714133126395,-109.67857238224575,1753.5,741.5714133126395,-109.67857238224575,1856,741.5714133126395,-109.67857238224575,1959.3,741.5714133126395,-109.67857238224575,2063.9,741.5714133126395,-109.67857238224575,2169.7,741.5714133126395,-109.67857238224575,2274.5,741.5714133126395,-109.67857238224575,2377.2,741.5714133126395,-109.67857238224575,2482.7,741.5714133126395,-109.67857238224575,2587.6,741.5714133126395,-109.67857238224575,2692,741.5714133126395,-109.67857238224575,2794,741.5714133126395,-109.67857238224575,2899.8,741.5714133126395,-109.67857238224575,3002.8,741.5714133126395,-109.67857238224575,3107.5,741.5714133126395,-109.67857238224575,3208.4,741.5714133126395,-109.67857238224575,3315.1,741.5714133126395,-109.67857238224575,3417.7,741.5714133126395,-109.67857238224575,3523.2,741.5714133126395,-109.67857238224575,3627,741.5714133126395,-109.67857238224575,3731.4,741.5714133126395,-109.67857238224575,3832.6,741.5714133126395,-109.67857238224575,3938.4,741.5714133126395,-109.67857238224575,4039.9,741.5714133126395,-109.67857238224575,4141.4,741.5714133126395,-109.67857238224575,4243.2,741.5714133126395,-109.67857238224575,4347.2,741.5714133126395,-109.67857238224575,4447.6,741.5714133126395,-109.67857238224575,4552.6,741.5714133126395,-109.67857238224575,4658.6,741.5714133126395,-109.67857238224575,4762.8,741.5714133126395,-109.67857238224575,4862.9,741.5714133126395,-109.67857238224575,4967.7]","[1371.1,1371.1,1000,0,371.1,""smooth"",""up"",""up"",""good_move"",4248.5,2876.6,2404.7,1371.9,471.9,""oops"",""up"",""right"",""good_move"",9767.8,5519.1,1864.2,7500.6,403,""oops"",""up"",""right"",""good_move"",13423,3655,3279.8,9768,375.2,""oops"",""up"",""down"",""bad_move"",16423.1,2999.8,2557.8,13423.3,442,""oops"",""up"",""down"",""bad_move"",19496.6,3072.4,2653.4,16424.2,419,""oops"",""up"",""down"",""bad_move"",26017.5,6520.7,2716.3,22910.5,390.7,""smooth"",""down"",""down"",""bad_move""]","",""
"2510","","<div style=""width:500px;"">
  <p>What determined the result of this run?</p>
  </div>","0","html-slider-response","45","498127","0.0-5.0-1.7","111","1","2025-07-16 12:13:12","1f75c3e559b7213887762d5229550c2b","76.221.209.152","Mozilla/5.0 (Windows NT 10.0; Win64; x64) AppleWebKit/537.36 (KHTML, like Gecko) Chrome/138.0.0.0 Safari/537.36","WebKit","Chrome","138.0.0.0","Windows","10.0","https://app.prolific.com/","en-US,en;q=0.9,de;q=0.8,zh-TW;q=0.7,zh-CN;q=0.6,zh;q=0.5","5d617ba9364f9a0019f1dac3","68764874ac79eee8c1d4cb03","68779755e60503be98097441","2","0","5d617ba9364f9a0019f1dac3","2","0","2025-07-16T12:21:34.021Z","","","","","","","","","","","AttribQ","","50","","","","","","","","","","","","","","","","","","","","","","","","","","","","",""
"1356","","<div style=""width:500px;"">
  <p>How much control did you have over the ball?</p>
  </div>","0","html-slider-response","46","499484","0.0-5.0-2.7","111","1","2025-07-16 12:13:12","1f75c3e559b7213887762d5229550c2b","76.221.209.152","Mozilla/5.0 (Windows NT 10.0; Win64; x64) AppleWebKit/537.36 (KHTML, like Gecko) Chrome/138.0.0.0 Safari/537.36","WebKit","Chrome","138.0.0.0","Windows","10.0","https://app.prolific.com/","en-US,en;q=0.9,de;q=0.8,zh-TW;q=0.7,zh-CN;q=0.6,zh;q=0.5","5d617ba9364f9a0019f1dac3","68764874ac79eee8c1d4cb03","68779755e60503be98097441","2","0","5d617ba9364f9a0019f1dac3","2","0","2025-07-16T12:21:35.378Z","","","","","","","","","","","ControlQ","","50","","","","","","","","","","","","","","","","","","","","","","","","","","","","",""
"1967","","<div style=""width:500px;"">
  <p>How would you describe your current emotional state?</p>
  </div>","87","html-slider-response","47","501453","0.0-5.0-3.7","111","1","2025-07-16 12:13:12","1f75c3e559b7213887762d5229550c2b","76.221.209.152","Mozilla/5.0 (Windows NT 10.0; Win64; x64) AppleWebKit/537.36 (KHTML, like Gecko) Chrome/138.0.0.0 Safari/537.36","WebKit","Chrome","138.0.0.0","Windows","10.0","https://app.prolific.com/","en-US,en;q=0.9,de;q=0.8,zh-TW;q=0.7,zh-CN;q=0.6,zh;q=0.5","5d617ba9364f9a0019f1dac3","68764874ac79eee8c1d4cb03","68779755e60503be98097441","2","0","5d617ba9364f9a0019f1dac3","2","0","2025-07-16T12:21:37.347Z","","","","","","","","","","","StressQ","","50","","","","","","","","","","","","","","","","","","","","","","","","","","","","",""
"2527","","<div style=""width:500px;"">
  <p>What best describes how you currently feel?</p>
  </div>","56","html-slider-response","48","503982","0.0-5.0-4.7","111","1","2025-07-16 12:13:12","1f75c3e559b7213887762d5229550c2b","76.221.209.152","Mozilla/5.0 (Windows NT 10.0; Win64; x64) AppleWebKit/537.36 (KHTML, like Gecko) Chrome/138.0.0.0 Safari/537.36","WebKit","Chrome","138.0.0.0","Windows","10.0","https://app.prolific.com/","en-US,en;q=0.9,de;q=0.8,zh-TW;q=0.7,zh-CN;q=0.6,zh;q=0.5","5d617ba9364f9a0019f1dac3","68764874ac79eee8c1d4cb03","68779755e60503be98097441","2","0","5d617ba9364f9a0019f1dac3","2","0","2025-07-16T12:21:39.876Z","","","","","","","","","","","MotivationQ","","50","","","","","","","","","","","","","","","","","","","","","","","","","","","","",""
"","","","","ctl-task-cpt","49","522933","0.0-5.0-0.8","111","1","2025-07-16 12:13:12","1f75c3e559b7213887762d5229550c2b","76.221.209.152","Mozilla/5.0 (Windows NT 10.0; Win64; x64) AppleWebKit/537.36 (KHTML, like Gecko) Chrome/138.0.0.0 Safari/537.36","WebKit","Chrome","138.0.0.0","Windows","10.0","https://app.prolific.com/","en-US,en;q=0.9,de;q=0.8,zh-TW;q=0.7,zh-CN;q=0.6,zh;q=0.5","5d617ba9364f9a0019f1dac3","68764874ac79eee8c1d4cb03","68779755e60503be98097441","2","0","5d617ba9364f9a0019f1dac3","2","0","2025-07-16T12:21:58.827Z","","","","","","","","","","","","","","win-only","2","g1:SE,g2:NW","0.2","9","0","506798.5","604.1","5605.5","15931","1","4","8","6","1","1","1","4","3","0.030303030303030304","668.9","3000","1470","[""down"",""right""]","{""num_key_presses"":4,""num_perfect"":2,""num_errors"":0,""num_randdir"":2,""num_randdir_good_moves"":2,""num_whilered"":0,""num_whileblue"":0,""num_blue"":0,""num_good_moves"":4}","[421.5714133126395,419.07142761775424,0.2,421.5714133126395,419.07142761775424,105.7,421.5714133126395,419.07142761775424,206.3,435.3214133126395,440.32142761775424,310.2,461.5714133126395,471.57142761775424,412,494.0714133126395,511.57142761775424,517.4,751.5714133126395,715.3214276177542,618.4,761.5714133126395,722.8214276177542,718.6,761.5714133126395,722.8214276177542,819.2,806.5714133126395,756.5714276177542,920.3,966.5714133126395,842.8214276177542,1021.2,1346.5714133126396,764.0714276177542,1123.4,1346.5714133126396,764.0714276177542,1225.9,1346.5714133126396,764.0714276177542,1328,1346.5714133126396,764.0714276177542,1428.6,1346.5714133126396,764.0714276177542,1533.1,1346.5714133126396,764.0714276177542,1638,1346.5714133126396,764.0714276177542,1744.4,1346.5714133126396,764.0714276177542,1847,1346.5714133126396,764.0714276177542,1948,1346.5714133126396,764.0714276177542,2048.1,1346.5714133126396,764.0714276177542,2148.7,1346.5714133126396,764.0714276177542,2252.2,1346.5714133126396,764.0714276177542,2355.3,1346.5714133126396,764.0714276177542,2456.3,1346.5714133126396,764.0714276177542,2565.8,1346.5714133126396,764.0714276177542,2669.2,1346.5714133126396,764.0714276177542,2773.4,1346.5714133126396,764.0714276177542,2879.4,1346.5714133126396,764.0714276177542,2983.2,1346.5714133126396,764.0714276177542,3084.2,1346.5714133126396,764.0714276177542,3185.5,1346.5714133126396,764.0714276177542,3287.1,1346.5714133126396,764.0714276177542,3395.2,1346.5714133126396,764.0714276177542,3499.3,1346.5714133126396,764.0714276177542,3609.3,1346.5714133126396,764.0714276177542,3713.3,1346.5714133126396,764.0714276177542,3818.1,1346.5714133126396,764.0714276177542,3920.6,1346.5714133126396,764.0714276177542,4021.7,1346.5714133126396,764.0714276177542,4123.5,1346.5714133126396,764.0714276177542,4227.9,1346.5714133126396,764.0714276177542,4335.8,1346.5714133126396,764.0714276177542,4439.2,1346.5714133126396,764.0714276177542,4542.8,1346.5714133126396,764.0714276177542,4648.1,1346.5714133126396,764.0714276177542,4748.8,1346.5714133126396,764.0714276177542,4854.7,1346.5714133126396,764.0714276177542,4956.9]","[1448.7,1448.7,1000,0,448.7,""smooth"",""down"",""down"",""good_move"",3849.6,2400.1,1923.1,1449.5,477,""smooth"",""down"",""down"",""good_move"",6735.9,2886.1,2480.1,3849.8,406,""oops"",""right"",""right"",""good_move"",10195.5,3458.4,3052.8,6737.1,405.6,""oops"",""right"",""right"",""good_move""]","",""
"4018","","<div style=""width:500px;"">
  <p>What determined the result of this run?</p>
  </div>","26","html-slider-response","50","526952","0.0-5.0-1.8","111","1","2025-07-16 12:13:12","1f75c3e559b7213887762d5229550c2b","76.221.209.152","Mozilla/5.0 (Windows NT 10.0; Win64; x64) AppleWebKit/537.36 (KHTML, like Gecko) Chrome/138.0.0.0 Safari/537.36","WebKit","Chrome","138.0.0.0","Windows","10.0","https://app.prolific.com/","en-US,en;q=0.9,de;q=0.8,zh-TW;q=0.7,zh-CN;q=0.6,zh;q=0.5","5d617ba9364f9a0019f1dac3","68764874ac79eee8c1d4cb03","68779755e60503be98097441","2","0","5d617ba9364f9a0019f1dac3","2","0","2025-07-16T12:22:02.846Z","","","","","","","","","","","AttribQ","","50","","","","","","","","","","","","","","","","","","","","","","","","","","","","",""
"7652","","<div style=""width:500px;"">
  <p>How much control did you have over the ball?</p>
  </div>","58","html-slider-response","51","534605","0.0-5.0-2.8","111","1","2025-07-16 12:13:12","1f75c3e559b7213887762d5229550c2b","76.221.209.152","Mozilla/5.0 (Windows NT 10.0; Win64; x64) AppleWebKit/537.36 (KHTML, like Gecko) Chrome/138.0.0.0 Safari/537.36","WebKit","Chrome","138.0.0.0","Windows","10.0","https://app.prolific.com/","en-US,en;q=0.9,de;q=0.8,zh-TW;q=0.7,zh-CN;q=0.6,zh;q=0.5","5d617ba9364f9a0019f1dac3","68764874ac79eee8c1d4cb03","68779755e60503be98097441","2","0","5d617ba9364f9a0019f1dac3","2","0","2025-07-16T12:22:10.499Z","","","","","","","","","","","ControlQ","","50","","","","","","","","","","","","","","","","","","","","","","","","","","","","",""
"3613","","<div style=""width:500px;"">
  <p>How would you describe your current emotional state?</p>
  </div>","64","html-slider-response","52","538218","0.0-5.0-3.8","111","1","2025-07-16 12:13:12","1f75c3e559b7213887762d5229550c2b","76.221.209.152","Mozilla/5.0 (Windows NT 10.0; Win64; x64) AppleWebKit/537.36 (KHTML, like Gecko) Chrome/138.0.0.0 Safari/537.36","WebKit","Chrome","138.0.0.0","Windows","10.0","https://app.prolific.com/","en-US,en;q=0.9,de;q=0.8,zh-TW;q=0.7,zh-CN;q=0.6,zh;q=0.5","5d617ba9364f9a0019f1dac3","68764874ac79eee8c1d4cb03","68779755e60503be98097441","2","0","5d617ba9364f9a0019f1dac3","2","0","2025-07-16T12:22:14.112Z","","","","","","","","","","","StressQ","","50","","","","","","","","","","","","","","","","","","","","","","","","","","","","",""
"1839","","<div style=""width:500px;"">
  <p>What best describes how you currently feel?</p>
  </div>","56","html-slider-response","53","540059","0.0-5.0-4.8","111","1","2025-07-16 12:13:12","1f75c3e559b7213887762d5229550c2b","76.221.209.152","Mozilla/5.0 (Windows NT 10.0; Win64; x64) AppleWebKit/537.36 (KHTML, like Gecko) Chrome/138.0.0.0 Safari/537.36","WebKit","Chrome","138.0.0.0","Windows","10.0","https://app.prolific.com/","en-US,en;q=0.9,de;q=0.8,zh-TW;q=0.7,zh-CN;q=0.6,zh;q=0.5","5d617ba9364f9a0019f1dac3","68764874ac79eee8c1d4cb03","68779755e60503be98097441","2","0","5d617ba9364f9a0019f1dac3","2","0","2025-07-16T12:22:15.953Z","","","","","","","","","","","MotivationQ","","50","","","","","","","","","","","","","","","","","","","","","","","","","","","","",""
"","","","","ctl-task-cpt","54","574503","0.0-5.0-0.9","111","1","2025-07-16 12:13:12","1f75c3e559b7213887762d5229550c2b","76.221.209.152","Mozilla/5.0 (Windows NT 10.0; Win64; x64) AppleWebKit/537.36 (KHTML, like Gecko) Chrome/138.0.0.0 Safari/537.36","WebKit","Chrome","138.0.0.0","Windows","10.0","https://app.prolific.com/","en-US,en;q=0.9,de;q=0.8,zh-TW;q=0.7,zh-CN;q=0.6,zh;q=0.5","5d617ba9364f9a0019f1dac3","68764874ac79eee8c1d4cb03","68779755e60503be98097441","2","0","5d617ba9364f9a0019f1dac3","2","0","2025-07-16T12:22:50.397Z","","","","","","","","","","","","","","win-only","2","g1:SE,g2:NW","0.4","10","0","542873.7","1132.5","6133.5","31421.7","1","4","4","6","1","-1","-1","3","4","0.022727272727272728","622.3","3000","-2615","[""down"",""right""]","{""num_key_presses"":8,""num_perfect"":3,""num_errors"":0,""num_randdir"":5,""num_randdir_good_moves"":1,""num_whilered"":0,""num_whileblue"":0,""num_blue"":0,""num_good_moves"":4}","[417.8214133126395,417.82142761775424,0.3,417.8214133126395,416.57142761775424,103.3,417.8214133126395,401.57142761775424,206.1,425.3214133126395,421.57142761775424,307.9,496.5714133126395,491.57142761775424,408.3,736.5714133126395,710.3214276177542,511.4,751.5714133126395,724.0714276177542,613.7,754.0714133126395,724.0714276177542,719.3,781.5714133126395,711.5714276177542,823.6,1226.5714133126396,300.32142761775424,923.8,1361.5714133126396,181.57142761775424,1027.7,1361.5714133126396,181.57142761775424,1135.2,1361.5714133126396,181.57142761775424,1235.5,1361.5714133126396,181.57142761775424,1339,1361.5714133126396,181.57142761775424,1443.1,1361.5714133126396,181.57142761775424,1555,1361.5714133126396,181.57142761775424,1655.1,1361.5714133126396,181.57142761775424,1761.7,1361.5714133126396,181.57142761775424,1865.4,1361.5714133126396,181.57142761775424,1971.8,1361.5714133126396,181.57142761775424,2073.8,1361.5714133126396,181.57142761775424,2176.4,1361.5714133126396,181.57142761775424,2293.3,1361.5714133126396,181.57142761775424,2394.8,1361.5714133126396,181.57142761775424,2496.4,1361.5714133126396,181.57142761775424,2598.8,1361.5714133126396,181.57142761775424,2702.8,1361.5714133126396,181.57142761775424,2809.5,1361.5714133126396,181.57142761775424,2915.9,1361.5714133126396,181.57142761775424,3028.6,1361.5714133126396,181.57142761775424,3130.9,1361.5714133126396,181.57142761775424,3235.7,1361.5714133126396,181.57142761775424,3341,1361.5714133126396,181.57142761775424,3450.3,1361.5714133126396,181.57142761775424,3559.3,1361.5714133126396,181.57142761775424,3659.9,1361.5714133126396,181.57142761775424,3761.6,1361.5714133126396,181.57142761775424,3863.1,1361.5714133126396,181.57142761775424,3969.4,1361.5714133126396,181.57142761775424,4070,1361.5714133126396,181.57142761775424,4173.9,1361.5714133126396,181.57142761775424,4276.8,1361.5714133126396,181.57142761775424,4385.7,1361.5714133126396,181.57142761775424,4496.9,1361.5714133126396,181.57142761775424,4597.5,1361.5714133126396,181.57142761775424,4700.7,1361.5714133126396,181.57142761775424,4803.2,1361.5714133126396,181.57142761775424,4909.9]","[1396.2,1396.2,1000,0,396.2,""oops"",""down"",""left"",""bad_move"",5052.1,3655.3,3221.9,1396.8,433.4,""smooth"",""right"",""right"",""good_move"",7659.7,2607.3,2201,5052.4,406.3,""oops"",""down"",""up"",""bad_move"",10413.3,2753,2168.6,7660.3,584.4,""smooth"",""down"",""down"",""good_move"",13563.5,3149.7,2598.2,10413.8,551.5,""oops"",""down"",""down"",""good_move"",16996.3,3432.5,2958.3,13563.8,474.2,""smooth"",""down"",""down"",""good_move"",19792.3,2795.6,2454.4,16996.8,341.2,""oops"",""right"",""up"",""bad_move"",22694.2,2899.9,2358.1,19794.3,541.8,""oops"",""right"",""left"",""bad_move""]","",""
"1870","","<div style=""width:500px;"">
  <p>What determined the result of this run?</p>
  </div>","14","html-slider-response","55","576374","0.0-5.0-1.9","111","1","2025-07-16 12:13:12","1f75c3e559b7213887762d5229550c2b","76.221.209.152","Mozilla/5.0 (Windows NT 10.0; Win64; x64) AppleWebKit/537.36 (KHTML, like Gecko) Chrome/138.0.0.0 Safari/537.36","WebKit","Chrome","138.0.0.0","Windows","10.0","https://app.prolific.com/","en-US,en;q=0.9,de;q=0.8,zh-TW;q=0.7,zh-CN;q=0.6,zh;q=0.5","5d617ba9364f9a0019f1dac3","68764874ac79eee8c1d4cb03","68779755e60503be98097441","2","0","5d617ba9364f9a0019f1dac3","2","0","2025-07-16T12:22:52.268Z","","","","","","","","","","","AttribQ","","50","","","","","","","","","","","","","","","","","","","","","","","","","","","","",""
"1317","","<div style=""width:500px;"">
  <p>How much control did you have over the ball?</p>
  </div>","1","html-slider-response","56","577693","0.0-5.0-2.9","111","1","2025-07-16 12:13:12","1f75c3e559b7213887762d5229550c2b","76.221.209.152","Mozilla/5.0 (Windows NT 10.0; Win64; x64) AppleWebKit/537.36 (KHTML, like Gecko) Chrome/138.0.0.0 Safari/537.36","WebKit","Chrome","138.0.0.0","Windows","10.0","https://app.prolific.com/","en-US,en;q=0.9,de;q=0.8,zh-TW;q=0.7,zh-CN;q=0.6,zh;q=0.5","5d617ba9364f9a0019f1dac3","68764874ac79eee8c1d4cb03","68779755e60503be98097441","2","0","5d617ba9364f9a0019f1dac3","2","0","2025-07-16T12:22:53.587Z","","","","","","","","","","","ControlQ","","50","","","","","","","","","","","","","","","","","","","","","","","","","","","","",""
"1692","","<div style=""width:500px;"">
  <p>How would you describe your current emotional state?</p>
  </div>","87","html-slider-response","57","579389","0.0-5.0-3.9","111","1","2025-07-16 12:13:12","1f75c3e559b7213887762d5229550c2b","76.221.209.152","Mozilla/5.0 (Windows NT 10.0; Win64; x64) AppleWebKit/537.36 (KHTML, like Gecko) Chrome/138.0.0.0 Safari/537.36","WebKit","Chrome","138.0.0.0","Windows","10.0","https://app.prolific.com/","en-US,en;q=0.9,de;q=0.8,zh-TW;q=0.7,zh-CN;q=0.6,zh;q=0.5","5d617ba9364f9a0019f1dac3","68764874ac79eee8c1d4cb03","68779755e60503be98097441","2","0","5d617ba9364f9a0019f1dac3","2","0","2025-07-16T12:22:55.283Z","","","","","","","","","","","StressQ","","50","","","","","","","","","","","","","","","","","","","","","","","","","","","","",""
"6076","","<div style=""width:500px;"">
  <p>What best describes how you currently feel?</p>
  </div>","68","html-slider-response","58","585468","0.0-5.0-4.9","111","1","2025-07-16 12:13:12","1f75c3e559b7213887762d5229550c2b","76.221.209.152","Mozilla/5.0 (Windows NT 10.0; Win64; x64) AppleWebKit/537.36 (KHTML, like Gecko) Chrome/138.0.0.0 Safari/537.36","WebKit","Chrome","138.0.0.0","Windows","10.0","https://app.prolific.com/","en-US,en;q=0.9,de;q=0.8,zh-TW;q=0.7,zh-CN;q=0.6,zh;q=0.5","5d617ba9364f9a0019f1dac3","68764874ac79eee8c1d4cb03","68779755e60503be98097441","2","0","5d617ba9364f9a0019f1dac3","2","0","2025-07-16T12:23:01.362Z","","","","","","","","","","","MotivationQ","","50","","","","","","","","","","","","","","","","","","","","","","","","","","","","",""
"","","","","ctl-task-cpt","59","620662","0.0-5.0-0.10","111","1","2025-07-16 12:13:12","1f75c3e559b7213887762d5229550c2b","76.221.209.152","Mozilla/5.0 (Windows NT 10.0; Win64; x64) AppleWebKit/537.36 (KHTML, like Gecko) Chrome/138.0.0.0 Safari/537.36","WebKit","Chrome","138.0.0.0","Windows","10.0","https://app.prolific.com/","en-US,en;q=0.9,de;q=0.8,zh-TW;q=0.7,zh-CN;q=0.6,zh;q=0.5","5d617ba9364f9a0019f1dac3","68764874ac79eee8c1d4cb03","68779755e60503be98097441","2","0","5d617ba9364f9a0019f1dac3","2","0","2025-07-16T12:23:36.556Z","","","","","","","","","","","","","","win-only","3","g1:SW,g2:NE","0.5","11","0","588283.2","526.2","5528.8","32177.7","1","4","8","6","1","-1","-1","2","3","0.015151515151515152","701.8","3000","-2605","[""down"",""left""]","{""num_key_presses"":8,""num_perfect"":5,""num_errors"":0,""num_randdir"":3,""num_randdir_good_moves"":0,""num_whilered"":0,""num_whileblue"":0,""num_blue"":1,""num_good_moves"":5}","[414.0714133126395,411.57142761775424,0.2,416.5714133126395,411.57142761775424,104.6,416.5714133126395,411.57142761775424,216.6,422.8214133126395,441.57142761775424,325.6,446.5714133126395,506.57142761775424,429.4,336.5714133126395,556.5714276177542,535.7,115.3214133126395,705.3214276177542,645.5,102.8214133126395,720.3214276177542,751.5,101.5714133126395,720.3214276177542,855.5,94.0714133126395,721.5714276177542,961.1,-134.6785866873605,861.5714276177542,1062.6,-319.6785866873605,960.3214276177542,1162.6,-364.6785866873605,959.0714276177542,1267.6,-364.6785866873605,959.0714276177542,1371.5,-364.6785866873605,959.0714276177542,1472.6,-364.6785866873605,959.0714276177542,1574.1,-364.6785866873605,959.0714276177542,1677.4,-364.6785866873605,959.0714276177542,1781,-364.6785866873605,959.0714276177542,1881.2,-364.6785866873605,959.0714276177542,1986.9,-364.6785866873605,959.0714276177542,2089.7,-364.6785866873605,959.0714276177542,2190.8,-364.6785866873605,959.0714276177542,2290.9,-364.6785866873605,959.0714276177542,2394.3,-364.6785866873605,959.0714276177542,2496,-364.6785866873605,959.0714276177542,2599.8,-364.6785866873605,959.0714276177542,2705.6,-364.6785866873605,959.0714276177542,2811.7,-364.6785866873605,959.0714276177542,2914.4,-364.6785866873605,959.0714276177542,3020.1,-364.6785866873605,959.0714276177542,3123.4,-364.6785866873605,959.0714276177542,3224.9,-364.6785866873605,959.0714276177542,3325.6,-364.6785866873605,959.0714276177542,3429.8,-364.6785866873605,959.0714276177542,3535.5,-364.6785866873605,959.0714276177542,3636.3,-364.6785866873605,959.0714276177542,3741.4,-364.6785866873605,959.0714276177542,3844.3,-364.6785866873605,959.0714276177542,3946.1,-364.6785866873605,959.0714276177542,4049.6,-364.6785866873605,959.0714276177542,4153.5,-364.6785866873605,959.0714276177542,4254.2,-364.6785866873605,959.0714276177542,4356.8,-364.6785866873605,959.0714276177542,4458.9,-364.6785866873605,959.0714276177542,4559.6,-364.6785866873605,959.0714276177542,4659.8,-364.6785866873605,959.0714276177542,4760.8,-364.6785866873605,959.0714276177542,4866.2,-364.6785866873605,959.0714276177542,4970.1]","[1399.8,1399.9,1000,0,399.9,""smooth"",""down"",""down"",""good_move"",4161.3,2761.1,2364.2,1400.3,396.9,""smooth"",""down"",""down"",""good_move"",7409.1,3247.3,2870.9,4161.8,376.4,""oops"",""left"",""right"",""bad_move"",10720.9,3311.1,2917.4,7409.8,393.7,""smooth"",""left"",""left"",""good_move"",13075.2,2352.5,1931.1,10722.8,421.3,""oops"",""left"",""up"",""bad_move"",16249.5,3173.7,2813.6,13075.8,360.1,""smooth"",""left"",""left"",""good_move"",19094.7,2844.6,2360.8,16250.1,483.8,""smooth"",""left"",""left"",""good_move"",21944.6,2849.7,2401.5,19095,448.2,""oops"",""down"",""up"",""bad_move""]","",""
"1895","","<div style=""width:500px;"">
  <p>What determined the result of this run?</p>
  </div>","8","html-slider-response","60","622559","0.0-5.0-1.10","111","1","2025-07-16 12:13:12","1f75c3e559b7213887762d5229550c2b","76.221.209.152","Mozilla/5.0 (Windows NT 10.0; Win64; x64) AppleWebKit/537.36 (KHTML, like Gecko) Chrome/138.0.0.0 Safari/537.36","WebKit","Chrome","138.0.0.0","Windows","10.0","https://app.prolific.com/","en-US,en;q=0.9,de;q=0.8,zh-TW;q=0.7,zh-CN;q=0.6,zh;q=0.5","5d617ba9364f9a0019f1dac3","68764874ac79eee8c1d4cb03","68779755e60503be98097441","2","0","5d617ba9364f9a0019f1dac3","2","0","2025-07-16T12:23:38.453Z","","","","","","","","","","","AttribQ","","50","","","","","","","","","","","","","","","","","","","","","","","","","","","","",""
"2025","","<div style=""width:500px;"">
  <p>How much control did you have over the ball?</p>
  </div>","14","html-slider-response","61","624584","0.0-5.0-2.10","111","1","2025-07-16 12:13:12","1f75c3e559b7213887762d5229550c2b","76.221.209.152","Mozilla/5.0 (Windows NT 10.0; Win64; x64) AppleWebKit/537.36 (KHTML, like Gecko) Chrome/138.0.0.0 Safari/537.36","WebKit","Chrome","138.0.0.0","Windows","10.0","https://app.prolific.com/","en-US,en;q=0.9,de;q=0.8,zh-TW;q=0.7,zh-CN;q=0.6,zh;q=0.5","5d617ba9364f9a0019f1dac3","68764874ac79eee8c1d4cb03","68779755e60503be98097441","2","0","5d617ba9364f9a0019f1dac3","2","0","2025-07-16T12:23:40.479Z","","","","","","","","","","","ControlQ","","50","","","","","","","","","","","","","","","","","","","","","","","","","","","","",""
"2838","","<div style=""width:500px;"">
  <p>How would you describe your current emotional state?</p>
  </div>","87","html-slider-response","62","627425","0.0-5.0-3.10","111","1","2025-07-16 12:13:12","1f75c3e559b7213887762d5229550c2b","76.221.209.152","Mozilla/5.0 (Windows NT 10.0; Win64; x64) AppleWebKit/537.36 (KHTML, like Gecko) Chrome/138.0.0.0 Safari/537.36","WebKit","Chrome","138.0.0.0","Windows","10.0","https://app.prolific.com/","en-US,en;q=0.9,de;q=0.8,zh-TW;q=0.7,zh-CN;q=0.6,zh;q=0.5","5d617ba9364f9a0019f1dac3","68764874ac79eee8c1d4cb03","68779755e60503be98097441","2","0","5d617ba9364f9a0019f1dac3","2","0","2025-07-16T12:23:43.319Z","","","","","","","","","","","StressQ","","50","","","","","","","","","","","","","","","","","","","","","","","","","","","","",""
"1857","","<div style=""width:500px;"">
  <p>What best describes how you currently feel?</p>
  </div>","64","html-slider-response","63","629283","0.0-5.0-4.10","111","1","2025-07-16 12:13:12","1f75c3e559b7213887762d5229550c2b","76.221.209.152","Mozilla/5.0 (Windows NT 10.0; Win64; x64) AppleWebKit/537.36 (KHTML, like Gecko) Chrome/138.0.0.0 Safari/537.36","WebKit","Chrome","138.0.0.0","Windows","10.0","https://app.prolific.com/","en-US,en;q=0.9,de;q=0.8,zh-TW;q=0.7,zh-CN;q=0.6,zh;q=0.5","5d617ba9364f9a0019f1dac3","68764874ac79eee8c1d4cb03","68779755e60503be98097441","2","0","5d617ba9364f9a0019f1dac3","2","0","2025-07-16T12:23:45.178Z","","","","","","","","","","","MotivationQ","","50","","","","","","","","","","","","","","","","","","","","","","","","","","","","",""
"","","","","ctl-task-cpt","64","658897","0.0-5.0-0.11","111","1","2025-07-16 12:13:12","1f75c3e559b7213887762d5229550c2b","76.221.209.152","Mozilla/5.0 (Windows NT 10.0; Win64; x64) AppleWebKit/537.36 (KHTML, like Gecko) Chrome/138.0.0.0 Safari/537.36","WebKit","Chrome","138.0.0.0","Windows","10.0","https://app.prolific.com/","en-US,en;q=0.9,de;q=0.8,zh-TW;q=0.7,zh-CN;q=0.6,zh;q=0.5","5d617ba9364f9a0019f1dac3","68764874ac79eee8c1d4cb03","68779755e60503be98097441","2","0","5d617ba9364f9a0019f1dac3","2","0","2025-07-16T12:24:14.791Z","","","","","","","","","","","","","","win-only","0","g1:NW,g2:SE","0.6","12","0","632098.5","1702.8","6707.2","26593.9","1","4","4","6","1","1","1","3","2","0.022727272727272728","710.1","3000","1005","[""left"",""up""]","{""num_key_presses"":6,""num_perfect"":3,""num_errors"":0,""num_randdir"":3,""num_randdir_good_moves"":2,""num_whilered"":0,""num_whileblue"":0,""num_blue"":1,""num_good_moves"":5}","[426.5714133126395,420.32142761775424,0.2,426.5714133126395,420.32142761775424,101.4,426.5714133126395,420.32142761775424,202,276.5714133126395,416.57142761775424,306.2,151.5714133126395,404.07142761775424,407.4,291.5714133126395,296.57142761775424,514.3,97.8214133126395,131.57142761775424,627.7,89.0714133126395,121.57142761775425,731.9,89.0714133126395,116.57142761775425,837.6,-273.4285866873605,47.82142761775425,938.8,-543.4285866873605,27.821427617754253,1049,-542.1785866873605,20.321427617754253,1150.8,-540.9285866873605,20.321427617754253,1258.8,-540.9285866873605,20.321427617754253,1359.3,-540.9285866873605,20.321427617754253,1461.4,-540.9285866873605,20.321427617754253,1564.2,-540.9285866873605,20.321427617754253,1667.8,-540.9285866873605,20.321427617754253,1768.6,-540.9285866873605,20.321427617754253,1878.2,-540.9285866873605,20.321427617754253,1984.1,-540.9285866873605,20.321427617754253,2092.2,-540.9285866873605,20.321427617754253,2198.9,-540.9285866873605,20.321427617754253,2299.7,-540.9285866873605,20.321427617754253,2404.4,-540.9285866873605,20.321427617754253,2504.4,-540.9285866873605,20.321427617754253,2608.6,-540.9285866873605,20.321427617754253,2712.5,-540.9285866873605,20.321427617754253,2816.4,-540.9285866873605,20.321427617754253,2922.3,-540.9285866873605,20.321427617754253,3029.4,-540.9285866873605,20.321427617754253,3133.7,-540.9285866873605,20.321427617754253,3239.1,-540.9285866873605,20.321427617754253,3340.4,-540.9285866873605,20.321427617754253,3443.9,-540.9285866873605,20.321427617754253,3545.2,-540.9285866873605,20.321427617754253,3654.8,-540.9285866873605,20.321427617754253,3756.3,-540.9285866873605,20.321427617754253,3862.8,-540.9285866873605,20.321427617754253,3964.6,-540.9285866873605,20.321427617754253,4069.1,-540.9285866873605,20.321427617754253,4176.1,-540.9285866873605,20.321427617754253,4278.2,-540.9285866873605,20.321427617754253,4379,-540.9285866873605,20.321427617754253,4484.4,-540.9285866873605,20.321427617754253,4586.1,-540.9285866873605,20.321427617754253,4690.5,-540.9285866873605,20.321427617754253,4793.7,-540.9285866873605,20.321427617754253,4898.5]","[4765.2,4765.2,2404.9,2007.2,353.1,""oops"",""up"",""left"",""good_move"",8121,3355.2,2666.9,4765.8,688.3,""oops"",""up"",""right"",""bad_move"",11240.3,3117.7,2598.1,8122.6,519.6,""smooth"",""left"",""left"",""good_move"",13806.6,2565,2156.4,11241.6,408.6,""smooth"",""up"",""up"",""good_move"",16899.8,3092.7,2673.6,13807.1,419.1,""oops"",""left"",""left"",""good_move"",19767.8,2866.9,2547,16900.9,319.9,""smooth"",""up"",""up"",""good_move""]","",""
"3708","","<div style=""width:500px;"">
  <p>What determined the result of this run?</p>
  </div>","33","html-slider-response","65","662607","0.0-5.0-1.11","111","1","2025-07-16 12:13:12","1f75c3e559b7213887762d5229550c2b","76.221.209.152","Mozilla/5.0 (Windows NT 10.0; Win64; x64) AppleWebKit/537.36 (KHTML, like Gecko) Chrome/138.0.0.0 Safari/537.36","WebKit","Chrome","138.0.0.0","Windows","10.0","https://app.prolific.com/","en-US,en;q=0.9,de;q=0.8,zh-TW;q=0.7,zh-CN;q=0.6,zh;q=0.5","5d617ba9364f9a0019f1dac3","68764874ac79eee8c1d4cb03","68779755e60503be98097441","2","0","5d617ba9364f9a0019f1dac3","2","0","2025-07-16T12:24:18.501Z","","","","","","","","","","","AttribQ","","50","","","","","","","","","","","","","","","","","","","","","","","","","","","","",""
"3722","","<div style=""width:500px;"">
  <p>How much control did you have over the ball?</p>
  </div>","62","html-slider-response","66","666331","0.0-5.0-2.11","111","1","2025-07-16 12:13:12","1f75c3e559b7213887762d5229550c2b","76.221.209.152","Mozilla/5.0 (Windows NT 10.0; Win64; x64) AppleWebKit/537.36 (KHTML, like Gecko) Chrome/138.0.0.0 Safari/537.36","WebKit","Chrome","138.0.0.0","Windows","10.0","https://app.prolific.com/","en-US,en;q=0.9,de;q=0.8,zh-TW;q=0.7,zh-CN;q=0.6,zh;q=0.5","5d617ba9364f9a0019f1dac3","68764874ac79eee8c1d4cb03","68779755e60503be98097441","2","0","5d617ba9364f9a0019f1dac3","2","0","2025-07-16T12:24:22.225Z","","","","","","","","","","","ControlQ","","50","","","","","","","","","","","","","","","","","","","","","","","","","","","","",""
"9207","","<div style=""width:500px;"">
  <p>How would you describe your current emotional state?</p>
  </div>","60","html-slider-response","67","675539","0.0-5.0-3.11","111","1","2025-07-16 12:13:12","1f75c3e559b7213887762d5229550c2b","76.221.209.152","Mozilla/5.0 (Windows NT 10.0; Win64; x64) AppleWebKit/537.36 (KHTML, like Gecko) Chrome/138.0.0.0 Safari/537.36","WebKit","Chrome","138.0.0.0","Windows","10.0","https://app.prolific.com/","en-US,en;q=0.9,de;q=0.8,zh-TW;q=0.7,zh-CN;q=0.6,zh;q=0.5","5d617ba9364f9a0019f1dac3","68764874ac79eee8c1d4cb03","68779755e60503be98097441","2","0","5d617ba9364f9a0019f1dac3","2","0","2025-07-16T12:24:31.433Z","","","","","","","","","","","StressQ","","50","","","","","","","","","","","","","","","","","","","","","","","","","","","","",""
"1917","","<div style=""width:500px;"">
  <p>What best describes how you currently feel?</p>
  </div>","58","html-slider-response","68","677458","0.0-5.0-4.11","111","1","2025-07-16 12:13:12","1f75c3e559b7213887762d5229550c2b","76.221.209.152","Mozilla/5.0 (Windows NT 10.0; Win64; x64) AppleWebKit/537.36 (KHTML, like Gecko) Chrome/138.0.0.0 Safari/537.36","WebKit","Chrome","138.0.0.0","Windows","10.0","https://app.prolific.com/","en-US,en;q=0.9,de;q=0.8,zh-TW;q=0.7,zh-CN;q=0.6,zh;q=0.5","5d617ba9364f9a0019f1dac3","68764874ac79eee8c1d4cb03","68779755e60503be98097441","2","0","5d617ba9364f9a0019f1dac3","2","0","2025-07-16T12:24:33.352Z","","","","","","","","","","","MotivationQ","","50","","","","","","","","","","","","","","","","","","","","","","","","","","","","",""
"","","","","ctl-task-cpt","69","696451","0.0-5.0-0.12","111","1","2025-07-16 12:13:12","1f75c3e559b7213887762d5229550c2b","76.221.209.152","Mozilla/5.0 (Windows NT 10.0; Win64; x64) AppleWebKit/537.36 (KHTML, like Gecko) Chrome/138.0.0.0 Safari/537.36","WebKit","Chrome","138.0.0.0","Windows","10.0","https://app.prolific.com/","en-US,en;q=0.9,de;q=0.8,zh-TW;q=0.7,zh-CN;q=0.6,zh;q=0.5","5d617ba9364f9a0019f1dac3","68764874ac79eee8c1d4cb03","68779755e60503be98097441","2","0","5d617ba9364f9a0019f1dac3","2","0","2025-07-16T12:24:52.346Z","","","","","","","","","","","","","","win-only","3","g1:SW,g2:NE","0.7","13","0","680272.6","1269.1","6277.3","15971.6","1","4","8","6","1","1","1","4","3","0.030303030303030304","623.7","3000","1555","[""down"",""left""]","{""num_key_presses"":4,""num_perfect"":4,""num_errors"":0,""num_randdir"":0,""num_randdir_good_moves"":0,""num_whilered"":0,""num_whileblue"":0,""num_blue"":0,""num_good_moves"":4}","[421.5714133126395,417.82142761775424,0.7,421.5714133126395,417.82142761775424,107.8,420.3214133126395,414.07142761775424,208.7,386.5714133126395,379.07142761775424,313.3,304.0714133126395,470.32142761775424,414.7,90.3214133126395,760.3214276177542,522.5,77.8214133126395,767.8214276177542,629.5,76.5714133126395,767.8214276177542,730.3,-375.9285866873605,861.5714276177542,837.7,-543.4285866873605,922.8214276177542,941.5,-543.4285866873605,922.8214276177542,1041.9,-543.4285866873605,922.8214276177542,1142.1,-543.4285866873605,922.8214276177542,1246.9,-543.4285866873605,922.8214276177542,1347.4,-543.4285866873605,922.8214276177542,1448.2,-543.4285866873605,922.8214276177542,1551.7,-543.4285866873605,922.8214276177542,1653.8,-543.4285866873605,922.8214276177542,1753.9,-543.4285866873605,922.8214276177542,1856.4,-543.4285866873605,922.8214276177542,1964.6,-543.4285866873605,922.8214276177542,2065.8,-543.4285866873605,922.8214276177542,2171.6,-543.4285866873605,922.8214276177542,2275.1,-543.4285866873605,922.8214276177542,2378.5,-543.4285866873605,922.8214276177542,2479,-543.4285866873605,922.8214276177542,2582,-543.4285866873605,922.8214276177542,2689.5,-543.4285866873605,922.8214276177542,2789.7,-543.4285866873605,922.8214276177542,2897.5,-543.4285866873605,922.8214276177542,3001.4,-543.4285866873605,922.8214276177542,3102.4,-543.4285866873605,922.8214276177542,3206.7,-543.4285866873605,922.8214276177542,3306.7,-543.4285866873605,922.8214276177542,3408.8,-543.4285866873605,922.8214276177542,3515.1,-543.4285866873605,922.8214276177542,3618,-543.4285866873605,922.8214276177542,3722.6,-543.4285866873605,922.8214276177542,3830.1,-543.4285866873605,922.8214276177542,3931.7,-543.4285866873605,922.8214276177542,4033.4,-543.4285866873605,922.8214276177542,4137.4,-543.4285866873605,922.8214276177542,4240,-543.4285866873605,922.8214276177542,4345,-543.4285866873605,922.8214276177542,4447.3,-543.4285866873605,922.8214276177542,4555,-543.4285866873605,922.8214276177542,4656.3,-543.4285866873605,922.8214276177542,4765.9,-543.4285866873605,922.8214276177542,4867.4,-543.4285866873605,922.8214276177542,4974]","[1704,1704,1000,0,704,""smooth"",""down"",""down"",""good_move"",4058.7,2354.3,1921.7,1704.5,432.6,""smooth"",""down"",""down"",""good_move"",6991.1,2932.1,2546.4,4059,385.7,""smooth"",""left"",""left"",""good_move"",9565,2573.2,2173.3,6991.8,399.9,""smooth"",""left"",""left"",""good_move""]","",""
"4217","","<div style=""width:500px;"">
  <p>What determined the result of this run?</p>
  </div>","81","html-slider-response","70","700671","0.0-5.0-1.12","111","1","2025-07-16 12:13:12","1f75c3e559b7213887762d5229550c2b","76.221.209.152","Mozilla/5.0 (Windows NT 10.0; Win64; x64) AppleWebKit/537.36 (KHTML, like Gecko) Chrome/138.0.0.0 Safari/537.36","WebKit","Chrome","138.0.0.0","Windows","10.0","https://app.prolific.com/","en-US,en;q=0.9,de;q=0.8,zh-TW;q=0.7,zh-CN;q=0.6,zh;q=0.5","5d617ba9364f9a0019f1dac3","68764874ac79eee8c1d4cb03","68779755e60503be98097441","2","0","5d617ba9364f9a0019f1dac3","2","0","2025-07-16T12:24:56.565Z","","","","","","","","","","","AttribQ","","50","","","","","","","","","","","","","","","","","","","","","","","","","","","","",""
"6126","","<div style=""width:500px;"">
  <p>How much control did you have over the ball?</p>
  </div>","81","html-slider-response","71","706799","0.0-5.0-2.12","111","1","2025-07-16 12:13:12","1f75c3e559b7213887762d5229550c2b","76.221.209.152","Mozilla/5.0 (Windows NT 10.0; Win64; x64) AppleWebKit/537.36 (KHTML, like Gecko) Chrome/138.0.0.0 Safari/537.36","WebKit","Chrome","138.0.0.0","Windows","10.0","https://app.prolific.com/","en-US,en;q=0.9,de;q=0.8,zh-TW;q=0.7,zh-CN;q=0.6,zh;q=0.5","5d617ba9364f9a0019f1dac3","68764874ac79eee8c1d4cb03","68779755e60503be98097441","2","0","5d617ba9364f9a0019f1dac3","2","0","2025-07-16T12:25:02.693Z","","","","","","","","","","","ControlQ","","50","","","","","","","","","","","","","","","","","","","","","","","","","","","","",""
"41418","","<div style=""width:500px;"">
  <p>How would you describe your current emotional state?</p>
  </div>","29","html-slider-response","72","748217","0.0-5.0-3.12","111","1","2025-07-16 12:13:12","1f75c3e559b7213887762d5229550c2b","76.221.209.152","Mozilla/5.0 (Windows NT 10.0; Win64; x64) AppleWebKit/537.36 (KHTML, like Gecko) Chrome/138.0.0.0 Safari/537.36","WebKit","Chrome","138.0.0.0","Windows","10.0","https://app.prolific.com/","en-US,en;q=0.9,de;q=0.8,zh-TW;q=0.7,zh-CN;q=0.6,zh;q=0.5","5d617ba9364f9a0019f1dac3","68764874ac79eee8c1d4cb03","68779755e60503be98097441","2","0","5d617ba9364f9a0019f1dac3","2","0","2025-07-16T12:25:44.111Z","","","","","","","","","","","StressQ","","50","","","","","","","","","","","","","","","","","","","","","","","","","","","","",""
"29736","","<div style=""width:500px;"">
  <p>What best describes how you currently feel?</p>
  </div>","34","html-slider-response","73","777955","0.0-5.0-4.12","111","1","2025-07-16 12:13:12","1f75c3e559b7213887762d5229550c2b","76.221.209.152","Mozilla/5.0 (Windows NT 10.0; Win64; x64) AppleWebKit/537.36 (KHTML, like Gecko) Chrome/138.0.0.0 Safari/537.36","WebKit","Chrome","138.0.0.0","Windows","10.0","https://app.prolific.com/","en-US,en;q=0.9,de;q=0.8,zh-TW;q=0.7,zh-CN;q=0.6,zh;q=0.5","5d617ba9364f9a0019f1dac3","68764874ac79eee8c1d4cb03","68779755e60503be98097441","2","0","5d617ba9364f9a0019f1dac3","2","0","2025-07-16T12:26:13.849Z","","","","","","","","","","","MotivationQ","","50","","","","","","","","","","","","","","","","","","","","","","","","","","","","",""
"","","","","ctl-task-cpt","74","851778","0.0-5.0-0.13","111","1","2025-07-16 12:13:12","1f75c3e559b7213887762d5229550c2b","76.221.209.152","Mozilla/5.0 (Windows NT 10.0; Win64; x64) AppleWebKit/537.36 (KHTML, like Gecko) Chrome/138.0.0.0 Safari/537.36","WebKit","Chrome","138.0.0.0","Windows","10.0","https://app.prolific.com/","en-US,en;q=0.9,de;q=0.8,zh-TW;q=0.7,zh-CN;q=0.6,zh;q=0.5","5d617ba9364f9a0019f1dac3","68764874ac79eee8c1d4cb03","68779755e60503be98097441","2","0","5d617ba9364f9a0019f1dac3","2","0","2025-07-16T12:27:27.672Z","","","","","","","","","","","","","","win-only","1","g1:NE,g2:SW","0.8","14","0","780769.7","55513","60516.5","70803","1","4","4","6","1","1","1","5","4","0.03787878787878788","1114.4","3000","1300","[""up"",""right""]","{""num_key_presses"":4,""num_perfect"":4,""num_errors"":0,""num_randdir"":0,""num_randdir_good_moves"":0,""num_whilered"":0,""num_whileblue"":0,""num_blue"":0,""num_good_moves"":4}","[420.3214133126395,417.82142761775424,0.9,420.3214133126395,417.82142761775424,104.8,420.3214133126395,417.82142761775424,213.9,420.3214133126395,417.82142761775424,321.3,411.5714133126395,421.57142761775424,421.3,341.5714133126395,521.5714276177542,523.3,92.8214133126395,784.0714276177542,631.7,432.8214133126395,425.32142761775424,734.6,592.8214133126395,169.07142761775424,839.8,670.3214133126395,154.07142761775424,945,731.5714133126395,120.32142761775425,1045.5,766.5714133126395,91.57142761775425,1146.6,766.5714133126395,91.57142761775425,1249.1,774.0714133126395,87.82142761775425,1349.1,974.0714133126395,91.57142761775425,1450.3,1367.8214133126396,91.57142761775425,1552.3,1367.8214133126396,91.57142761775425,1661.4,1367.8214133126396,91.57142761775425,1765.4,1367.8214133126396,91.57142761775425,1873.2,1367.8214133126396,91.57142761775425,1974.5,1367.8214133126396,91.57142761775425,2082.2,1367.8214133126396,91.57142761775425,2185.6,1367.8214133126396,91.57142761775425,2288.5,1367.8214133126396,91.57142761775425,2391.9,1367.8214133126396,91.57142761775425,2497.9,1367.8214133126396,91.57142761775425,2601.9,1367.8214133126396,91.57142761775425,2707,1367.8214133126396,91.57142761775425,2813.4,1367.8214133126396,91.57142761775425,2915,1367.8214133126396,91.57142761775425,3026.9,1367.8214133126396,91.57142761775425,3127.3,1282.8214133126396,115.32142761775425,3236.9,546.5714133126395,265.32142761775424,3340.4,721.5714133126395,407.82142761775424,3443.3,757.8214133126395,416.57142761775424,3544.9,877.8214133126395,336.57142761775424,3647.4,969.0714133126395,276.57142761775424,3747.5,982.8214133126395,259.07142761775424,3849.4,1001.5714133126395,226.57142761775424,3949.9,1002.8214133126395,225.32142761775424,4060.8,1002.8214133126395,225.32142761775424,4162.2,1009.0714133126395,226.57142761775424,4263.2,1009.0714133126395,229.07142761775424,4368.4,1009.0714133126395,229.07142761775424,4469.9,1009.0714133126395,229.07142761775424,4575.6,1009.0714133126395,229.07142761775424,4680.4,1009.0714133126395,229.07142761775424,4780.4,1009.0714133126395,229.07142761775424,4883.3,1009.0714133126395,229.07142761775424,4989.9]","[1455,1455,1000,0,455,""smooth"",""up"",""up"",""good_move"",4222.8,2767.3,2292.9,1455.5,474.4,""smooth"",""up"",""up"",""good_move"",6927,2703.9,2196.9,4223.1,507,""smooth"",""right"",""right"",""good_move"",10191.2,3262.9,2868.2,6928.4,394.6,""smooth"",""right"",""right"",""good_move""]","",""
"5434","","<div style=""width:500px;"">
  <p>What determined the result of this run?</p>
