"rt","response_timestamp","stimulus","response","trial_type","trial_index","time_elapsed","internal_node_id","run_id","condition","recorded_at","source_code_version","ip","user_agent","device","browser","browser_version","platform","platform_version","referer","accept_language","PROLIFIC_PID","STUDY_ID","SESSION_ID","WEEK","BATCH","prolific_id","week","batch","realtime","success","responses","item_order","radio_event_ids","radio_event_times","key_event_times","mouse_event_times","straightlining","zigzagging","honeypot","eventType","view_history","slider_start","which_type","canvas_config","goals_layout","control_level","trial_number","tutorial_trial_number","trial_start_time","phase1_start_time","phase2_start_time","phase3_start_time","goal_1_value","goal_1_distance","goal_2_value","goal_2_distance","goal_selected","outcome","outcome_total","participant_final_score","participant_initial_score","participant_final_score_prop","goal_choice_rt","allocated_time","allocated_time_remaining","goal_direction","counts","mouse_movements","key_presses","question_order","question_id"
"28773","1752653920194","<p style='font-size:40px;line-height:1.25'><strong>Welcome to the experiment!</strong></p><p style='font-size:1.1em;line-height:1.25'>Thank you for participanting in our experiment again! You will be asked to play the Dysfunctional Ball Game again. We will briefly recap the rules before we start.</p><p style='font-size:1.1em;line-height:1.25'>Press <strong>Next</strong> to continue.</p>","0","custom-html-button-response","0","28777","0.0-0.0","44","1","2025-07-16 08:18:09","1f75c3e559b7213887762d5229550c2b","102.222.12.73","Mozilla/5.0 (Windows NT 10.0; Win64; x64) AppleWebKit/537.36 (KHTML, like Gecko) Chrome/138.0.0.0 Safari/537.36","WebKit","Chrome","138.0.0.0","Windows","10.0","https://app.prolific.com/","en-ZA,en-GB;q=0.9,en-US;q=0.8,en;q=0.7,en-GB-oxendict;q=0.6","605b838b80f022835fc293fb","686e379bc37a29ffa5cdc956","6877602cbd26b56847a41620","1","1","605b838b80f022835fc293fb","1","1","2025-07-16T08:18:40.196Z","","","","","","","","","","","","","","","","","","","","","","","","","","","","","","","","","","","","","","","","","",""
"14906","","","","fullscreen","1","44705","0.0-1.0","44","1","2025-07-16 08:18:09","1f75c3e559b7213887762d5229550c2b","102.222.12.73","Mozilla/5.0 (Windows NT 10.0; Win64; x64) AppleWebKit/537.36 (KHTML, like Gecko) Chrome/138.0.0.0 Safari/537.36","WebKit","Chrome","138.0.0.0","Windows","10.0","https://app.prolific.com/","en-ZA,en-GB;q=0.9,en-US;q=0.8,en;q=0.7,en-GB-oxendict;q=0.6","605b838b80f022835fc293fb","686e379bc37a29ffa5cdc956","6877602cbd26b56847a41620","1","1","605b838b80f022835fc293fb","1","1","","true","","","","","","","","","","","","","","","","","","","","","","","","","","","","","","","","","","","","","","","","",""
"7262","1752653943390","<p style='font-size:1.1em;line-height:1.25'>In the following, we will ask you a few questions relating to your feelings in the last 24 hours.<br></p><p style='font-size:1.1em;line-height:1.25'>Press the <strong>Next</strong> button to continue.</p>","0","custom-html-button-response","2","51972","0.0-2.0-0.0","44","1","2025-07-16 08:18:09","1f75c3e559b7213887762d5229550c2b","102.222.12.73","Mozilla/5.0 (Windows NT 10.0; Win64; x64) AppleWebKit/537.36 (KHTML, like Gecko) Chrome/138.0.0.0 Safari/537.36","WebKit","Chrome","138.0.0.0","Windows","10.0","https://app.prolific.com/","en-ZA,en-GB;q=0.9,en-US;q=0.8,en;q=0.7,en-GB-oxendict;q=0.6","605b838b80f022835fc293fb","686e379bc37a29ffa5cdc956","6877602cbd26b56847a41620","1","1","605b838b80f022835fc293fb","1","1","2025-07-16T08:19:03.391Z","","","","","","","","","","","","","","","","","","","","","","","","","","","","","","","","","","","","","","","","","",""
"100119.10000002384","","","","survey-template","3","152110","0.0-2.0-1.0","44","1","2025-07-16 08:18:09","1f75c3e559b7213887762d5229550c2b","102.222.12.73","Mozilla/5.0 (Windows NT 10.0; Win64; x64) AppleWebKit/537.36 (KHTML, like Gecko) Chrome/138.0.0.0 Safari/537.36","WebKit","Chrome","138.0.0.0","Windows","10.0","https://app.prolific.com/","en-ZA,en-GB;q=0.9,en-US;q=0.8,en;q=0.7,en-GB-oxendict;q=0.6","605b838b80f022835fc293fb","686e379bc37a29ffa5cdc956","6877602cbd26b56847a41620","1","1","605b838b80f022835fc293fb","1","1","2025-07-16T08:20:43.529Z","","{""Q01"":""1"",""Q02"":""1"",""Q03"":""0"",""Q04"":""1"",""Q05"":""1"",""Q06"":""1"",""Q07"":""1"",""Q08"":""0"",""Q09"":""0"",""Q10"":""1"",""Q11"":""1"",""Q12"":""1"",""Q13"":""5"",""Q14"":""2"",""Q15"":""1"",""Q16"":""1"",""Q17"":""0"",""Q18"":""0"",""Q19"":""2"",""Q20"":""0"",""Q21"":""1"",""Q22"":""0""}","[0,1,2,3,4,5,6,7,8,9,10,11,12,13,14,15,16,17,18,19,20,21]","[""Q01"",""Q02"",""Q03"",""Q04"",""Q05"",""Q06"",""Q07"",""Q08"",""Q09"",""Q10"",""Q11"",""Q12"",""Q13"",""Q14"",""Q15"",""Q15"",""Q16"",""Q17"",""Q18"",""Q19"",""Q19"",""Q20"",""Q21"",""Q22""]","[17629.800000071526,19280.700000047684,22378.700000047684,24678.800000071526,29819.300000071526,32722.400000095367,35825.200000047684,40056.40000009537,43290.5,47079.5,51163.5,53415.60000002384,56531.10000002384,59993.800000071526,63135.60000002384,66930,68683.5,73232.5,74732.30000007153,78291.5,80064.20000004768,88796.40000009537,93647.60000002384,98724]","[]","[1.8000000715255737,14285.600000023842,17170.400000095367,17629.800000071526,19280.700000047684,22378.700000047684,24678.800000071526,29819.300000071526,32722.400000095367,35825.200000047684,40056.40000009537,43290.5,47079.5,48839.200000047684,51163.5,53415.60000002384,56531.10000002384,59993.800000071526,63135.60000002384,66930,68683.5,73232.5,74732.30000007153,78291.5,80064.20000004768,88796.40000009537,93647.60000002384,96977.80000007153,98724,100111.80000007153]","0.5454545454545454","0.38095238095238093","0","drsp","","","","","","","","","","","","","","","","","","","","","","","","","","","","","","",""
"14552.100000023842","","","","survey-template","4","166665","0.0-2.0-2.0","44","1","2025-07-16 08:18:09","1f75c3e559b7213887762d5229550c2b","102.222.12.73","Mozilla/5.0 (Windows NT 10.0; Win64; x64) AppleWebKit/537.36 (KHTML, like Gecko) Chrome/138.0.0.0 Safari/537.36","WebKit","Chrome","138.0.0.0","Windows","10.0","https://app.prolific.com/","en-ZA,en-GB;q=0.9,en-US;q=0.8,en;q=0.7,en-GB-oxendict;q=0.6","605b838b80f022835fc293fb","686e379bc37a29ffa5cdc956","6877602cbd26b56847a41620","1","1","605b838b80f022835fc293fb","1","1","2025-07-16T08:20:58.084Z","","{""Q01"":""0"",""Q02"":""4"",""Q03"":""0""}","[0,1,2]","[""Q01"",""Q02"",""Q02"",""Q03""]","[5565.399999976158,8297.100000023842,10223.600000023842,13216.899999976158]","[]","[5565.399999976158,8297.100000023842,10223.600000023842,13216.899999976158,14551]","0.6666666666666666","1","0","stress","","","","","","","","","","","","","","","","","","","","","","","","","","","","","","",""
"39989","","","","instructions","5","206656","0.0-3.0-0.0","44","1","2025-07-16 08:18:09","1f75c3e559b7213887762d5229550c2b","102.222.12.73","Mozilla/5.0 (Windows NT 10.0; Win64; x64) AppleWebKit/537.36 (KHTML, like Gecko) Chrome/138.0.0.0 Safari/537.36","WebKit","Chrome","138.0.0.0","Windows","10.0","https://app.prolific.com/","en-ZA,en-GB;q=0.9,en-US;q=0.8,en;q=0.7,en-GB-oxendict;q=0.6","605b838b80f022835fc293fb","686e379bc37a29ffa5cdc956","6877602cbd26b56847a41620","1","1","605b838b80f022835fc293fb","1","1","","","","","","","","","","","","","[{""page_index"":0,""viewing_time"":39989}]","","","","","","","","","","","","","","","","","","","","","","","","","","","","","",""
"17720","","<p>Before you start with this game please answer the following three questions yourself. </p>
  <p>Through this game, we measure several aspects of your cognitive performance, such as reaction times, multi-tasking capabilities </p>
  <p>and the ability to assess the situation you are in.</p>
  <p></p>
  <p><b>How good do you usually are in such tasks?</b></p>","76","html-slider-response","6","224382","0.0-4.0-0.0","44","1","2025-07-16 08:18:09","1f75c3e559b7213887762d5229550c2b","102.222.12.73","Mozilla/5.0 (Windows NT 10.0; Win64; x64) AppleWebKit/537.36 (KHTML, like Gecko) Chrome/138.0.0.0 Safari/537.36","WebKit","Chrome","138.0.0.0","Windows","10.0","https://app.prolific.com/","en-ZA,en-GB;q=0.9,en-US;q=0.8,en;q=0.7,en-GB-oxendict;q=0.6","605b838b80f022835fc293fb","686e379bc37a29ffa5cdc956","6877602cbd26b56847a41620","1","1","605b838b80f022835fc293fb","1","1","2025-07-16T08:21:55.801Z","","","","","","","","","","","PreSkillQ","","50","","","","","","","","","","","","","","","","","","","","","","","","","","","","",""
"6510","","<div style=""width:500px;"">
  <p>How well do you think you will perform in this task compared to other participants?</p>
  </div>","71","html-slider-response","7","230893","0.0-4.0-1.0","44","1","2025-07-16 08:18:09","1f75c3e559b7213887762d5229550c2b","102.222.12.73","Mozilla/5.0 (Windows NT 10.0; Win64; x64) AppleWebKit/537.36 (KHTML, like Gecko) Chrome/138.0.0.0 Safari/537.36","WebKit","Chrome","138.0.0.0","Windows","10.0","https://app.prolific.com/","en-ZA,en-GB;q=0.9,en-US;q=0.8,en;q=0.7,en-GB-oxendict;q=0.6","605b838b80f022835fc293fb","686e379bc37a29ffa5cdc956","6877602cbd26b56847a41620","1","1","605b838b80f022835fc293fb","1","1","2025-07-16T08:22:02.312Z","","","","","","","","","","","PrePerfQ","","50","","","","","","","","","","","","","","","","","","","","","","","","","","","","",""
"5072","","<div style=""width:500px;"">
  <p>What best describes how you currently feel?</p>
  </div>","89","html-slider-response","8","235967","0.0-4.0-2.0","44","1","2025-07-16 08:18:09","1f75c3e559b7213887762d5229550c2b","102.222.12.73","Mozilla/5.0 (Windows NT 10.0; Win64; x64) AppleWebKit/537.36 (KHTML, like Gecko) Chrome/138.0.0.0 Safari/537.36","WebKit","Chrome","138.0.0.0","Windows","10.0","https://app.prolific.com/","en-ZA,en-GB;q=0.9,en-US;q=0.8,en;q=0.7,en-GB-oxendict;q=0.6","605b838b80f022835fc293fb","686e379bc37a29ffa5cdc956","6877602cbd26b56847a41620","1","1","605b838b80f022835fc293fb","1","1","2025-07-16T08:22:07.386Z","","","","","","","","","","","PreMotivationQ","","50","","","","","","","","","","","","","","","","","","","","","","","","","","","","",""
"","","","","ctl-task-cpt","9","273995","0.0-5.0-0.0","44","1","2025-07-16 08:18:09","1f75c3e559b7213887762d5229550c2b","102.222.12.73","Mozilla/5.0 (Windows NT 10.0; Win64; x64) AppleWebKit/537.36 (KHTML, like Gecko) Chrome/138.0.0.0 Safari/537.36","WebKit","Chrome","138.0.0.0","Windows","10.0","https://app.prolific.com/","en-ZA,en-GB;q=0.9,en-US;q=0.8,en;q=0.7,en-GB-oxendict;q=0.6","605b838b80f022835fc293fb","686e379bc37a29ffa5cdc956","6877602cbd26b56847a41620","1","1","605b838b80f022835fc293fb","1","1","2025-07-16T08:22:45.414Z","","","","","","","","","","","","","","win-only","2","g1:SE,g2:NW","1","1","0","239430.1","2336.6","7343.2","35018.5","1","4","4","6","2","4","4","4","0","0.030303030303030304","1311.6","3000","405","[""left"",""up""]","{""num_key_presses"":6,""num_perfect"":6,""num_errors"":0,""num_randdir"":0,""num_randdir_good_moves"":0,""num_whilered"":0,""num_whileblue"":0,""num_blue"":3,""num_good_moves"":6}","[410.3214133126395,417.82142761775424,1.9,410.3214133126395,417.82142761775424,100.9,410.3214133126395,417.82142761775424,201.7,410.3214133126395,417.82142761775424,304.2,410.3214133126395,417.82142761775424,405.2,410.3214133126395,417.82142761775424,505.3,410.3214133126395,417.82142761775424,610.3,200.3214133126395,200.32142761775424,718.9,89.0714133126395,61.57142761775425,823.4,86.5714133126395,56.57142761775425,925.8,82.8214133126395,56.57142761775425,1028.6,82.8214133126395,56.57142761775425,1131.8,82.8214133126395,56.57142761775425,1233.4,82.8214133126395,56.57142761775425,1336.9,82.8214133126395,56.57142761775425,1440.5,82.8214133126395,56.57142761775425,1540.9,82.8214133126395,56.57142761775425,1645.9,82.8214133126395,56.57142761775425,1752.2,186.5714133126395,176.57142761775424,1852.8,296.5714133126395,289.07142761775424,1953.9,349.0714133126395,350.32142761775424,2056.5,387.8214133126395,401.57142761775424,2160.8,416.5714133126395,440.32142761775424,2267.5,442.8214133126395,461.57142761775424,2370.4,447.8214133126395,466.57142761775424,2470.6,325.3214133126395,494.07142761775424,2573.9,314.0714133126395,494.07142761775424,2674.9,314.0714133126395,494.07142761775424,2780.5,314.0714133126395,494.07142761775424,2882.3,314.0714133126395,494.07142761775424,2984.7,314.0714133126395,494.07142761775424,3088.9,314.0714133126395,494.07142761775424,3189.8,314.0714133126395,494.07142761775424,3295.6,314.0714133126395,494.07142761775424,3395.9,314.0714133126395,494.07142761775424,3497.1,314.0714133126395,494.07142761775424,3599.5,314.0714133126395,494.07142761775424,3699.6,314.0714133126395,494.07142761775424,3804.7,314.0714133126395,494.07142761775424,3904.8,314.0714133126395,494.07142761775424,4005.4,314.0714133126395,494.07142761775424,4109.2,314.0714133126395,494.07142761775424,4209.6,314.0714133126395,494.07142761775424,4315.9,314.0714133126395,494.07142761775424,4416.1,314.0714133126395,494.07142761775424,4520.2,314.0714133126395,494.07142761775424,4625.1,314.0714133126395,494.07142761775424,4729,314.0714133126395,494.07142761775424,4830.1,342.8214133126395,494.07142761775424,4930.5]","[4749.1,4749,2261.4,2009.6,478.1,""smooth"",""left"",""left"",""good_move"",7764.1,3014.5,2536.2,4749.6,478.3,""smooth"",""left"",""left"",""good_move"",11177.4,3413.1,3045,7764.4,368.1,""smooth"",""left"",""left"",""good_move"",17942.1,6764.4,2661.2,14892.8,388.1,""smooth"",""up"",""up"",""good_move"",20624.3,2681.9,2214,17942.5,467.8,""smooth"",""up"",""up"",""good_move"",27575.8,6950.9,2868.1,24263.3,444.4,""smooth"",""up"",""up"",""good_move""]","",""
"4432","","<div style=""width:500px;"">
  <p>What determined the result of this run?</p>
  </div>","100","html-slider-response","10","278428","0.0-5.0-1.0","44","1","2025-07-16 08:18:09","1f75c3e559b7213887762d5229550c2b","102.222.12.73","Mozilla/5.0 (Windows NT 10.0; Win64; x64) AppleWebKit/537.36 (KHTML, like Gecko) Chrome/138.0.0.0 Safari/537.36","WebKit","Chrome","138.0.0.0","Windows","10.0","https://app.prolific.com/","en-ZA,en-GB;q=0.9,en-US;q=0.8,en;q=0.7,en-GB-oxendict;q=0.6","605b838b80f022835fc293fb","686e379bc37a29ffa5cdc956","6877602cbd26b56847a41620","1","1","605b838b80f022835fc293fb","1","1","2025-07-16T08:22:49.848Z","","","","","","","","","","","AttribQ","","50","","","","","","","","","","","","","","","","","","","","","","","","","","","","",""
"5012","","<div style=""width:500px;"">
  <p>How much control did you have over the ball?</p>
  </div>","77","html-slider-response","11","283443","0.0-5.0-2.0","44","1","2025-07-16 08:18:09","1f75c3e559b7213887762d5229550c2b","102.222.12.73","Mozilla/5.0 (Windows NT 10.0; Win64; x64) AppleWebKit/537.36 (KHTML, like Gecko) Chrome/138.0.0.0 Safari/537.36","WebKit","Chrome","138.0.0.0","Windows","10.0","https://app.prolific.com/","en-ZA,en-GB;q=0.9,en-US;q=0.8,en;q=0.7,en-GB-oxendict;q=0.6","605b838b80f022835fc293fb","686e379bc37a29ffa5cdc956","6877602cbd26b56847a41620","1","1","605b838b80f022835fc293fb","1","1","2025-07-16T08:22:54.862Z","","","","","","","","","","","ControlQ","","50","","","","","","","","","","","","","","","","","","","","","","","","","","","","",""
"7188","","<div style=""width:500px;"">
  <p>How would you describe your current emotional state?</p>
  </div>","0","html-slider-response","12","290633","0.0-5.0-3.0","44","1","2025-07-16 08:18:09","1f75c3e559b7213887762d5229550c2b","102.222.12.73","Mozilla/5.0 (Windows NT 10.0; Win64; x64) AppleWebKit/537.36 (KHTML, like Gecko) Chrome/138.0.0.0 Safari/537.36","WebKit","Chrome","138.0.0.0","Windows","10.0","https://app.prolific.com/","en-ZA,en-GB;q=0.9,en-US;q=0.8,en;q=0.7,en-GB-oxendict;q=0.6","605b838b80f022835fc293fb","686e379bc37a29ffa5cdc956","6877602cbd26b56847a41620","1","1","605b838b80f022835fc293fb","1","1","2025-07-16T08:23:02.052Z","","","","","","","","","","","StressQ","","50","","","","","","","","","","","","","","","","","","","","","","","","","","","","",""
"5897","","<div style=""width:500px;"">
  <p>What best describes how you currently feel?</p>
  </div>","92","html-slider-response","13","296532","0.0-5.0-4.0","44","1","2025-07-16 08:18:09","1f75c3e559b7213887762d5229550c2b","102.222.12.73","Mozilla/5.0 (Windows NT 10.0; Win64; x64) AppleWebKit/537.36 (KHTML, like Gecko) Chrome/138.0.0.0 Safari/537.36","WebKit","Chrome","138.0.0.0","Windows","10.0","https://app.prolific.com/","en-ZA,en-GB;q=0.9,en-US;q=0.8,en;q=0.7,en-GB-oxendict;q=0.6","605b838b80f022835fc293fb","686e379bc37a29ffa5cdc956","6877602cbd26b56847a41620","1","1","605b838b80f022835fc293fb","1","1","2025-07-16T08:23:07.951Z","","","","","","","","","","","MotivationQ","","50","","","","","","","","","","","","","","","","","","","","","","","","","","","","",""
"","","","","ctl-task-cpt","14","341611","0.0-5.0-0.1","44","1","2025-07-16 08:18:09","1f75c3e559b7213887762d5229550c2b","102.222.12.73","Mozilla/5.0 (Windows NT 10.0; Win64; x64) AppleWebKit/537.36 (KHTML, like Gecko) Chrome/138.0.0.0 Safari/537.36","WebKit","Chrome","138.0.0.0","Windows","10.0","https://app.prolific.com/","en-ZA,en-GB;q=0.9,en-US;q=0.8,en;q=0.7,en-GB-oxendict;q=0.6","605b838b80f022835fc293fb","686e379bc37a29ffa5cdc956","6877602cbd26b56847a41620","1","1","605b838b80f022835fc293fb","1","1","2025-07-16T08:23:53.030Z","","","","","","","","","","","","","","win-only","3","g1:SW,g2:NE","0.9","2","0","299989.9","2114.5","7115.8","42075.6","1","4","8","6","2","-8","-8","0","4","0","2997.8","3000","-2970","[""up"",""right""]","{""num_key_presses"":7,""num_perfect"":6,""num_errors"":0,""num_randdir"":1,""num_randdir_good_moves"":0,""num_whilered"":0,""num_whileblue"":0,""num_blue"":4,""num_good_moves"":6}","[416.5714133126395,421.57142761775424,0.3,416.5714133126395,421.57142761775424,101.8,416.5714133126395,421.57142761775424,203.3,416.5714133126395,421.57142761775424,305.8,416.5714133126395,421.57142761775424,407.5,416.5714133126395,421.57142761775424,512.3,416.5714133126395,421.57142761775424,613.4,416.5714133126395,421.57142761775424,717.3,416.5714133126395,421.57142761775424,821,416.5714133126395,421.57142761775424,923.3,422.8214133126395,415.32142761775424,1026.7,580.3214133126395,226.57142761775424,1126.9,676.5714133126395,142.82142761775424,1232.1,692.8214133126395,140.32142761775424,1336.1,707.8214133126395,136.57142761775424,1438.5,712.8214133126395,126.57142761775425,1542.4,712.8214133126395,116.57142761775425,1655.1,712.8214133126395,114.07142761775425,1757.3,712.8214133126395,112.82142761775425,1862.6,712.8214133126395,112.82142761775425,1963.2,712.8214133126395,112.82142761775425,2066.1,712.8214133126395,112.82142761775425,2174.6,712.8214133126395,112.82142761775425,2276,712.8214133126395,112.82142761775425,2376.3,712.8214133126395,112.82142761775425,2476.3,712.8214133126395,112.82142761775425,2588.6,712.8214133126395,112.82142761775425,2691.5,712.8214133126395,112.82142761775425,2791.9,712.8214133126395,112.82142761775425,2898.3,712.8214133126395,112.82142761775425,2999.7,712.8214133126395,112.82142761775425,3103.1,712.8214133126395,112.82142761775425,3203.8,712.8214133126395,112.82142761775425,3304.5,712.8214133126395,112.82142761775425,3407.5,712.8214133126395,112.82142761775425,3512.3,712.8214133126395,112.82142761775425,3614.3,712.8214133126395,112.82142761775425,3718.6,712.8214133126395,112.82142761775425,3820.8,671.5714133126395,142.82142761775424,3923.4,497.8214133126395,290.32142761775424,4025.1,404.0714133126395,402.82142761775424,4126.7,404.0714133126395,404.07142761775424,4232.6,404.0714133126395,404.07142761775424,4332.5,404.0714133126395,404.07142761775424,4433.2,404.0714133126395,404.07142761775424,4534,404.0714133126395,404.07142761775424,4637.2,404.0714133126395,404.07142761775424,4741.6,404.0714133126395,404.07142761775424,4841.9,404.0714133126395,404.07142761775424,4947.3]","[1498.7,1498.7,1000,0,498.7,""smooth"",""up"",""up"",""good_move"",7603.7,6104.5,2056.5,5217.7,329.6,""smooth"",""up"",""up"",""good_move"",10021.8,2417.7,1919.2,7604.1,498.5,""oops"",""up"",""down"",""bad_move"",15317.5,5295.2,2313,12692.3,312.2,""smooth"",""up"",""up"",""good_move"",17882.9,2565.1,2168.5,15317.8,396.6,""smooth"",""up"",""up"",""good_move"",21284.9,3401.7,2915.2,17883.2,486.5,""smooth"",""right"",""right"",""good_move"",32028.6,10742.7,2448.5,29184.6,395.5,""smooth"",""right"",""right"",""good_move""]","",""
"7955","","<div style=""width:500px;"">
  <p>What determined the result of this run?</p>
  </div>","16","html-slider-response","15","349567","0.0-5.0-1.1","44","1","2025-07-16 08:18:09","1f75c3e559b7213887762d5229550c2b","102.222.12.73","Mozilla/5.0 (Windows NT 10.0; Win64; x64) AppleWebKit/537.36 (KHTML, like Gecko) Chrome/138.0.0.0 Safari/537.36","WebKit","Chrome","138.0.0.0","Windows","10.0","https://app.prolific.com/","en-ZA,en-GB;q=0.9,en-US;q=0.8,en;q=0.7,en-GB-oxendict;q=0.6","605b838b80f022835fc293fb","686e379bc37a29ffa5cdc956","6877602cbd26b56847a41620","1","1","605b838b80f022835fc293fb","1","1","2025-07-16T08:24:00.986Z","","","","","","","","","","","AttribQ","","50","","","","","","","","","","","","","","","","","","","","","","","","","","","","",""
"7225","","<div style=""width:500px;"">
  <p>How much control did you have over the ball?</p>
  </div>","41","html-slider-response","16","356794","0.0-5.0-2.1","44","1","2025-07-16 08:18:09","1f75c3e559b7213887762d5229550c2b","102.222.12.73","Mozilla/5.0 (Windows NT 10.0; Win64; x64) AppleWebKit/537.36 (KHTML, like Gecko) Chrome/138.0.0.0 Safari/537.36","WebKit","Chrome","138.0.0.0","Windows","10.0","https://app.prolific.com/","en-ZA,en-GB;q=0.9,en-US;q=0.8,en;q=0.7,en-GB-oxendict;q=0.6","605b838b80f022835fc293fb","686e379bc37a29ffa5cdc956","6877602cbd26b56847a41620","1","1","605b838b80f022835fc293fb","1","1","2025-07-16T08:24:08.214Z","","","","","","","","","","","ControlQ","","50","","","","","","","","","","","","","","","","","","","","","","","","","","","","",""
"6218","","<div style=""width:500px;"">
  <p>How would you describe your current emotional state?</p>
  </div>","60","html-slider-response","17","363014","0.0-5.0-3.1","44","1","2025-07-16 08:18:09","1f75c3e559b7213887762d5229550c2b","102.222.12.73","Mozilla/5.0 (Windows NT 10.0; Win64; x64) AppleWebKit/537.36 (KHTML, like Gecko) Chrome/138.0.0.0 Safari/537.36","WebKit","Chrome","138.0.0.0","Windows","10.0","https://app.prolific.com/","en-ZA,en-GB;q=0.9,en-US;q=0.8,en;q=0.7,en-GB-oxendict;q=0.6","605b838b80f022835fc293fb","686e379bc37a29ffa5cdc956","6877602cbd26b56847a41620","1","1","605b838b80f022835fc293fb","1","1","2025-07-16T08:24:14.433Z","","","","","","","","","","","StressQ","","50","","","","","","","","","","","","","","","","","","","","","","","","","","","","",""
"4038","","<div style=""width:500px;"">
  <p>What best describes how you currently feel?</p>
  </div>","61","html-slider-response","18","367054","0.0-5.0-4.1","44","1","2025-07-16 08:18:09","1f75c3e559b7213887762d5229550c2b","102.222.12.73","Mozilla/5.0 (Windows NT 10.0; Win64; x64) AppleWebKit/537.36 (KHTML, like Gecko) Chrome/138.0.0.0 Safari/537.36","WebKit","Chrome","138.0.0.0","Windows","10.0","https://app.prolific.com/","en-ZA,en-GB;q=0.9,en-US;q=0.8,en;q=0.7,en-GB-oxendict;q=0.6","605b838b80f022835fc293fb","686e379bc37a29ffa5cdc956","6877602cbd26b56847a41620","1","1","605b838b80f022835fc293fb","1","1","2025-07-16T08:24:18.473Z","","","","","","","","","","","MotivationQ","","50","","","","","","","","","","","","","","","","","","","","","","","","","","","","",""
"","","","","ctl-task-cpt","19","415208","0.0-5.0-0.2","44","1","2025-07-16 08:18:09","1f75c3e559b7213887762d5229550c2b","102.222.12.73","Mozilla/5.0 (Windows NT 10.0; Win64; x64) AppleWebKit/537.36 (KHTML, like Gecko) Chrome/138.0.0.0 Safari/537.36","WebKit","Chrome","138.0.0.0","Windows","10.0","https://app.prolific.com/","en-ZA,en-GB;q=0.9,en-US;q=0.8,en;q=0.7,en-GB-oxendict;q=0.6","605b838b80f022835fc293fb","686e379bc37a29ffa5cdc956","6877602cbd26b56847a41620","1","1","605b838b80f022835fc293fb","1","1","2025-07-16T08:25:06.627Z","","","","","","","","","","","","","","win-only","1","g1:NE,g2:SW","0.8","3","0","370513.6","1617.4","6623.2","45130.2","1","4","8","6","2","-8","-10","0","0","0","1594.9","3000","-2920","[""down"",""left""]","{""num_key_presses"":10,""num_perfect"":6,""num_errors"":2,""num_randdir"":2,""num_randdir_good_moves"":0,""num_whilered"":0,""num_whileblue"":2,""num_blue"":4,""num_good_moves"":7}","[410.3214133126395,411.57142761775424,0.2,410.3214133126395,411.57142761775424,106,410.3214133126395,411.57142761775424,221.1,410.3214133126395,411.57142761775424,324.1,410.3214133126395,411.57142761775424,426.5,410.3214133126395,411.57142761775424,527.9,410.3214133126395,411.57142761775424,629.7,410.3214133126395,411.57142761775424,730.1,401.5714133126395,414.07142761775424,831.5,175.3214133126395,656.5714276177542,933.7,136.5714133126395,722.8214276177542,1040.5,116.5714133126395,739.0714276177542,1142.2,85.3214133126395,760.3214276177542,1242.4,80.3214133126395,759.0714276177542,1344.5,80.3214133126395,759.0714276177542,1448.7,80.3214133126395,759.0714276177542,1554.9,80.3214133126395,759.0714276177542,1657.3,80.3214133126395,759.0714276177542,1760.6,80.3214133126395,759.0714276177542,1860.8,80.3214133126395,759.0714276177542,1963.2,80.3214133126395,759.0714276177542,2064.4,80.3214133126395,759.0714276177542,2167.8,80.3214133126395,759.0714276177542,2268.9,80.3214133126395,759.0714276177542,2369,80.3214133126395,759.0714276177542,2469.2,80.3214133126395,759.0714276177542,2575.8,80.3214133126395,759.0714276177542,2676.3,80.3214133126395,759.0714276177542,2778.4,80.3214133126395,759.0714276177542,2878.8,80.3214133126395,759.0714276177542,2979,80.3214133126395,759.0714276177542,3083.5,80.3214133126395,759.0714276177542,3183.5,80.3214133126395,759.0714276177542,3284,80.3214133126395,759.0714276177542,3384,80.3214133126395,759.0714276177542,3485.2,80.3214133126395,759.0714276177542,3587.4,80.3214133126395,759.0714276177542,3693.3,80.3214133126395,759.0714276177542,3794,80.3214133126395,759.0714276177542,3898.5,80.3214133126395,759.0714276177542,3999.4,80.3214133126395,759.0714276177542,4104.2,80.3214133126395,759.0714276177542,4206.5,80.3214133126395,759.0714276177542,4310.6,80.3214133126395,759.0714276177542,4411.1,80.3214133126395,759.0714276177542,4511.4,80.3214133126395,759.0714276177542,4612.3,80.3214133126395,759.0714276177542,4713.8,80.3214133126395,759.0714276177542,4818,80.3214133126395,759.0714276177542,4920.3]","[1369.8,1369.8,1000,0,369.8,""smooth"",""down"",""down"",""good_move"",8350.1,6979.8,2941.7,5042.6,365.8,""while_blue"",""down"",""down"",""good_move"",11868.6,3517.7,3113.9,8350.9,403.8,""smooth"",""down"",""down"",""good_move"",15565.6,3696.8,3326.4,11868.8,370.4,""smooth"",""left"",""left"",""good_move"",18698,3131.7,2758.7,15566.4,373,""oops"",""left"",""right"",""bad_move"",21366.9,2668.3,2267.9,18698.6,400.4,""oops"",""left"",""up"",""bad_move"",23864.1,2496.7,2140.1,21367.4,356.6,""smooth"",""down"",""down"",""good_move"",30559.4,6695,3118.1,27097.1,344.2,""smooth"",""left"",""left"",""good_move"",33267.3,2707.5,2107.7,30559.8,599.8,""while_blue"",""left"",""right"",""bad_move"",36731.7,3464.1,2865.1,33267.6,599,""smooth"",""left"",""left"",""good_move""]","",""
"9704","","<div style=""width:500px;"">
  <p>What determined the result of this run?</p>
  </div>","37","html-slider-response","20","424914","0.0-5.0-1.2","44","1","2025-07-16 08:18:09","1f75c3e559b7213887762d5229550c2b","102.222.12.73","Mozilla/5.0 (Windows NT 10.0; Win64; x64) AppleWebKit/537.36 (KHTML, like Gecko) Chrome/138.0.0.0 Safari/537.36","WebKit","Chrome","138.0.0.0","Windows","10.0","https://app.prolific.com/","en-ZA,en-GB;q=0.9,en-US;q=0.8,en;q=0.7,en-GB-oxendict;q=0.6","605b838b80f022835fc293fb","686e379bc37a29ffa5cdc956","6877602cbd26b56847a41620","1","1","605b838b80f022835fc293fb","1","1","2025-07-16T08:25:16.333Z","","","","","","","","","","","AttribQ","","50","","","","","","","","","","","","","","","","","","","","","","","","","","","","",""
"4643","","<div style=""width:500px;"">
  <p>How much control did you have over the ball?</p>
  </div>","33","html-slider-response","21","429559","0.0-5.0-2.2","44","1","2025-07-16 08:18:09","1f75c3e559b7213887762d5229550c2b","102.222.12.73","Mozilla/5.0 (Windows NT 10.0; Win64; x64) AppleWebKit/537.36 (KHTML, like Gecko) Chrome/138.0.0.0 Safari/537.36","WebKit","Chrome","138.0.0.0","Windows","10.0","https://app.prolific.com/","en-ZA,en-GB;q=0.9,en-US;q=0.8,en;q=0.7,en-GB-oxendict;q=0.6","605b838b80f022835fc293fb","686e379bc37a29ffa5cdc956","6877602cbd26b56847a41620","1","1","605b838b80f022835fc293fb","1","1","2025-07-16T08:25:20.979Z","","","","","","","","","","","ControlQ","","50","","","","","","","","","","","","","","","","","","","","","","","","","","","","",""
"4822","","<div style=""width:500px;"">
  <p>How would you describe your current emotional state?</p>
  </div>","64","html-slider-response","22","434384","0.0-5.0-3.2","44","1","2025-07-16 08:18:09","1f75c3e559b7213887762d5229550c2b","102.222.12.73","Mozilla/5.0 (Windows NT 10.0; Win64; x64) AppleWebKit/537.36 (KHTML, like Gecko) Chrome/138.0.0.0 Safari/537.36","WebKit","Chrome","138.0.0.0","Windows","10.0","https://app.prolific.com/","en-ZA,en-GB;q=0.9,en-US;q=0.8,en;q=0.7,en-GB-oxendict;q=0.6","605b838b80f022835fc293fb","686e379bc37a29ffa5cdc956","6877602cbd26b56847a41620","1","1","605b838b80f022835fc293fb","1","1","2025-07-16T08:25:25.803Z","","","","","","","","","","","StressQ","","50","","","","","","","","","","","","","","","","","","","","","","","","","","","","",""
"4072","","<div style=""width:500px;"">
  <p>What best describes how you currently feel?</p>
  </div>","58","html-slider-response","23","438458","0.0-5.0-4.2","44","1","2025-07-16 08:18:09","1f75c3e559b7213887762d5229550c2b","102.222.12.73","Mozilla/5.0 (Windows NT 10.0; Win64; x64) AppleWebKit/537.36 (KHTML, like Gecko) Chrome/138.0.0.0 Safari/537.36","WebKit","Chrome","138.0.0.0","Windows","10.0","https://app.prolific.com/","en-ZA,en-GB;q=0.9,en-US;q=0.8,en;q=0.7,en-GB-oxendict;q=0.6","605b838b80f022835fc293fb","686e379bc37a29ffa5cdc956","6877602cbd26b56847a41620","1","1","605b838b80f022835fc293fb","1","1","2025-07-16T08:25:29.877Z","","","","","","","","","","","MotivationQ","","50","","","","","","","","","","","","","","","","","","","","","","","","","","","","",""
"","","","","ctl-task-cpt","24","464063","0.0-5.0-0.3","44","1","2025-07-16 08:18:09","1f75c3e559b7213887762d5229550c2b","102.222.12.73","Mozilla/5.0 (Windows NT 10.0; Win64; x64) AppleWebKit/537.36 (KHTML, like Gecko) Chrome/138.0.0.0 Safari/537.36","WebKit","Chrome","138.0.0.0","Windows","10.0","https://app.prolific.com/","en-ZA,en-GB;q=0.9,en-US;q=0.8,en;q=0.7,en-GB-oxendict;q=0.6","605b838b80f022835fc293fb","686e379bc37a29ffa5cdc956","6877602cbd26b56847a41620","1","1","605b838b80f022835fc293fb","1","1","2025-07-16T08:25:55.482Z","","","","","","","","","","","","","","win-only","1","g1:NE,g2:SW","0.7","4","0","441918.6","2635.5","7639.5","22585.5","1","4","4","6","2","4","4","4","0","0.030303030303030304","1538.1","3000","845","[""down"",""left""]","{""num_key_presses"":6,""num_perfect"":6,""num_errors"":0,""num_randdir"":0,""num_randdir_good_moves"":0,""num_whilered"":0,""num_whileblue"":0,""num_blue"":0,""num_good_moves"":6}","[419.0714133126395,411.57142761775424,0.7,419.0714133126395,411.57142761775424,104.5,419.0714133126395,411.57142761775424,206.3,419.0714133126395,411.57142761775424,315.7,419.0714133126395,411.57142761775424,418,419.0714133126395,411.57142761775424,522.1,396.5714133126395,424.07142761775424,622.2,206.5714133126395,617.8214276177542,726.1,164.0714133126395,700.3214276177542,830.2,146.5714133126395,726.5714276177542,932.3,136.5714133126395,731.5714276177542,1033.4,126.5714133126395,734.0714276177542,1139.4,107.8214133126395,746.5714276177542,1241,100.3214133126395,751.5714276177542,1342.7,100.3214133126395,751.5714276177542,1446.1,100.3214133126395,751.5714276177542,1550.2,100.3214133126395,751.5714276177542,1656.3,100.3214133126395,751.5714276177542,1770.5,100.3214133126395,751.5714276177542,1870.8,100.3214133126395,751.5714276177542,1972.7,100.3214133126395,751.5714276177542,2080.3,100.3214133126395,751.5714276177542,2187.2,100.3214133126395,751.5714276177542,2287.9,100.3214133126395,751.5714276177542,2390.1,100.3214133126395,751.5714276177542,2490.6,100.3214133126395,751.5714276177542,2595.9,100.3214133126395,751.5714276177542,2703.1,100.3214133126395,751.5714276177542,2803.9,100.3214133126395,751.5714276177542,2908.2,100.3214133126395,751.5714276177542,3012.2,100.3214133126395,751.5714276177542,3119.1,100.3214133126395,751.5714276177542,3223.5,100.3214133126395,751.5714276177542,3325.5,100.3214133126395,751.5714276177542,3426.1,100.3214133126395,751.5714276177542,3526.1,100.3214133126395,751.5714276177542,3636.6,100.3214133126395,751.5714276177542,3742.2,100.3214133126395,751.5714276177542,3848.1,100.3214133126395,751.5714276177542,3953.4,100.3214133126395,751.5714276177542,4053.4,100.3214133126395,751.5714276177542,4155.9,100.3214133126395,751.5714276177542,4263.7,100.3214133126395,751.5714276177542,4370.4,100.3214133126395,751.5714276177542,4471.4,100.3214133126395,751.5714276177542,4573.5,100.3214133126395,751.5714276177542,4675.6,100.3214133126395,751.5714276177542,4775.7,100.3214133126395,751.5714276177542,4876.9,100.3214133126395,751.5714276177542,4977]","[1394.4,1394.4,1000,0,394.4,""smooth"",""down"",""down"",""good_move"",3761.9,2366.6,1974.8,1395.3,391.8,""smooth"",""down"",""down"",""good_move"",6413,2650.9,2257.7,3762.1,393.2,""smooth"",""down"",""down"",""good_move"",9462.5,3049.3,2682.1,6413.2,367.2,""smooth"",""left"",""left"",""good_move"",11860.7,2397.1,2011.5,9463.6,385.6,""smooth"",""left"",""left"",""good_move"",14840.2,2978.8,2464.7,11861.4,514.1,""smooth"",""left"",""left"",""good_move""]","",""
"5422","","<div style=""width:500px;"">
  <p>What determined the result of this run?</p>
  </div>","86","html-slider-response","25","469487","0.0-5.0-1.3","44","1","2025-07-16 08:18:09","1f75c3e559b7213887762d5229550c2b","102.222.12.73","Mozilla/5.0 (Windows NT 10.0; Win64; x64) AppleWebKit/537.36 (KHTML, like Gecko) Chrome/138.0.0.0 Safari/537.36","WebKit","Chrome","138.0.0.0","Windows","10.0","https://app.prolific.com/","en-ZA,en-GB;q=0.9,en-US;q=0.8,en;q=0.7,en-GB-oxendict;q=0.6","605b838b80f022835fc293fb","686e379bc37a29ffa5cdc956","6877602cbd26b56847a41620","1","1","605b838b80f022835fc293fb","1","1","2025-07-16T08:26:00.906Z","","","","","","","","","","","AttribQ","","50","","","","","","","","","","","","","","","","","","","","","","","","","","","","",""
"3932","","<div style=""width:500px;"">
  <p>How much control did you have over the ball?</p>
  </div>","70","html-slider-response","26","473421","0.0-5.0-2.3","44","1","2025-07-16 08:18:09","1f75c3e559b7213887762d5229550c2b","102.222.12.73","Mozilla/5.0 (Windows NT 10.0; Win64; x64) AppleWebKit/537.36 (KHTML, like Gecko) Chrome/138.0.0.0 Safari/537.36","WebKit","Chrome","138.0.0.0","Windows","10.0","https://app.prolific.com/","en-ZA,en-GB;q=0.9,en-US;q=0.8,en;q=0.7,en-GB-oxendict;q=0.6","605b838b80f022835fc293fb","686e379bc37a29ffa5cdc956","6877602cbd26b56847a41620","1","1","605b838b80f022835fc293fb","1","1","2025-07-16T08:26:04.840Z","","","","","","","","","","","ControlQ","","50","","","","","","","","","","","","","","","","","","","","","","","","","","","","",""
"3094","","<div style=""width:500px;"">
  <p>How would you describe your current emotional state?</p>
  </div>","39","html-slider-response","27","476517","0.0-5.0-3.3","44","1","2025-07-16 08:18:09","1f75c3e559b7213887762d5229550c2b","102.222.12.73","Mozilla/5.0 (Windows NT 10.0; Win64; x64) AppleWebKit/537.36 (KHTML, like Gecko) Chrome/138.0.0.0 Safari/537.36","WebKit","Chrome","138.0.0.0","Windows","10.0","https://app.prolific.com/","en-ZA,en-GB;q=0.9,en-US;q=0.8,en;q=0.7,en-GB-oxendict;q=0.6","605b838b80f022835fc293fb","686e379bc37a29ffa5cdc956","6877602cbd26b56847a41620","1","1","605b838b80f022835fc293fb","1","1","2025-07-16T08:26:07.936Z","","","","","","","","","","","StressQ","","50","","","","","","","","","","","","","","","","","","","","","","","","","","","","",""
"3604","","<div style=""width:500px;"">
  <p>What best describes how you currently feel?</p>
  </div>","67","html-slider-response","28","480122","0.0-5.0-4.3","44","1","2025-07-16 08:18:09","1f75c3e559b7213887762d5229550c2b","102.222.12.73","Mozilla/5.0 (Windows NT 10.0; Win64; x64) AppleWebKit/537.36 (KHTML, like Gecko) Chrome/138.0.0.0 Safari/537.36","WebKit","Chrome","138.0.0.0","Windows","10.0","https://app.prolific.com/","en-ZA,en-GB;q=0.9,en-US;q=0.8,en;q=0.7,en-GB-oxendict;q=0.6","605b838b80f022835fc293fb","686e379bc37a29ffa5cdc956","6877602cbd26b56847a41620","1","1","605b838b80f022835fc293fb","1","1","2025-07-16T08:26:11.541Z","","","","","","","","","","","MotivationQ","","50","","","","","","","","","","","","","","","","","","","","","","","","","","","","",""
"","","","","ctl-task-cpt","29","512803","0.0-5.0-0.4","44","1","2025-07-16 08:18:09","1f75c3e559b7213887762d5229550c2b","102.222.12.73","Mozilla/5.0 (Windows NT 10.0; Win64; x64) AppleWebKit/537.36 (KHTML, like Gecko) Chrome/138.0.0.0 Safari/537.36","WebKit","Chrome","138.0.0.0","Windows","10.0","https://app.prolific.com/","en-ZA,en-GB;q=0.9,en-US;q=0.8,en;q=0.7,en-GB-oxendict;q=0.6","605b838b80f022835fc293fb","686e379bc37a29ffa5cdc956","6877602cbd26b56847a41620","1","1","605b838b80f022835fc293fb","1","1","2025-07-16T08:26:44.222Z","","","","","","","","","","","","","","win-only","1","g1:NE,g2:SW","0.6","5","0","483582.1","2932","7933.3","29666","1","4","4","6","1","1","1","5","4","0.03787878787878788","2593.3","3000","1030","[""up"",""right""]","{""num_key_presses"":8,""num_perfect"":5,""num_errors"":0,""num_randdir"":3,""num_randdir_good_moves"":1,""num_whilered"":0,""num_whileblue"":0,""num_blue"":0,""num_good_moves"":6}","[415.3214133126395,412.82142761775424,0.7,415.3214133126395,412.82142761775424,100.6,415.3214133126395,412.82142761775424,201.6,415.3214133126395,412.82142761775424,310.1,415.3214133126395,412.82142761775424,418.3,415.3214133126395,412.82142761775424,527.2,415.3214133126395,412.82142761775424,629.2,394.0714133126395,426.57142761775424,734,206.5714133126395,612.8214276177542,836.3,121.5714133126395,714.0714276177542,936.4,91.5714133126395,736.5714276177542,1038.6,45.32141331263951,762.8214276177542,1138.7,41.57141331263951,762.8214276177542,1249.5,46.57141331263951,756.5714276177542,1352.8,147.8214133126395,665.3214276177542,1462,516.5714133126395,292.82142761775424,1568.2,606.5714133126395,230.32142761775424,1671.9,636.5714133126395,212.82142761775424,1773,711.5714133126395,162.82142761775424,1880,722.8214133126395,156.57142761775424,1985.8,749.0714133126395,111.57142761775425,2087.8,771.5714133126395,51.57142761775425,2192.9,775.3214133126395,44.07142761775425,2293.6,775.3214133126395,44.07142761775425,2400.7,775.3214133126395,44.07142761775425,2502.9,775.3214133126395,44.07142761775425,2613.1,775.3214133126395,44.07142761775425,2713.2,775.3214133126395,44.07142761775425,2827.5,775.3214133126395,44.07142761775425,2935.5,775.3214133126395,44.07142761775425,3044,610.3214133126395,296.57142761775424,3151.6,579.0714133126395,340.32142761775424,3256,579.0714133126395,340.32142761775424,3364.2,579.0714133126395,340.32142761775424,3469.6,579.0714133126395,340.32142761775424,3573.4,579.0714133126395,340.32142761775424,3679.8,579.0714133126395,340.32142761775424,3789.4,579.0714133126395,340.32142761775424,3893.7,579.0714133126395,340.32142761775424,4000.6,579.0714133126395,340.32142761775424,4105.1,579.0714133126395,340.32142761775424,4210.6,579.0714133126395,340.32142761775424,4310.9,579.0714133126395,340.32142761775424,4419.4,579.0714133126395,340.32142761775424,4526.4,579.0714133126395,340.32142761775424,4629.6,579.0714133126395,340.32142761775424,4729.6,579.0714133126395,340.32142761775424,4834.6,579.0714133126395,340.32142761775424,4936.8]","[1397.6,1397.7,1000,0,397.7,""oops"",""up"",""right"",""good_move"",4456.9,3058.2,2607.5,1398.7,450.7,""smooth"",""up"",""up"",""good_move"",7958.5,3501.1,3118.8,4457.4,382.3,""oops"",""up"",""down"",""bad_move"",10796.8,2837.2,2296,7959.6,541.2,""smooth"",""up"",""up"",""good_move"",13638.5,2841.5,2449.6,10797,391.9,""smooth"",""up"",""up"",""good_move"",16443.2,2804.4,2413,13638.8,391.4,""oops"",""right"",""down"",""bad_move"",19424.1,2980.7,2624.1,16443.4,356.6,""smooth"",""right"",""right"",""good_move"",21560.9,2135.8,1717.5,19425.1,418.3,""smooth"",""up"",""up"",""good_move""]","",""
"4200","","<div style=""width:500px;"">
  <p>What determined the result of this run?</p>
  </div>","66","html-slider-response","30","517005","0.0-5.0-1.4","44","1","2025-07-16 08:18:09","1f75c3e559b7213887762d5229550c2b","102.222.12.73","Mozilla/5.0 (Windows NT 10.0; Win64; x64) AppleWebKit/537.36 (KHTML, like Gecko) Chrome/138.0.0.0 Safari/537.36","WebKit","Chrome","138.0.0.0","Windows","10.0","https://app.prolific.com/","en-ZA,en-GB;q=0.9,en-US;q=0.8,en;q=0.7,en-GB-oxendict;q=0.6","605b838b80f022835fc293fb","686e379bc37a29ffa5cdc956","6877602cbd26b56847a41620","1","1","605b838b80f022835fc293fb","1","1","2025-07-16T08:26:48.424Z","","","","","","","","","","","AttribQ","","50","","","","","","","","","","","","","","","","","","","","","","","","","","","","",""
"5480","","<div style=""width:500px;"">
  <p>How much control did you have over the ball?</p>
  </div>","50","html-slider-response","31","522487","0.0-5.0-2.4","44","1","2025-07-16 08:18:09","1f75c3e559b7213887762d5229550c2b","102.222.12.73","Mozilla/5.0 (Windows NT 10.0; Win64; x64) AppleWebKit/537.36 (KHTML, like Gecko) Chrome/138.0.0.0 Safari/537.36","WebKit","Chrome","138.0.0.0","Windows","10.0","https://app.prolific.com/","en-ZA,en-GB;q=0.9,en-US;q=0.8,en;q=0.7,en-GB-oxendict;q=0.6","605b838b80f022835fc293fb","686e379bc37a29ffa5cdc956","6877602cbd26b56847a41620","1","1","605b838b80f022835fc293fb","1","1","2025-07-16T08:26:53.906Z","","","","","","","","","","","ControlQ","","50","","","","","","","","","","","","","","","","","","","","","","","","","","","","",""
"3136","","<div style=""width:500px;"">
  <p>How would you describe your current emotional state?</p>
  </div>","38","html-slider-response","32","525624","0.0-5.0-3.4","44","1","2025-07-16 08:18:09","1f75c3e559b7213887762d5229550c2b","102.222.12.73","Mozilla/5.0 (Windows NT 10.0; Win64; x64) AppleWebKit/537.36 (KHTML, like Gecko) Chrome/138.0.0.0 Safari/537.36","WebKit","Chrome","138.0.0.0","Windows","10.0","https://app.prolific.com/","en-ZA,en-GB;q=0.9,en-US;q=0.8,en;q=0.7,en-GB-oxendict;q=0.6","605b838b80f022835fc293fb","686e379bc37a29ffa5cdc956","6877602cbd26b56847a41620","1","1","605b838b80f022835fc293fb","1","1","2025-07-16T08:26:57.043Z","","","","","","","","","","","StressQ","","50","","","","","","","","","","","","","","","","","","","","","","","","","","","","",""
"3297","","<div style=""width:500px;"">
  <p>What best describes how you currently feel?</p>
  </div>","63","html-slider-response","33","528923","0.0-5.0-4.4","44","1","2025-07-16 08:18:09","1f75c3e559b7213887762d5229550c2b","102.222.12.73","Mozilla/5.0 (Windows NT 10.0; Win64; x64) AppleWebKit/537.36 (KHTML, like Gecko) Chrome/138.0.0.0 Safari/537.36","WebKit","Chrome","138.0.0.0","Windows","10.0","https://app.prolific.com/","en-ZA,en-GB;q=0.9,en-US;q=0.8,en;q=0.7,en-GB-oxendict;q=0.6","605b838b80f022835fc293fb","686e379bc37a29ffa5cdc956","6877602cbd26b56847a41620","1","1","605b838b80f022835fc293fb","1","1","2025-07-16T08:27:00.342Z","","","","","","","","","","","MotivationQ","","50","","","","","","","","","","","","","","","","","","","","","","","","","","","","",""
"","","","","ctl-task-cpt","34","577530","0.0-5.0-0.5","44","1","2025-07-16 08:18:09","1f75c3e559b7213887762d5229550c2b","102.222.12.73","Mozilla/5.0 (Windows NT 10.0; Win64; x64) AppleWebKit/537.36 (KHTML, like Gecko) Chrome/138.0.0.0 Safari/537.36","WebKit","Chrome","138.0.0.0","Windows","10.0","https://app.prolific.com/","en-ZA,en-GB;q=0.9,en-US;q=0.8,en;q=0.7,en-GB-oxendict;q=0.6","605b838b80f022835fc293fb","686e379bc37a29ffa5cdc956","6877602cbd26b56847a41620","1","1","605b838b80f022835fc293fb","1","1","2025-07-16T08:27:48.949Z","","","","","","","","","","","","","","win-only","3","g1:SW,g2:NE","0.5","6","0","532382.3","1514.9","6524.3","45573.1","1","4","8","6","2","8","8","13","5","0.09848484848484848","1709.6","3000","1495","[""up"",""right""]","{""num_key_presses"":10,""num_perfect"":5,""num_errors"":0,""num_randdir"":5,""num_randdir_good_moves"":3,""num_whilered"":0,""num_whileblue"":0,""num_blue"":3,""num_good_moves"":8}","[411.5714133126395,411.57142761775424,0.4,411.5714133126395,411.57142761775424,115.3,411.5714133126395,411.57142761775424,233.7,411.5714133126395,411.57142761775424,340.1,411.5714133126395,411.57142761775424,442.8,411.5714133126395,411.57142761775424,545.8,411.5714133126395,411.57142761775424,649.6,411.5714133126395,411.57142761775424,754,426.5714133126395,412.82142761775424,861.9,737.8214133126395,-34.67857238224575,975.1,761.5714133126395,-53.42857238224575,1083.2,754.0714133126395,-4.678572382245747,1190.1,741.5714133126395,47.82142761775425,1291.1,741.5714133126395,61.57142761775425,1394.8,740.3214133126395,71.57142761775425,1495.6,740.3214133126395,71.57142761775425,1596.2,740.3214133126395,71.57142761775425,1707,740.3214133126395,71.57142761775425,1817.1,740.3214133126395,71.57142761775425,1934.9,740.3214133126395,71.57142761775425,2041.4,740.3214133126395,71.57142761775425,2150.1,532.8214133126395,262.82142761775424,2251.5,427.8214133126395,342.82142761775424,2367.1,406.5714133126395,361.57142761775424,2479,405.3214133126395,361.57142761775424,2582.7,405.3214133126395,361.57142761775424,2684.3,405.3214133126395,361.57142761775424,2793.8,405.3214133126395,361.57142761775424,2903.7,405.3214133126395,361.57142761775424,3008.9,405.3214133126395,361.57142761775424,3115.9,405.3214133126395,361.57142761775424,3216.9,405.3214133126395,361.57142761775424,3318.3,405.3214133126395,361.57142761775424,3427.9,405.3214133126395,361.57142761775424,3533.4,405.3214133126395,361.57142761775424,3634.6,405.3214133126395,361.57142761775424,3735.8,405.3214133126395,361.57142761775424,3839,405.3214133126395,361.57142761775424,3944.3,405.3214133126395,361.57142761775424,4044.6,405.3214133126395,361.57142761775424,4159.3,405.3214133126395,361.57142761775424,4264.7,405.3214133126395,361.57142761775424,4369.1,405.3214133126395,361.57142761775424,4477.3,405.3214133126395,361.57142761775424,4582.2,405.3214133126395,361.57142761775424,4688.5,601.5714133126395,116.57142761775425,4791.3,751.5714133126395,-4.678572382245747,4894,804.0714133126395,-34.67857238224575,4995.3]","[1918.9,1918.9,1000,0,918.9,""oops"",""up"",""right"",""good_move"",11296.9,9376.8,2353.4,8519.8,423.7,""smooth"",""up"",""up"",""good_move"",13995.4,2698.2,1668,11297.3,1030.1,""smooth"",""up"",""up"",""good_move"",16953.1,2957.4,2526,13995.7,431.4,""oops"",""up"",""left"",""bad_move"",19742.2,2788.4,1804.4,16953.8,984,""oops"",""right"",""right"",""good_move"",23049.4,3307.1,2904.2,19742.4,402.9,""smooth"",""right"",""right"",""good_move"",29341,6291,2421.1,26471.6,448.3,""smooth"",""right"",""right"",""good_move"",32103.8,2762.6,2383.1,29341.2,379.5,""oops"",""up"",""left"",""bad_move"",35403.8,3299.7,2553.9,32104.1,745.9,""oops"",""up"",""up"",""good_move"",38717.2,3312.9,2478.7,35404.3,834.2,""smooth"",""right"",""right"",""good_move""]","",""
"4145","","<div style=""width:500px;"">
  <p>What determined the result of this run?</p>
  </div>","71","html-slider-response","35","581678","0.0-5.0-1.5","44","1","2025-07-16 08:18:09","1f75c3e559b7213887762d5229550c2b","102.222.12.73","Mozilla/5.0 (Windows NT 10.0; Win64; x64) AppleWebKit/537.36 (KHTML, like Gecko) Chrome/138.0.0.0 Safari/537.36","WebKit","Chrome","138.0.0.0","Windows","10.0","https://app.prolific.com/","en-ZA,en-GB;q=0.9,en-US;q=0.8,en;q=0.7,en-GB-oxendict;q=0.6","605b838b80f022835fc293fb","686e379bc37a29ffa5cdc956","6877602cbd26b56847a41620","1","1","605b838b80f022835fc293fb","1","1","2025-07-16T08:27:53.098Z","","","","","","","","","","","AttribQ","","50","","","","","","","","","","","","","","","","","","","","","","","","","","","","",""
"3091","","<div style=""width:500px;"">
  <p>How much control did you have over the ball?</p>
  </div>","64","html-slider-response","36","584778","0.0-5.0-2.5","44","1","2025-07-16 08:18:09","1f75c3e559b7213887762d5229550c2b","102.222.12.73","Mozilla/5.0 (Windows NT 10.0; Win64; x64) AppleWebKit/537.36 (KHTML, like Gecko) Chrome/138.0.0.0 Safari/537.36","WebKit","Chrome","138.0.0.0","Windows","10.0","https://app.prolific.com/","en-ZA,en-GB;q=0.9,en-US;q=0.8,en;q=0.7,en-GB-oxendict;q=0.6","605b838b80f022835fc293fb","686e379bc37a29ffa5cdc956","6877602cbd26b56847a41620","1","1","605b838b80f022835fc293fb","1","1","2025-07-16T08:27:56.197Z","","","","","","","","","","","ControlQ","","50","","","","","","","","","","","","","","","","","","","","","","","","","","","","",""
"2846","","<div style=""width:500px;"">
  <p>How would you describe your current emotional state?</p>
  </div>","34","html-slider-response","37","587628","0.0-5.0-3.5","44","1","2025-07-16 08:18:09","1f75c3e559b7213887762d5229550c2b","102.222.12.73","Mozilla/5.0 (Windows NT 10.0; Win64; x64) AppleWebKit/537.36 (KHTML, like Gecko) Chrome/138.0.0.0 Safari/537.36","WebKit","Chrome","138.0.0.0","Windows","10.0","https://app.prolific.com/","en-ZA,en-GB;q=0.9,en-US;q=0.8,en;q=0.7,en-GB-oxendict;q=0.6","605b838b80f022835fc293fb","686e379bc37a29ffa5cdc956","6877602cbd26b56847a41620","1","1","605b838b80f022835fc293fb","1","1","2025-07-16T08:27:59.047Z","","","","","","","","","","","StressQ","","50","","","","","","","","","","","","","","","","","","","","","","","","","","","","",""
"2536","","<div style=""width:500px;"">
  <p>What best describes how you currently feel?</p>
  </div>","63","html-slider-response","38","590167","0.0-5.0-4.5","44","1","2025-07-16 08:18:09","1f75c3e559b7213887762d5229550c2b","102.222.12.73","Mozilla/5.0 (Windows NT 10.0; Win64; x64) AppleWebKit/537.36 (KHTML, like Gecko) Chrome/138.0.0.0 Safari/537.36","WebKit","Chrome","138.0.0.0","Windows","10.0","https://app.prolific.com/","en-ZA,en-GB;q=0.9,en-US;q=0.8,en;q=0.7,en-GB-oxendict;q=0.6","605b838b80f022835fc293fb","686e379bc37a29ffa5cdc956","6877602cbd26b56847a41620","1","1","605b838b80f022835fc293fb","1","1","2025-07-16T08:28:01.586Z","","","","","","","","","","","MotivationQ","","50","","","","","","","","","","","","","","","","","","","","","","","","","","","","",""
"","","","","ctl-task-cpt","39","715280","0.0-5.0-0.6","44","1","2025-07-16 08:18:09","1f75c3e559b7213887762d5229550c2b","102.222.12.73","Mozilla/5.0 (Windows NT 10.0; Win64; x64) AppleWebKit/537.36 (KHTML, like Gecko) Chrome/138.0.0.0 Safari/537.36","WebKit","Chrome","138.0.0.0","Windows","10.0","https://app.prolific.com/","en-ZA,en-GB;q=0.9,en-US;q=0.8,en;q=0.7,en-GB-oxendict;q=0.6","605b838b80f022835fc293fb","686e379bc37a29ffa5cdc956","6877602cbd26b56847a41620","1","1","605b838b80f022835fc293fb","1","1","2025-07-16T08:30:06.699Z","","","","","","","","","","","","","","win-only","1","g1:NE,g2:SW","0.4","7","0","593632.2","1256","6267.3","122090.2","1","4","4","6","2","4","0","13","13","0.09848484848484848","1635.7","3000","635","[""down"",""left""]","{""num_key_presses"":29,""num_perfect"":11,""num_errors"":4,""num_randdir"":14,""num_randdir_good_moves"":5,""num_whilered"":0,""num_whileblue"":1,""num_blue"":4,""num_good_moves"":16}","[411.5714133126395,411.57142761775424,0.2,411.5714133126395,411.57142761775424,100.6,411.5714133126395,411.57142761775424,227.7,411.5714133126395,411.57142761775424,346.4,411.5714133126395,411.57142761775424,449.4,411.5714133126395,411.57142761775424,555.6,195.3214133126395,601.5714276177542,666.2,5.321413312639507,814.0714276177542,778.9,-4.678586687360493,816.5714276177542,887.1,-7.178586687360493,807.8214276177542,998.1,51.57141331263951,764.0714276177542,1113.8,74.0714133126395,756.5714276177542,1219.2,77.8214133126395,756.5714276177542,1333.9,79.0714133126395,756.5714276177542,1453.1,79.0714133126395,756.5714276177542,1571.8,79.0714133126395,756.5714276177542,1683.1,79.0714133126395,756.5714276177542,1789,79.0714133126395,756.5714276177542,1910.9,79.0714133126395,756.5714276177542,2027.3,79.0714133126395,756.5714276177542,2128.9,79.0714133126395,756.5714276177542,2229.5,79.0714133126395,756.5714276177542,2329.9,79.0714133126395,756.5714276177542,2430.5,79.0714133126395,756.5714276177542,2532.3,79.0714133126395,756.5714276177542,2637.9,79.0714133126395,756.5714276177542,2755.2,79.0714133126395,756.5714276177542,2862.4,79.0714133126395,756.5714276177542,2994.9,79.0714133126395,756.5714276177542,3105.2,79.0714133126395,756.5714276177542,3221,79.0714133126395,756.5714276177542,3332.1,79.0714133126395,756.5714276177542,3438.6,79.0714133126395,756.5714276177542,3552.6,79.0714133126395,756.5714276177542,3668.2,79.0714133126395,756.5714276177542,3783.4,79.0714133126395,756.5714276177542,3889.5,79.0714133126395,756.5714276177542,4004,79.0714133126395,756.5714276177542,4118.7,79.0714133126395,756.5714276177542,4227.7,79.0714133126395,756.5714276177542,4332.1,79.0714133126395,756.5714276177542,4447.9,79.0714133126395,756.5714276177542,4559.3,79.0714133126395,756.5714276177542,4676.4,79.0714133126395,756.5714276177542,4790.3,79.0714133126395,756.5714276177542,4913.4]","[1484.9,1484.9,1000,0,484.9,""oops"",""down"",""up"",""bad_move"",5359.1,3873.9,2689.1,1485.2,1184.8,""smooth"",""left"",""left"",""good_move"",9584.7,4225.4,2565,5359.3,1660.4,""oops"",""down"",""right"",""bad_move"",13119.1,3534,1902.3,12744.9,-1528.1,""error"",""-"",""-"",""no_move"",14562,1442.5,2201.8,14119.8,-1759.6,""error"",""-"",""-"",""no_move"",17436.3,2874.1,1336.5,15569,530.8,""smooth"",""down"",""down"",""good_move"",19947.5,2510.9,1933.7,17436.7,577.2,""oops"",""down"",""right"",""bad_move"",23147.8,3199.7,2737.9,19948.1,461.8,""smooth"",""left"",""left"",""good_move"",28055,4906.9,2156.8,23148.1,2750.1,""oops"",""left"",""right"",""bad_move"",31095.5,3040,2245.8,28055.6,794.1,""oops"",""left"",""left"",""good_move"",36100.2,5004.4,3037.9,31095.8,1966.5,""smooth"",""down"",""down"",""good_move"",37611.5,1511.1,2202.3,36100.4,-691.2,""error"",""-"",""-"",""no_move"",44960.6,7348.9,2534.9,41909.2,516.6,""oops"",""down"",""up"",""bad_move"",50052.3,5091.5,1848,44960.8,3243.5,""smooth"",""left"",""left"",""good_move"",55705,5652.4,4759.2,50052.6,893.2,""while_blue"",""left"",""up"",""bad_move"",61145.6,5440.3,2522.8,55705.3,2917.5,""oops"",""down"",""up"",""bad_move"",67520.1,6374.2,1675.2,61145.9,4699.1,""smooth"",""left"",""left"",""good_move"",72847.7,5327.3,2041.4,67520.4,3285.9,""oops"",""down"",""left"",""good_move"",78072.7,5224.8,2222.8,72847.9,3002,""smooth"",""down"",""down"",""good_move"",81666.4,3593.5,3192.2,78072.9,401.3,""smooth"",""down"",""down"",""good_move"",84706.9,3040.2,2585.8,81666.7,454.4,""oops"",""down"",""up"",""bad_move"",90166.4,5459.2,1437.3,84707.2,4021.9,""oops"",""down"",""down"",""good_move"",93848.1,3681.6,3116.7,90166.5,564.9,""oops"",""down"",""right"",""bad_move"",97237.5,3389.2,2489,93848.4,900.1,""oops"",""down"",""right"",""bad_move"",102772.8,5535.1,2049.8,100282,441,""oops"",""left"",""down"",""good_move"",105822.6,3049.5,2480.8,102773.1,568.7,""smooth"",""left"",""left"",""good_move"",108903.9,3081.1,2637.3,105822.8,443.8,""oops"",""left"",""left"",""good_move"",111802.8,2897.7,2467,108905.2,430.7,""smooth"",""down"",""down"",""good_move"",115456.9,3652.7,3256.6,111804.2,396.1,""smooth"",""down"",""down"",""good_move""]","",""
"5169","","<div style=""width:500px;"">
  <p>What determined the result of this run?</p>
  </div>","82","html-slider-response","40","720450","0.0-5.0-1.6","44","1","2025-07-16 08:18:09","1f75c3e559b7213887762d5229550c2b","102.222.12.73","Mozilla/5.0 (Windows NT 10.0; Win64; x64) AppleWebKit/537.36 (KHTML, like Gecko) Chrome/138.0.0.0 Safari/537.36","WebKit","Chrome","138.0.0.0","Windows","10.0","https://app.prolific.com/","en-ZA,en-GB;q=0.9,en-US;q=0.8,en;q=0.7,en-GB-oxendict;q=0.6","605b838b80f022835fc293fb","686e379bc37a29ffa5cdc956","6877602cbd26b56847a41620","1","1","605b838b80f022835fc293fb","1","1","2025-07-16T08:30:11.869Z","","","","","","","","","","","AttribQ","","50","","","","","","","","","","","","","","","","","","","","","","","","","","","","",""
"5124","","<div style=""width:500px;"">
  <p>How much control did you have over the ball?</p>
  </div>","36","html-slider-response","41","725576","0.0-5.0-2.6","44","1","2025-07-16 08:18:09","1f75c3e559b7213887762d5229550c2b","102.222.12.73","Mozilla/5.0 (Windows NT 10.0; Win64; x64) AppleWebKit/537.36 (KHTML, like Gecko) Chrome/138.0.0.0 Safari/537.36","WebKit","Chrome","138.0.0.0","Windows","10.0","https://app.prolific.com/","en-ZA,en-GB;q=0.9,en-US;q=0.8,en;q=0.7,en-GB-oxendict;q=0.6","605b838b80f022835fc293fb","686e379bc37a29ffa5cdc956","6877602cbd26b56847a41620","1","1","605b838b80f022835fc293fb","1","1","2025-07-16T08:30:16.995Z","","","","","","","","","","","ControlQ","","50","","","","","","","","","","","","","","","","","","","","","","","","","","","","",""
"3929","","<div style=""width:500px;"">
  <p>How would you describe your current emotional state?</p>
  </div>","31","html-slider-response","42","729507","0.0-5.0-3.6","44","1","2025-07-16 08:18:09","1f75c3e559b7213887762d5229550c2b","102.222.12.73","Mozilla/5.0 (Windows NT 10.0; Win64; x64) AppleWebKit/537.36 (KHTML, like Gecko) Chrome/138.0.0.0 Safari/537.36","WebKit","Chrome","138.0.0.0","Windows","10.0","https://app.prolific.com/","en-ZA,en-GB;q=0.9,en-US;q=0.8,en;q=0.7,en-GB-oxendict;q=0.6","605b838b80f022835fc293fb","686e379bc37a29ffa5cdc956","6877602cbd26b56847a41620","1","1","605b838b80f022835fc293fb","1","1","2025-07-16T08:30:20.927Z","","","","","","","","","","","StressQ","","50","","","","","","","","","","","","","","","","","","","","","","","","","","","","",""
"4310","","<div style=""width:500px;"">
  <p>What best describes how you currently feel?</p>
  </div>","81","html-slider-response","43","733820","0.0-5.0-4.6","44","1","2025-07-16 08:18:09","1f75c3e559b7213887762d5229550c2b","102.222.12.73","Mozilla/5.0 (Windows NT 10.0; Win64; x64) AppleWebKit/537.36 (KHTML, like Gecko) Chrome/138.0.0.0 Safari/537.36","WebKit","Chrome","138.0.0.0","Windows","10.0","https://app.prolific.com/","en-ZA,en-GB;q=0.9,en-US;q=0.8,en;q=0.7,en-GB-oxendict;q=0.6","605b838b80f022835fc293fb","686e379bc37a29ffa5cdc956","6877602cbd26b56847a41620","1","1","605b838b80f022835fc293fb","1","1","2025-07-16T08:30:25.239Z","","","","","","","","","","","MotivationQ","","50","","","","","","","","","","","","","","","","","","","","","","","","","","","","",""
"","","","","ctl-task-cpt","44","818700","0.0-5.0-0.7","44","1","2025-07-16 08:18:09","1f75c3e559b7213887762d5229550c2b","102.222.12.73","Mozilla/5.0 (Windows NT 10.0; Win64; x64) AppleWebKit/537.36 (KHTML, like Gecko) Chrome/138.0.0.0 Safari/537.36","WebKit","Chrome","138.0.0.0","Windows","10.0","https://app.prolific.com/","en-ZA,en-GB;q=0.9,en-US;q=0.8,en;q=0.7,en-GB-oxendict;q=0.6","605b838b80f022835fc293fb","686e379bc37a29ffa5cdc956","6877602cbd26b56847a41620","1","1","605b838b80f022835fc293fb","1","1","2025-07-16T08:31:50.119Z","","","","","","","","","","","","","","win-only","2","g1:SE,g2:NW","0.3","8","0","737280.3","1595.7","6604.9","81850.6","1","4","8","6","2","-8","-9","4","13","0.030303030303030304","1614.5","3000","-1220","[""left"",""up""]","{""num_key_presses"":21,""num_perfect"":6,""num_errors"":1,""num_randdir"":14,""num_randdir_good_moves"":6,""num_whilered"":0,""num_whileblue"":1,""num_blue"":5,""num_good_moves"":12}","[414.0714133126395,415.32142761775424,0.2,414.0714133126395,415.32142761775424,111.5,414.0714133126395,415.32142761775424,224.9,414.0714133126395,415.32142761775424,337.9,414.0714133126395,415.32142761775424,449.7,414.0714133126395,415.32142761775424,560.4,414.0714133126395,415.32142761775424,661.5,414.0714133126395,415.32142761775424,771.9,364.0714133126395,366.57142761775424,879.6,216.5714133126395,227.82142761775424,992.5,134.0714133126395,99.07142761775425,1106.5,107.8214133126395,61.57142761775425,1207.1,81.5714133126395,54.07142761775425,1307.2,80.3214133126395,54.07142761775425,1417.7,80.3214133126395,54.07142761775425,1532.5,80.3214133126395,54.07142761775425,1634.9,80.3214133126395,54.07142761775425,1741.5,80.3214133126395,54.07142761775425,1841.7,80.3214133126395,54.07142761775425,1949.1,80.3214133126395,54.07142761775425,2053.9,80.3214133126395,54.07142761775425,2165.8,80.3214133126395,54.07142761775425,2270.5,80.3214133126395,54.07142761775425,2376.5,80.3214133126395,54.07142761775425,2486.4,80.3214133126395,54.07142761775425,2598.5,80.3214133126395,54.07142761775425,2710.2,80.3214133126395,54.07142761775425,2818.1,80.3214133126395,54.07142761775425,2922.7,80.3214133126395,54.07142761775425,3023.2,80.3214133126395,54.07142761775425,3136.6,80.3214133126395,54.07142761775425,3239.8,80.3214133126395,54.07142761775425,3346.7,80.3214133126395,54.07142761775425,3455.6,80.3214133126395,54.07142761775425,3565.6,80.3214133126395,54.07142761775425,3665.6,80.3214133126395,54.07142761775425,3774.4,80.3214133126395,54.07142761775425,3888,80.3214133126395,54.07142761775425,4003.6,80.3214133126395,54.07142761775425,4109.8,80.3214133126395,54.07142761775425,4224.9,80.3214133126395,54.07142761775425,4333.6,80.3214133126395,54.07142761775425,4434.2,80.3214133126395,54.07142761775425,4540.3,80.3214133126395,54.07142761775425,4654.6,80.3214133126395,54.07142761775425,4755.1,80.3214133126395,54.07142761775425,4860.6,80.3214133126395,54.07142761775425,4969.4]","[1390.7,1390.7,1000,0,390.7,""smooth"",""left"",""left"",""good_move"",4322.8,2931.4,2296.6,1391.4,634.8,""oops"",""left"",""down"",""bad_move"",6777.2,2454,1933.6,4323.2,520.4,""oops"",""up"",""right"",""bad_move"",12884,6106.6,2487,9920.5,476.5,""oops"",""left"",""down"",""bad_move"",19014.6,6130.4,1924.1,16532.6,557.9,""oops"",""left"",""right"",""bad_move"",22205.7,3190.7,2788.2,19015,402.5,""oops"",""up"",""up"",""good_move"",24989.7,2783.5,2121.1,22206.2,662.4,""smooth"",""up"",""up"",""good_move"",27930,2940,2584.9,24990,355.1,""oops"",""left"",""right"",""bad_move"",30217,2286.5,1648.4,27930.5,638.1,""smooth"",""up"",""up"",""good_move"",36773.8,6556.4,2448,33876.4,449.4,""oops"",""up"",""down"",""bad_move"",38911.2,2137.1,1664.6,36774.1,472.5,""smooth"",""left"",""left"",""good_move"",42389.7,3477.4,3025.4,38912.4,451.9,""oops"",""left"",""up"",""good_move"",49223.2,6833.2,2850,45961,412.2,""smooth"",""left"",""left"",""good_move"",52090.4,2867.1,2128.1,49223.4,739,""oops"",""left"",""up"",""good_move"",55178.6,3087.8,2685.1,52090.8,402.7,""oops"",""left"",""right"",""bad_move"",58513.7,3332.6,2962.8,55181.2,369.8,""oops"",""up"",""right"",""bad_move"",61380.1,2865.6,2435,58514.5,430.6,""while_blue"",""left"",""down"",""bad_move"",64839.7,3459.3,2590.3,61380.4,869.1,""smooth"",""left"",""left"",""good_move"",67379.9,2540,2206.3,64839.9,333.7,""oops"",""left"",""left"",""good_move"",70189.4,2808.9,2352.2,67380.5,456.7,""oops"",""left"",""left"",""good_move"",72836.6,2646.8,1983.8,70189.8,663,""oops"",""left"",""left"",""good_move""]","",""
"5573","","<div style=""width:500px;"">
  <p>What determined the result of this run?</p>
  </div>","0","html-slider-response","45","824275","0.0-5.0-1.7","44","1","2025-07-16 08:18:09","1f75c3e559b7213887762d5229550c2b","102.222.12.73","Mozilla/5.0 (Windows NT 10.0; Win64; x64) AppleWebKit/537.36 (KHTML, like Gecko) Chrome/138.0.0.0 Safari/537.36","WebKit","Chrome","138.0.0.0","Windows","10.0","https://app.prolific.com/","en-ZA,en-GB;q=0.9,en-US;q=0.8,en;q=0.7,en-GB-oxendict;q=0.6","605b838b80f022835fc293fb","686e379bc37a29ffa5cdc956","6877602cbd26b56847a41620","1","1","605b838b80f022835fc293fb","1","1","2025-07-16T08:31:55.694Z","","","","","","","","","","","AttribQ","","50","","","","","","","","","","","","","","","","","","","","","","","","","","","","",""
"3500","","<div style=""width:500px;"">
  <p>How much control did you have over the ball?</p>
  </div>","3","html-slider-response","46","827777","0.0-5.0-2.7","44","1","2025-07-16 08:18:09","1f75c3e559b7213887762d5229550c2b","102.222.12.73","Mozilla/5.0 (Windows NT 10.0; Win64; x64) AppleWebKit/537.36 (KHTML, like Gecko) Chrome/138.0.0.0 Safari/537.36","WebKit","Chrome","138.0.0.0","Windows","10.0","https://app.prolific.com/","en-ZA,en-GB;q=0.9,en-US;q=0.8,en;q=0.7,en-GB-oxendict;q=0.6","605b838b80f022835fc293fb","686e379bc37a29ffa5cdc956","6877602cbd26b56847a41620","1","1","605b838b80f022835fc293fb","1","1","2025-07-16T08:31:59.196Z","","","","","","","","","","","ControlQ","","50","","","","","","","","","","","","","","","","","","","","","","","","","","","","",""
"3364","","<div style=""width:500px;"">
  <p>How would you describe your current emotional state?</p>
  </div>","55","html-slider-response","47","831143","0.0-5.0-3.7","44","1","2025-07-16 08:18:09","1f75c3e559b7213887762d5229550c2b","102.222.12.73","Mozilla/5.0 (Windows NT 10.0; Win64; x64) AppleWebKit/537.36 (KHTML, like Gecko) Chrome/138.0.0.0 Safari/537.36","WebKit","Chrome","138.0.0.0","Windows","10.0","https://app.prolific.com/","en-ZA,en-GB;q=0.9,en-US;q=0.8,en;q=0.7,en-GB-oxendict;q=0.6","605b838b80f022835fc293fb","686e379bc37a29ffa5cdc956","6877602cbd26b56847a41620","1","1","605b838b80f022835fc293fb","1","1","2025-07-16T08:32:02.562Z","","","","","","","","","","","StressQ","","50","","","","","","","","","","","","","","","","","","","","","","","","","","","","",""
"5693","","<div style=""width:500px;"">
  <p>What best describes how you currently feel?</p>
  </div>","68","html-slider-response","48","836838","0.0-5.0-4.7","44","1","2025-07-16 08:18:09","1f75c3e559b7213887762d5229550c2b","102.222.12.73","Mozilla/5.0 (Windows NT 10.0; Win64; x64) AppleWebKit/537.36 (KHTML, like Gecko) Chrome/138.0.0.0 Safari/537.36","WebKit","Chrome","138.0.0.0","Windows","10.0","https://app.prolific.com/","en-ZA,en-GB;q=0.9,en-US;q=0.8,en;q=0.7,en-GB-oxendict;q=0.6","605b838b80f022835fc293fb","686e379bc37a29ffa5cdc956","6877602cbd26b56847a41620","1","1","605b838b80f022835fc293fb","1","1","2025-07-16T08:32:08.257Z","","","","","","","","","","","MotivationQ","","50","","","","","","","","","","","","","","","","","","","","","","","","","","","","",""
"","","","","ctl-task-cpt","49","944559","0.0-5.0-0.8","44","1","2025-07-16 08:18:09","1f75c3e559b7213887762d5229550c2b","102.222.12.73","Mozilla/5.0 (Windows NT 10.0; Win64; x64) AppleWebKit/537.36 (KHTML, like Gecko) Chrome/138.0.0.0 Safari/537.36","WebKit","Chrome","138.0.0.0","Windows","10.0","https://app.prolific.com/","en-ZA,en-GB;q=0.9,en-US;q=0.8,en;q=0.7,en-GB-oxendict;q=0.6","605b838b80f022835fc293fb","686e379bc37a29ffa5cdc956","6877602cbd26b56847a41620","1","1","605b838b80f022835fc293fb","1","1","2025-07-16T08:33:55.978Z","","","","","","","","","","","","","","win-only","0","g1:NW,g2:SE","0.2","9","0","840299.9","1798.7","6802.6","104688.5","1","4","4","6","2","-4","-7","0","4","0","1799.9","3000","-810","[""down"",""right""]","{""num_key_presses"":25,""num_perfect"":5,""num_errors"":3,""num_randdir"":17,""num_randdir_good_moves"":6,""num_whilered"":0,""num_whileblue"":0,""num_blue"":6,""num_good_moves"":11}","[416.5714133126395,424.07142761775424,0.2,416.5714133126395,424.07142761775424,101.5,416.5714133126395,424.07142761775424,219.5,416.5714133126395,424.07142761775424,328.3,416.5714133126395,424.07142761775424,433.5,416.5714133126395,424.07142761775424,539.6,416.5714133126395,424.07142761775424,672.3,416.5714133126395,424.07142761775424,781.3,427.8214133126395,426.57142761775424,881.3,799.0714133126395,787.8214276177542,991.7,811.5714133126395,872.8214276177542,1094.4,806.5714133126395,882.8214276177542,1207.4,800.3214133126395,871.5714276177542,1308.7,764.0714133126395,780.3214276177542,1416.6,764.0714133126395,777.8214276177542,1520.1,764.0714133126395,776.5714276177542,1620.7,764.0714133126395,776.5714276177542,1732.2,764.0714133126395,776.5714276177542,1834.4,764.0714133126395,776.5714276177542,1945.1,764.0714133126395,776.5714276177542,2059.8,764.0714133126395,776.5714276177542,2169.6,764.0714133126395,776.5714276177542,2280.4,764.0714133126395,776.5714276177542,2380.4,764.0714133126395,776.5714276177542,2489.6,764.0714133126395,776.5714276177542,2598.9,764.0714133126395,776.5714276177542,2702.8,764.0714133126395,776.5714276177542,2808.1,764.0714133126395,776.5714276177542,2916.3,764.0714133126395,776.5714276177542,3021.6,764.0714133126395,776.5714276177542,3127.9,764.0714133126395,776.5714276177542,3241.9,764.0714133126395,776.5714276177542,3343.1,764.0714133126395,776.5714276177542,3450.4,764.0714133126395,776.5714276177542,3560.4,764.0714133126395,776.5714276177542,3669.3,764.0714133126395,776.5714276177542,3782.7,764.0714133126395,776.5714276177542,3890.6,764.0714133126395,776.5714276177542,3995,764.0714133126395,776.5714276177542,4103.7,764.0714133126395,776.5714276177542,4204.2,764.0714133126395,776.5714276177542,4312.5,764.0714133126395,776.5714276177542,4415.5,764.0714133126395,776.5714276177542,4521.4,764.0714133126395,776.5714276177542,4628.9,764.0714133126395,776.5714276177542,4732.6,764.0714133126395,776.5714276177542,4845.5,764.0714133126395,776.5714276177542,4952.4]","[1487.6,1487.7,1000,0,487.7,""smooth"",""down"",""down"",""good_move"",4186.1,2698,2326.9,1488.1,371.1,""smooth"",""down"",""down"",""good_move"",7171.6,2985.2,2605.1,4186.5,380,""oops"",""down"",""up"",""bad_move"",10150,2978,2422.5,7172,555.5,""oops"",""right"",""right"",""good_move"",13328,3177.7,2750.3,10150.3,427.4,""oops"",""right"",""left"",""bad_move"",16785.6,3457.3,2231,13328.3,1226.3,""oops"",""right"",""up"",""bad_move"",20194.3,3408.3,1987.2,16786,1421.1,""oops"",""down"",""down"",""good_move"",23119.8,2924.7,2546.9,20195.1,377.8,""oops"",""down"",""up"",""bad_move"",45220.9,22100.7,2567.5,42171.9,481.5,""oops"",""right"",""right"",""good_move"",48309,3087.9,2696.7,45221.1,391.2,""oops"",""right"",""down"",""good_move"",50933.6,2624.3,2074.2,48309.4,550.1,""oops"",""right"",""left"",""bad_move"",53923.6,2989.3,2602.8,50934.3,386.5,""smooth"",""down"",""down"",""good_move"",56940.6,3016.6,2622.6,53924,394,""oops"",""right"",""up"",""bad_move"",59817.9,2876.8,2249.1,56941.1,627.7,""oops"",""down"",""left"",""bad_move"",62738.4,2920.3,2481.2,59818.1,439.1,""oops"",""right"",""right"",""good_move"",65445.6,2706.9,2264.6,62738.7,442.3,""oops"",""right"",""left"",""bad_move"",69164.1,3718.2,2449.1,65445.9,1269.1,""oops"",""down"",""left"",""bad_move"",69262.4,97.7,3238.8,69164.7,-3141.1,""error"",""-"",""-"",""no_move"",73114.3,3851.7,2299.9,70267.9,546.5,""error"",""-"",""-"",""no_move"",76894.3,3779.6,2360.8,74127.5,406.1,""oops"",""down"",""up"",""bad_move"",80268.1,3373.4,2791.7,76894.7,581.7,""smooth"",""right"",""right"",""good_move"",80925.8,657.4,2778.6,80268.5,-2121.2,""error"",""-"",""-"",""no_move"",85572.2,4646.2,3003,81935.9,633.3,""oops"",""right"",""down"",""good_move"",91531.4,5958.6,2405.5,88522.9,603,""oops"",""right"",""up"",""bad_move"",94978.2,3446.4,2704.7,91531.8,741.7,""smooth"",""right"",""right"",""good_move""]","",""
"4253","","<div style=""width:500px;"">
  <p>What determined the result of this run?</p>
  </div>","0","html-slider-response","50","948814","0.0-5.0-1.8","44","1","2025-07-16 08:18:09","1f75c3e559b7213887762d5229550c2b","102.222.12.73","Mozilla/5.0 (Windows NT 10.0; Win64; x64) AppleWebKit/537.36 (KHTML, like Gecko) Chrome/138.0.0.0 Safari/537.36","WebKit","Chrome","138.0.0.0","Windows","10.0","https://app.prolific.com/","en-ZA,en-GB;q=0.9,en-US;q=0.8,en;q=0.7,en-GB-oxendict;q=0.6","605b838b80f022835fc293fb","686e379bc37a29ffa5cdc956","6877602cbd26b56847a41620","1","1","605b838b80f022835fc293fb","1","1","2025-07-16T08:34:00.233Z","","","","","","","","","","","AttribQ","","50","","","","","","","","","","","","","","","","","","","","","","","","","","","","",""
"3858","","<div style=""width:500px;"">
  <p>How much control did you have over the ball?</p>
  </div>","10","html-slider-response","51","952673","0.0-5.0-2.8","44","1","2025-07-16 08:18:09","1f75c3e559b7213887762d5229550c2b","102.222.12.73","Mozilla/5.0 (Windows NT 10.0; Win64; x64) AppleWebKit/537.36 (KHTML, like Gecko) Chrome/138.0.0.0 Safari/537.36","WebKit","Chrome","138.0.0.0","Windows","10.0","https://app.prolific.com/","en-ZA,en-GB;q=0.9,en-US;q=0.8,en;q=0.7,en-GB-oxendict;q=0.6","605b838b80f022835fc293fb","686e379bc37a29ffa5cdc956","6877602cbd26b56847a41620","1","1","605b838b80f022835fc293fb","1","1","2025-07-16T08:34:04.093Z","","","","","","","","","","","ControlQ","","50","","","","","","","","","","","","","","","","","","","","","","","","","","","","",""
"6636","","<div style=""width:500px;"">
  <p>How would you describe your current emotional state?</p>
  </div>","77","html-slider-response","52","959311","0.0-5.0-3.8","44","1","2025-07-16 08:18:09","1f75c3e559b7213887762d5229550c2b","102.222.12.73","Mozilla/5.0 (Windows NT 10.0; Win64; x64) AppleWebKit/537.36 (KHTML, like Gecko) Chrome/138.0.0.0 Safari/537.36","WebKit","Chrome","138.0.0.0","Windows","10.0","https://app.prolific.com/","en-ZA,en-GB;q=0.9,en-US;q=0.8,en;q=0.7,en-GB-oxendict;q=0.6","605b838b80f022835fc293fb","686e379bc37a29ffa5cdc956","6877602cbd26b56847a41620","1","1","605b838b80f022835fc293fb","1","1","2025-07-16T08:34:10.730Z","","","","","","","","","","","StressQ","","50","","","","","","","","","","","","","","","","","","","","","","","","","","","","",""
"4831","","<div style=""width:500px;"">
  <p>What best describes how you currently feel?</p>
  </div>","66","html-slider-response","53","964145","0.0-5.0-4.8","44","1","2025-07-16 08:18:09","1f75c3e559b7213887762d5229550c2b","102.222.12.73","Mozilla/5.0 (Windows NT 10.0; Win64; x64) AppleWebKit/537.36 (KHTML, like Gecko) Chrome/138.0.0.0 Safari/537.36","WebKit","Chrome","138.0.0.0","Windows","10.0","https://app.prolific.com/","en-ZA,en-GB;q=0.9,en-US;q=0.8,en;q=0.7,en-GB-oxendict;q=0.6","605b838b80f022835fc293fb","686e379bc37a29ffa5cdc956","6877602cbd26b56847a41620","1","1","605b838b80f022835fc293fb","1","1","2025-07-16T08:34:15.565Z","","","","","","","","","","","MotivationQ","","50","","","","","","","","","","","","","","","","","","","","","","","","","","","","",""
"","","","","ctl-task-cpt","54","1041052","0.0-5.0-0.9","44","1","2025-07-16 08:18:09","1f75c3e559b7213887762d5229550c2b","102.222.12.73","Mozilla/5.0 (Windows NT 10.0; Win64; x64) AppleWebKit/537.36 (KHTML, like Gecko) Chrome/138.0.0.0 Safari/537.36","WebKit","Chrome","138.0.0.0","Windows","10.0","https://app.prolific.com/","en-ZA,en-GB;q=0.9,en-US;q=0.8,en;q=0.7,en-GB-oxendict;q=0.6","605b838b80f022835fc293fb","686e379bc37a29ffa5cdc956","6877602cbd26b56847a41620","1","1","605b838b80f022835fc293fb","1","1","2025-07-16T08:35:32.471Z","","","","","","","","","","","","","","win-only","2","g1:SE,g2:NW","0.4","10","0","967607.8","1701.1","6715.9","73871.7","1","4","8","6","2","8","8","8","0","0.06060606060606061","2014.9","3000","1160","[""left"",""up""]","{""num_key_presses"":14,""num_perfect"":6,""num_errors"":0,""num_randdir"":8,""num_randdir_good_moves"":4,""num_whilered"":0,""num_whileblue"":0,""num_blue"":6,""num_good_moves"":10}","[417.8214133126395,409.07142761775424,0.6,417.8214133126395,409.07142761775424,103.9,417.8214133126395,409.07142761775424,212.5,417.8214133126395,409.07142761775424,328.1,417.8214133126395,409.07142761775424,431,417.8214133126395,409.07142761775424,544.7,417.8214133126395,409.07142761775424,657.2,417.8214133126395,409.07142761775424,757.4,347.8214133126395,352.82142761775424,870.2,184.0714133126395,114.07142761775425,975.4,174.0714133126395,55.32142761775425,1079.2,176.5714133126395,65.32142761775425,1195.1,180.3214133126395,84.07142761775425,1299.3,161.5714133126395,91.57142761775425,1400,81.5714133126395,94.07142761775425,1504.6,76.5714133126395,91.57142761775425,1607.3,77.8214133126395,91.57142761775425,1721.7,77.8214133126395,91.57142761775425,1835.1,77.8214133126395,91.57142761775425,1945.7,77.8214133126395,91.57142761775425,2061.4,77.8214133126395,91.57142761775425,2172.7,77.8214133126395,91.57142761775425,2290.4,77.8214133126395,91.57142761775425,2391.8,77.8214133126395,91.57142761775425,2493,77.8214133126395,91.57142761775425,2607.3,77.8214133126395,91.57142761775425,2717.1,77.8214133126395,91.57142761775425,2825.2,77.8214133126395,91.57142761775425,2959.4,77.8214133126395,91.57142761775425,3060.1,77.8214133126395,91.57142761775425,3176.4,77.8214133126395,91.57142761775425,3288.6,77.8214133126395,91.57142761775425,3401.8,77.8214133126395,91.57142761775425,3503.9,77.8214133126395,91.57142761775425,3617.7,77.8214133126395,91.57142761775425,3735.2,77.8214133126395,91.57142761775425,3850,77.8214133126395,91.57142761775425,3965.6,77.8214133126395,91.57142761775425,4073.8,77.8214133126395,91.57142761775425,4178.9,77.8214133126395,91.57142761775425,4287.1,77.8214133126395,91.57142761775425,4388.5,77.8214133126395,91.57142761775425,4499,77.8214133126395,91.57142761775425,4607.5,77.8214133126395,91.57142761775425,4721.6,77.8214133126395,91.57142761775425,4829.2,77.8214133126395,91.57142761775425,4932.8]","[7959.1,7959.1,1675.5,5925.4,358.2,""oops"",""left"",""right"",""bad_move"",11040.7,3081.4,2565.3,7959.4,516.1,""smooth"",""up"",""up"",""good_move"",14866.7,3825.5,2748.3,11041.2,1077.2,""smooth"",""up"",""up"",""good_move"",18547,3680.1,2683,14866.9,997.1,""oops"",""left"",""left"",""good_move"",27221.9,8674.6,3226.5,23523.2,472.2,""oops"",""left"",""left"",""good_move"",30754.3,3532,2968.4,27222.3,563.6,""smooth"",""left"",""left"",""good_move"",37118.2,6363.6,2259.5,34466.1,392.6,""oops"",""left"",""up"",""good_move"",44775.8,7657.1,2899.5,41451.2,425.1,""oops"",""left"",""down"",""bad_move"",51177.2,6401,2230.9,48470,476.3,""smooth"",""up"",""up"",""good_move"",54640.7,3463.2,2588.3,51177.5,874.9,""oops"",""left"",""right"",""bad_move"",57729.3,3088.3,2393.2,54641,695.1,""oops"",""left"",""down"",""bad_move"",60447.3,2717.6,2255.2,57729.7,462.4,""oops"",""up"",""left"",""good_move"",64164.6,3717,3277.4,60447.6,439.6,""smooth"",""up"",""up"",""good_move"",66897,2731.9,2346.5,64165.1,385.4,""smooth"",""left"",""left"",""good_move""]","",""
"3994","","<div style=""width:500px;"">
  <p>What determined the result of this run?</p>
  </div>","50","html-slider-response","55","1045047","0.0-5.0-1.9","44","1","2025-07-16 08:18:09","1f75c3e559b7213887762d5229550c2b","102.222.12.73","Mozilla/5.0 (Windows NT 10.0; Win64; x64) AppleWebKit/537.36 (KHTML, like Gecko) Chrome/138.0.0.0 Safari/537.36","WebKit","Chrome","138.0.0.0","Windows","10.0","https://app.prolific.com/","en-ZA,en-GB;q=0.9,en-US;q=0.8,en;q=0.7,en-GB-oxendict;q=0.6","605b838b80f022835fc293fb","686e379bc37a29ffa5cdc956","6877602cbd26b56847a41620","1","1","605b838b80f022835fc293fb","1","1","2025-07-16T08:35:36.466Z","","","","","","","","","","","AttribQ","","50","","","","","","","","","","","","","","","","","","","","","","","","","","","","",""
"4815","","<div style=""width:500px;"">
  <p>How much control did you have over the ball?</p>
  </div>","32","html-slider-response","56","1049865","0.0-5.0-2.9","44","1","2025-07-16 08:18:09","1f75c3e559b7213887762d5229550c2b","102.222.12.73","Mozilla/5.0 (Windows NT 10.0; Win64; x64) AppleWebKit/537.36 (KHTML, like Gecko) Chrome/138.0.0.0 Safari/537.36","WebKit","Chrome","138.0.0.0","Windows","10.0","https://app.prolific.com/","en-ZA,en-GB;q=0.9,en-US;q=0.8,en;q=0.7,en-GB-oxendict;q=0.6","605b838b80f022835fc293fb","686e379bc37a29ffa5cdc956","6877602cbd26b56847a41620","1","1","605b838b80f022835fc293fb","1","1","2025-07-16T08:35:41.284Z","","","","","","","","","","","ControlQ","","50","","","","","","","","","","","","","","","","","","","","","","","","","","","","",""
"3269","","<div style=""width:500px;"">
  <p>How would you describe your current emotional state?</p>
  </div>","50","html-slider-response","57","1053136","0.0-5.0-3.9","44","1","2025-07-16 08:18:09","1f75c3e559b7213887762d5229550c2b","102.222.12.73","Mozilla/5.0 (Windows NT 10.0; Win64; x64) AppleWebKit/537.36 (KHTML, like Gecko) Chrome/138.0.0.0 Safari/537.36","WebKit","Chrome","138.0.0.0","Windows","10.0","https://app.prolific.com/","en-ZA,en-GB;q=0.9,en-US;q=0.8,en;q=0.7,en-GB-oxendict;q=0.6","605b838b80f022835fc293fb","686e379bc37a29ffa5cdc956","6877602cbd26b56847a41620","1","1","605b838b80f022835fc293fb","1","1","2025-07-16T08:35:44.556Z","","","","","","","","","","","StressQ","","50","","","","","","","","","","","","","","","","","","","","","","","","","","","","",""
"2864","","<div style=""width:500px;"">
  <p>What best describes how you currently feel?</p>
  </div>","50","html-slider-response","58","1056003","0.0-5.0-4.9","44","1","2025-07-16 08:18:09","1f75c3e559b7213887762d5229550c2b","102.222.12.73","Mozilla/5.0 (Windows NT 10.0; Win64; x64) AppleWebKit/537.36 (KHTML, like Gecko) Chrome/138.0.0.0 Safari/537.36","WebKit","Chrome","138.0.0.0","Windows","10.0","https://app.prolific.com/","en-ZA,en-GB;q=0.9,en-US;q=0.8,en;q=0.7,en-GB-oxendict;q=0.6","605b838b80f022835fc293fb","686e379bc37a29ffa5cdc956","6877602cbd26b56847a41620","1","1","605b838b80f022835fc293fb","1","1","2025-07-16T08:35:47.422Z","","","","","","","","","","","MotivationQ","","50","","","","","","","","","","","","","","","","","","","","","","","","","","","","",""
"","","","","ctl-task-cpt","59","1092131","0.0-5.0-0.10","44","1","2025-07-16 08:18:09","1f75c3e559b7213887762d5229550c2b","102.222.12.73","Mozilla/5.0 (Windows NT 10.0; Win64; x64) AppleWebKit/537.36 (KHTML, like Gecko) Chrome/138.0.0.0 Safari/537.36","WebKit","Chrome","138.0.0.0","Windows","10.0","https://app.prolific.com/","en-ZA,en-GB;q=0.9,en-US;q=0.8,en;q=0.7,en-GB-oxendict;q=0.6","605b838b80f022835fc293fb","686e379bc37a29ffa5cdc956","6877602cbd26b56847a41620","1","1","605b838b80f022835fc293fb","1","1","2025-07-16T08:36:23.550Z","","","","","","","","","","","","","","win-only","0","g1:NW,g2:SE","0.5","11","0","1059463.8","1507.5","6524.2","33101.3","1","4","8","6","2","8","8","16","8","0.12121212121212122","1598.1","3000","2055","[""down"",""right""]","{""num_key_presses"":8,""num_perfect"":5,""num_errors"":0,""num_randdir"":3,""num_randdir_good_moves"":2,""num_whilered"":0,""num_whileblue"":0,""num_blue"":1,""num_good_moves"":7}","[420.3214133126395,416.57142761775424,0.2,420.3214133126395,416.57142761775424,119.1,420.3214133126395,416.57142761775424,230.9,420.3214133126395,416.57142761775424,333.3,420.3214133126395,416.57142761775424,445.6,420.3214133126395,416.57142761775424,555.9,420.3214133126395,416.57142761775424,661.3,604.0714133126395,651.5714276177542,786.5,654.0714133126395,729.0714276177542,886.5,669.0714133126395,755.3214276177542,1008.7,695.3214133126395,764.0714276177542,1115.8,695.3214133126395,764.0714276177542,1240.1,695.3214133126395,764.0714276177542,1352.8,695.3214133126395,764.0714276177542,1466.8,695.3214133126395,764.0714276177542,1576.2,695.3214133126395,764.0714276177542,1682.4,695.3214133126395,764.0714276177542,1789.5,695.3214133126395,764.0714276177542,1892.1,695.3214133126395,764.0714276177542,2001.7,695.3214133126395,764.0714276177542,2119.3,695.3214133126395,764.0714276177542,2226.8,695.3214133126395,764.0714276177542,2345.5,695.3214133126395,764.0714276177542,2459.2,695.3214133126395,764.0714276177542,2561.5,695.3214133126395,764.0714276177542,2663.9,695.3214133126395,764.0714276177542,2779.1,695.3214133126395,764.0714276177542,2886.5,695.3214133126395,764.0714276177542,2992.5,695.3214133126395,764.0714276177542,3097.4,695.3214133126395,764.0714276177542,3217.8,695.3214133126395,764.0714276177542,3342.7,695.3214133126395,764.0714276177542,3451.7,695.3214133126395,764.0714276177542,3553.8,695.3214133126395,764.0714276177542,3653.9,695.3214133126395,764.0714276177542,3761.2,695.3214133126395,764.0714276177542,3875.9,695.3214133126395,764.0714276177542,3977.6,695.3214133126395,764.0714276177542,4080.9,695.3214133126395,764.0714276177542,4204.6,695.3214133126395,764.0714276177542,4326.8,695.3214133126395,764.0714276177542,4442.6,695.3214133126395,764.0714276177542,4560.7,695.3214133126395,764.0714276177542,4672.7,695.3214133126395,764.0714276177542,4778.6,695.3214133126395,764.0714276177542,4892.2]","[1514.6,1514.6,1000,0,514.6,""smooth"",""down"",""down"",""good_move"",4349.4,2834.3,2333.8,1515.1,500.5,""smooth"",""down"",""down"",""good_move"",7192.8,2843.2,2432.7,4349.6,410.6,""smooth"",""down"",""down"",""good_move"",10405.1,3212,2814.2,7193.1,397.8,""smooth"",""right"",""right"",""good_move"",17625,7219.6,2942.3,14224.9,457.9,""oops"",""right"",""up"",""bad_move"",20714.1,3087.1,1555.3,17627,1531.8,""oops"",""right"",""right"",""good_move"",23168.7,2454.3,1990,20714.4,464.3,""smooth"",""right"",""right"",""good_move"",26318.4,3149.5,2745.3,23168.9,404.2,""oops"",""down"",""down"",""good_move""]","",""
"3327","","<div style=""width:500px;"">
  <p>What determined the result of this run?</p>
  </div>","50","html-slider-response","60","1095459","0.0-5.0-1.10","44","1","2025-07-16 08:18:09","1f75c3e559b7213887762d5229550c2b","102.222.12.73","Mozilla/5.0 (Windows NT 10.0; Win64; x64) AppleWebKit/537.36 (KHTML, like Gecko) Chrome/138.0.0.0 Safari/537.36","WebKit","Chrome","138.0.0.0","Windows","10.0","https://app.prolific.com/","en-ZA,en-GB;q=0.9,en-US;q=0.8,en;q=0.7,en-GB-oxendict;q=0.6","605b838b80f022835fc293fb","686e379bc37a29ffa5cdc956","6877602cbd26b56847a41620","1","1","605b838b80f022835fc293fb","1","1","2025-07-16T08:36:26.878Z","","","","","","","","","","","AttribQ","","50","","","","","","","","","","","","","","","","","","","","","","","","","","","","",""
"2559","","<div style=""width:500px;"">
  <p>How much control did you have over the ball?</p>
  </div>","50","html-slider-response","61","1098020","0.0-5.0-2.10","44","1","2025-07-16 08:18:09","1f75c3e559b7213887762d5229550c2b","102.222.12.73","Mozilla/5.0 (Windows NT 10.0; Win64; x64) AppleWebKit/537.36 (KHTML, like Gecko) Chrome/138.0.0.0 Safari/537.36","WebKit","Chrome","138.0.0.0","Windows","10.0","https://app.prolific.com/","en-ZA,en-GB;q=0.9,en-US;q=0.8,en;q=0.7,en-GB-oxendict;q=0.6","605b838b80f022835fc293fb","686e379bc37a29ffa5cdc956","6877602cbd26b56847a41620","1","1","605b838b80f022835fc293fb","1","1","2025-07-16T08:36:29.440Z","","","","","","","","","","","ControlQ","","50","","","","","","","","","","","","","","","","","","","","","","","","","","","","",""
"2939","","<div style=""width:500px;"">
  <p>How would you describe your current emotional state?</p>
  </div>","36","html-slider-response","62","1100961","0.0-5.0-3.10","44","1","2025-07-16 08:18:09","1f75c3e559b7213887762d5229550c2b","102.222.12.73","Mozilla/5.0 (Windows NT 10.0; Win64; x64) AppleWebKit/537.36 (KHTML, like Gecko) Chrome/138.0.0.0 Safari/537.36","WebKit","Chrome","138.0.0.0","Windows","10.0","https://app.prolific.com/","en-ZA,en-GB;q=0.9,en-US;q=0.8,en;q=0.7,en-GB-oxendict;q=0.6","605b838b80f022835fc293fb","686e379bc37a29ffa5cdc956","6877602cbd26b56847a41620","1","1","605b838b80f022835fc293fb","1","1","2025-07-16T08:36:32.380Z","","","","","","","","","","","StressQ","","50","","","","","","","","","","","","","","","","","","","","","","","","","","","","",""
"2584","","<div style=""width:500px;"">
  <p>What best describes how you currently feel?</p>
  </div>","50","html-slider-response","63","1103547","0.0-5.0-4.10","44","1","2025-07-16 08:18:09","1f75c3e559b7213887762d5229550c2b","102.222.12.73","Mozilla/5.0 (Windows NT 10.0; Win64; x64) AppleWebKit/537.36 (KHTML, like Gecko) Chrome/138.0.0.0 Safari/537.36","WebKit","Chrome","138.0.0.0","Windows","10.0","https://app.prolific.com/","en-ZA,en-GB;q=0.9,en-US;q=0.8,en;q=0.7,en-GB-oxendict;q=0.6","605b838b80f022835fc293fb","686e379bc37a29ffa5cdc956","6877602cbd26b56847a41620","1","1","605b838b80f022835fc293fb","1","1","2025-07-16T08:36:34.966Z","","","","","","","","","","","MotivationQ","","50","","","","","","","","","","","","","","","","","","","","","","","","","","","","",""
"","","","","ctl-task-cpt","64","1142952","0.0-5.0-0.11","44","1","2025-07-16 08:18:09","1f75c3e559b7213887762d5229550c2b","102.222.12.73","Mozilla/5.0 (Windows NT 10.0; Win64; x64) AppleWebKit/537.36 (KHTML, like Gecko) Chrome/138.0.0.0 Safari/537.36","WebKit","Chrome","138.0.0.0","Windows","10.0","https://app.prolific.com/","en-ZA,en-GB;q=0.9,en-US;q=0.8,en;q=0.7,en-GB-oxendict;q=0.6","605b838b80f022835fc293fb","686e379bc37a29ffa5cdc956","6877602cbd26b56847a41620","1","1","605b838b80f022835fc293fb","1","1","2025-07-16T08:37:14.371Z","","","","","","","","","","","","","","win-only","2","g1:SE,g2:NW","0.6","12","0","1107007.7","1604.9","6621.7","36367.5","1","4","4","6","2","4","4","20","16","0.15151515151515152","2023.5","3000","2100","[""left"",""up""]","{""num_key_presses"":8,""num_perfect"":5,""num_errors"":0,""num_randdir"":3,""num_randdir_good_moves"":2,""num_whilered"":0,""num_whileblue"":0,""num_blue"":1,""num_good_moves"":7}","[416.5714133126395,421.57142761775424,0.4,416.5714133126395,421.57142761775424,103.9,416.5714133126395,421.57142761775424,207.5,416.5714133126395,421.57142761775424,328.4,416.5714133126395,421.57142761775424,441.8,416.5714133126395,421.57142761775424,557.2,416.5714133126395,421.57142761775424,670.2,260.3214133126395,306.57142761775424,773.7,132.8214133126395,186.57142761775424,888.7,105.3214133126395,154.07142761775424,1001.6,102.8214133126395,147.82142761775424,1111.9,101.5714133126395,145.32142761775424,1220.2,101.5714133126395,145.32142761775424,1327.1,101.5714133126395,145.32142761775424,1433.4,101.5714133126395,126.57142761775425,1539.6,101.5714133126395,104.07142761775425,1643,101.5714133126395,101.57142761775425,1745.4,101.5714133126395,101.57142761775425,1855.6,101.5714133126395,101.57142761775425,1963.3,101.5714133126395,101.57142761775425,2070.6,101.5714133126395,101.57142761775425,2188.4,101.5714133126395,101.57142761775425,2300.6,101.5714133126395,101.57142761775425,2418.7,101.5714133126395,101.57142761775425,2537.2,101.5714133126395,101.57142761775425,2637.9,101.5714133126395,101.57142761775425,2739.3,101.5714133126395,101.57142761775425,2849.4,101.5714133126395,101.57142761775425,2959,101.5714133126395,101.57142761775425,3065,101.5714133126395,101.57142761775425,3175.5,101.5714133126395,101.57142761775425,3279.1,101.5714133126395,101.57142761775425,3390.8,101.5714133126395,101.57142761775425,3501,101.5714133126395,101.57142761775425,3613.6,101.5714133126395,101.57142761775425,3729.5,101.5714133126395,101.57142761775425,3847.3,101.5714133126395,101.57142761775425,3962.8,101.5714133126395,101.57142761775425,4065.5,101.5714133126395,101.57142761775425,4167.7,101.5714133126395,101.57142761775425,4272.7,101.5714133126395,101.57142761775425,4390.9,101.5714133126395,101.57142761775425,4535.6,101.5714133126395,101.57142761775425,4636.4,101.5714133126395,101.57142761775425,4739.3,101.5714133126395,101.57142761775425,4847.8,101.5714133126395,101.57142761775425,4956.2]","[1453,1453,1000,0,453,""oops"",""left"",""up"",""good_move"",9051.9,7598.5,3357.7,5251,443.2,""oops"",""left"",""right"",""bad_move"",11743,2690.9,2263.4,9052.1,427.5,""smooth"",""up"",""up"",""good_move"",15944.8,4201.6,2618.6,11743.2,1583,""oops"",""up"",""left"",""good_move"",19451.6,3506.5,2509.4,15945.1,997.1,""smooth"",""up"",""up"",""good_move"",22717.6,3265.6,2037.8,19452,1227.8,""smooth"",""left"",""left"",""good_move"",25861.5,3143.7,2604.8,22717.9,538.9,""smooth"",""left"",""left"",""good_move"",29388.6,3526.8,2162.5,25861.8,1364.3,""smooth"",""left"",""left"",""good_move""]","",""
"2369","","<div style=""width:500px;"">
  <p>What determined the result of this run?</p>
  </div>","50","html-slider-response","65","1145322","0.0-5.0-1.11","44","1","2025-07-16 08:18:09","1f75c3e559b7213887762d5229550c2b","102.222.12.73","Mozilla/5.0 (Windows NT 10.0; Win64; x64) AppleWebKit/537.36 (KHTML, like Gecko) Chrome/138.0.0.0 Safari/537.36","WebKit","Chrome","138.0.0.0","Windows","10.0","https://app.prolific.com/","en-ZA,en-GB;q=0.9,en-US;q=0.8,en;q=0.7,en-GB-oxendict;q=0.6","605b838b80f022835fc293fb","686e379bc37a29ffa5cdc956","6877602cbd26b56847a41620","1","1","605b838b80f022835fc293fb","1","1","2025-07-16T08:37:16.741Z","","","","","","","","","","","AttribQ","","50","","","","","","","","","","","","","","","","","","","","","","","","","","","","",""
"2716","","<div style=""width:500px;"">
  <p>How much control did you have over the ball?</p>
  </div>","50","html-slider-response","66","1148041","0.0-5.0-2.11","44","1","2025-07-16 08:18:09","1f75c3e559b7213887762d5229550c2b","102.222.12.73","Mozilla/5.0 (Windows NT 10.0; Win64; x64) AppleWebKit/537.36 (KHTML, like Gecko) Chrome/138.0.0.0 Safari/537.36","WebKit","Chrome","138.0.0.0","Windows","10.0","https://app.prolific.com/","en-ZA,en-GB;q=0.9,en-US;q=0.8,en;q=0.7,en-GB-oxendict;q=0.6","605b838b80f022835fc293fb","686e379bc37a29ffa5cdc956","6877602cbd26b56847a41620","1","1","605b838b80f022835fc293fb","1","1","2025-07-16T08:37:19.460Z","","","","","","","","","","","ControlQ","","50","","","","","","","","","","","","","","","","","","","","","","","","","","","","",""
"2299","","<div style=""width:500px;"">
  <p>How would you describe your current emotional state?</p>
  </div>","38","html-slider-response","67","1150341","0.0-5.0-3.11","44","1","2025-07-16 08:18:09","1f75c3e559b7213887762d5229550c2b","102.222.12.73","Mozilla/5.0 (Windows NT 10.0; Win64; x64) AppleWebKit/537.36 (KHTML, like Gecko) Chrome/138.0.0.0 Safari/537.36","WebKit","Chrome","138.0.0.0","Windows","10.0","https://app.prolific.com/","en-ZA,en-GB;q=0.9,en-US;q=0.8,en;q=0.7,en-GB-oxendict;q=0.6","605b838b80f022835fc293fb","686e379bc37a29ffa5cdc956","6877602cbd26b56847a41620","1","1","605b838b80f022835fc293fb","1","1","2025-07-16T08:37:21.760Z","","","","","","","","","","","StressQ","","50","","","","","","","","","","","","","","","","","","","","","","","","","","","","",""
"2798","","<div style=""width:500px;"">
  <p>What best describes how you currently feel?</p>
  </div>","50","html-slider-response","68","1153141","0.0-5.0-4.11","44","1","2025-07-16 08:18:09","1f75c3e559b7213887762d5229550c2b","102.222.12.73","Mozilla/5.0 (Windows NT 10.0; Win64; x64) AppleWebKit/537.36 (KHTML, like Gecko) Chrome/138.0.0.0 Safari/537.36","WebKit","Chrome","138.0.0.0","Windows","10.0","https://app.prolific.com/","en-ZA,en-GB;q=0.9,en-US;q=0.8,en;q=0.7,en-GB-oxendict;q=0.6","605b838b80f022835fc293fb","686e379bc37a29ffa5cdc956","6877602cbd26b56847a41620","1","1","605b838b80f022835fc293fb","1","1","2025-07-16T08:37:24.560Z","","","","","","","","","","","MotivationQ","","50","","","","","","","","","","","","","","","","","","","","","","","","","","","","",""
"","","","","ctl-task-cpt","69","1205050","0.0-5.0-0.12","44","1","2025-07-16 08:18:09","1f75c3e559b7213887762d5229550c2b","102.222.12.73","Mozilla/5.0 (Windows NT 10.0; Win64; x64) AppleWebKit/537.36 (KHTML, like Gecko) Chrome/138.0.0.0 Safari/537.36","WebKit","Chrome","138.0.0.0","Windows","10.0","https://app.prolific.com/","en-ZA,en-GB;q=0.9,en-US;q=0.8,en;q=0.7,en-GB-oxendict;q=0.6","605b838b80f022835fc293fb","686e379bc37a29ffa5cdc956","6877602cbd26b56847a41620","1","1","605b838b80f022835fc293fb","1","1","2025-07-16T08:38:16.469Z","","","","","","","","","","","","","","win-only","2","g1:SE,g2:NW","0.7","13","0","1156601.2","1532.4","6546.3","48880.3","1","4","4","6","2","4","4","24","20","0.18181818181818182","1255.3","3000","2060","[""left"",""up""]","{""num_key_presses"":8,""num_perfect"":5,""num_errors"":0,""num_randdir"":3,""num_randdir_good_moves"":2,""num_whilered"":0,""num_whileblue"":0,""num_blue"":4,""num_good_moves"":7}","[417.8214133126395,414.07142761775424,0.3,417.8214133126395,414.07142761775424,102.3,417.8214133126395,414.07142761775424,224.2,417.8214133126395,414.07142761775424,349.4,417.8214133126395,414.07142761775424,452.2,417.8214133126395,414.07142761775424,570,197.8214133126395,191.57142761775424,690.9,129.0714133126395,112.82142761775425,791.1,101.5714133126395,79.07142761775425,922.5,99.0714133126395,76.57142761775425,1037.2,99.0714133126395,76.57142761775425,1144,99.0714133126395,76.57142761775425,1261.7,99.0714133126395,76.57142761775425,1367,99.0714133126395,76.57142761775425,1483.3,99.0714133126395,76.57142761775425,1598.7,99.0714133126395,76.57142761775425,1724.7,99.0714133126395,76.57142761775425,1833.8,99.0714133126395,76.57142761775425,1949.2,99.0714133126395,76.57142761775425,2068.9,99.0714133126395,76.57142761775425,2170.1,99.0714133126395,76.57142761775425,2272.4,99.0714133126395,76.57142761775425,2376.1,99.0714133126395,76.57142761775425,2481.9,99.0714133126395,76.57142761775425,2587.2,99.0714133126395,76.57142761775425,2703.9,99.0714133126395,76.57142761775425,2813.2,99.0714133126395,76.57142761775425,2916.1,99.0714133126395,76.57142761775425,3047.3,99.0714133126395,76.57142761775425,3168.3,99.0714133126395,76.57142761775425,3276.7,99.0714133126395,76.57142761775425,3378.6,99.0714133126395,76.57142761775425,3486.8,99.0714133126395,76.57142761775425,3599,99.0714133126395,76.57142761775425,3711.3,99.0714133126395,76.57142761775425,3814.9,99.0714133126395,76.57142761775425,3939.5,99.0714133126395,76.57142761775425,4048,99.0714133126395,76.57142761775425,4164,99.0714133126395,76.57142761775425,4281.5,99.0714133126395,76.57142761775425,4398.8,99.0714133126395,76.57142761775425,4509.5,99.0714133126395,76.57142761775425,4612.6,99.0714133126395,76.57142761775425,4733.2,99.0714133126395,76.57142761775425,4852.9,99.0714133126395,76.57142761775425,4966.7]","[4354.6,4354.6,1895.5,2018.4,440.7,""smooth"",""up"",""up"",""good_move"",7886.7,3531.6,2679.8,4355.1,851.9,""smooth"",""up"",""up"",""good_move"",15215,7327.9,2350,12340.8,524.2,""smooth"",""left"",""left"",""good_move"",19085.2,3869.7,2138.2,15215.5,1731.5,""smooth"",""left"",""left"",""good_move"",26805.6,7720.1,3172.7,23189.3,443.6,""oops"",""up"",""right"",""bad_move"",29438.1,2631.6,2107.9,26806.6,523.6,""smooth"",""left"",""left"",""good_move"",33915,4476.6,2451.8,29438.4,2024.8,""oops"",""left"",""up"",""good_move"",41999.9,8084.5,2569,39042.7,388.2,""oops"",""left"",""left"",""good_move""]","",""
"3213","","<div style=""width:500px;"">
  <p>What determined the result of this run?</p>
  </div>","50","html-slider-response","70","1208265","0.0-5.0-1.12","44","1","2025-07-16 08:18:09","1f75c3e559b7213887762d5229550c2b","102.222.12.73","Mozilla/5.0 (Windows NT 10.0; Win64; x64) AppleWebKit/537.36 (KHTML, like Gecko) Chrome/138.0.0.0 Safari/537.36","WebKit","Chrome","138.0.0.0","Windows","10.0","https://app.prolific.com/","en-ZA,en-GB;q=0.9,en-US;q=0.8,en;q=0.7,en-GB-oxendict;q=0.6","605b838b80f022835fc293fb","686e379bc37a29ffa5cdc956","6877602cbd26b56847a41620","1","1","605b838b80f022835fc293fb","1","1","2025-07-16T08:38:19.685Z","","","","","","","","","","","AttribQ","","50","","","","","","","","","","","","","","","","","","","","","","","","","","","","",""
"6421","","<div style=""width:500px;"">
  <p>How much control did you have over the ball?</p>
  </div>","50","html-slider-response","71","1214689","0.0-5.0-2.12","44","1","2025-07-16 08:18:09","1f75c3e559b7213887762d5229550c2b","102.222.12.73","Mozilla/5.0 (Windows NT 10.0; Win64; x64) AppleWebKit/537.36 (KHTML, like Gecko) Chrome/138.0.0.0 Safari/537.36","WebKit","Chrome","138.0.0.0","Windows","10.0","https://app.prolific.com/","en-ZA,en-GB;q=0.9,en-US;q=0.8,en;q=0.7,en-GB-oxendict;q=0.6","605b838b80f022835fc293fb","686e379bc37a29ffa5cdc956","6877602cbd26b56847a41620","1","1","605b838b80f022835fc293fb","1","1","2025-07-16T08:38:26.108Z","","","","","","","","","","","ControlQ","","50","","","","","","","","","","","","","","","","","","","","","","","","","","","","",""
"3307","","<div style=""width:500px;"">
