"rt","response_timestamp","stimulus","response","trial_type","trial_index","time_elapsed","internal_node_id","run_id","condition","recorded_at","source_code_version","ip","user_agent","device","browser","browser_version","platform","platform_version","referer","accept_language","PROLIFIC_PID","STUDY_ID","SESSION_ID","WEEK","prolific_id","week","realtime","success","responses","item_order","radio_event_ids","radio_event_times","key_event_times","mouse_event_times","straightlining","zigzagging","honeypot","eventType","view_history","slider_start","which_type","canvas_config","goals_layout","control_level","trial_number","tutorial_trial_number","trial_start_time","phase1_start_time","phase2_start_time","phase3_start_time","goal_1_value","goal_1_distance","goal_2_value","goal_2_distance","goal_selected","outcome","outcome_total","participant_final_score","participant_initial_score","participant_final_score_prop","goal_choice_rt","allocated_time","allocated_time_remaining","goal_direction","counts","mouse_movements","key_presses","question_order","question_id"
"1151","1752050937626","<p style='font-size:40px;line-height:1.25'><strong>Welcome to the experiment!</strong></p><p style='font-size:1.1em;line-height:1.25'>Thank you for participanting in our experiment again! You will be asked to play the Dysfunctional Ball Game again. We will briefly recap the rules before we start.</p><p style='font-size:1.1em;line-height:1.25'>Press <strong>Next</strong> to continue.</p>","0","custom-html-button-response","0","1153","0.0-0.0","18","1","2025-07-09 08:48:55","01610cd0009c79a99da7d0a3353eb402","102.182.46.148","Mozilla/5.0 (Macintosh; Intel Mac OS X 10_15_7) AppleWebKit/537.36 (KHTML, like Gecko) Chrome/137.0.0.0 Safari/537.36","Macintosh","Chrome","137.0.0.0","OS X","10_15_7","https://app.prolific.com/","en-GB,en-US;q=0.9,en;q=0.8","61099a311cb3f711346d1b05","683db7602f5db6a34d12d064","686e2cf0ccc9f8f00eb3fcf0","1","61099a311cb3f711346d1b05","1","2025-07-09T08:48:57.628Z","","","","","","","","","","","","","","","","","","","","","","","","","","","","","","","","","","","","","","","","","",""
"5666","","","","fullscreen","1","7825","0.0-1.0","18","1","2025-07-09 08:48:55","01610cd0009c79a99da7d0a3353eb402","102.182.46.148","Mozilla/5.0 (Macintosh; Intel Mac OS X 10_15_7) AppleWebKit/537.36 (KHTML, like Gecko) Chrome/137.0.0.0 Safari/537.36","Macintosh","Chrome","137.0.0.0","OS X","10_15_7","https://app.prolific.com/","en-GB,en-US;q=0.9,en;q=0.8","61099a311cb3f711346d1b05","683db7602f5db6a34d12d064","686e2cf0ccc9f8f00eb3fcf0","1","61099a311cb3f711346d1b05","1","","true","","","","","","","","","","","","","","","","","","","","","","","","","","","","","","","","","","","","","","","","",""
"1103","1752050945402","<p style='font-size:1.1em;line-height:1.25'>In the following, we will ask you a few questions relating to your feelings in the last 24 hours.<br></p><p style='font-size:1.1em;line-height:1.25'>Press the <strong>Next</strong> button to continue.</p>","0","custom-html-button-response","2","8929","0.0-2.0-0.0","18","1","2025-07-09 08:48:55","01610cd0009c79a99da7d0a3353eb402","102.182.46.148","Mozilla/5.0 (Macintosh; Intel Mac OS X 10_15_7) AppleWebKit/537.36 (KHTML, like Gecko) Chrome/137.0.0.0 Safari/537.36","Macintosh","Chrome","137.0.0.0","OS X","10_15_7","https://app.prolific.com/","en-GB,en-US;q=0.9,en;q=0.8","61099a311cb3f711346d1b05","683db7602f5db6a34d12d064","686e2cf0ccc9f8f00eb3fcf0","1","61099a311cb3f711346d1b05","1","2025-07-09T08:49:05.403Z","","","","","","","","","","","","","","","","","","","","","","","","","","","","","","","","","","","","","","","","","",""
"152491.09999990463","","","","survey-template","3","161429","0.0-2.0-1.0","18","1","2025-07-09 08:48:55","01610cd0009c79a99da7d0a3353eb402","102.182.46.148","Mozilla/5.0 (Macintosh; Intel Mac OS X 10_15_7) AppleWebKit/537.36 (KHTML, like Gecko) Chrome/137.0.0.0 Safari/537.36","Macintosh","Chrome","137.0.0.0","OS X","10_15_7","https://app.prolific.com/","en-GB,en-US;q=0.9,en;q=0.8","61099a311cb3f711346d1b05","683db7602f5db6a34d12d064","686e2cf0ccc9f8f00eb3fcf0","1","61099a311cb3f711346d1b05","1","2025-07-09T08:51:37.903Z","","{""Q01"":""0"",""Q02"":""0"",""Q03"":""0"",""Q04"":""1"",""Q05"":""0"",""Q06"":""2"",""Q07"":""1"",""Q08"":""3"",""Q09"":""0"",""Q10"":""0"",""Q11"":""2"",""Q12"":""0"",""Q13"":""5"",""Q14"":""1"",""Q15"":""1"",""Q16"":""0"",""Q17"":""1"",""Q18"":""0"",""Q19"":""0"",""Q20"":""1"",""Q21"":""0"",""Q22"":""0""}","[0,1,2,3,4,5,6,7,8,9,10,11,12,13,14,15,16,17,18,19,20,21]","[""Q01"",""Q02"",""Q03"",""Q04"",""Q05"",""Q06"",""Q07"",""Q08"",""Q09"",""Q10"",""Q11"",""Q12"",""Q13"",""Q14"",""Q15"",""Q16"",""Q17"",""Q18"",""Q19"",""Q20"",""Q21"",""Q22""]","[24807.700000047684,28994.099999904633,30876.39999985695,32903.200000047684,35610.59999990463,37744.89999985695,45547,50016,59099,63887.59999990463,66275.5,71597.29999995232,75052.79999995232,87497,93699.59999990463,111626.39999985695,117762.5,120416.20000004768,127485.39999985695,142958.29999995232,148806.20000004768,151589]","[]","[0.09999990463256836,24807.700000047684,28994.099999904633,30876.39999985695,32903.200000047684,35610.59999990463,37077.89999985695,37744.89999985695,45547,50016,58553.700000047684,59099,63887.59999990463,66275.5,71597.29999995232,75052.79999995232,87497,93699.59999990463,111626.39999985695,117762.5,119896.70000004768,120416.20000004768,127485.39999985695,142958.29999995232,148806.20000004768,151589,152483.89999985695]","0.5454545454545454","0.42857142857142855","0","drsp","","","","","","","","","","","","","","","","","","","","","","","","","","","","","","",""
"21594.300000190735","","","","survey-template","4","183027","0.0-2.0-2.0","18","1","2025-07-09 08:48:55","01610cd0009c79a99da7d0a3353eb402","102.182.46.148","Mozilla/5.0 (Macintosh; Intel Mac OS X 10_15_7) AppleWebKit/537.36 (KHTML, like Gecko) Chrome/137.0.0.0 Safari/537.36","Macintosh","Chrome","137.0.0.0","OS X","10_15_7","https://app.prolific.com/","en-GB,en-US;q=0.9,en;q=0.8","61099a311cb3f711346d1b05","683db7602f5db6a34d12d064","686e2cf0ccc9f8f00eb3fcf0","1","61099a311cb3f711346d1b05","1","2025-07-09T08:51:59.502Z","","{""Q01"":""1"",""Q02"":""1"",""Q03"":""0""}","[0,1,2]","[""Q01"",""Q02"",""Q02"",""Q03""]","[10616.800000190735,14042.900000095367,14883.600000143051,20845.900000095367]","[]","[10616.800000190735,14042.900000095367,14883.600000143051,20845.900000095367,21593.5]","0.3333333333333333","0","0","stress","","","","","","","","","","","","","","","","","","","","","","","","","","","","","","",""
"16525","","","","instructions","5","199553","0.0-3.0-0.0","18","1","2025-07-09 08:48:55","01610cd0009c79a99da7d0a3353eb402","102.182.46.148","Mozilla/5.0 (Macintosh; Intel Mac OS X 10_15_7) AppleWebKit/537.36 (KHTML, like Gecko) Chrome/137.0.0.0 Safari/537.36","Macintosh","Chrome","137.0.0.0","OS X","10_15_7","https://app.prolific.com/","en-GB,en-US;q=0.9,en;q=0.8","61099a311cb3f711346d1b05","683db7602f5db6a34d12d064","686e2cf0ccc9f8f00eb3fcf0","1","61099a311cb3f711346d1b05","1","","","","","","","","","","","","","[{""page_index"":0,""viewing_time"":16524}]","","","","","","","","","","","","","","","","","","","","","","","","","","","","","",""
"3717","","<p>Before you start with this game please answer the following three questions yourself. </p>
  <p>Through this game, we measure several aspects of your cognitive performance, such as reaction times, multi-tasking capabilities </p>
  <p>and the ability to assess the situation you are in.</p>
  <p></p>
  <p><b>How good do you usually are in such tasks?</b></p>","39","html-slider-response","6","203275","0.0-4.0-0.0","18","1","2025-07-09 08:48:55","01610cd0009c79a99da7d0a3353eb402","102.182.46.148","Mozilla/5.0 (Macintosh; Intel Mac OS X 10_15_7) AppleWebKit/537.36 (KHTML, like Gecko) Chrome/137.0.0.0 Safari/537.36","Macintosh","Chrome","137.0.0.0","OS X","10_15_7","https://app.prolific.com/","en-GB,en-US;q=0.9,en;q=0.8","61099a311cb3f711346d1b05","683db7602f5db6a34d12d064","686e2cf0ccc9f8f00eb3fcf0","1","61099a311cb3f711346d1b05","1","2025-07-09T08:52:19.750Z","","","","","","","","","","","PreSkillQ","","50","","","","","","","","","","","","","","","","","","","","","","","","","","","","",""
"3253","","<div style=""width:500px;"">
  <p>How well do you think you will perform in this task compared to other participants?</p>
  </div>","35","html-slider-response","7","206531","0.0-4.0-1.0","18","1","2025-07-09 08:48:55","01610cd0009c79a99da7d0a3353eb402","102.182.46.148","Mozilla/5.0 (Macintosh; Intel Mac OS X 10_15_7) AppleWebKit/537.36 (KHTML, like Gecko) Chrome/137.0.0.0 Safari/537.36","Macintosh","Chrome","137.0.0.0","OS X","10_15_7","https://app.prolific.com/","en-GB,en-US;q=0.9,en;q=0.8","61099a311cb3f711346d1b05","683db7602f5db6a34d12d064","686e2cf0ccc9f8f00eb3fcf0","1","61099a311cb3f711346d1b05","1","2025-07-09T08:52:23.005Z","","","","","","","","","","","PrePerfQ","","50","","","","","","","","","","","","","","","","","","","","","","","","","","","","",""
"2918","","<div style=""width:500px;"">
  <p>What best describes how you currently feel?</p>
  </div>","29","html-slider-response","8","209450","0.0-4.0-2.0","18","1","2025-07-09 08:48:55","01610cd0009c79a99da7d0a3353eb402","102.182.46.148","Mozilla/5.0 (Macintosh; Intel Mac OS X 10_15_7) AppleWebKit/537.36 (KHTML, like Gecko) Chrome/137.0.0.0 Safari/537.36","Macintosh","Chrome","137.0.0.0","OS X","10_15_7","https://app.prolific.com/","en-GB,en-US;q=0.9,en;q=0.8","61099a311cb3f711346d1b05","683db7602f5db6a34d12d064","686e2cf0ccc9f8f00eb3fcf0","1","61099a311cb3f711346d1b05","1","2025-07-09T08:52:25.925Z","","","","","","","","","","","PreMotivationQ","","50","","","","","","","","","","","","","","","","","","","","","","","","","","","","",""
"","","","","ctl-task-cpt","9","249425","0.0-5.0-0.0","18","1","2025-07-09 08:48:55","01610cd0009c79a99da7d0a3353eb402","102.182.46.148","Mozilla/5.0 (Macintosh; Intel Mac OS X 10_15_7) AppleWebKit/537.36 (KHTML, like Gecko) Chrome/137.0.0.0 Safari/537.36","Macintosh","Chrome","137.0.0.0","OS X","10_15_7","https://app.prolific.com/","en-GB,en-US;q=0.9,en;q=0.8","61099a311cb3f711346d1b05","683db7602f5db6a34d12d064","686e2cf0ccc9f8f00eb3fcf0","1","61099a311cb3f711346d1b05","1","2025-07-09T08:53:05.899Z","","","","","","","","","","","","","","win-only","0","g1:NW,g2:SE","1","1","0","211535.2","5239.2","10241.7","36963","1","4","8","6","2","8","6","6","0","0.045454545454545456","2102.7","3000","550","[""down"",""right""]","{""num_key_presses"":9,""num_perfect"":7,""num_errors"":2,""num_randdir"":0,""num_randdir_good_moves"":0,""num_whilered"":0,""num_whileblue"":1,""num_blue"":2,""num_good_moves"":7}","[421.57142857142856,421.47767857142856,0.7,421.57142857142856,421.47767857142856,102.9,421.57142857142856,421.47767857142856,207.5,421.57142857142856,421.47767857142856,312.2,421.57142857142856,421.47767857142856,417.3,421.57142857142856,421.47767857142856,521.4,387.57142857142856,421.47767857142856,622.5,323.57142857142856,398.47767857142856,727.1,370.57142857142856,423.47767857142856,827.5,443.57142857142856,495.47767857142856,927.5,474.57142857142856,507.47767857142856,1033,474.57142857142856,507.47767857142856,1137,474.57142857142856,507.47767857142856,1237.6,474.57142857142856,507.47767857142856,1341.8,470.57142857142856,496.47767857142856,1441.9,322.57142857142856,294.47767857142856,1542.7,286.57142857142856,216.47767857142856,1647.3,726.5714285714286,733.4776785714286,1747.4,798.5714285714286,817.4776785714286,1847.7,798.5714285714286,817.4776785714286,1953,792.5714285714286,807.4776785714286,2056.9,789.5714285714286,798.4776785714286,2157.8,789.5714285714286,798.4776785714286,2262.8,789.5714285714286,798.4776785714286,2363,789.5714285714286,798.4776785714286,2466.6,789.5714285714286,798.4776785714286,2567,788.5714285714286,798.4776785714286,2667.3,620.5714285714286,712.4776785714286,2767.3,587.5714285714286,647.4776785714286,2872.9,587.5714285714286,647.4776785714286,2977.5,587.5714285714286,647.4776785714286,3077.9,587.5714285714286,647.4776785714286,3182.6,587.5714285714286,647.4776785714286,3288.6,587.5714285714286,647.4776785714286,3392.6,587.5714285714286,647.4776785714286,3497.4,587.5714285714286,647.4776785714286,3601.8,587.5714285714286,647.4776785714286,3703.1,587.5714285714286,647.4776785714286,3807.4,587.5714285714286,647.4776785714286,3911.8,587.5714285714286,647.4776785714286,4012.7,587.5714285714286,647.4776785714286,4118,587.5714285714286,647.4776785714286,4222.8,587.5714285714286,647.4776785714286,4327.9,587.5714285714286,647.4776785714286,4431.9,587.5714285714286,647.4776785714286,4532.9,587.5714285714286,647.4776785714286,4637.4,587.5714285714286,647.4776785714286,4737.5,587.5714285714286,647.4776785714286,4842,587.5714285714286,647.4776785714286,4942.1]","[421.8,421.7,1000,0.1,-578.3,""error"",""-"",""-"",""no_move"",3633.9,3212,1838,1424.5,371.4,""smooth"",""down"",""down"",""good_move"",6033.8,2399.4,2057.7,3634.4,341.7,""smooth"",""down"",""down"",""good_move"",8700.9,2666.9,2311.9,6034.1,354.9,""smooth"",""right"",""right"",""good_move"",11350.7,2649.4,2305.6,8701.3,343.8,""smooth"",""down"",""down"",""good_move"",14392.9,3041.9,2655.4,11351,386.5,""smooth"",""right"",""right"",""good_move"",17090.7,2697.6,2386.6,14393.1,311,""while_blue"",""right"",""left"",""bad_move"",23752.7,6661.7,2446.9,20975.2,330.6,""smooth"",""right"",""right"",""good_move"",26624.1,2871.1,2505.7,23753,365.4,""smooth"",""right"",""right"",""good_move""]","",""
"3633","","<div style=""width:500px;"">
  <p>What determined the result of this run?</p>
  </div>","68","html-slider-response","10","253059","0.0-5.0-1.0","18","1","2025-07-09 08:48:55","01610cd0009c79a99da7d0a3353eb402","102.182.46.148","Mozilla/5.0 (Macintosh; Intel Mac OS X 10_15_7) AppleWebKit/537.36 (KHTML, like Gecko) Chrome/137.0.0.0 Safari/537.36","Macintosh","Chrome","137.0.0.0","OS X","10_15_7","https://app.prolific.com/","en-GB,en-US;q=0.9,en;q=0.8","61099a311cb3f711346d1b05","683db7602f5db6a34d12d064","686e2cf0ccc9f8f00eb3fcf0","1","61099a311cb3f711346d1b05","1","2025-07-09T08:53:09.533Z","","","","","","","","","","","AttribQ","","50","","","","","","","","","","","","","","","","","","","","","","","","","","","","",""
"6610","","<div style=""width:500px;"">
  <p>How much control did you have over the ball?</p>
  </div>","76","html-slider-response","11","259670","0.0-5.0-2.0","18","1","2025-07-09 08:48:55","01610cd0009c79a99da7d0a3353eb402","102.182.46.148","Mozilla/5.0 (Macintosh; Intel Mac OS X 10_15_7) AppleWebKit/537.36 (KHTML, like Gecko) Chrome/137.0.0.0 Safari/537.36","Macintosh","Chrome","137.0.0.0","OS X","10_15_7","https://app.prolific.com/","en-GB,en-US;q=0.9,en;q=0.8","61099a311cb3f711346d1b05","683db7602f5db6a34d12d064","686e2cf0ccc9f8f00eb3fcf0","1","61099a311cb3f711346d1b05","1","2025-07-09T08:53:16.144Z","","","","","","","","","","","ControlQ","","50","","","","","","","","","","","","","","","","","","","","","","","","","","","","",""
"4560","","<div style=""width:500px;"">
  <p>How would you describe your current emotional state?</p>
  </div>","35","html-slider-response","12","264231","0.0-5.0-3.0","18","1","2025-07-09 08:48:55","01610cd0009c79a99da7d0a3353eb402","102.182.46.148","Mozilla/5.0 (Macintosh; Intel Mac OS X 10_15_7) AppleWebKit/537.36 (KHTML, like Gecko) Chrome/137.0.0.0 Safari/537.36","Macintosh","Chrome","137.0.0.0","OS X","10_15_7","https://app.prolific.com/","en-GB,en-US;q=0.9,en;q=0.8","61099a311cb3f711346d1b05","683db7602f5db6a34d12d064","686e2cf0ccc9f8f00eb3fcf0","1","61099a311cb3f711346d1b05","1","2025-07-09T08:53:20.705Z","","","","","","","","","","","StressQ","","50","","","","","","","","","","","","","","","","","","","","","","","","","","","","",""
"3162","","<div style=""width:500px;"">
  <p>What best describes how you currently feel?</p>
  </div>","29","html-slider-response","13","267394","0.0-5.0-4.0","18","1","2025-07-09 08:48:55","01610cd0009c79a99da7d0a3353eb402","102.182.46.148","Mozilla/5.0 (Macintosh; Intel Mac OS X 10_15_7) AppleWebKit/537.36 (KHTML, like Gecko) Chrome/137.0.0.0 Safari/537.36","Macintosh","Chrome","137.0.0.0","OS X","10_15_7","https://app.prolific.com/","en-GB,en-US;q=0.9,en;q=0.8","61099a311cb3f711346d1b05","683db7602f5db6a34d12d064","686e2cf0ccc9f8f00eb3fcf0","1","61099a311cb3f711346d1b05","1","2025-07-09T08:53:23.868Z","","","","","","","","","","","MotivationQ","","50","","","","","","","","","","","","","","","","","","","","","","","","","","","","",""
"","","","","ctl-task-cpt","14","297810","0.0-5.0-0.1","18","1","2025-07-09 08:48:55","01610cd0009c79a99da7d0a3353eb402","102.182.46.148","Mozilla/5.0 (Macintosh; Intel Mac OS X 10_15_7) AppleWebKit/537.36 (KHTML, like Gecko) Chrome/137.0.0.0 Safari/537.36","Macintosh","Chrome","137.0.0.0","OS X","10_15_7","https://app.prolific.com/","en-GB,en-US;q=0.9,en;q=0.8","61099a311cb3f711346d1b05","683db7602f5db6a34d12d064","686e2cf0ccc9f8f00eb3fcf0","1","61099a311cb3f711346d1b05","1","2025-07-09T08:53:54.284Z","","","","","","","","","","","","","","win-only","3","g1:SW,g2:NE","0.9","2","0","269473.3","932.5","5935.4","27406.5","1","4","4","6","2","-4","-4","2","6","0.015151515151515152","1332.8","3000","-3000","[""up"",""right""]","{""num_key_presses"":7,""num_perfect"":6,""num_errors"":0,""num_randdir"":1,""num_randdir_good_moves"":0,""num_whilered"":0,""num_whileblue"":0,""num_blue"":1,""num_good_moves"":6}","[410.57142857142856,427.47767857142856,0.2,409.57142857142856,427.47767857142856,103.8,409.57142857142856,427.47767857142856,207.9,409.57142857142856,427.47767857142856,313.4,409.57142857142856,427.47767857142856,414.3,381.57142857142856,564.4776785714286,518.9,334.57142857142856,646.4776785714286,624,334.57142857142856,646.4776785714286,728.6,334.57142857142856,646.4776785714286,833.3,334.57142857142856,646.4776785714286,933.7,531.5714285714286,253.47767857142856,1038.1,744.5714285714286,71.47767857142857,1138.4,760.5714285714286,103.47767857142857,1243.4,769.5714285714286,102.47767857142857,1348.2,769.5714285714286,102.47767857142857,1448.2,769.5714285714286,102.47767857142857,1554,769.5714285714286,102.47767857142857,1658.8,769.5714285714286,102.47767857142857,1763.5,769.5714285714286,102.47767857142857,1863.6,769.5714285714286,102.47767857142857,1963.8,769.5714285714286,102.47767857142857,2068.5,769.5714285714286,102.47767857142857,2168.7,769.5714285714286,102.47767857142857,2272.9,769.5714285714286,102.47767857142857,2374,769.5714285714286,102.47767857142857,2478.9,769.5714285714286,102.47767857142857,2583.3,769.5714285714286,102.47767857142857,2683.7,769.5714285714286,102.47767857142857,2783.7,769.5714285714286,102.47767857142857,2888.4,769.5714285714286,102.47767857142857,2988.4,769.5714285714286,102.47767857142857,3093.4,769.5714285714286,102.47767857142857,3194,769.5714285714286,102.47767857142857,3298.3,769.5714285714286,102.47767857142857,3398.3,769.5714285714286,102.47767857142857,3498.8,769.5714285714286,102.47767857142857,3602.9,769.5714285714286,102.47767857142857,3703.4,769.5714285714286,102.47767857142857,3803.8,769.5714285714286,102.47767857142857,3903.9,769.5714285714286,102.47767857142857,4008.8,769.5714285714286,102.47767857142857,4113.5,769.5714285714286,102.47767857142857,4219,769.5714285714286,102.47767857142857,4323,769.5714285714286,102.47767857142857,4423.4,769.5714285714286,102.47767857142857,4528.6,769.5714285714286,102.47767857142857,4629,769.5714285714286,102.47767857142857,4729.1,769.5714285714286,102.47767857142857,4834.1,769.5714285714286,102.47767857142857,4938]","[1402.3,1402.3,1000,0,402.3,""smooth"",""up"",""up"",""good_move"",4100.5,2697.8,2365.4,1402.7,332.4,""smooth"",""right"",""right"",""good_move"",6270.4,2169.7,1801.6,4100.7,368.1,""oops"",""right"",""down"",""bad_move"",11949.5,5678.7,2056.8,9440.5,452.3,""smooth"",""up"",""up"",""good_move"",14650.3,2700.6,1926.3,11949.7,774.3,""smooth"",""up"",""up"",""good_move"",17261.6,2611.1,2279.5,14650.5,331.6,""smooth"",""up"",""up"",""good_move"",18840.6,1578.9,1269.7,17261.7,309.2,""smooth"",""right"",""right"",""good_move""]","",""
"4316","","<div style=""width:500px;"">
  <p>What determined the result of this run?</p>
  </div>","40","html-slider-response","15","302128","0.0-5.0-1.1","18","1","2025-07-09 08:48:55","01610cd0009c79a99da7d0a3353eb402","102.182.46.148","Mozilla/5.0 (Macintosh; Intel Mac OS X 10_15_7) AppleWebKit/537.36 (KHTML, like Gecko) Chrome/137.0.0.0 Safari/537.36","Macintosh","Chrome","137.0.0.0","OS X","10_15_7","https://app.prolific.com/","en-GB,en-US;q=0.9,en;q=0.8","61099a311cb3f711346d1b05","683db7602f5db6a34d12d064","686e2cf0ccc9f8f00eb3fcf0","1","61099a311cb3f711346d1b05","1","2025-07-09T08:53:58.602Z","","","","","","","","","","","AttribQ","","50","","","","","","","","","","","","","","","","","","","","","","","","","","","","",""
"4813","","<div style=""width:500px;"">
  <p>How much control did you have over the ball?</p>
  </div>","40","html-slider-response","16","306942","0.0-5.0-2.1","18","1","2025-07-09 08:48:55","01610cd0009c79a99da7d0a3353eb402","102.182.46.148","Mozilla/5.0 (Macintosh; Intel Mac OS X 10_15_7) AppleWebKit/537.36 (KHTML, like Gecko) Chrome/137.0.0.0 Safari/537.36","Macintosh","Chrome","137.0.0.0","OS X","10_15_7","https://app.prolific.com/","en-GB,en-US;q=0.9,en;q=0.8","61099a311cb3f711346d1b05","683db7602f5db6a34d12d064","686e2cf0ccc9f8f00eb3fcf0","1","61099a311cb3f711346d1b05","1","2025-07-09T08:54:03.416Z","","","","","","","","","","","ControlQ","","50","","","","","","","","","","","","","","","","","","","","","","","","","","","","",""
"3733","","<div style=""width:500px;"">
  <p>How would you describe your current emotional state?</p>
  </div>","29","html-slider-response","17","310676","0.0-5.0-3.1","18","1","2025-07-09 08:48:55","01610cd0009c79a99da7d0a3353eb402","102.182.46.148","Mozilla/5.0 (Macintosh; Intel Mac OS X 10_15_7) AppleWebKit/537.36 (KHTML, like Gecko) Chrome/137.0.0.0 Safari/537.36","Macintosh","Chrome","137.0.0.0","OS X","10_15_7","https://app.prolific.com/","en-GB,en-US;q=0.9,en;q=0.8","61099a311cb3f711346d1b05","683db7602f5db6a34d12d064","686e2cf0ccc9f8f00eb3fcf0","1","61099a311cb3f711346d1b05","1","2025-07-09T08:54:07.150Z","","","","","","","","","","","StressQ","","50","","","","","","","","","","","","","","","","","","","","","","","","","","","","",""
"2508","","<div style=""width:500px;"">
  <p>What best describes how you currently feel?</p>
  </div>","31","html-slider-response","18","313185","0.0-5.0-4.1","18","1","2025-07-09 08:48:55","01610cd0009c79a99da7d0a3353eb402","102.182.46.148","Mozilla/5.0 (Macintosh; Intel Mac OS X 10_15_7) AppleWebKit/537.36 (KHTML, like Gecko) Chrome/137.0.0.0 Safari/537.36","Macintosh","Chrome","137.0.0.0","OS X","10_15_7","https://app.prolific.com/","en-GB,en-US;q=0.9,en;q=0.8","61099a311cb3f711346d1b05","683db7602f5db6a34d12d064","686e2cf0ccc9f8f00eb3fcf0","1","61099a311cb3f711346d1b05","1","2025-07-09T08:54:09.660Z","","","","","","","","","","","MotivationQ","","50","","","","","","","","","","","","","","","","","","","","","","","","","","","","",""
"","","","","ctl-task-cpt","19","355568","0.0-5.0-0.2","18","1","2025-07-09 08:48:55","01610cd0009c79a99da7d0a3353eb402","102.182.46.148","Mozilla/5.0 (Macintosh; Intel Mac OS X 10_15_7) AppleWebKit/537.36 (KHTML, like Gecko) Chrome/137.0.0.0 Safari/537.36","Macintosh","Chrome","137.0.0.0","OS X","10_15_7","https://app.prolific.com/","en-GB,en-US;q=0.9,en;q=0.8","61099a311cb3f711346d1b05","683db7602f5db6a34d12d064","686e2cf0ccc9f8f00eb3fcf0","1","61099a311cb3f711346d1b05","1","2025-07-09T08:54:52.042Z","","","","","","","","","","","","","","win-only","2","g1:SE,g2:NW","0.8","3","0","315264.8","877.2","5880.4","39371.3","1","4","8","6","2","8","8","10","2","0.07575757575757576","1226.7","3000","90","[""left"",""up""]","{""num_key_presses"":8,""num_perfect"":6,""num_errors"":0,""num_randdir"":2,""num_randdir_good_moves"":1,""num_whilered"":0,""num_whileblue"":0,""num_blue"":3,""num_good_moves"":7}","[412.57142857142856,416.47767857142856,0.1,412.57142857142856,416.47767857142856,102.9,412.57142857142856,416.47767857142856,203.9,412.57142857142856,416.47767857142856,308.6,412.57142857142856,416.47767857142856,413.8,452.57142857142856,484.47767857142856,513.9,495.57142857142856,505.47767857142856,618.3,417.57142857142856,286.47767857142856,718.3,243.57142857142856,124.47767857142857,823,243.57142857142856,124.47767857142857,924,225.57142857142856,120.47767857142857,1028.4,27.57142857142857,83.47767857142857,1133.7,19.57142857142857,72.47767857142857,1238.7,19.57142857142857,72.47767857142857,1343.8,19.57142857142857,72.47767857142857,1448.9,19.57142857142857,72.47767857142857,1553.2,152.57142857142856,189.47767857142856,1658.5,239.57142857142856,328.47767857142856,1758.7,232.57142857142856,352.47767857142856,1864,232.57142857142856,352.47767857142856,1968.7,232.57142857142856,352.47767857142856,2074.2,232.57142857142856,352.47767857142856,2178.4,232.57142857142856,352.47767857142856,2278.4,232.57142857142856,352.47767857142856,2379,232.57142857142856,352.47767857142856,2482.9,232.57142857142856,352.47767857142856,2583.2,232.57142857142856,352.47767857142856,2683.5,232.57142857142856,352.47767857142856,2788.9,232.57142857142856,352.47767857142856,2894.1,232.57142857142856,352.47767857142856,2998.7,232.57142857142856,352.47767857142856,3098.8,232.57142857142856,352.47767857142856,3203.5,232.57142857142856,352.47767857142856,3308.8,232.57142857142856,352.47767857142856,3408.8,232.57142857142856,352.47767857142856,3513.2,232.57142857142856,352.47767857142856,3618,232.57142857142856,352.47767857142856,3718.8,232.57142857142856,352.47767857142856,3818.8,232.57142857142856,352.47767857142856,3923.2,232.57142857142856,352.47767857142856,4028.9,232.57142857142856,352.47767857142856,4128.8,232.57142857142856,352.47767857142856,4229,232.57142857142856,352.47767857142856,4333.3,232.57142857142856,352.47767857142856,4438.5,232.57142857142856,352.47767857142856,4543,232.57142857142856,352.47767857142856,4644.1,232.57142857142856,352.47767857142856,4748.7,232.57142857142856,352.47767857142856,4848.9,232.57142857142856,352.47767857142856,4953.5]","[1516.1,1516.1,1000,0,516.1,""smooth"",""up"",""up"",""good_move"",10737.9,9221.5,1756,8545.5,436.4,""oops"",""left"",""right"",""bad_move"",17755.9,7017.7,2942.9,14430.3,382.7,""smooth"",""up"",""up"",""good_move"",21309.4,3553.3,3186.1,17756.1,367.2,""smooth"",""up"",""up"",""good_move"",23788.6,2479,2178.6,21309.6,300.4,""oops"",""left"",""left"",""good_move"",27214.5,3425.4,3117,23789.1,308.4,""smooth"",""left"",""left"",""good_move"",29974.1,2759.3,2378.8,27214.8,380.5,""smooth"",""left"",""left"",""good_move"",33404.5,3430.2,3161.4,29974.3,268.8,""smooth"",""left"",""left"",""good_move""]","",""
"5341","","<div style=""width:500px;"">
  <p>What determined the result of this run?</p>
  </div>","35","html-slider-response","20","360910","0.0-5.0-1.2","18","1","2025-07-09 08:48:55","01610cd0009c79a99da7d0a3353eb402","102.182.46.148","Mozilla/5.0 (Macintosh; Intel Mac OS X 10_15_7) AppleWebKit/537.36 (KHTML, like Gecko) Chrome/137.0.0.0 Safari/537.36","Macintosh","Chrome","137.0.0.0","OS X","10_15_7","https://app.prolific.com/","en-GB,en-US;q=0.9,en;q=0.8","61099a311cb3f711346d1b05","683db7602f5db6a34d12d064","686e2cf0ccc9f8f00eb3fcf0","1","61099a311cb3f711346d1b05","1","2025-07-09T08:54:57.384Z","","","","","","","","","","","AttribQ","","50","","","","","","","","","","","","","","","","","","","","","","","","","","","","",""
"3413","","<div style=""width:500px;"">
  <p>How much control did you have over the ball?</p>
  </div>","37","html-slider-response","21","364325","0.0-5.0-2.2","18","1","2025-07-09 08:48:55","01610cd0009c79a99da7d0a3353eb402","102.182.46.148","Mozilla/5.0 (Macintosh; Intel Mac OS X 10_15_7) AppleWebKit/537.36 (KHTML, like Gecko) Chrome/137.0.0.0 Safari/537.36","Macintosh","Chrome","137.0.0.0","OS X","10_15_7","https://app.prolific.com/","en-GB,en-US;q=0.9,en;q=0.8","61099a311cb3f711346d1b05","683db7602f5db6a34d12d064","686e2cf0ccc9f8f00eb3fcf0","1","61099a311cb3f711346d1b05","1","2025-07-09T08:55:00.799Z","","","","","","","","","","","ControlQ","","50","","","","","","","","","","","","","","","","","","","","","","","","","","","","",""
"3055","","<div style=""width:500px;"">
  <p>How would you describe your current emotional state?</p>
  </div>","23","html-slider-response","22","367381","0.0-5.0-3.2","18","1","2025-07-09 08:48:55","01610cd0009c79a99da7d0a3353eb402","102.182.46.148","Mozilla/5.0 (Macintosh; Intel Mac OS X 10_15_7) AppleWebKit/537.36 (KHTML, like Gecko) Chrome/137.0.0.0 Safari/537.36","Macintosh","Chrome","137.0.0.0","OS X","10_15_7","https://app.prolific.com/","en-GB,en-US;q=0.9,en;q=0.8","61099a311cb3f711346d1b05","683db7602f5db6a34d12d064","686e2cf0ccc9f8f00eb3fcf0","1","61099a311cb3f711346d1b05","1","2025-07-09T08:55:03.855Z","","","","","","","","","","","StressQ","","50","","","","","","","","","","","","","","","","","","","","","","","","","","","","",""
"2639","","<div style=""width:500px;"">
  <p>What best describes how you currently feel?</p>
  </div>","27","html-slider-response","23","370021","0.0-5.0-4.2","18","1","2025-07-09 08:48:55","01610cd0009c79a99da7d0a3353eb402","102.182.46.148","Mozilla/5.0 (Macintosh; Intel Mac OS X 10_15_7) AppleWebKit/537.36 (KHTML, like Gecko) Chrome/137.0.0.0 Safari/537.36","Macintosh","Chrome","137.0.0.0","OS X","10_15_7","https://app.prolific.com/","en-GB,en-US;q=0.9,en;q=0.8","61099a311cb3f711346d1b05","683db7602f5db6a34d12d064","686e2cf0ccc9f8f00eb3fcf0","1","61099a311cb3f711346d1b05","1","2025-07-09T08:55:06.495Z","","","","","","","","","","","MotivationQ","","50","","","","","","","","","","","","","","","","","","","","","","","","","","","","",""
"","","","","ctl-task-cpt","24","415180","0.0-5.0-0.3","18","1","2025-07-09 08:48:55","01610cd0009c79a99da7d0a3353eb402","102.182.46.148","Mozilla/5.0 (Macintosh; Intel Mac OS X 10_15_7) AppleWebKit/537.36 (KHTML, like Gecko) Chrome/137.0.0.0 Safari/537.36","Macintosh","Chrome","137.0.0.0","OS X","10_15_7","https://app.prolific.com/","en-GB,en-US;q=0.9,en;q=0.8","61099a311cb3f711346d1b05","683db7602f5db6a34d12d064","686e2cf0ccc9f8f00eb3fcf0","1","61099a311cb3f711346d1b05","1","2025-07-09T08:55:51.654Z","","","","","","","","","","","","","","win-only","3","g1:SW,g2:NE","0.7","4","0","372099","945.5","5946.1","42150.6","1","4","4","6","2","-4","-5","5","10","0.03787878787878788","1412.9","3000","-3005","[""up"",""right""]","{""num_key_presses"":7,""num_perfect"":4,""num_errors"":1,""num_randdir"":2,""num_randdir_good_moves"":1,""num_whilered"":0,""num_whileblue"":1,""num_blue"":5,""num_good_moves"":5}","[420.57142857142856,410.47767857142856,0.1,420.57142857142856,410.47767857142856,100.2,420.57142857142856,410.47767857142856,200.4,420.57142857142856,410.47767857142856,305.7,420.57142857142856,410.47767857142856,410.1,420.57142857142856,410.47767857142856,515.6,420.57142857142856,410.47767857142856,620.9,420.57142857142856,410.47767857142856,725.4,420.57142857142856,410.47767857142856,826.2,420.57142857142856,410.47767857142856,929.7,677.5714285714286,161.47767857142856,1030.3,822.5714285714286,120.47767857142857,1130.8,825.5714285714286,123.47767857142857,1235.3,807.5714285714286,93.47767857142857,1340.7,778.5714285714286,92.47767857142857,1445.2,778.5714285714286,92.47767857142857,1550,778.5714285714286,92.47767857142857,1655.6,778.5714285714286,92.47767857142857,1760.5,778.5714285714286,92.47767857142857,1860.8,778.5714285714286,92.47767857142857,1965.5,778.5714285714286,92.47767857142857,2065.7,778.5714285714286,92.47767857142857,2170,778.5714285714286,92.47767857142857,2270.5,778.5714285714286,92.47767857142857,2375.6,778.5714285714286,92.47767857142857,2479.8,778.5714285714286,92.47767857142857,2580.3,778.5714285714286,92.47767857142857,2680.3,778.5714285714286,92.47767857142857,2785.7,778.5714285714286,92.47767857142857,2891,778.5714285714286,92.47767857142857,2994.9,778.5714285714286,92.47767857142857,3095.6,778.5714285714286,92.47767857142857,3199.8,778.5714285714286,92.47767857142857,3300.7,778.5714285714286,92.47767857142857,3405.1,778.5714285714286,92.47767857142857,3505.9,778.5714285714286,92.47767857142857,3610.2,778.5714285714286,92.47767857142857,3715.5,778.5714285714286,92.47767857142857,3815.7,778.5714285714286,92.47767857142857,3919.8,778.5714285714286,92.47767857142857,4020.3,778.5714285714286,92.47767857142857,4125.6,778.5714285714286,92.47767857142857,4230.6,778.5714285714286,92.47767857142857,4335.3,778.5714285714286,92.47767857142857,4440.7,778.5714285714286,92.47767857142857,4544.8,778.5714285714286,92.47767857142857,4645.5,778.5714285714286,92.47767857142857,4745.5,778.5714285714286,92.47767857142857,4845.7,778.5714285714286,92.47767857142857,4950.8]","[5004.6,5004.7,2644,2004.5,356.2,""smooth"",""up"",""up"",""good_move"",15581.5,10576.5,2824.8,12294.3,462.4,""oops"",""up"",""up"",""good_move"",19636.6,4054.9,3173.2,15581.7,881.7,""smooth"",""up"",""up"",""good_move"",22772,3135.2,2747.2,19636.8,388,""smooth"",""right"",""right"",""good_move"",25460.6,2688.3,2183,22772.3,505.3,""smooth"",""right"",""right"",""good_move"",27288.5,1827.7,1469.3,25460.8,358.4,""while_blue"",""right"",""left"",""bad_move"",30241.6,2952.7,2574.2,27288.9,378.5,""oops"",""right"",""left"",""bad_move""]","",""
"2606","","<div style=""width:500px;"">
  <p>What determined the result of this run?</p>
  </div>","39","html-slider-response","25","417787","0.0-5.0-1.3","18","1","2025-07-09 08:48:55","01610cd0009c79a99da7d0a3353eb402","102.182.46.148","Mozilla/5.0 (Macintosh; Intel Mac OS X 10_15_7) AppleWebKit/537.36 (KHTML, like Gecko) Chrome/137.0.0.0 Safari/537.36","Macintosh","Chrome","137.0.0.0","OS X","10_15_7","https://app.prolific.com/","en-GB,en-US;q=0.9,en;q=0.8","61099a311cb3f711346d1b05","683db7602f5db6a34d12d064","686e2cf0ccc9f8f00eb3fcf0","1","61099a311cb3f711346d1b05","1","2025-07-09T08:55:54.261Z","","","","","","","","","","","AttribQ","","50","","","","","","","","","","","","","","","","","","","","","","","","","","","","",""
"2372","","<div style=""width:500px;"">
  <p>How much control did you have over the ball?</p>
  </div>","36","html-slider-response","26","420161","0.0-5.0-2.3","18","1","2025-07-09 08:48:55","01610cd0009c79a99da7d0a3353eb402","102.182.46.148","Mozilla/5.0 (Macintosh; Intel Mac OS X 10_15_7) AppleWebKit/537.36 (KHTML, like Gecko) Chrome/137.0.0.0 Safari/537.36","Macintosh","Chrome","137.0.0.0","OS X","10_15_7","https://app.prolific.com/","en-GB,en-US;q=0.9,en;q=0.8","61099a311cb3f711346d1b05","683db7602f5db6a34d12d064","686e2cf0ccc9f8f00eb3fcf0","1","61099a311cb3f711346d1b05","1","2025-07-09T08:55:56.635Z","","","","","","","","","","","ControlQ","","50","","","","","","","","","","","","","","","","","","","","","","","","","","","","",""
"2533","","<div style=""width:500px;"">
  <p>How would you describe your current emotional state?</p>
  </div>","24","html-slider-response","27","422694","0.0-5.0-3.3","18","1","2025-07-09 08:48:55","01610cd0009c79a99da7d0a3353eb402","102.182.46.148","Mozilla/5.0 (Macintosh; Intel Mac OS X 10_15_7) AppleWebKit/537.36 (KHTML, like Gecko) Chrome/137.0.0.0 Safari/537.36","Macintosh","Chrome","137.0.0.0","OS X","10_15_7","https://app.prolific.com/","en-GB,en-US;q=0.9,en;q=0.8","61099a311cb3f711346d1b05","683db7602f5db6a34d12d064","686e2cf0ccc9f8f00eb3fcf0","1","61099a311cb3f711346d1b05","1","2025-07-09T08:55:59.168Z","","","","","","","","","","","StressQ","","50","","","","","","","","","","","","","","","","","","","","","","","","","","","","",""
"1827","","<div style=""width:500px;"">
  <p>What best describes how you currently feel?</p>
  </div>","21","html-slider-response","28","424522","0.0-5.0-4.3","18","1","2025-07-09 08:48:55","01610cd0009c79a99da7d0a3353eb402","102.182.46.148","Mozilla/5.0 (Macintosh; Intel Mac OS X 10_15_7) AppleWebKit/537.36 (KHTML, like Gecko) Chrome/137.0.0.0 Safari/537.36","Macintosh","Chrome","137.0.0.0","OS X","10_15_7","https://app.prolific.com/","en-GB,en-US;q=0.9,en;q=0.8","61099a311cb3f711346d1b05","683db7602f5db6a34d12d064","686e2cf0ccc9f8f00eb3fcf0","1","61099a311cb3f711346d1b05","1","2025-07-09T08:56:00.996Z","","","","","","","","","","","MotivationQ","","50","","","","","","","","","","","","","","","","","","","","","","","","","","","","",""
"","","","","ctl-task-cpt","29","465560","0.0-5.0-0.4","18","1","2025-07-09 08:48:55","01610cd0009c79a99da7d0a3353eb402","102.182.46.148","Mozilla/5.0 (Macintosh; Intel Mac OS X 10_15_7) AppleWebKit/537.36 (KHTML, like Gecko) Chrome/137.0.0.0 Safari/537.36","Macintosh","Chrome","137.0.0.0","OS X","10_15_7","https://app.prolific.com/","en-GB,en-US;q=0.9,en;q=0.8","61099a311cb3f711346d1b05","683db7602f5db6a34d12d064","686e2cf0ccc9f8f00eb3fcf0","1","61099a311cb3f711346d1b05","1","2025-07-09T08:56:42.034Z","","","","","","","","","","","","","","win-only","1","g1:NE,g2:SW","0.6","5","0","426599.8","1226.2","6226.7","38026.3","1","4","8","6","2","-8","-8","0","5","0","2613","3000","-2985","[""down"",""left""]","{""num_key_presses"":7,""num_perfect"":5,""num_errors"":0,""num_randdir"":2,""num_randdir_good_moves"":1,""num_whilered"":0,""num_whileblue"":0,""num_blue"":3,""num_good_moves"":6}","[419.57142857142856,414.47767857142856,0.2,419.57142857142856,414.47767857142856,104.5,419.57142857142856,414.47767857142856,205,419.57142857142856,414.47767857142856,310,423.57142857142856,413.47767857142856,414.4,489.57142857142856,388.47767857142856,514.9,636.5714285714286,344.47767857142856,619.5,661.5714285714286,312.47767857142856,719.7,661.5714285714286,312.47767857142856,819.9,407.57142857142856,432.47767857142856,924.8,-0.4285714285714306,761.4776785714286,1029.3,-4.428571428571431,771.4776785714286,1130,-4.428571428571431,771.4776785714286,1230.2,-4.428571428571431,771.4776785714286,1334.3,-4.428571428571431,771.4776785714286,1440.1,-4.428571428571431,771.4776785714286,1540.4,-4.428571428571431,771.4776785714286,1645,-4.428571428571431,771.4776785714286,1745.1,-4.428571428571431,771.4776785714286,1845.3,-4.428571428571431,771.4776785714286,1949.1,-4.428571428571431,771.4776785714286,2050,-4.428571428571431,771.4776785714286,2154.5,-4.428571428571431,771.4776785714286,2259,-2.4285714285714306,771.4776785714286,2359.8,18.57142857142857,770.4776785714286,2465.1,63.57142857142857,768.4776785714286,2565.7,64.57142857142857,767.4776785714286,2669.5,64.57142857142857,767.4776785714286,2769.5,64.57142857142857,767.4776785714286,2870.2,64.57142857142857,767.4776785714286,2975.1,64.57142857142857,767.4776785714286,3080.3,64.57142857142857,767.4776785714286,3185.1,64.57142857142857,767.4776785714286,3290.1,64.57142857142857,767.4776785714286,3394.7,64.57142857142857,767.4776785714286,3494.9,64.57142857142857,767.4776785714286,3595,64.57142857142857,767.4776785714286,3700,64.57142857142857,767.4776785714286,3805,80.57142857142857,761.4776785714286,3910,292.57142857142856,717.4776785714286,4014.5,323.57142857142856,717.4776785714286,4115,323.57142857142856,717.4776785714286,4219.2,323.57142857142856,717.4776785714286,4320,323.57142857142856,717.4776785714286,4420.6,323.57142857142856,717.4776785714286,4524.2,323.57142857142856,717.4776785714286,4625.2,323.57142857142856,717.4776785714286,4732.5,323.57142857142856,717.4776785714286,4834.9,323.57142857142856,717.4776785714286,4940.1]","[5652.3,5652.3,3192.5,2004.5,455.3,""smooth"",""down"",""down"",""good_move"",8092,2439.4,1920.2,5652.6,519.2,""smooth"",""left"",""left"",""good_move"",14300.7,6208.4,2119.2,11754.6,426.9,""smooth"",""left"",""left"",""good_move"",16931.2,2630.3,2156,14300.9,474.3,""oops"",""left"",""up"",""bad_move"",20077.2,3145.6,2789.6,16931.6,356,""smooth"",""left"",""left"",""good_move"",22854.2,2776.9,2451.8,20077.3,325.1,""smooth"",""down"",""down"",""good_move"",25687.6,2833,2527.1,22854.6,305.9,""oops"",""down"",""down"",""good_move""]","",""
"5939","","<div style=""width:500px;"">
  <p>What determined the result of this run?</p>
  </div>","24","html-slider-response","30","471500","0.0-5.0-1.4","18","1","2025-07-09 08:48:55","01610cd0009c79a99da7d0a3353eb402","102.182.46.148","Mozilla/5.0 (Macintosh; Intel Mac OS X 10_15_7) AppleWebKit/537.36 (KHTML, like Gecko) Chrome/137.0.0.0 Safari/537.36","Macintosh","Chrome","137.0.0.0","OS X","10_15_7","https://app.prolific.com/","en-GB,en-US;q=0.9,en;q=0.8","61099a311cb3f711346d1b05","683db7602f5db6a34d12d064","686e2cf0ccc9f8f00eb3fcf0","1","61099a311cb3f711346d1b05","1","2025-07-09T08:56:47.974Z","","","","","","","","","","","AttribQ","","50","","","","","","","","","","","","","","","","","","","","","","","","","","","","",""
"3642","","<div style=""width:500px;"">
  <p>How much control did you have over the ball?</p>
  </div>","13","html-slider-response","31","475142","0.0-5.0-2.4","18","1","2025-07-09 08:48:55","01610cd0009c79a99da7d0a3353eb402","102.182.46.148","Mozilla/5.0 (Macintosh; Intel Mac OS X 10_15_7) AppleWebKit/537.36 (KHTML, like Gecko) Chrome/137.0.0.0 Safari/537.36","Macintosh","Chrome","137.0.0.0","OS X","10_15_7","https://app.prolific.com/","en-GB,en-US;q=0.9,en;q=0.8","61099a311cb3f711346d1b05","683db7602f5db6a34d12d064","686e2cf0ccc9f8f00eb3fcf0","1","61099a311cb3f711346d1b05","1","2025-07-09T08:56:51.616Z","","","","","","","","","","","ControlQ","","50","","","","","","","","","","","","","","","","","","","","","","","","","","","","",""
"4388","","<div style=""width:500px;"">
  <p>How would you describe your current emotional state?</p>
  </div>","21","html-slider-response","32","479531","0.0-5.0-3.4","18","1","2025-07-09 08:48:55","01610cd0009c79a99da7d0a3353eb402","102.182.46.148","Mozilla/5.0 (Macintosh; Intel Mac OS X 10_15_7) AppleWebKit/537.36 (KHTML, like Gecko) Chrome/137.0.0.0 Safari/537.36","Macintosh","Chrome","137.0.0.0","OS X","10_15_7","https://app.prolific.com/","en-GB,en-US;q=0.9,en;q=0.8","61099a311cb3f711346d1b05","683db7602f5db6a34d12d064","686e2cf0ccc9f8f00eb3fcf0","1","61099a311cb3f711346d1b05","1","2025-07-09T08:56:56.005Z","","","","","","","","","","","StressQ","","50","","","","","","","","","","","","","","","","","","","","","","","","","","","","",""
"1839","","<div style=""width:500px;"">
  <p>What best describes how you currently feel?</p>
  </div>","11","html-slider-response","33","481371","0.0-5.0-4.4","18","1","2025-07-09 08:48:55","01610cd0009c79a99da7d0a3353eb402","102.182.46.148","Mozilla/5.0 (Macintosh; Intel Mac OS X 10_15_7) AppleWebKit/537.36 (KHTML, like Gecko) Chrome/137.0.0.0 Safari/537.36","Macintosh","Chrome","137.0.0.0","OS X","10_15_7","https://app.prolific.com/","en-GB,en-US;q=0.9,en;q=0.8","61099a311cb3f711346d1b05","683db7602f5db6a34d12d064","686e2cf0ccc9f8f00eb3fcf0","1","61099a311cb3f711346d1b05","1","2025-07-09T08:56:57.845Z","","","","","","","","","","","MotivationQ","","50","","","","","","","","","","","","","","","","","","","","","","","","","","","","",""
"","","","","ctl-task-cpt","34","513602","0.0-5.0-0.5","18","1","2025-07-09 08:48:55","01610cd0009c79a99da7d0a3353eb402","102.182.46.148","Mozilla/5.0 (Macintosh; Intel Mac OS X 10_15_7) AppleWebKit/537.36 (KHTML, like Gecko) Chrome/137.0.0.0 Safari/537.36","Macintosh","Chrome","137.0.0.0","OS X","10_15_7","https://app.prolific.com/","en-GB,en-US;q=0.9,en;q=0.8","61099a311cb3f711346d1b05","683db7602f5db6a34d12d064","686e2cf0ccc9f8f00eb3fcf0","1","61099a311cb3f711346d1b05","1","2025-07-09T08:57:30.076Z","","","","","","","","","","","","","","win-only","3","g1:SW,g2:NE","0.5","6","0","483447.4","945.3","5945.9","29220.5","1","4","4","6","2","-4","-4","0","0","0","1040.7","3000","-3005","[""up"",""right""]","{""num_key_presses"":7,""num_perfect"":4,""num_errors"":0,""num_randdir"":3,""num_randdir_good_moves"":2,""num_whilered"":0,""num_whileblue"":0,""num_blue"":1,""num_good_moves"":6}","[416.57142857142856,415.47767857142856,0.1,416.57142857142856,415.47767857142856,100.9,416.57142857142856,413.47767857142856,205.1,416.57142857142856,413.47767857142856,305.7,416.57142857142856,413.47767857142856,405.9,416.57142857142856,413.47767857142856,510.6,459.57142857142856,389.47767857142856,615.6,864.5714285714286,116.47767857142857,715.9,864.5714285714286,116.47767857142857,820.9,843.5714285714286,102.47767857142857,925,791.5714285714286,88.47767857142857,1025.6,791.5714285714286,88.47767857142857,1125.9,791.5714285714286,88.47767857142857,1230.4,791.5714285714286,88.47767857142857,1336,791.5714285714286,88.47767857142857,1440.2,791.5714285714286,88.47767857142857,1540.5,791.5714285714286,88.47767857142857,1645.3,791.5714285714286,88.47767857142857,1750.6,791.5714285714286,88.47767857142857,1850.6,791.5714285714286,88.47767857142857,1950.6,791.5714285714286,88.47767857142857,2055.9,791.5714285714286,88.47767857142857,2160,791.5714285714286,88.47767857142857,2261,791.5714285714286,88.47767857142857,2365,791.5714285714286,88.47767857142857,2465.7,791.5714285714286,88.47767857142857,2570.2,791.5714285714286,88.47767857142857,2670.3,791.5714285714286,88.47767857142857,2770.5,791.5714285714286,88.47767857142857,2875.9,791.5714285714286,88.47767857142857,2976,791.5714285714286,88.47767857142857,3080.5,791.5714285714286,88.47767857142857,3180.7,791.5714285714286,88.47767857142857,3281,791.5714285714286,88.47767857142857,3385.8,791.5714285714286,88.47767857142857,3490.2,791.5714285714286,88.47767857142857,3590.4,791.5714285714286,88.47767857142857,3690.8,791.5714285714286,88.47767857142857,3794.8,791.5714285714286,88.47767857142857,3895.7,791.5714285714286,88.47767857142857,4000.7,791.5714285714286,88.47767857142857,4105.4,791.5714285714286,88.47767857142857,4210,791.5714285714286,88.47767857142857,4315.7,791.5714285714286,88.47767857142857,4420.6,791.5714285714286,88.47767857142857,4525,791.5714285714286,88.47767857142857,4625,791.5714285714286,88.47767857142857,4725.4,791.5714285714286,88.47767857142857,4830.5,791.5714285714286,88.47767857142857,4930.8]","[1489,1489,1000,0,489,""oops"",""up"",""up"",""good_move"",7262,5772.7,1948.5,4809.5,504,""smooth"",""right"",""right"",""good_move"",9917.7,2655.3,2273.9,7262.4,381.4,""oops"",""right"",""left"",""bad_move"",12651.1,2733.2,2342.3,9918,390.9,""smooth"",""up"",""up"",""good_move"",15918.9,3267.4,2867.1,12651.5,400.3,""smooth"",""up"",""up"",""good_move"",18572.4,2653.5,2358.9,15918.9,294.6,""oops"",""right"",""right"",""good_move"",20829.3,2256.7,1867.9,18572.6,388.8,""smooth"",""right"",""right"",""good_move""]","",""
"1716","","<div style=""width:500px;"">
  <p>What determined the result of this run?</p>
  </div>","21","html-slider-response","35","515319","0.0-5.0-1.5","18","1","2025-07-09 08:48:55","01610cd0009c79a99da7d0a3353eb402","102.182.46.148","Mozilla/5.0 (Macintosh; Intel Mac OS X 10_15_7) AppleWebKit/537.36 (KHTML, like Gecko) Chrome/137.0.0.0 Safari/537.36","Macintosh","Chrome","137.0.0.0","OS X","10_15_7","https://app.prolific.com/","en-GB,en-US;q=0.9,en;q=0.8","61099a311cb3f711346d1b05","683db7602f5db6a34d12d064","686e2cf0ccc9f8f00eb3fcf0","1","61099a311cb3f711346d1b05","1","2025-07-09T08:57:31.793Z","","","","","","","","","","","AttribQ","","50","","","","","","","","","","","","","","","","","","","","","","","","","","","","",""
"1946","","<div style=""width:500px;"">
  <p>How much control did you have over the ball?</p>
  </div>","8","html-slider-response","36","517265","0.0-5.0-2.5","18","1","2025-07-09 08:48:55","01610cd0009c79a99da7d0a3353eb402","102.182.46.148","Mozilla/5.0 (Macintosh; Intel Mac OS X 10_15_7) AppleWebKit/537.36 (KHTML, like Gecko) Chrome/137.0.0.0 Safari/537.36","Macintosh","Chrome","137.0.0.0","OS X","10_15_7","https://app.prolific.com/","en-GB,en-US;q=0.9,en;q=0.8","61099a311cb3f711346d1b05","683db7602f5db6a34d12d064","686e2cf0ccc9f8f00eb3fcf0","1","61099a311cb3f711346d1b05","1","2025-07-09T08:57:33.739Z","","","","","","","","","","","ControlQ","","50","","","","","","","","","","","","","","","","","","","","","","","","","","","","",""
"1640","","<div style=""width:500px;"">
  <p>How would you describe your current emotional state?</p>
  </div>","13","html-slider-response","37","518906","0.0-5.0-3.5","18","1","2025-07-09 08:48:55","01610cd0009c79a99da7d0a3353eb402","102.182.46.148","Mozilla/5.0 (Macintosh; Intel Mac OS X 10_15_7) AppleWebKit/537.36 (KHTML, like Gecko) Chrome/137.0.0.0 Safari/537.36","Macintosh","Chrome","137.0.0.0","OS X","10_15_7","https://app.prolific.com/","en-GB,en-US;q=0.9,en;q=0.8","61099a311cb3f711346d1b05","683db7602f5db6a34d12d064","686e2cf0ccc9f8f00eb3fcf0","1","61099a311cb3f711346d1b05","1","2025-07-09T08:57:35.380Z","","","","","","","","","","","StressQ","","50","","","","","","","","","","","","","","","","","","","","","","","","","","","","",""
"1480","","<div style=""width:500px;"">
  <p>What best describes how you currently feel?</p>
  </div>","12","html-slider-response","38","520387","0.0-5.0-4.5","18","1","2025-07-09 08:48:55","01610cd0009c79a99da7d0a3353eb402","102.182.46.148","Mozilla/5.0 (Macintosh; Intel Mac OS X 10_15_7) AppleWebKit/537.36 (KHTML, like Gecko) Chrome/137.0.0.0 Safari/537.36","Macintosh","Chrome","137.0.0.0","OS X","10_15_7","https://app.prolific.com/","en-GB,en-US;q=0.9,en;q=0.8","61099a311cb3f711346d1b05","683db7602f5db6a34d12d064","686e2cf0ccc9f8f00eb3fcf0","1","61099a311cb3f711346d1b05","1","2025-07-09T08:57:36.861Z","","","","","","","","","","","MotivationQ","","50","","","","","","","","","","","","","","","","","","","","","","","","","","","","",""
"","","","","ctl-task-cpt","39","552487","0.0-5.0-0.6","18","1","2025-07-09 08:48:55","01610cd0009c79a99da7d0a3353eb402","102.182.46.148","Mozilla/5.0 (Macintosh; Intel Mac OS X 10_15_7) AppleWebKit/537.36 (KHTML, like Gecko) Chrome/137.0.0.0 Safari/537.36","Macintosh","Chrome","137.0.0.0","OS X","10_15_7","https://app.prolific.com/","en-GB,en-US;q=0.9,en;q=0.8","61099a311cb3f711346d1b05","683db7602f5db6a34d12d064","686e2cf0ccc9f8f00eb3fcf0","1","61099a311cb3f711346d1b05","1","2025-07-09T08:58:08.961Z","","","","","","","","","","","","","","win-only","1","g1:NE,g2:SW","0.4","7","0","522462.6","1212.9","6215.6","29091.5","1","4","4","6","2","-4","-6","0","0","0","2506.3","3000","-3000","[""down"",""left""]","{""num_key_presses"":7,""num_perfect"":2,""num_errors"":2,""num_randdir"":3,""num_randdir_good_moves"":2,""num_whilered"":0,""num_whileblue"":1,""num_blue"":1,""num_good_moves"":5}","[421.57142857142856,418.47767857142856,0.1,421.57142857142856,418.47767857142856,103.1,421.57142857142856,418.47767857142856,207.4,421.57142857142856,418.47767857142856,308.4,414.57142857142856,418.47767857142856,413.4,264.57142857142856,423.47767857142856,517.7,390.57142857142856,374.47767857142856,618.5,525.5714285714286,357.47767857142856,722.6,525.5714285714286,358.47767857142856,823.2,530.5714285714286,358.47767857142856,928,283.57142857142856,584.4776785714286,1033,243.57142857142856,628.4776785714286,1133.3,243.57142857142856,628.4776785714286,1237.4,243.57142857142856,628.4776785714286,1337.4,243.57142857142856,628.4776785714286,1438.5,243.57142857142856,628.4776785714286,1543.4,243.57142857142856,628.4776785714286,1648.3,243.57142857142856,628.4776785714286,1753.4,243.57142857142856,628.4776785714286,1858.3,243.57142857142856,628.4776785714286,1962.9,243.57142857142856,628.4776785714286,2068,243.57142857142856,628.4776785714286,2173.5,183.57142857142856,696.4776785714286,2273.5,83.57142857142857,789.4776785714286,2377.9,73.57142857142857,786.4776785714286,2478.3,69.57142857142857,787.4776785714286,2583.2,69.57142857142857,787.4776785714286,2683.3,69.57142857142857,787.4776785714286,2787.4,69.57142857142857,787.4776785714286,2888.2,69.57142857142857,787.4776785714286,2993.1,69.57142857142857,787.4776785714286,3098.3,69.57142857142857,787.4776785714286,3203.2,69.57142857142857,787.4776785714286,3306.9,69.57142857142857,787.4776785714286,3407.8,69.57142857142857,787.4776785714286,3513.2,69.57142857142857,787.4776785714286,3613.2,69.57142857142857,787.4776785714286,3717.9,318.57142857142856,664.4776785714286,3818.6,374.57142857142856,690.4776785714286,3922.5,331.57142857142856,715.4776785714286,4022.5,331.57142857142856,715.4776785714286,4123.2,331.57142857142856,715.4776785714286,4227.5,331.57142857142856,715.4776785714286,4327.6,331.57142857142856,715.4776785714286,4427.8,331.57142857142856,715.4776785714286,4528,331.57142857142856,715.4776785714286,4628,331.57142857142856,715.4776785714286,4732.5,331.57142857142856,715.4776785714286,4833.2,331.57142857142856,715.4776785714286,4937.9]","[1453.5,1453.5,1000,0,453.5,""oops"",""down"",""left"",""good_move"",2408.8,955,3537.2,1453.8,-2582.2,""error"",""-"",""-"",""no_move"",7035.2,4626.3,2580.1,3410.1,1045,""oops"",""down"",""right"",""bad_move"",10008.5,2973,2613,7035.5,360,""smooth"",""down"",""down"",""good_move"",13672.6,3663.8,3351,10008.8,312.8,""while_blue"",""left"",""left"",""good_move"",16425.4,2752.5,2098.9,13672.9,653.6,""oops"",""left"",""left"",""good_move"",19699.6,3274,2971.4,16425.6,302.6,""smooth"",""down"",""down"",""good_move""]","",""
"66830","","<div style=""width:500px;"">
  <p>What determined the result of this run?</p>
  </div>","57","html-slider-response","40","619319","0.0-5.0-1.6","18","1","2025-07-09 08:48:55","01610cd0009c79a99da7d0a3353eb402","102.182.46.148","Mozilla/5.0 (Macintosh; Intel Mac OS X 10_15_7) AppleWebKit/537.36 (KHTML, like Gecko) Chrome/137.0.0.0 Safari/537.36","Macintosh","Chrome","137.0.0.0","OS X","10_15_7","https://app.prolific.com/","en-GB,en-US;q=0.9,en;q=0.8","61099a311cb3f711346d1b05","683db7602f5db6a34d12d064","686e2cf0ccc9f8f00eb3fcf0","1","61099a311cb3f711346d1b05","1","2025-07-09T08:59:15.793Z","","","","","","","","","","","AttribQ","","50","","","","","","","","","","","","","","","","","","","","","","","","","","","","",""
"2280","","<div style=""width:500px;"">
  <p>How much control did you have over the ball?</p>
  </div>","35","html-slider-response","41","621600","0.0-5.0-2.6","18","1","2025-07-09 08:48:55","01610cd0009c79a99da7d0a3353eb402","102.182.46.148","Mozilla/5.0 (Macintosh; Intel Mac OS X 10_15_7) AppleWebKit/537.36 (KHTML, like Gecko) Chrome/137.0.0.0 Safari/537.36","Macintosh","Chrome","137.0.0.0","OS X","10_15_7","https://app.prolific.com/","en-GB,en-US;q=0.9,en;q=0.8","61099a311cb3f711346d1b05","683db7602f5db6a34d12d064","686e2cf0ccc9f8f00eb3fcf0","1","61099a311cb3f711346d1b05","1","2025-07-09T08:59:18.074Z","","","","","","","","","","","ControlQ","","50","","","","","","","","","","","","","","","","","","","","","","","","","","","","",""
"1413","","<div style=""width:500px;"">
  <p>How would you describe your current emotional state?</p>
  </div>","25","html-slider-response","42","623013","0.0-5.0-3.6","18","1","2025-07-09 08:48:55","01610cd0009c79a99da7d0a3353eb402","102.182.46.148","Mozilla/5.0 (Macintosh; Intel Mac OS X 10_15_7) AppleWebKit/537.36 (KHTML, like Gecko) Chrome/137.0.0.0 Safari/537.36","Macintosh","Chrome","137.0.0.0","OS X","10_15_7","https://app.prolific.com/","en-GB,en-US;q=0.9,en;q=0.8","61099a311cb3f711346d1b05","683db7602f5db6a34d12d064","686e2cf0ccc9f8f00eb3fcf0","1","61099a311cb3f711346d1b05","1","2025-07-09T08:59:19.487Z","","","","","","","","","","","StressQ","","50","","","","","","","","","","","","","","","","","","","","","","","","","","","","",""
"1907","","<div style=""width:500px;"">
  <p>What best describes how you currently feel?</p>
  </div>","27","html-slider-response","43","624921","0.0-5.0-4.6","18","1","2025-07-09 08:48:55","01610cd0009c79a99da7d0a3353eb402","102.182.46.148","Mozilla/5.0 (Macintosh; Intel Mac OS X 10_15_7) AppleWebKit/537.36 (KHTML, like Gecko) Chrome/137.0.0.0 Safari/537.36","Macintosh","Chrome","137.0.0.0","OS X","10_15_7","https://app.prolific.com/","en-GB,en-US;q=0.9,en;q=0.8","61099a311cb3f711346d1b05","683db7602f5db6a34d12d064","686e2cf0ccc9f8f00eb3fcf0","1","61099a311cb3f711346d1b05","1","2025-07-09T08:59:21.395Z","","","","","","","","","","","MotivationQ","","50","","","","","","","","","","","","","","","","","","","","","","","","","","","","",""
"","","","","ctl-task-cpt","44","650875","0.0-5.0-0.7","18","1","2025-07-09 08:48:55","01610cd0009c79a99da7d0a3353eb402","102.182.46.148","Mozilla/5.0 (Macintosh; Intel Mac OS X 10_15_7) AppleWebKit/537.36 (KHTML, like Gecko) Chrome/137.0.0.0 Safari/537.36","Macintosh","Chrome","137.0.0.0","OS X","10_15_7","https://app.prolific.com/","en-GB,en-US;q=0.9,en;q=0.8","61099a311cb3f711346d1b05","683db7602f5db6a34d12d064","686e2cf0ccc9f8f00eb3fcf0","1","61099a311cb3f711346d1b05","1","2025-07-09T08:59:47.349Z","","","","","","","","","","","","","","win-only","3","g1:SW,g2:NE","0.3","8","0","626994.4","639.3","5640.3","22960.2","1","4","8","6","2","8","8","8","0","0.06060606060606061","1267.9","3000","155","[""up"",""right""]","{""num_key_presses"":6,""num_perfect"":3,""num_errors"":0,""num_randdir"":3,""num_randdir_good_moves"":3,""num_whilered"":0,""num_whileblue"":0,""num_blue"":0,""num_good_moves"":6}","[415.57142857142856,411.47767857142856,0.1,415.57142857142856,411.47767857142856,101.8,415.57142857142856,411.47767857142856,207,415.57142857142856,411.47767857142856,311.1,415.57142857142856,411.47767857142856,411.6,415.57142857142856,411.47767857142856,516.5,415.57142857142856,411.47767857142856,620.9,415.57142857142856,411.47767857142856,727,415.57142857142856,411.47767857142856,831.8,415.57142857142856,411.47767857142856,936.5,638.5714285714286,118.47767857142857,1036.7,747.5714285714286,86.47767857142857,1136.8,787.5714285714286,78.47767857142857,1241.7,787.5714285714286,78.47767857142857,1346.6,787.5714285714286,78.47767857142857,1446.9,787.5714285714286,78.47767857142857,1551.2,787.5714285714286,78.47767857142857,1656.5,787.5714285714286,78.47767857142857,1756.6,787.5714285714286,78.47767857142857,1856.7,787.5714285714286,78.47767857142857,1961.7,787.5714285714286,78.47767857142857,2066.3,787.5714285714286,78.47767857142857,2166.8,787.5714285714286,78.47767857142857,2271.3,787.5714285714286,78.47767857142857,2371.8,787.5714285714286,78.47767857142857,2476.8,787.5714285714286,78.47767857142857,2577.1,787.5714285714286,78.47767857142857,2679.7,787.5714285714286,78.47767857142857,2781.8,787.5714285714286,78.47767857142857,2886.1,787.5714285714286,78.47767857142857,2986.6,787.5714285714286,78.47767857142857,3091,787.5714285714286,78.47767857142857,3191.5,787.5714285714286,78.47767857142857,3291.5,787.5714285714286,78.47767857142857,3396.8,787.5714285714286,78.47767857142857,3501.6,787.5714285714286,78.47767857142857,3606.8,787.5714285714286,78.47767857142857,3711.1,787.5714285714286,78.47767857142857,3812,787.5714285714286,78.47767857142857,3915.9,787.5714285714286,78.47767857142857,4016,787.5714285714286,78.47767857142857,4116.3,787.5714285714286,78.47767857142857,4216.3,787.5714285714286,78.47767857142857,4316.4,787.5714285714286,78.47767857142857,4421.1,787.5714285714286,78.47767857142857,4521.5,787.5714285714286,78.47767857142857,4625.9,787.5714285714286,78.47767857142857,4726.9,787.5714285714286,78.47767857142857,4831.6,787.5714285714286,78.47767857142857,4936.8]","[1580.3,1580.3,1000,0,580.3,""smooth"",""up"",""up"",""good_move"",5496.8,3916.3,2915.3,1580.6,1000.9,""oops"",""right"",""right"",""good_move"",8506.1,3009,2609.5,5497.1,399.5,""oops"",""up"",""right"",""good_move"",11291.9,2785.7,2412.4,8506.3,373.2,""oops"",""up"",""up"",""good_move"",14406.2,3114.1,2853.1,11292.1,261,""smooth"",""right"",""right"",""good_move"",17229.6,2823.3,2547,14406.3,276.3,""smooth"",""up"",""up"",""good_move""]","",""
"46376","","<div style=""width:500px;"">
  <p>What determined the result of this run?</p>
  </div>","29","html-slider-response","45","697247","0.0-5.0-1.7","18","1","2025-07-09 08:48:55","01610cd0009c79a99da7d0a3353eb402","102.182.46.148","Mozilla/5.0 (Macintosh; Intel Mac OS X 10_15_7) AppleWebKit/537.36 (KHTML, like Gecko) Chrome/137.0.0.0 Safari/537.36","Macintosh","Chrome","137.0.0.0","OS X","10_15_7","https://app.prolific.com/","en-GB,en-US;q=0.9,en;q=0.8","61099a311cb3f711346d1b05","683db7602f5db6a34d12d064","686e2cf0ccc9f8f00eb3fcf0","1","61099a311cb3f711346d1b05","1","2025-07-09T09:00:33.721Z","","","","","","","","","","","AttribQ","","50","","","","","","","","","","","","","","","","","","","","","","","","","","","","",""
"3467","","<div style=""width:500px;"">
  <p>How much control did you have over the ball?</p>
  </div>","61","html-slider-response","46","700715","0.0-5.0-2.7","18","1","2025-07-09 08:48:55","01610cd0009c79a99da7d0a3353eb402","102.182.46.148","Mozilla/5.0 (Macintosh; Intel Mac OS X 10_15_7) AppleWebKit/537.36 (KHTML, like Gecko) Chrome/137.0.0.0 Safari/537.36","Macintosh","Chrome","137.0.0.0","OS X","10_15_7","https://app.prolific.com/","en-GB,en-US;q=0.9,en;q=0.8","61099a311cb3f711346d1b05","683db7602f5db6a34d12d064","686e2cf0ccc9f8f00eb3fcf0","1","61099a311cb3f711346d1b05","1","2025-07-09T09:00:37.189Z","","","","","","","","","","","ControlQ","","50","","","","","","","","","","","","","","","","","","","","","","","","","","","","",""
"3174","","<div style=""width:500px;"">
  <p>How would you describe your current emotional state?</p>
  </div>","30","html-slider-response","47","703890","0.0-5.0-3.7","18","1","2025-07-09 08:48:55","01610cd0009c79a99da7d0a3353eb402","102.182.46.148","Mozilla/5.0 (Macintosh; Intel Mac OS X 10_15_7) AppleWebKit/537.36 (KHTML, like Gecko) Chrome/137.0.0.0 Safari/537.36","Macintosh","Chrome","137.0.0.0","OS X","10_15_7","https://app.prolific.com/","en-GB,en-US;q=0.9,en;q=0.8","61099a311cb3f711346d1b05","683db7602f5db6a34d12d064","686e2cf0ccc9f8f00eb3fcf0","1","61099a311cb3f711346d1b05","1","2025-07-09T09:00:40.364Z","","","","","","","","","","","StressQ","","50","","","","","","","","","","","","","","","","","","","","","","","","","","","","",""
"13008","","<div style=""width:500px;"">
  <p>What best describes how you currently feel?</p>
  </div>","27","html-slider-response","48","716898","0.0-5.0-4.7","18","1","2025-07-09 08:48:55","01610cd0009c79a99da7d0a3353eb402","102.182.46.148","Mozilla/5.0 (Macintosh; Intel Mac OS X 10_15_7) AppleWebKit/537.36 (KHTML, like Gecko) Chrome/137.0.0.0 Safari/537.36","Macintosh","Chrome","137.0.0.0","OS X","10_15_7","https://app.prolific.com/","en-GB,en-US;q=0.9,en;q=0.8","61099a311cb3f711346d1b05","683db7602f5db6a34d12d064","686e2cf0ccc9f8f00eb3fcf0","1","61099a311cb3f711346d1b05","1","2025-07-09T09:00:53.372Z","","","","","","","","","","","MotivationQ","","50","","","","","","","","","","","","","","","","","","","","","","","","","","","","",""
"","","","","ctl-task-cpt","49","803705","0.0-5.0-0.8","18","1","2025-07-09 08:48:55","01610cd0009c79a99da7d0a3353eb402","102.182.46.148","Mozilla/5.0 (Macintosh; Intel Mac OS X 10_15_7) AppleWebKit/537.36 (KHTML, like Gecko) Chrome/137.0.0.0 Safari/537.36","Macintosh","Chrome","137.0.0.0","OS X","10_15_7","https://app.prolific.com/","en-GB,en-US;q=0.9,en;q=0.8","61099a311cb3f711346d1b05","683db7602f5db6a34d12d064","686e2cf0ccc9f8f00eb3fcf0","1","61099a311cb3f711346d1b05","1","2025-07-09T09:02:20.179Z","","","","","","","","","","","","","","win-only","2","g1:SE,g2:NW","0.2","9","0","718992.2","62101.9","67106.2","83795.5","1","4","4","6","2","-4","-4","4","8","0.030303030303030304","1543","3000","-3005","[""left"",""up""]","{""num_key_presses"":4,""num_perfect"":1,""num_errors"":0,""num_randdir"":3,""num_randdir_good_moves"":2,""num_whilered"":0,""num_whileblue"":0,""num_blue"":1,""num_good_moves"":3}","[415.57142857142856,420.47767857142856,0.2,415.57142857142856,420.47767857142856,104.5,415.57142857142856,420.47767857142856,209,415.57142857142856,420.47767857142856,314.4,415.57142857142856,420.47767857142856,419.3,415.57142857142856,420.47767857142856,524.6,415.57142857142856,420.47767857142856,628.7,415.57142857142856,420.47767857142856,734.4,415.57142857142856,420.47767857142856,838.8,515.5714285714286,240.47767857142856,938.9,526.5714285714286,133.47767857142856,1039.2,526.5714285714286,133.47767857142856,1144,463.57142857142856,142.47767857142856,1244.4,27.57142857142857,87.47767857142857,1348.6,15.57142857142857,73.47767857142857,1449.4,14.57142857142857,73.47767857142857,1553.6,14.57142857142857,73.47767857142857,1654.3,14.57142857142857,73.47767857142857,1759.3,14.57142857142857,73.47767857142857,1864,135.57142857142856,120.47767857142857,1968.9,348.57142857142856,221.47767857142856,2074.2,349.57142857142856,225.47767857142856,2174.3,349.57142857142856,225.47767857142856,2278.7,349.57142857142856,225.47767857142856,2381.3,349.57142857142856,225.47767857142856,2483.9,349.57142857142856,225.47767857142856,2589.3,349.57142857142856,225.47767857142856,2693.8,349.57142857142856,225.47767857142856,2794.2,349.57142857142856,225.47767857142856,2899,349.57142857142856,225.47767857142856,3003.7,349.57142857142856,225.47767857142856,3103.9,349.57142857142856,225.47767857142856,3209.3,349.57142857142856,225.47767857142856,3313.7,349.57142857142856,225.47767857142856,3413.8,349.57142857142856,225.47767857142856,3518.7,349.57142857142856,225.47767857142856,3619.5,349.57142857142856,225.47767857142856,3724.2,349.57142857142856,225.47767857142856,3824.3,349.57142857142856,225.47767857142856,3924.4,349.57142857142856,225.47767857142856,4024.4,349.57142857142856,225.47767857142856,4128.9,349.57142857142856,225.47767857142856,4228.9,349.57142857142856,225.47767857142856,4334.3,349.57142857142856,225.47767857142856,4438.6,349.57142857142856,225.47767857142856,4538.8,349.57142857142856,225.47767857142856,4639,349.57142857142856,225.47767857142856,4739.1,349.57142857142856,225.47767857142856,4839.3,349.57142857142856,225.47767857142856,4943.5]","[2087.3,2087.3,1000,0,1087.3,""oops"",""left"",""up"",""good_move"",5121.1,3033.7,2626.2,2087.4,407.5,""smooth"",""left"",""left"",""good_move"",7755,2633.7,2036.9,5121.3,596.8,""oops"",""up"",""left"",""good_move"",10538.5,2783.5,2256,7755.1,527.5,""oops"",""up"",""down"",""bad_move""]","",""
"2328","","<div style=""width:500px;"">
  <p>What determined the result of this run?</p>
  </div>","6","html-slider-response","50","806033","0.0-5.0-1.8","18","1","2025-07-09 08:48:55","01610cd0009c79a99da7d0a3353eb402","102.182.46.148","Mozilla/5.0 (Macintosh; Intel Mac OS X 10_15_7) AppleWebKit/537.36 (KHTML, like Gecko) Chrome/137.0.0.0 Safari/537.36","Macintosh","Chrome","137.0.0.0","OS X","10_15_7","https://app.prolific.com/","en-GB,en-US;q=0.9,en;q=0.8","61099a311cb3f711346d1b05","683db7602f5db6a34d12d064","686e2cf0ccc9f8f00eb3fcf0","1","61099a311cb3f711346d1b05","1","2025-07-09T09:02:22.507Z","","","","","","","","","","","AttribQ","","50","","","","","","","","","","","","","","","","","","","","","","","","","","","","",""
"9432","","<div style=""width:500px;"">
  <p>How much control did you have over the ball?</p>
  </div>","3","html-slider-response","51","815466","0.0-5.0-2.8","18","1","2025-07-09 08:48:55","01610cd0009c79a99da7d0a3353eb402","102.182.46.148","Mozilla/5.0 (Macintosh; Intel Mac OS X 10_15_7) AppleWebKit/537.36 (KHTML, like Gecko) Chrome/137.0.0.0 Safari/537.36","Macintosh","Chrome","137.0.0.0","OS X","10_15_7","https://app.prolific.com/","en-GB,en-US;q=0.9,en;q=0.8","61099a311cb3f711346d1b05","683db7602f5db6a34d12d064","686e2cf0ccc9f8f00eb3fcf0","1","61099a311cb3f711346d1b05","1","2025-07-09T09:02:31.940Z","","","","","","","","","","","ControlQ","","50","","","","","","","","","","","","","","","","","","","","","","","","","","","","",""
"1971","","<div style=""width:500px;"">
  <p>How would you describe your current emotional state?</p>
  </div>","9","html-slider-response","52","817438","0.0-5.0-3.8","18","1","2025-07-09 08:48:55","01610cd0009c79a99da7d0a3353eb402","102.182.46.148","Mozilla/5.0 (Macintosh; Intel Mac OS X 10_15_7) AppleWebKit/537.36 (KHTML, like Gecko) Chrome/137.0.0.0 Safari/537.36","Macintosh","Chrome","137.0.0.0","OS X","10_15_7","https://app.prolific.com/","en-GB,en-US;q=0.9,en;q=0.8","61099a311cb3f711346d1b05","683db7602f5db6a34d12d064","686e2cf0ccc9f8f00eb3fcf0","1","61099a311cb3f711346d1b05","1","2025-07-09T09:02:33.912Z","","","","","","","","","","","StressQ","","50","","","","","","","","","","","","","","","","","","","","","","","","","","","","",""
"1775","","<div style=""width:500px;"">
  <p>What best describes how you currently feel?</p>
  </div>","9","html-slider-response","53","819213","0.0-5.0-4.8","18","1","2025-07-09 08:48:55","01610cd0009c79a99da7d0a3353eb402","102.182.46.148","Mozilla/5.0 (Macintosh; Intel Mac OS X 10_15_7) AppleWebKit/537.36 (KHTML, like Gecko) Chrome/137.0.0.0 Safari/537.36","Macintosh","Chrome","137.0.0.0","OS X","10_15_7","https://app.prolific.com/","en-GB,en-US;q=0.9,en;q=0.8","61099a311cb3f711346d1b05","683db7602f5db6a34d12d064","686e2cf0ccc9f8f00eb3fcf0","1","61099a311cb3f711346d1b05","1","2025-07-09T09:02:35.687Z","","","","","","","","","","","MotivationQ","","50","","","","","","","","","","","","","","","","","","","","","","","","","","","","",""
"","","","","ctl-task-cpt","54","855784","0.0-5.0-0.9","18","1","2025-07-09 08:48:55","01610cd0009c79a99da7d0a3353eb402","102.182.46.148","Mozilla/5.0 (Macintosh; Intel Mac OS X 10_15_7) AppleWebKit/537.36 (KHTML, like Gecko) Chrome/137.0.0.0 Safari/537.36","Macintosh","Chrome","137.0.0.0","OS X","10_15_7","https://app.prolific.com/","en-GB,en-US;q=0.9,en;q=0.8","61099a311cb3f711346d1b05","683db7602f5db6a34d12d064","686e2cf0ccc9f8f00eb3fcf0","1","61099a311cb3f711346d1b05","1","2025-07-09T09:03:12.258Z","","","","","","","","","","","","","","win-only","0","g1:NW,g2:SE","0.4","10","0","821306.3","13028.6","18030.9","33560.7","1","4","8","6","2","-8","-8","0","4","0","1480.7","3000","-3005","[""down"",""right""]","{""num_key_presses"":5,""num_perfect"":1,""num_errors"":0,""num_randdir"":4,""num_randdir_good_moves"":3,""num_whilered"":0,""num_whileblue"":0,""num_blue"":0,""num_good_moves"":4}","[420.57142857142856,420.47767857142856,0.1,420.57142857142856,420.47767857142856,102.7,420.57142857142856,420.47767857142856,207.5,328.57142857142856,467.47767857142856,311.8,313.57142857142856,466.47767857142856,411.9,313.57142857142856,466.47767857142856,512.2,313.57142857142856,466.47767857142856,617.2,345.57142857142856,484.47767857142856,722.6,553.5714285714286,544.4776785714286,822.6,574.5714285714286,582.4776785714286,928.6,574.5714285714286,582.4776785714286,1031.7,772.5714285714286,738.4776785714286,1132,846.5714285714286,826.4776785714286,1232.3,842.5714285714286,825.4776785714286,1336.8,784.5714285714286,785.4776785714286,1437.2,776.5714285714286,778.4776785714286,1542.1,776.5714285714286,778.4776785714286,1642.4,776.5714285714286,778.4776785714286,1747.7,776.5714285714286,778.4776785714286,1852.2,1113.5714285714287,579.4776785714286,1956.8,1287.5714285714287,553.4776785714286,2057.7,1287.5714285714287,553.4776785714286,2162.3,1287.5714285714287,553.4776785714286,2262.6,1287.5714285714287,553.4776785714286,2367.4,1287.5714285714287,553.4776785714286,2467.7,1287.5714285714287,553.4776785714286,2572.5,1287.5714285714287,553.4776785714286,2677.2,1287.5714285714287,553.4776785714286,2782.5,1287.5714285714287,553.4776785714286,2887,1287.5714285714287,553.4776785714286,2993,1287.5714285714287,553.4776785714286,3096.6,1287.5714285714287,553.4776785714286,3196.9,1287.5714285714287,553.4776785714286,3297.6,1287.5714285714287,553.4776785714286,3402.6,1287.5714285714287,553.4776785714286,3507.3,1287.5714285714287,553.4776785714286,3612.4,1287.5714285714287,553.4776785714286,3717.5,1287.5714285714287,553.4776785714286,3821.7,1287.5714285714287,553.4776785714286,3922.6,1287.5714285714287,553.4776785714286,4026.9,1287.5714285714287,553.4776785714286,4129.3,1287.5714285714287,553.4776785714286,4232.4,1287.5714285714287,553.4776785714286,4337.7,1287.5714285714287,553.4776785714286,4442.5,1287.5714285714287,553.4776785714286,4547.4,1287.5714285714287,553.4776785714286,4647.4,1287.5714285714287,553.4776785714286,4751.6,1287.5714285714287,553.4776785714286,4851.9,1287.5714285714287,553.4776785714286,4952.3]","[2246,2246,1000,0,1246,""oops"",""down"",""down"",""good_move"",4541.9,2295.6,1844.6,2246.3,451,""oops"",""right"",""right"",""good_move"",6882.3,2340.2,2001.2,4542.2,339,""oops"",""down"",""right"",""good_move"",9608.6,2726.2,2393.4,6882.4,332.8,""oops"",""down"",""left"",""bad_move"",12271.9,2663.1,2319.2,9608.8,343.9,""smooth"",""down"",""down"",""good_move""]","",""
"11367","","<div style=""width:500px;"">
  <p>What determined the result of this run?</p>
  </div>","10","html-slider-response","55","867152","0.0-5.0-1.9","18","1","2025-07-09 08:48:55","01610cd0009c79a99da7d0a3353eb402","102.182.46.148","Mozilla/5.0 (Macintosh; Intel Mac OS X 10_15_7) AppleWebKit/537.36 (KHTML, like Gecko) Chrome/137.0.0.0 Safari/537.36","Macintosh","Chrome","137.0.0.0","OS X","10_15_7","https://app.prolific.com/","en-GB,en-US;q=0.9,en;q=0.8","61099a311cb3f711346d1b05","683db7602f5db6a34d12d064","686e2cf0ccc9f8f00eb3fcf0","1","61099a311cb3f711346d1b05","1","2025-07-09T09:03:23.626Z","","","","","","","","","","","AttribQ","","50","","","","","","","","","","","","","","","","","","","","","","","","","","","","",""
"2251","","<div style=""width:500px;"">
  <p>How much control did you have over the ball?</p>
  </div>","6","html-slider-response","56","869403","0.0-5.0-2.9","18","1","2025-07-09 08:48:55","01610cd0009c79a99da7d0a3353eb402","102.182.46.148","Mozilla/5.0 (Macintosh; Intel Mac OS X 10_15_7) AppleWebKit/537.36 (KHTML, like Gecko) Chrome/137.0.0.0 Safari/537.36","Macintosh","Chrome","137.0.0.0","OS X","10_15_7","https://app.prolific.com/","en-GB,en-US;q=0.9,en;q=0.8","61099a311cb3f711346d1b05","683db7602f5db6a34d12d064","686e2cf0ccc9f8f00eb3fcf0","1","61099a311cb3f711346d1b05","1","2025-07-09T09:03:25.877Z","","","","","","","","","","","ControlQ","","50","","","","","","","","","","","","","","","","","","","","","","","","","","","","",""
"2080","","<div style=""width:500px;"">
  <p>How would you describe your current emotional state?</p>
  </div>","63","html-slider-response","57","871484","0.0-5.0-3.9","18","1","2025-07-09 08:48:55","01610cd0009c79a99da7d0a3353eb402","102.182.46.148","Mozilla/5.0 (Macintosh; Intel Mac OS X 10_15_7) AppleWebKit/537.36 (KHTML, like Gecko) Chrome/137.0.0.0 Safari/537.36","Macintosh","Chrome","137.0.0.0","OS X","10_15_7","https://app.prolific.com/","en-GB,en-US;q=0.9,en;q=0.8","61099a311cb3f711346d1b05","683db7602f5db6a34d12d064","686e2cf0ccc9f8f00eb3fcf0","1","61099a311cb3f711346d1b05","1","2025-07-09T09:03:27.958Z","","","","","","","","","","","StressQ","","50","","","","","","","","","","","","","","","","","","","","","","","","","","","","",""
"3254","","<div style=""width:500px;"">
  <p>What best describes how you currently feel?</p>
  </div>","18","html-slider-response","58","874739","0.0-5.0-4.9","18","1","2025-07-09 08:48:55","01610cd0009c79a99da7d0a3353eb402","102.182.46.148","Mozilla/5.0 (Macintosh; Intel Mac OS X 10_15_7) AppleWebKit/537.36 (KHTML, like Gecko) Chrome/137.0.0.0 Safari/537.36","Macintosh","Chrome","137.0.0.0","OS X","10_15_7","https://app.prolific.com/","en-GB,en-US;q=0.9,en;q=0.8","61099a311cb3f711346d1b05","683db7602f5db6a34d12d064","686e2cf0ccc9f8f00eb3fcf0","1","61099a311cb3f711346d1b05","1","2025-07-09T09:03:31.213Z","","","","","","","","","","","MotivationQ","","50","","","","","","","","","","","","","","","","","","","","","","","","","","","","",""
"","","","","ctl-task-cpt","59","943860","0.0-5.0-0.10","18","1","2025-07-09 08:48:55","01610cd0009c79a99da7d0a3353eb402","102.182.46.148","Mozilla/5.0 (Macintosh; Intel Mac OS X 10_15_7) AppleWebKit/537.36 (KHTML, like Gecko) Chrome/137.0.0.0 Safari/537.36","Macintosh","Chrome","137.0.0.0","OS X","10_15_7","https://app.prolific.com/","en-GB,en-US;q=0.9,en;q=0.8","61099a311cb3f711346d1b05","683db7602f5db6a34d12d064","686e2cf0ccc9f8f00eb3fcf0","1","61099a311cb3f711346d1b05","1","2025-07-09T09:04:40.334Z","","","","","","","","","","","","","","win-only","0","g1:NW,g2:SE","0.5","11","0","876831","57098.5","62101.2","66111.2","1","4","8","6","2","-8","-8","0","0","0","1133","3000","-3005","[""down"",""right""]","{""num_key_presses"":0,""num_perfect"":0,""num_errors"":0,""num_randdir"":0,""num_randdir_good_moves"":0,""num_whilered"":0,""num_whileblue"":0,""num_blue"":0,""num_good_moves"":0}","[416.57142857142856,426.47767857142856,2.7,416.57142857142856,426.47767857142856,102.4,416.57142857142856,426.47767857142856,207.1,416.57142857142856,426.47767857142856,312.5,416.57142857142856,426.47767857142856,417.1,180.57142857142856,489.47767857142856,517.1,180.57142857142856,442.47767857142856,622.6,532.5714285714286,441.47767857142856,727,687.5714285714286,727.4776785714286,827.2,687.5714285714286,727.4776785714286,927.2,711.5714285714286,729.4776785714286,1027.4,782.5714285714286,763.4776785714286,1127.4,782.5714285714286,763.4776785714286,1227.4,782.5714285714286,763.4776785714286,1332.5,782.5714285714286,763.4776785714286,1436.6,359.57142857142856,746.4776785714286,1536.7,2.5714285714285694,705.4776785714286,1637.3,-6.428571428571431,707.4776785714286,1742.5,-6.428571428571431,707.4776785714286,1842.7,-165.42857142857144,605.4776785714286,1947.7,-307.42857142857144,515.4776785714286,2052.7,-307.42857142857144,515.4776785714286,2156.8,-306.42857142857144,530.4776785714286,2262.5,-476.42857142857144,523.4776785714286,2366.7,-476.42857142857144,523.4776785714286,2467.4,-476.42857142857144,523.4776785714286,2567.7,-476.42857142857144,523.4776785714286,2667.8,-476.42857142857144,523.4776785714286,2772.5,-476.42857142857144,523.4776785714286,2877.4,-476.42857142857144,523.4776785714286,2982,-476.42857142857144,523.4776785714286,3082.3,-476.42857142857144,523.4776785714286,3187,-476.42857142857144,523.4776785714286,3287.1,-476.42857142857144,523.4776785714286,3392.3,-476.42857142857144,523.4776785714286,3492.6,-476.42857142857144,523.4776785714286,3597.5,-476.42857142857144,523.4776785714286,3702.5,-476.42857142857144,523.4776785714286,3807.1,-476.42857142857144,523.4776785714286,3912.1,-476.42857142857144,523.4776785714286,4017.3,-476.42857142857144,523.4776785714286,4117.4,-476.42857142857144,523.4776785714286,4222.2,-476.42857142857144,523.4776785714286,4326.9,-476.42857142857144,523.4776785714286,4427,-476.42857142857144,523.4776785714286,4527.7,-476.42857142857144,523.4776785714286,4632.1,-476.42857142857144,523.4776785714286,4732.6,-476.42857142857144,523.4776785714286,4837,-476.42857142857144,523.4776785714286,4937.2]","[]","",""
"9518","","<div style=""width:500px;"">
  <p>What determined the result of this run?</p>
  </div>","84","html-slider-response","60","953382","0.0-5.0-1.10","18","1","2025-07-09 08:48:55","01610cd0009c79a99da7d0a3353eb402","102.182.46.148","Mozilla/5.0 (Macintosh; Intel Mac OS X 10_15_7) AppleWebKit/537.36 (KHTML, like Gecko) Chrome/137.0.0.0 Safari/537.36","Macintosh","Chrome","137.0.0.0","OS X","10_15_7","https://app.prolific.com/","en-GB,en-US;q=0.9,en;q=0.8","61099a311cb3f711346d1b05","683db7602f5db6a34d12d064","686e2cf0ccc9f8f00eb3fcf0","1","61099a311cb3f711346d1b05","1","2025-07-09T09:04:49.856Z","","","","","","","","","","","AttribQ","","50","","","","","","","","","","","","","","","","","","","","","","","","","","","","",""
"3518","","<div style=""width:500px;"">
  <p>How much control did you have over the ball?</p>
  </div>","32","html-slider-response","61","956900","0.0-5.0-2.10","18","1","2025-07-09 08:48:55","01610cd0009c79a99da7d0a3353eb402","102.182.46.148","Mozilla/5.0 (Macintosh; Intel Mac OS X 10_15_7) AppleWebKit/537.36 (KHTML, like Gecko) Chrome/137.0.0.0 Safari/537.36","Macintosh","Chrome","137.0.0.0","OS X","10_15_7","https://app.prolific.com/","en-GB,en-US;q=0.9,en;q=0.8","61099a311cb3f711346d1b05","683db7602f5db6a34d12d064","686e2cf0ccc9f8f00eb3fcf0","1","61099a311cb3f711346d1b05","1","2025-07-09T09:04:53.374Z","","","","","","","","","","","ControlQ","","50","","","","","","","","","","","","","","","","","","","","","","","","","","","","",""
"1547","","<div style=""width:500px;"">
  <p>How would you describe your current emotional state?</p>
  </div>","34","html-slider-response","62","958448","0.0-5.0-3.10","18","1","2025-07-09 08:48:55","01610cd0009c79a99da7d0a3353eb402","102.182.46.148","Mozilla/5.0 (Macintosh; Intel Mac OS X 10_15_7) AppleWebKit/537.36 (KHTML, like Gecko) Chrome/137.0.0.0 Safari/537.36","Macintosh","Chrome","137.0.0.0","OS X","10_15_7","https://app.prolific.com/","en-GB,en-US;q=0.9,en;q=0.8","61099a311cb3f711346d1b05","683db7602f5db6a34d12d064","686e2cf0ccc9f8f00eb3fcf0","1","61099a311cb3f711346d1b05","1","2025-07-09T09:04:54.922Z","","","","","","","","","","","StressQ","","50","","","","","","","","","","","","","","","","","","","","","","","","","","","","",""
"1693","","<div style=""width:500px;"">
  <p>What best describes how you currently feel?</p>
  </div>","19","html-slider-response","63","960142","0.0-5.0-4.10","18","1","2025-07-09 08:48:55","01610cd0009c79a99da7d0a3353eb402","102.182.46.148","Mozilla/5.0 (Macintosh; Intel Mac OS X 10_15_7) AppleWebKit/537.36 (KHTML, like Gecko) Chrome/137.0.0.0 Safari/537.36","Macintosh","Chrome","137.0.0.0","OS X","10_15_7","https://app.prolific.com/","en-GB,en-US;q=0.9,en;q=0.8","61099a311cb3f711346d1b05","683db7602f5db6a34d12d064","686e2cf0ccc9f8f00eb3fcf0","1","61099a311cb3f711346d1b05","1","2025-07-09T09:04:56.616Z","","","","","","","","","","","MotivationQ","","50","","","","","","","","","","","","","","","","","","","","","","","","","","","","",""
"","","","","ctl-task-cpt","64","1060470","0.0-5.0-0.11","18","1","2025-07-09 08:48:55","01610cd0009c79a99da7d0a3353eb402","102.182.46.148","Mozilla/5.0 (Macintosh; Intel Mac OS X 10_15_7) AppleWebKit/537.36 (KHTML, like Gecko) Chrome/137.0.0.0 Safari/537.36","Macintosh","Chrome","137.0.0.0","OS X","10_15_7","https://app.prolific.com/","en-GB,en-US;q=0.9,en;q=0.8","61099a311cb3f711346d1b05","683db7602f5db6a34d12d064","686e2cf0ccc9f8f00eb3fcf0","1","61099a311cb3f711346d1b05","1","2025-07-09T09:06:36.944Z","","","","","","","","","","","","","","win-only","0","g1:NW,g2:SE","0.6","12","0","962234.8","86292.4","91295.5","97316.5","1","4","4","6","2","-4","-4","0","0","0","1159.7","3000","-3005","[""down"",""right""]","{""num_key_presses"":1,""num_perfect"":0,""num_errors"":0,""num_randdir"":1,""num_randdir_good_moves"":1,""num_whilered"":0,""num_whileblue"":0,""num_blue"":0,""num_good_moves"":1}","[414.57142857142856,419.47767857142856,0.3,414.57142857142856,419.47767857142856,103.7,414.57142857142856,419.47767857142856,203.7,414.57142857142856,419.47767857142856,308.3,414.57142857142856,419.47767857142856,408.5,414.57142857142856,419.47767857142856,509,517.5714285714286,473.47767857142856,613.7,585.5714285714286,583.4776785714286,719.1,585.5714285714286,583.4776785714286,823.6,705.5714285714286,715.4776785714286,923.9,799.5714285714286,792.4776785714286,1029.9,804.5714285714286,789.4776785714286,1132.9,807.5714285714286,789.4776785714286,1234.2,807.5714285714286,789.4776785714286,1339.3,807.5714285714286,789.4776785714286,1443,807.5714285714286,789.4776785714286,1543.6,807.5714285714286,789.4776785714286,1648.8,807.5714285714286,789.4776785714286,1754.1,807.5714285714286,789.4776785714286,1858.4,807.5714285714286,789.4776785714286,1958.5,789.5714285714286,789.4776785714286,2058.5,634.5714285714286,792.4776785714286,2163.5,677.5714285714286,782.4776785714286,2264.8,766.5714285714286,800.4776785714286,2367.9,767.5714285714286,802.4776785714286,2468.2,716.5714285714286,792.4776785714286,2574.2,611.5714285714286,788.4776785714286,2677.9,610.5714285714286,786.4776785714286,2779.3,610.5714285714286,786.4776785714286,2883.5,610.5714285714286,786.4776785714286,2984,610.5714285714286,786.4776785714286,3087.8,610.5714285714286,786.4776785714286,3188.3,610.5714285714286,786.4776785714286,3293.7,610.5714285714286,786.4776785714286,3399,610.5714285714286,786.4776785714286,3504.1,610.5714285714286,786.4776785714286,3604.3,610.5714285714286,786.4776785714286,3705.7,610.5714285714286,786.4776785714286,3808.1,610.5714285714286,786.4776785714286,3908.7,610.5714285714286,786.4776785714286,4013,610.5714285714286,786.4776785714286,4114,610.5714285714286,786.4776785714286,4217.8,610.5714285714286,786.4776785714286,4318.9,610.5714285714286,786.4776785714286,4423.5,610.5714285714286,786.4776785714286,4523.6,610.5714285714286,786.4776785714286,4628.2,610.5714285714286,786.4776785714286,4728.7,610.5714285714286,786.4776785714286,4833.9,607.5714285714286,785.4776785714286,4938.4]","[1358.9,1358.9,1000,0,358.9,""oops"",""down"",""down"",""good_move""]","",""
"16256","","<div style=""width:500px;"">
  <p>What determined the result of this run?</p>
  </div>","58","html-slider-response","65","1076728","0.0-5.0-1.11","18","1","2025-07-09 08:48:55","01610cd0009c79a99da7d0a3353eb402","102.182.46.148","Mozilla/5.0 (Macintosh; Intel Mac OS X 10_15_7) AppleWebKit/537.36 (KHTML, like Gecko) Chrome/137.0.0.0 Safari/537.36","Macintosh","Chrome","137.0.0.0","OS X","10_15_7","https://app.prolific.com/","en-GB,en-US;q=0.9,en;q=0.8","61099a311cb3f711346d1b05","683db7602f5db6a34d12d064","686e2cf0ccc9f8f00eb3fcf0","1","61099a311cb3f711346d1b05","1","2025-07-09T09:06:53.202Z","","","","","","","","","","","AttribQ","","50","","","","","","","","","","","","","","","","","","","","","","","","","","","","",""
"3068","","<div style=""width:500px;"">
  <p>How much control did you have over the ball?</p>
  </div>","57","html-slider-response","66","1079797","0.0-5.0-2.11","18","1","2025-07-09 08:48:55","01610cd0009c79a99da7d0a3353eb402","102.182.46.148","Mozilla/5.0 (Macintosh; Intel Mac OS X 10_15_7) AppleWebKit/537.36 (KHTML, like Gecko) Chrome/137.0.0.0 Safari/537.36","Macintosh","Chrome","137.0.0.0","OS X","10_15_7","https://app.prolific.com/","en-GB,en-US;q=0.9,en;q=0.8","61099a311cb3f711346d1b05","683db7602f5db6a34d12d064","686e2cf0ccc9f8f00eb3fcf0","1","61099a311cb3f711346d1b05","1","2025-07-09T09:06:56.271Z","","","","","","","","","","","ControlQ","","50","","","","","","","","","","","","","","","","","","","","","","","","","","","","",""
"1825","","<div style=""width:500px;"">
  <p>How would you describe your current emotional state?</p>
  </div>","35","html-slider-response","67","1081623","0.0-5.0-3.11","18","1","2025-07-09 08:48:55","01610cd0009c79a99da7d0a3353eb402","102.182.46.148","Mozilla/5.0 (Macintosh; Intel Mac OS X 10_15_7) AppleWebKit/537.36 (KHTML, like Gecko) Chrome/137.0.0.0 Safari/537.36","Macintosh","Chrome","137.0.0.0","OS X","10_15_7","https://app.prolific.com/","en-GB,en-US;q=0.9,en;q=0.8","61099a311cb3f711346d1b05","683db7602f5db6a34d12d064","686e2cf0ccc9f8f00eb3fcf0","1","61099a311cb3f711346d1b05","1","2025-07-09T09:06:58.097Z","","","","","","","","","","","StressQ","","50","","","","","","","","","","","","","","","","","","","","","","","","","","","","",""
"7015","","<div style=""width:500px;"">
  <p>What best describes how you currently feel?</p>
  </div>","34","html-slider-response","68","1088639","0.0-5.0-4.11","18","1","2025-07-09 08:48:55","01610cd0009c79a99da7d0a3353eb402","102.182.46.148","Mozilla/5.0 (Macintosh; Intel Mac OS X 10_15_7) AppleWebKit/537.36 (KHTML, like Gecko) Chrome/137.0.0.0 Safari/537.36","Macintosh","Chrome","137.0.0.0","OS X","10_15_7","https://app.prolific.com/","en-GB,en-US;q=0.9,en;q=0.8","61099a311cb3f711346d1b05","683db7602f5db6a34d12d064","686e2cf0ccc9f8f00eb3fcf0","1","61099a311cb3f711346d1b05","1","2025-07-09T09:07:05.113Z","","","","","","","","","","","MotivationQ","","50","","","","","","","","","","","","","","","","","","","","","","","","","","","","",""
"","","","","ctl-task-cpt","69","1149020","0.0-5.0-0.12","18","1","2025-07-09 08:48:55","01610cd0009c79a99da7d0a3353eb402","102.182.46.148","Mozilla/5.0 (Macintosh; Intel Mac OS X 10_15_7) AppleWebKit/537.36 (KHTML, like Gecko) Chrome/137.0.0.0 Safari/537.36","Macintosh","Chrome","137.0.0.0","OS X","10_15_7","https://app.prolific.com/","en-GB,en-US;q=0.9,en;q=0.8","61099a311cb3f711346d1b05","683db7602f5db6a34d12d064","686e2cf0ccc9f8f00eb3fcf0","1","61099a311cb3f711346d1b05","1","2025-07-09T09:08:05.494Z","","","","","","","","","","","","","","win-only","2","g1:SE,g2:NW","0.7","13","0","1090729.5","41384.9","46386","57370.2","1","4","8","6","2","-8","-8","0","0","0","1283.5","3000","-3005","[""left"",""up""]","{""num_key_presses"":1,""num_perfect"":1,""num_errors"":0,""num_randdir"":0,""num_randdir_good_moves"":0,""num_whilered"":0,""num_whileblue"":0,""num_blue"":1,""num_good_moves"":1}","[423.57142857142856,415.47767857142856,0.1,423.57142857142856,415.47767857142856,101.4,423.57142857142856,415.47767857142856,205.9,423.57142857142856,415.47767857142856,306.5,423.57142857142856,415.47767857142856,410.9,423.57142857142856,415.47767857142856,516.2,436.57142857142856,408.47767857142856,616.2,254.57142857142856,293.47767857142856,721.5,249.57142857142856,286.47767857142856,825.3,248.57142857142856,286.47767857142856,926,98.57142857142857,185.47767857142856,1026.4,45.57142857142857,146.47767857142856,1126.4,51.57142857142857,111.47767857142857,1231.1,49.57142857142857,105.47767857142857,1336.5,49.57142857142857,105.47767857142857,1441.4,49.57142857142857,105.47767857142857,1547.2,49.57142857142857,105.47767857142857,1650.7,93.57142857142857,178.47767857142856,1751.2,256.57142857142856,361.47767857142856,1855.5,359.57142857142856,385.47767857142856,1956.5,373.57142857142856,382.47767857142856,2061.4,373.57142857142856,382.47767857142856,2161.7,364.57142857142856,400.47767857142856,2266.9,338.57142857142856,500.47767857142856,2370.8,360.57142857142856,552.4776785714286,2471.4,360.57142857142856,552.4776785714286,2571.6,360.57142857142856,552.4776785714286,2675.8,360.57142857142856,552.4776785714286,2776.1,360.57142857142856,552.4776785714286,2880.4,360.57142857142856,552.4776785714286,2981,360.57142857142856,552.4776785714286,3085.8,360.57142857142856,552.4776785714286,3191,360.57142857142856,552.4776785714286,3291.6,360.57142857142856,552.4776785714286,3396.2,360.57142857142856,552.4776785714286,3501.2,360.57142857142856,552.4776785714286,3605.6,360.57142857142856,552.4776785714286,3705.8,360.57142857142856,552.4776785714286,3806.4,360.57142857142856,552.4776785714286,3911.2,360.57142857142856,552.4776785714286,4015.8,360.57142857142856,552.4776785714286,4115.9,360.57142857142856,552.4776785714286,4221,360.57142857142856,552.4776785714286,4321.1,360.57142857142856,552.4776785714286,4421.3,360.57142857142856,552.4776785714286,4525.8,360.57142857142856,552.4776785714286,4626.2,360.57142857142856,552.4776785714286,4730.7,360.57142857142856,552.4776785714286,4835.2,360.57142857142856,552.4776785714286,4935.7]","[5531.9,5531.9,3067,2010.2,454.7,""smooth"",""up"",""up"",""good_move""]","",""
"18164","","<div style=""width:500px;"">
  <p>What determined the result of this run?</p>
  </div>","69","html-slider-response","70","1167185","0.0-5.0-1.12","18","1","2025-07-09 08:48:55","01610cd0009c79a99da7d0a3353eb402","102.182.46.148","Mozilla/5.0 (Macintosh; Intel Mac OS X 10_15_7) AppleWebKit/537.36 (KHTML, like Gecko) Chrome/137.0.0.0 Safari/537.36","Macintosh","Chrome","137.0.0.0","OS X","10_15_7","https://app.prolific.com/","en-GB,en-US;q=0.9,en;q=0.8","61099a311cb3f711346d1b05","683db7602f5db6a34d12d064","686e2cf0ccc9f8f00eb3fcf0","1","61099a311cb3f711346d1b05","1","2025-07-09T09:08:23.659Z","","","","","","","","","","","AttribQ","","50","","","","","","","","","","","","","","","","","","","","","","","","","","","","",""
"2506","","<div style=""width:500px;"">
  <p>How much control did you have over the ball?</p>
  </div>","44","html-slider-response","71","1169693","0.0-5.0-2.12","18","1","2025-07-09 08:48:55","01610cd0009c79a99da7d0a3353eb402","102.182.46.148","Mozilla/5.0 (Macintosh; Intel Mac OS X 10_15_7) AppleWebKit/537.36 (KHTML, like Gecko) Chrome/137.0.0.0 Safari/537.36","Macintosh","Chrome","137.0.0.0","OS X","10_15_7","https://app.prolific.com/","en-GB,en-US;q=0.9,en;q=0.8","61099a311cb3f711346d1b05","683db7602f5db6a34d12d064","686e2cf0ccc9f8f00eb3fcf0","1","61099a311cb3f711346d1b05","1","2025-07-09T09:08:26.167Z","","","","","","","","","","","ControlQ","","50","","","","","","","","","","","","","","","","","","","","","","","","","","","","",""
"1706","","<div style=""width:500px;"">
  <p>How would you describe your current emotional state?</p>
  </div>","23","html-slider-response","72","1171399","0.0-5.0-3.12","18","1","2025-07-09 08:48:55","01610cd0009c79a99da7d0a3353eb402","102.182.46.148","Mozilla/5.0 (Macintosh; Intel Mac OS X 10_15_7) AppleWebKit/537.36 (KHTML, like Gecko) Chrome/137.0.0.0 Safari/537.36","Macintosh","Chrome","137.0.0.0","OS X","10_15_7","https://app.prolific.com/","en-GB,en-US;q=0.9,en;q=0.8","61099a311cb3f711346d1b05","683db7602f5db6a34d12d064","686e2cf0ccc9f8f00eb3fcf0","1","61099a311cb3f711346d1b05","1","2025-07-09T09:08:27.873Z","","","","","","","","","","","StressQ","","50","","","","","","","","","","","","","","","","","","","","","","","","","","","","",""
"1600","","<div style=""width:500px;"">
  <p>What best describes how you currently feel?</p>
  </div>","19","html-slider-response","73","1173000","0.0-5.0-4.12","18","1","2025-07-09 08:48:55","01610cd0009c79a99da7d0a3353eb402","102.182.46.148","Mozilla/5.0 (Macintosh; Intel Mac OS X 10_15_7) AppleWebKit/537.36 (KHTML, like Gecko) Chrome/137.0.0.0 Safari/537.36","Macintosh","Chrome","137.0.0.0","OS X","10_15_7","https://app.prolific.com/","en-GB,en-US;q=0.9,en;q=0.8","61099a311cb3f711346d1b05","683db7602f5db6a34d12d064","686e2cf0ccc9f8f00eb3fcf0","1","61099a311cb3f711346d1b05","1","2025-07-09T09:08:29.474Z","","","","","","","","","","","MotivationQ","","50","","","","","","","","","","","","","","","","","","","","","","","","","","","","",""
"","","","","ctl-task-cpt","74","1231081","0.0-5.0-0.13","18","1","2025-07-09 08:48:55","01610cd0009c79a99da7d0a3353eb402","102.182.46.148","Mozilla/5.0 (Macintosh; Intel Mac OS X 10_15_7) AppleWebKit/537.36 (KHTML, like Gecko) Chrome/137.0.0.0 Safari/537.36","Macintosh","Chrome","137.0.0.0","OS X","10_15_7","https://app.prolific.com/","en-GB,en-US;q=0.9,en;q=0.8","61099a311cb3f711346d1b05","683db7602f5db6a34d12d064","686e2cf0ccc9f8f00eb3fcf0","1","61099a311cb3f711346d1b05","1","2025-07-09T09:09:27.555Z","","","","","","","","","","","","","","win-only","3","g1:SW,g2:NE","0.8","14","0","1175089","43212.9","48216.4","55071.2","1","4","4","6","2","-4","-5","0","0","0","1080.6","3000","-3005","[""up"",""right""]","{""num_key_presses"":1,""num_perfect"":0,""num_errors"":1,""num_randdir"":0,""num_randdir_good_moves"":0,""num_whilered"":0,""num_whileblue"":0,""num_blue"":0,""num_good_moves"":0}","[421.57142857142856,417.47767857142856,0.1,422.57142857142856,417.47767857142856,103.2,422.57142857142856,417.47767857142856,207.7,422.57142857142856,417.47767857142856,312.8,422.57142857142856,417.47767857142856,413.1,422.57142857142856,417.47767857142856,517.7,422.57142857142856,417.47767857142856,622.4,475.57142857142856,375.47767857142856,723.1,742.5714285714286,144.47767857142856,827.4,741.5714285714286,159.47767857142856,927.5,771.5714285714286,128.47767857142856,1028.3,772.5714285714286,112.47767857142857,1128.3,772.5714285714286,112.47767857142857,1232.4,772.5714285714286,112.47767857142857,1332.9,695.5714285714286,218.47767857142856,1433.2,504.57142857142856,465.47767857142856,1538.6,503.57142857142856,466.47767857142856,1642.9,503.57142857142856,466.47767857142856,1742.9,503.57142857142856,466.47767857142856,1842.9,503.57142857142856,466.47767857142856,1943.3,503.57142857142856,466.47767857142856,2047.8,503.57142857142856,466.47767857142856,2148,503.57142857142856,466.47767857142856,2252.3,503.57142857142856,466.47767857142856,2353,503.57142857142856,466.47767857142856,2453.2,503.57142857142856,466.47767857142856,2558.3,503.57142857142856,466.47767857142856,2663,503.57142857142856,466.47767857142856,2767.2,503.57142857142856,466.47767857142856,2867.9,147.57142857142856,519.4776785714286,2972.7,-488.42857142857144,455.47767857142856,3073.1,-488.42857142857144,455.47767857142856,3178.4,-488.42857142857144,455.47767857142856,3282.8,-488.42857142857144,455.47767857142856,3388.1,-488.42857142857144,455.47767857142856,3488.2,-488.42857142857144,455.47767857142856,3593.1,-488.42857142857144,455.47767857142856,3697.7,-488.42857142857144,455.47767857142856,3798.2,-488.42857142857144,455.47767857142856,3902.4,-488.42857142857144,455.47767857142856,4002.5,-488.42857142857144,455.47767857142856,4102.5,-488.42857142857144,455.47767857142856,4202.7,-488.42857142857144,455.47767857142856,4303.1,-488.42857142857144,455.47767857142856,4408.2,-355.42857142857144,255.47767857142856,4512.7,-355.42857142857144,255.47767857142856,4617.8,96.57142857142857,168.47767857142856,4718.1,513.5714285714286,303.47767857142856,4823.3,637.5714285714286,407.47767857142856,4927.2]","[581.7,581.7,1000,0,-418.3,""error"",""-"",""-"",""no_move""]","",""
"21011","","<div style=""width:500px;"">
  <p>What determined the result of this run?</p>
  </div>","70","html-slider-response","75","1252093","0.0-5.0-1.13","18","1","2025-07-09 08:48:55","01610cd0009c79a99da7d0a3353eb402","102.182.46.148","Mozilla/5.0 (Macintosh; Intel Mac OS X 10_15_7) AppleWebKit/537.36 (KHTML, like Gecko) Chrome/137.0.0.0 Safari/537.36","Macintosh","Chrome","137.0.0.0","OS X","10_15_7","https://app.prolific.com/","en-GB,en-US;q=0.9,en;q=0.8","61099a311cb3f711346d1b05","683db7602f5db6a34d12d064","686e2cf0ccc9f8f00eb3fcf0","1","61099a311cb3f711346d1b05","1","2025-07-09T09:09:48.567Z","","","","","","","","","","","AttribQ","","50","","","","","","","","","","","","","","","","","","","","","","","","","","","","",""
"1466","","<div style=""width:500px;"">
  <p>How much control did you have over the ball?</p>
  </div>","20","html-slider-response","76","1253560","0.0-5.0-2.13","18","1","2025-07-09 08:48:55","01610cd0009c79a99da7d0a3353eb402","102.182.46.148","Mozilla/5.0 (Macintosh; Intel Mac OS X 10_15_7) AppleWebKit/537.36 (KHTML, like Gecko) Chrome/137.0.0.0 Safari/537.36","Macintosh","Chrome","137.0.0.0","OS X","10_15_7","https://app.prolific.com/","en-GB,en-US;q=0.9,en;q=0.8","61099a311cb3f711346d1b05","683db7602f5db6a34d12d064","686e2cf0ccc9f8f00eb3fcf0","1","61099a311cb3f711346d1b05","1","2025-07-09T09:09:50.034Z","","","","","","","","","","","ControlQ","","50","","","","","","","","","","","","","","","","","","","","","","","","","","","","",""
"2533","","<div style=""width:500px;"">
  <p>How would you describe your current emotional state?</p>
  </div>","17","html-slider-response","77","1256094","0.0-5.0-3.13","18","1","2025-07-09 08:48:55","01610cd0009c79a99da7d0a3353eb402","102.182.46.148","Mozilla/5.0 (Macintosh; Intel Mac OS X 10_15_7) AppleWebKit/537.36 (KHTML, like Gecko) Chrome/137.0.0.0 Safari/537.36","Macintosh","Chrome","137.0.0.0","OS X","10_15_7","https://app.prolific.com/","en-GB,en-US;q=0.9,en;q=0.8","61099a311cb3f711346d1b05","683db7602f5db6a34d12d064","686e2cf0ccc9f8f00eb3fcf0","1","61099a311cb3f711346d1b05","1","2025-07-09T09:09:52.568Z","","","","","","","","","","","StressQ","","50","","","","","","","","","","","","","","","","","","","","","","","","","","","","",""
"2054","","<div style=""width:500px;"">
  <p>What best describes how you currently feel?</p>
  </div>","11","html-slider-response","78","1258148","0.0-5.0-4.13","18","1","2025-07-09 08:48:55","01610cd0009c79a99da7d0a3353eb402","102.182.46.148","Mozilla/5.0 (Macintosh; Intel Mac OS X 10_15_7) AppleWebKit/537.36 (KHTML, like Gecko) Chrome/137.0.0.0 Safari/537.36","Macintosh","Chrome","137.0.0.0","OS X","10_15_7","https://app.prolific.com/","en-GB,en-US;q=0.9,en;q=0.8","61099a311cb3f711346d1b05","683db7602f5db6a34d12d064","686e2cf0ccc9f8f00eb3fcf0","1","61099a311cb3f711346d1b05","1","2025-07-09T09:09:54.622Z","","","","","","","","","","","MotivationQ","","50","","","","","","","","","","","","","","","","","","","","","","","","","","","","",""
