"rt","response_timestamp","stimulus","response","trial_type","trial_index","time_elapsed","internal_node_id","run_id","condition","recorded_at","source_code_version","ip","user_agent","device","browser","browser_version","platform","platform_version","referer","accept_language","PROLIFIC_PID","STUDY_ID","SESSION_ID","WEEK","BATCH","prolific_id","week","batch","realtime","success","responses","item_order","radio_event_ids","radio_event_times","key_event_times","mouse_event_times","straightlining","zigzagging","honeypot","eventType","view_history","slider_start","which_type","canvas_config","goals_layout","control_level","trial_number","tutorial_trial_number","trial_start_time","phase1_start_time","phase2_start_time","phase3_start_time","goal_1_value","goal_1_distance","goal_2_value","goal_2_distance","goal_selected","outcome","outcome_total","participant_final_score","participant_initial_score","participant_final_score_prop","goal_choice_rt","allocated_time","allocated_time_remaining","goal_direction","counts","mouse_movements","key_presses","question_order","question_id"
"6690","1752654764664","<p style='font-size:40px;line-height:1.25'><strong>Welcome to the experiment!</strong></p><p style='font-size:1.1em;line-height:1.25'>Thank you for participanting in our experiment again! You will be asked to play the Dysfunctional Ball Game again. We will briefly recap the rules before we start.</p><p style='font-size:1.1em;line-height:1.25'>Press <strong>Next</strong> to continue.</p>","0","custom-html-button-response","0","6694","0.0-0.0","73","1","2025-07-16 08:32:37","1f75c3e559b7213887762d5229550c2b","212.159.106.248","Mozilla/5.0 (Windows NT 10.0; Win64; x64) AppleWebKit/537.36 (KHTML, like Gecko) Chrome/137.0.0.0 Safari/537.36","WebKit","Chrome","137.0.0.0","Windows","10.0","https://app.prolific.com/","en-US,en;q=0.9","5d8e154af2858200171fdb95","68764874ac79eee8c1d4cb03","6877639aa31a09c62773f66e","2","0","5d8e154af2858200171fdb95","2","0","2025-07-16T08:32:44.666Z","","","","","","","","","","","","","","","","","","","","","","","","","","","","","","","","","","","","","","","","","",""
"4612","","","","fullscreen","1","12330","0.0-1.0","73","1","2025-07-16 08:32:37","1f75c3e559b7213887762d5229550c2b","212.159.106.248","Mozilla/5.0 (Windows NT 10.0; Win64; x64) AppleWebKit/537.36 (KHTML, like Gecko) Chrome/137.0.0.0 Safari/537.36","WebKit","Chrome","137.0.0.0","Windows","10.0","https://app.prolific.com/","en-US,en;q=0.9","5d8e154af2858200171fdb95","68764874ac79eee8c1d4cb03","6877639aa31a09c62773f66e","2","0","5d8e154af2858200171fdb95","2","0","","true","","","","","","","","","","","","","","","","","","","","","","","","","","","","","","","","","","","","","","","","",""
"3951","1752654774255","<p style='font-size:1.1em;line-height:1.25'>In the following, we will ask you a few questions relating to your feelings in the last 24 hours.<br></p><p style='font-size:1.1em;line-height:1.25'>Press the <strong>Next</strong> button to continue.</p>","0","custom-html-button-response","2","16283","0.0-2.0-0.0","73","1","2025-07-16 08:32:37","1f75c3e559b7213887762d5229550c2b","212.159.106.248","Mozilla/5.0 (Windows NT 10.0; Win64; x64) AppleWebKit/537.36 (KHTML, like Gecko) Chrome/137.0.0.0 Safari/537.36","WebKit","Chrome","137.0.0.0","Windows","10.0","https://app.prolific.com/","en-US,en;q=0.9","5d8e154af2858200171fdb95","68764874ac79eee8c1d4cb03","6877639aa31a09c62773f66e","2","0","5d8e154af2858200171fdb95","2","0","2025-07-16T08:32:54.255Z","","","","","","","","","","","","","","","","","","","","","","","","","","","","","","","","","","","","","","","","","",""
"29637.200000047684","","","","survey-template","3","45928","0.0-2.0-1.0","73","1","2025-07-16 08:32:37","1f75c3e559b7213887762d5229550c2b","212.159.106.248","Mozilla/5.0 (Windows NT 10.0; Win64; x64) AppleWebKit/537.36 (KHTML, like Gecko) Chrome/137.0.0.0 Safari/537.36","WebKit","Chrome","137.0.0.0","Windows","10.0","https://app.prolific.com/","en-US,en;q=0.9","5d8e154af2858200171fdb95","68764874ac79eee8c1d4cb03","6877639aa31a09c62773f66e","2","0","5d8e154af2858200171fdb95","2","0","2025-07-16T08:33:23.901Z","","{""Q01"":""1"",""Q02"":""1"",""Q03"":""1"",""Q04"":""0"",""Q05"":""1"",""Q06"":""0"",""Q07"":""2"",""Q08"":""0"",""Q09"":""1"",""Q10"":""0"",""Q11"":""1"",""Q12"":""0"",""Q13"":""5"",""Q14"":""1"",""Q15"":""0"",""Q16"":""0"",""Q17"":""1"",""Q18"":""0"",""Q19"":""0"",""Q20"":""0"",""Q21"":""0"",""Q22"":""0""}","[0,1,2,3,4,5,6,7,8,9,10,11,12,13,14,15,16,17,18,19,20,21]","[""Q01"",""Q02"",""Q03"",""Q04"",""Q05"",""Q06"",""Q07"",""Q08"",""Q09"",""Q10"",""Q11"",""Q12"",""Q11"",""Q13"",""Q14"",""Q15"",""Q16"",""Q17"",""Q18"",""Q19"",""Q20"",""Q21"",""Q22""]","[2128.2000000476837,3356.899999976158,4077.100000023842,5271.5,6177.5,6648,9033.200000047684,9772.5,13185.899999976158,14514.200000047684,15050.700000047684,15383.799999952316,15970.200000047684,18404.399999976158,20812.700000047684,21163,21479.5,23656.899999976158,26076.299999952316,26292.700000047684,27461.200000047684,27729.299999952316,28011.100000023842]","[]","[0.3999999761581421,2128.2000000476837,3356.899999976158,4077.100000023842,5271.5,6177.5,6648,7030.799999952316,7395.600000023842,9033.200000047684,9772.5,10357.100000023842,10724.5,12529.100000023842,13185.899999976158,13868.700000047684,14514.200000047684,15050.700000047684,15383.799999952316,15970.200000047684,18404.399999976158,20812.700000047684,21163,21479.5,23656.899999976158,26076.299999952316,26292.700000047684,27461.200000047684,27729.299999952316,28011.100000023842,29630.600000023842]","0.5454545454545454","0.5238095238095238","0","drsp","","","","","","","","","","","","","","","","","","","","","","","","","","","","","","",""
"7486","","","","survey-template","4","53417","0.0-2.0-2.0","73","1","2025-07-16 08:32:37","1f75c3e559b7213887762d5229550c2b","212.159.106.248","Mozilla/5.0 (Windows NT 10.0; Win64; x64) AppleWebKit/537.36 (KHTML, like Gecko) Chrome/137.0.0.0 Safari/537.36","WebKit","Chrome","137.0.0.0","Windows","10.0","https://app.prolific.com/","en-US,en;q=0.9","5d8e154af2858200171fdb95","68764874ac79eee8c1d4cb03","6877639aa31a09c62773f66e","2","0","5d8e154af2858200171fdb95","2","0","2025-07-16T08:33:31.390Z","","{""Q01"":""0"",""Q02"":""5"",""Q03"":""0""}","[0,1,2]","[""Q01"",""Q02"",""Q03""]","[3998.7999999523163,4282.399999976158,6834.600000023842]","[]","[3998.7999999523163,4282.399999976158,4920.799999952316,6834.600000023842,7485.299999952316]","1","0","0","stress","","","","","","","","","","","","","","","","","","","","","","","","","","","","","","",""
"7979","","","","instructions","5","61402","0.0-3.0-0.0","73","1","2025-07-16 08:32:37","1f75c3e559b7213887762d5229550c2b","212.159.106.248","Mozilla/5.0 (Windows NT 10.0; Win64; x64) AppleWebKit/537.36 (KHTML, like Gecko) Chrome/137.0.0.0 Safari/537.36","WebKit","Chrome","137.0.0.0","Windows","10.0","https://app.prolific.com/","en-US,en;q=0.9","5d8e154af2858200171fdb95","68764874ac79eee8c1d4cb03","6877639aa31a09c62773f66e","2","0","5d8e154af2858200171fdb95","2","0","","","","","","","","","","","","","[{""page_index"":0,""viewing_time"":7979}]","","","","","","","","","","","","","","","","","","","","","","","","","","","","","",""
"2530","","<p>Before you start with this game please answer the following three questions yourself. </p>
  <p>Through this game, we measure several aspects of your cognitive performance, such as reaction times, multi-tasking capabilities </p>
  <p>and the ability to assess the situation you are in.</p>
  <p></p>
  <p><b>How good do you usually are in such tasks?</b></p>","40","html-slider-response","6","63939","0.0-4.0-0.0","73","1","2025-07-16 08:32:37","1f75c3e559b7213887762d5229550c2b","212.159.106.248","Mozilla/5.0 (Windows NT 10.0; Win64; x64) AppleWebKit/537.36 (KHTML, like Gecko) Chrome/137.0.0.0 Safari/537.36","WebKit","Chrome","137.0.0.0","Windows","10.0","https://app.prolific.com/","en-US,en;q=0.9","5d8e154af2858200171fdb95","68764874ac79eee8c1d4cb03","6877639aa31a09c62773f66e","2","0","5d8e154af2858200171fdb95","2","0","2025-07-16T08:33:41.911Z","","","","","","","","","","","PreSkillQ","","50","","","","","","","","","","","","","","","","","","","","","","","","","","","","",""
"3511","","<div style=""width:500px;"">
  <p>How well do you think you will perform in this task compared to other participants?</p>
  </div>","42","html-slider-response","7","67452","0.0-4.0-1.0","73","1","2025-07-16 08:32:37","1f75c3e559b7213887762d5229550c2b","212.159.106.248","Mozilla/5.0 (Windows NT 10.0; Win64; x64) AppleWebKit/537.36 (KHTML, like Gecko) Chrome/137.0.0.0 Safari/537.36","WebKit","Chrome","137.0.0.0","Windows","10.0","https://app.prolific.com/","en-US,en;q=0.9","5d8e154af2858200171fdb95","68764874ac79eee8c1d4cb03","6877639aa31a09c62773f66e","2","0","5d8e154af2858200171fdb95","2","0","2025-07-16T08:33:45.424Z","","","","","","","","","","","PrePerfQ","","50","","","","","","","","","","","","","","","","","","","","","","","","","","","","",""
"5388","","<div style=""width:500px;"">
  <p>What best describes how you currently feel?</p>
  </div>","39","html-slider-response","8","72842","0.0-4.0-2.0","73","1","2025-07-16 08:32:37","1f75c3e559b7213887762d5229550c2b","212.159.106.248","Mozilla/5.0 (Windows NT 10.0; Win64; x64) AppleWebKit/537.36 (KHTML, like Gecko) Chrome/137.0.0.0 Safari/537.36","WebKit","Chrome","137.0.0.0","Windows","10.0","https://app.prolific.com/","en-US,en;q=0.9","5d8e154af2858200171fdb95","68764874ac79eee8c1d4cb03","6877639aa31a09c62773f66e","2","0","5d8e154af2858200171fdb95","2","0","2025-07-16T08:33:50.815Z","","","","","","","","","","","PreMotivationQ","","50","","","","","","","","","","","","","","","","","","","","","","","","","","","","",""
"","","","","ctl-task-cpt","9","102340","0.0-5.0-0.0","73","1","2025-07-16 08:32:37","1f75c3e559b7213887762d5229550c2b","212.159.106.248","Mozilla/5.0 (Windows NT 10.0; Win64; x64) AppleWebKit/537.36 (KHTML, like Gecko) Chrome/137.0.0.0 Safari/537.36","WebKit","Chrome","137.0.0.0","Windows","10.0","https://app.prolific.com/","en-US,en;q=0.9","5d8e154af2858200171fdb95","68764874ac79eee8c1d4cb03","6877639aa31a09c62773f66e","2","0","5d8e154af2858200171fdb95","2","0","2025-07-16T08:34:20.312Z","","","","","","","","","","","","","","win-only","2","g1:SE,g2:NW","1","1","0","74004.5","1944.3","6951.6","26491","1","4","4","6","2","4","4","4","0","0.030303030303030304","1438.9","3000","785","[""left"",""up""]","{""num_key_presses"":6,""num_perfect"":6,""num_errors"":0,""num_randdir"":0,""num_randdir_good_moves"":0,""num_whilered"":0,""num_whileblue"":0,""num_blue"":1,""num_good_moves"":6}","[398.9683035714286,393.8745535714286,0.4,398.9683035714286,393.8745535714286,104.6,398.9683035714286,393.8745535714286,206.5,398.9683035714286,393.8745535714286,306.7,398.9683035714286,393.8745535714286,411.2,398.9683035714286,393.8745535714286,511.8,167.96830357142858,132.87455357142858,617.7,78.96830357142856,46.874553571428564,719,77.96830357142856,46.874553571428564,825.7,243.96830357142858,187.87455357142858,926.6,179.96830357142858,149.87455357142858,1027.1,134.96830357142858,98.87455357142856,1131.9,135.96830357142858,98.87455357142856,1232.3,78.96830357142856,107.87455357142856,1332.4,65.96830357142856,103.87455357142856,1441.6,65.96830357142856,103.87455357142856,1543.1,65.96830357142856,103.87455357142856,1647.9,65.96830357142856,103.87455357142856,1756.5,65.96830357142856,103.87455357142856,1862.1,65.96830357142856,103.87455357142856,1967.4,65.96830357142856,103.87455357142856,2073.4,65.96830357142856,103.87455357142856,2173.9,65.96830357142856,103.87455357142856,2277.3,65.96830357142856,103.87455357142856,2382.7,65.96830357142856,103.87455357142856,2489.6,65.96830357142856,103.87455357142856,2591.2,65.96830357142856,103.87455357142856,2691.3,65.96830357142856,103.87455357142856,2791.3,65.96830357142856,103.87455357142856,2891.4,65.96830357142856,103.87455357142856,2993.3,65.96830357142856,103.87455357142856,3097.8,65.96830357142856,103.87455357142856,3206.5,65.96830357142856,103.87455357142856,3307.3,65.96830357142856,103.87455357142856,3411.4,65.96830357142856,103.87455357142856,3511.9,65.96830357142856,103.87455357142856,3618.1,65.96830357142856,103.87455357142856,3723,65.96830357142856,103.87455357142856,3827.1,65.96830357142856,103.87455357142856,3927.4,65.96830357142856,103.87455357142856,4031.2,65.96830357142856,103.87455357142856,4131.4,65.96830357142856,103.87455357142856,4231.6,65.96830357142856,103.87455357142856,4331.7,65.96830357142856,103.87455357142856,4431.9,65.96830357142856,103.87455357142856,4531.9,65.96830357142856,103.87455357142856,4632.2,65.96830357142856,103.87455357142856,4739.5,65.96830357142856,103.87455357142856,4841.5,65.96830357142856,103.87455357142856,4947.8]","[1300.1,1300.1,1000,0,300.1,""smooth"",""left"",""left"",""good_move"",4332.2,3031.7,2599.8,1300.7,431.8,""smooth"",""up"",""up"",""good_move"",7032.2,2699.4,2291.8,4332.9,407.6,""smooth"",""left"",""left"",""good_move"",13621.5,6588.9,2974.3,10299.4,347.8,""smooth"",""up"",""up"",""good_move"",16363.8,2741.9,2133.8,13621.9,608.1,""smooth"",""up"",""up"",""good_move"",19451.1,3086.8,2730.7,16364.4,356,""smooth"",""left"",""left"",""good_move""]","",""
"3751","","<div style=""width:500px;"">
  <p>What determined the result of this run?</p>
  </div>","100","html-slider-response","10","106093","0.0-5.0-1.0","73","1","2025-07-16 08:32:37","1f75c3e559b7213887762d5229550c2b","212.159.106.248","Mozilla/5.0 (Windows NT 10.0; Win64; x64) AppleWebKit/537.36 (KHTML, like Gecko) Chrome/137.0.0.0 Safari/537.36","WebKit","Chrome","137.0.0.0","Windows","10.0","https://app.prolific.com/","en-US,en;q=0.9","5d8e154af2858200171fdb95","68764874ac79eee8c1d4cb03","6877639aa31a09c62773f66e","2","0","5d8e154af2858200171fdb95","2","0","2025-07-16T08:34:24.065Z","","","","","","","","","","","AttribQ","","50","","","","","","","","","","","","","","","","","","","","","","","","","","","","",""
"2799","","<div style=""width:500px;"">
  <p>How much control did you have over the ball?</p>
  </div>","100","html-slider-response","11","108894","0.0-5.0-2.0","73","1","2025-07-16 08:32:37","1f75c3e559b7213887762d5229550c2b","212.159.106.248","Mozilla/5.0 (Windows NT 10.0; Win64; x64) AppleWebKit/537.36 (KHTML, like Gecko) Chrome/137.0.0.0 Safari/537.36","WebKit","Chrome","137.0.0.0","Windows","10.0","https://app.prolific.com/","en-US,en;q=0.9","5d8e154af2858200171fdb95","68764874ac79eee8c1d4cb03","6877639aa31a09c62773f66e","2","0","5d8e154af2858200171fdb95","2","0","2025-07-16T08:34:26.867Z","","","","","","","","","","","ControlQ","","50","","","","","","","","","","","","","","","","","","","","","","","","","","","","",""
"5496","","<div style=""width:500px;"">
  <p>How would you describe your current emotional state?</p>
  </div>","4","html-slider-response","12","114392","0.0-5.0-3.0","73","1","2025-07-16 08:32:37","1f75c3e559b7213887762d5229550c2b","212.159.106.248","Mozilla/5.0 (Windows NT 10.0; Win64; x64) AppleWebKit/537.36 (KHTML, like Gecko) Chrome/137.0.0.0 Safari/537.36","WebKit","Chrome","137.0.0.0","Windows","10.0","https://app.prolific.com/","en-US,en;q=0.9","5d8e154af2858200171fdb95","68764874ac79eee8c1d4cb03","6877639aa31a09c62773f66e","2","0","5d8e154af2858200171fdb95","2","0","2025-07-16T08:34:32.364Z","","","","","","","","","","","StressQ","","50","","","","","","","","","","","","","","","","","","","","","","","","","","","","",""
"3063","","<div style=""width:500px;"">
  <p>What best describes how you currently feel?</p>
  </div>","58","html-slider-response","13","117457","0.0-5.0-4.0","73","1","2025-07-16 08:32:37","1f75c3e559b7213887762d5229550c2b","212.159.106.248","Mozilla/5.0 (Windows NT 10.0; Win64; x64) AppleWebKit/537.36 (KHTML, like Gecko) Chrome/137.0.0.0 Safari/537.36","WebKit","Chrome","137.0.0.0","Windows","10.0","https://app.prolific.com/","en-US,en;q=0.9","5d8e154af2858200171fdb95","68764874ac79eee8c1d4cb03","6877639aa31a09c62773f66e","2","0","5d8e154af2858200171fdb95","2","0","2025-07-16T08:34:35.429Z","","","","","","","","","","","MotivationQ","","50","","","","","","","","","","","","","","","","","","","","","","","","","","","","",""
"","","","","ctl-task-cpt","14","147123","0.0-5.0-0.1","73","1","2025-07-16 08:32:37","1f75c3e559b7213887762d5229550c2b","212.159.106.248","Mozilla/5.0 (Windows NT 10.0; Win64; x64) AppleWebKit/537.36 (KHTML, like Gecko) Chrome/137.0.0.0 Safari/537.36","WebKit","Chrome","137.0.0.0","Windows","10.0","https://app.prolific.com/","en-US,en;q=0.9","5d8e154af2858200171fdb95","68764874ac79eee8c1d4cb03","6877639aa31a09c62773f66e","2","0","5d8e154af2858200171fdb95","2","0","2025-07-16T08:35:05.095Z","","","","","","","","","","","","","","win-only","1","g1:NE,g2:SW","0.9","2","0","118616.4","2060.3","7061.5","26643.6","1","4","8","6","2","8","8","12","4","0.09090909090909091","1099.8","3000","1075","[""down"",""left""]","{""num_key_presses"":6,""num_perfect"":6,""num_errors"":0,""num_randdir"":0,""num_randdir_good_moves"":0,""num_whilered"":0,""num_whileblue"":0,""num_blue"":1,""num_good_moves"":6}","[395.9683035714286,392.8745535714286,0.4,395.9683035714286,392.8745535714286,101.2,395.9683035714286,392.8745535714286,207.2,395.9683035714286,392.8745535714286,315.2,395.9683035714286,392.8745535714286,415.6,395.9683035714286,392.8745535714286,519.3,387.9683035714286,396.8745535714286,620.7,98.96830357142856,618.8745535714286,726.7,80.96830357142856,636.8745535714286,834.4,73.96830357142856,668.8745535714286,937,70.96830357142856,715.8745535714286,1041,70.96830357142856,713.8745535714286,1141.3,70.96830357142856,713.8745535714286,1248.1,70.96830357142856,713.8745535714286,1348.6,70.96830357142856,713.8745535714286,1448.9,70.96830357142856,713.8745535714286,1551.5,70.96830357142856,713.8745535714286,1655.9,70.96830357142856,713.8745535714286,1756.1,70.96830357142856,713.8745535714286,1856.6,70.96830357142856,713.8745535714286,1965.4,70.96830357142856,713.8745535714286,2065.4,70.96830357142856,713.8745535714286,2171.3,70.96830357142856,713.8745535714286,2276.8,70.96830357142856,713.8745535714286,2383.1,70.96830357142856,713.8745535714286,2487.4,70.96830357142856,713.8745535714286,2591,70.96830357142856,713.8745535714286,2698.2,70.96830357142856,713.8745535714286,2800.4,70.96830357142856,713.8745535714286,2901.2,70.96830357142856,713.8745535714286,3005.4,70.96830357142856,713.8745535714286,3105.4,70.96830357142856,713.8745535714286,3205.5,70.96830357142856,713.8745535714286,3307,70.96830357142856,713.8745535714286,3414.8,70.96830357142856,713.8745535714286,3515.2,70.96830357142856,713.8745535714286,3615.3,70.96830357142856,713.8745535714286,3720.2,70.96830357142856,713.8745535714286,3820.9,70.96830357142856,713.8745535714286,3921,70.96830357142856,713.8745535714286,4027.2,70.96830357142856,713.8745535714286,4132.9,70.96830357142856,713.8745535714286,4233.4,70.96830357142856,713.8745535714286,4335.7,70.96830357142856,713.8745535714286,4441.3,70.96830357142856,713.8745535714286,4549,70.96830357142856,713.8745535714286,4651.1,70.96830357142856,713.8745535714286,4751.3,70.96830357142856,713.8745535714286,4856.2,70.96830357142856,713.8745535714286,4965]","[4746,4746,2408.5,2005.3,332.2,""smooth"",""left"",""left"",""good_move"",7904.3,3158,2785.2,4746.3,372.8,""smooth"",""left"",""left"",""good_move"",10735.8,2831.1,2469.1,7904.8,361.9,""smooth"",""down"",""down"",""good_move"",14053.9,3317.6,2911.2,10736.3,406.4,""smooth"",""down"",""down"",""good_move"",16731.5,2677.2,2343.3,14054.3,333.9,""smooth"",""left"",""left"",""good_move"",19481.7,2749.8,2386.2,16731.9,363.6,""smooth"",""down"",""down"",""good_move""]","",""
"2831","","<div style=""width:500px;"">
  <p>What determined the result of this run?</p>
  </div>","100","html-slider-response","15","149956","0.0-5.0-1.1","73","1","2025-07-16 08:32:37","1f75c3e559b7213887762d5229550c2b","212.159.106.248","Mozilla/5.0 (Windows NT 10.0; Win64; x64) AppleWebKit/537.36 (KHTML, like Gecko) Chrome/137.0.0.0 Safari/537.36","WebKit","Chrome","137.0.0.0","Windows","10.0","https://app.prolific.com/","en-US,en;q=0.9","5d8e154af2858200171fdb95","68764874ac79eee8c1d4cb03","6877639aa31a09c62773f66e","2","0","5d8e154af2858200171fdb95","2","0","2025-07-16T08:35:07.928Z","","","","","","","","","","","AttribQ","","50","","","","","","","","","","","","","","","","","","","","","","","","","","","","",""
"2164","","<div style=""width:500px;"">
  <p>How much control did you have over the ball?</p>
  </div>","100","html-slider-response","16","152121","0.0-5.0-2.1","73","1","2025-07-16 08:32:37","1f75c3e559b7213887762d5229550c2b","212.159.106.248","Mozilla/5.0 (Windows NT 10.0; Win64; x64) AppleWebKit/537.36 (KHTML, like Gecko) Chrome/137.0.0.0 Safari/537.36","WebKit","Chrome","137.0.0.0","Windows","10.0","https://app.prolific.com/","en-US,en;q=0.9","5d8e154af2858200171fdb95","68764874ac79eee8c1d4cb03","6877639aa31a09c62773f66e","2","0","5d8e154af2858200171fdb95","2","0","2025-07-16T08:35:10.094Z","","","","","","","","","","","ControlQ","","50","","","","","","","","","","","","","","","","","","","","","","","","","","","","",""
"3197","","<div style=""width:500px;"">
  <p>How would you describe your current emotional state?</p>
  </div>","6","html-slider-response","17","155320","0.0-5.0-3.1","73","1","2025-07-16 08:32:37","1f75c3e559b7213887762d5229550c2b","212.159.106.248","Mozilla/5.0 (Windows NT 10.0; Win64; x64) AppleWebKit/537.36 (KHTML, like Gecko) Chrome/137.0.0.0 Safari/537.36","WebKit","Chrome","137.0.0.0","Windows","10.0","https://app.prolific.com/","en-US,en;q=0.9","5d8e154af2858200171fdb95","68764874ac79eee8c1d4cb03","6877639aa31a09c62773f66e","2","0","5d8e154af2858200171fdb95","2","0","2025-07-16T08:35:13.293Z","","","","","","","","","","","StressQ","","50","","","","","","","","","","","","","","","","","","","","","","","","","","","","",""
"2339","","<div style=""width:500px;"">
  <p>What best describes how you currently feel?</p>
  </div>","70","html-slider-response","18","157661","0.0-5.0-4.1","73","1","2025-07-16 08:32:37","1f75c3e559b7213887762d5229550c2b","212.159.106.248","Mozilla/5.0 (Windows NT 10.0; Win64; x64) AppleWebKit/537.36 (KHTML, like Gecko) Chrome/137.0.0.0 Safari/537.36","WebKit","Chrome","137.0.0.0","Windows","10.0","https://app.prolific.com/","en-US,en;q=0.9","5d8e154af2858200171fdb95","68764874ac79eee8c1d4cb03","6877639aa31a09c62773f66e","2","0","5d8e154af2858200171fdb95","2","0","2025-07-16T08:35:15.633Z","","","","","","","","","","","MotivationQ","","50","","","","","","","","","","","","","","","","","","","","","","","","","","","","",""
"","","","","ctl-task-cpt","19","187443","0.0-5.0-0.2","73","1","2025-07-16 08:32:37","1f75c3e559b7213887762d5229550c2b","212.159.106.248","Mozilla/5.0 (Windows NT 10.0; Win64; x64) AppleWebKit/537.36 (KHTML, like Gecko) Chrome/137.0.0.0 Safari/537.36","WebKit","Chrome","137.0.0.0","Windows","10.0","https://app.prolific.com/","en-US,en;q=0.9","5d8e154af2858200171fdb95","68764874ac79eee8c1d4cb03","6877639aa31a09c62773f66e","2","0","5d8e154af2858200171fdb95","2","0","2025-07-16T08:35:45.415Z","","","","","","","","","","","","","","win-only","3","g1:SW,g2:NE","0.8","3","0","158817.7","1341.7","6346.2","26755.7","1","4","8","6","2","8","8","20","12","0.15151515151515152","1328","3000","720","[""up"",""right""]","{""num_key_presses"":6,""num_perfect"":4,""num_errors"":0,""num_randdir"":2,""num_randdir_good_moves"":2,""num_whilered"":0,""num_whileblue"":0,""num_blue"":1,""num_good_moves"":6}","[398.9683035714286,389.8745535714286,0.4,398.9683035714286,389.8745535714286,100.9,398.9683035714286,389.8745535714286,204.7,398.9683035714286,389.8745535714286,312.8,398.9683035714286,389.8745535714286,413.8,398.9683035714286,389.8745535714286,514.6,398.9683035714286,389.8745535714286,619,805.9683035714286,-28.125446428571436,719.6,803.9683035714286,-28.125446428571436,819.7,799.9683035714286,-24.125446428571436,924.2,795.9683035714286,-17.125446428571436,1029.3,768.9683035714286,19.874553571428564,1130,748.9683035714286,44.874553571428564,1233.6,747.9683035714286,48.874553571428564,1334.3,747.9683035714286,48.874553571428564,1435.6,747.9683035714286,48.874553571428564,1538.9,747.9683035714286,48.874553571428564,1640.2,747.9683035714286,48.874553571428564,1750.3,747.9683035714286,48.874553571428564,1854.9,747.9683035714286,48.874553571428564,1959.2,747.9683035714286,48.874553571428564,2063.4,747.9683035714286,48.874553571428564,2164.1,747.9683035714286,48.874553571428564,2264.1,747.9683035714286,48.874553571428564,2364.7,747.9683035714286,48.874553571428564,2469.2,747.9683035714286,48.874553571428564,2569.2,747.9683035714286,48.874553571428564,2680.1,747.9683035714286,48.874553571428564,2784.6,747.9683035714286,48.874553571428564,2889.5,747.9683035714286,48.874553571428564,2989.6,747.9683035714286,48.874553571428564,3089.6,747.9683035714286,48.874553571428564,3195.4,747.9683035714286,48.874553571428564,3299.9,747.9683035714286,48.874553571428564,3400,747.9683035714286,48.874553571428564,3504.3,747.9683035714286,48.874553571428564,3604.7,747.9683035714286,48.874553571428564,3713.5,747.9683035714286,48.874553571428564,3813.7,747.9683035714286,48.874553571428564,3914.9,747.9683035714286,48.874553571428564,4015,747.9683035714286,48.874553571428564,4119.6,747.9683035714286,48.874553571428564,4219.6,747.9683035714286,48.874553571428564,4319.7,747.9683035714286,48.874553571428564,4419.7,747.9683035714286,48.874553571428564,4529.7,747.9683035714286,48.874553571428564,4630.4,747.9683035714286,48.874553571428564,4734.1,747.9683035714286,48.874553571428564,4834.5,747.9683035714286,48.874553571428564,4939.3]","[1406.8,1406.8,1000,0,406.8,""smooth"",""right"",""right"",""good_move"",7913.8,6506.5,2704.8,4749.4,459.6,""smooth"",""up"",""up"",""good_move"",11047.7,3133.4,2546.1,7914.3,587.3,""oops"",""right"",""right"",""good_move"",13861.8,2813.8,2337.4,11048,476.4,""smooth"",""up"",""up"",""good_move"",17297.1,3434.9,3028.9,13862.2,406,""smooth"",""up"",""up"",""good_move"",20294.1,2996.7,2613.7,17297.4,383,""oops"",""right"",""right"",""good_move""]","",""
"3716","","<div style=""width:500px;"">
  <p>What determined the result of this run?</p>
  </div>","95","html-slider-response","20","191161","0.0-5.0-1.2","73","1","2025-07-16 08:32:37","1f75c3e559b7213887762d5229550c2b","212.159.106.248","Mozilla/5.0 (Windows NT 10.0; Win64; x64) AppleWebKit/537.36 (KHTML, like Gecko) Chrome/137.0.0.0 Safari/537.36","WebKit","Chrome","137.0.0.0","Windows","10.0","https://app.prolific.com/","en-US,en;q=0.9","5d8e154af2858200171fdb95","68764874ac79eee8c1d4cb03","6877639aa31a09c62773f66e","2","0","5d8e154af2858200171fdb95","2","0","2025-07-16T08:35:49.133Z","","","","","","","","","","","AttribQ","","50","","","","","","","","","","","","","","","","","","","","","","","","","","","","",""
"1478","","<div style=""width:500px;"">
  <p>How much control did you have over the ball?</p>
  </div>","83","html-slider-response","21","192641","0.0-5.0-2.2","73","1","2025-07-16 08:32:37","1f75c3e559b7213887762d5229550c2b","212.159.106.248","Mozilla/5.0 (Windows NT 10.0; Win64; x64) AppleWebKit/537.36 (KHTML, like Gecko) Chrome/137.0.0.0 Safari/537.36","WebKit","Chrome","137.0.0.0","Windows","10.0","https://app.prolific.com/","en-US,en;q=0.9","5d8e154af2858200171fdb95","68764874ac79eee8c1d4cb03","6877639aa31a09c62773f66e","2","0","5d8e154af2858200171fdb95","2","0","2025-07-16T08:35:50.613Z","","","","","","","","","","","ControlQ","","50","","","","","","","","","","","","","","","","","","","","","","","","","","","","",""
"2667","","<div style=""width:500px;"">
  <p>How would you describe your current emotional state?</p>
  </div>","4","html-slider-response","22","195309","0.0-5.0-3.2","73","1","2025-07-16 08:32:37","1f75c3e559b7213887762d5229550c2b","212.159.106.248","Mozilla/5.0 (Windows NT 10.0; Win64; x64) AppleWebKit/537.36 (KHTML, like Gecko) Chrome/137.0.0.0 Safari/537.36","WebKit","Chrome","137.0.0.0","Windows","10.0","https://app.prolific.com/","en-US,en;q=0.9","5d8e154af2858200171fdb95","68764874ac79eee8c1d4cb03","6877639aa31a09c62773f66e","2","0","5d8e154af2858200171fdb95","2","0","2025-07-16T08:35:53.281Z","","","","","","","","","","","StressQ","","50","","","","","","","","","","","","","","","","","","","","","","","","","","","","",""
"2013","","<div style=""width:500px;"">
  <p>What best describes how you currently feel?</p>
  </div>","74","html-slider-response","23","197324","0.0-5.0-4.2","73","1","2025-07-16 08:32:37","1f75c3e559b7213887762d5229550c2b","212.159.106.248","Mozilla/5.0 (Windows NT 10.0; Win64; x64) AppleWebKit/537.36 (KHTML, like Gecko) Chrome/137.0.0.0 Safari/537.36","WebKit","Chrome","137.0.0.0","Windows","10.0","https://app.prolific.com/","en-US,en;q=0.9","5d8e154af2858200171fdb95","68764874ac79eee8c1d4cb03","6877639aa31a09c62773f66e","2","0","5d8e154af2858200171fdb95","2","0","2025-07-16T08:35:55.296Z","","","","","","","","","","","MotivationQ","","50","","","","","","","","","","","","","","","","","","","","","","","","","","","","",""
"","","","","ctl-task-cpt","24","218121","0.0-5.0-0.3","73","1","2025-07-16 08:32:37","1f75c3e559b7213887762d5229550c2b","212.159.106.248","Mozilla/5.0 (Windows NT 10.0; Win64; x64) AppleWebKit/537.36 (KHTML, like Gecko) Chrome/137.0.0.0 Safari/537.36","WebKit","Chrome","137.0.0.0","Windows","10.0","https://app.prolific.com/","en-US,en;q=0.9","5d8e154af2858200171fdb95","68764874ac79eee8c1d4cb03","6877639aa31a09c62773f66e","2","0","5d8e154af2858200171fdb95","2","0","2025-07-16T08:36:16.093Z","","","","","","","","","","","","","","win-only","0","g1:NW,g2:SE","0.7","4","0","198476.2","1353.9","6355.9","17777.1","1","4","4","6","2","-4","-4","16","20","0.12121212121212122","2390.2","3000","-2660","[""down"",""right""]","{""num_key_presses"":2,""num_perfect"":2,""num_errors"":0,""num_randdir"":0,""num_randdir_good_moves"":0,""num_whilered"":0,""num_whileblue"":0,""num_blue"":1,""num_good_moves"":2}","[400.9683035714286,395.8745535714286,0.4,400.9683035714286,395.8745535714286,102.3,400.9683035714286,395.8745535714286,208.3,400.9683035714286,395.8745535714286,312.1,400.9683035714286,395.8745535714286,412.6,400.9683035714286,395.8745535714286,515.4,400.9683035714286,395.8745535714286,615.6,400.9683035714286,395.8745535714286,717.3,400.9683035714286,395.8745535714286,817.5,341.9683035714286,358.8745535714286,922,184.96830357142858,236.87455357142858,1022.9,187.96830357142858,227.87455357142858,1131.8,187.96830357142858,227.87455357142858,1232.2,103.96830357142856,133.87455357142858,1340.1,56.968303571428564,90.87455357142856,1441.9,54.968303571428564,87.87455357142856,1542.9,59.968303571428564,87.87455357142856,1650.8,60.968303571428564,87.87455357142856,1751.8,63.968303571428564,89.87455357142856,1852,428.9683035714286,352.8745535714286,1957.3,696.9683035714286,664.8745535714286,2057.9,710.9683035714286,702.8745535714286,2173.6,710.9683035714286,705.8745535714286,2283.1,710.9683035714286,705.8745535714286,2386.8,710.9683035714286,705.8745535714286,2487,710.9683035714286,705.8745535714286,2587,710.9683035714286,705.8745535714286,2689,710.9683035714286,705.8745535714286,2792.7,710.9683035714286,705.8745535714286,2907.1,710.9683035714286,705.8745535714286,3008,710.9683035714286,705.8745535714286,3112,710.9683035714286,705.8745535714286,3212.3,710.9683035714286,705.8745535714286,3320.4,710.9683035714286,705.8745535714286,3422.1,710.9683035714286,705.8745535714286,3527.3,710.9683035714286,705.8745535714286,3631.8,710.9683035714286,705.8745535714286,3737.2,710.9683035714286,705.8745535714286,3842.4,710.9683035714286,705.8745535714286,3947.1,710.9683035714286,705.8745535714286,4052,710.9683035714286,705.8745535714286,4157.5,710.9683035714286,705.8745535714286,4265.3,710.9683035714286,705.8745535714286,4365.4,710.9683035714286,705.8745535714286,4466.9,710.9683035714286,705.8745535714286,4571.8,710.9683035714286,705.8745535714286,4672.3,710.9683035714286,705.8745535714286,4772.4,710.9683035714286,705.8745535714286,4877.3,710.9683035714286,705.8745535714286,4981.5]","[4002.3,4002.3,1000,0,3002.3,""smooth"",""right"",""right"",""good_move"",9492.7,5489.6,2215.7,6912,365,""smooth"",""down"",""down"",""good_move""]","",""
"3958","","<div style=""width:500px;"">
  <p>What determined the result of this run?</p>
  </div>","68","html-slider-response","25","222081","0.0-5.0-1.3","73","1","2025-07-16 08:32:37","1f75c3e559b7213887762d5229550c2b","212.159.106.248","Mozilla/5.0 (Windows NT 10.0; Win64; x64) AppleWebKit/537.36 (KHTML, like Gecko) Chrome/137.0.0.0 Safari/537.36","WebKit","Chrome","137.0.0.0","Windows","10.0","https://app.prolific.com/","en-US,en;q=0.9","5d8e154af2858200171fdb95","68764874ac79eee8c1d4cb03","6877639aa31a09c62773f66e","2","0","5d8e154af2858200171fdb95","2","0","2025-07-16T08:36:20.053Z","","","","","","","","","","","AttribQ","","50","","","","","","","","","","","","","","","","","","","","","","","","","","","","",""
"3175","","<div style=""width:500px;"">
  <p>How much control did you have over the ball?</p>
  </div>","61","html-slider-response","26","225258","0.0-5.0-2.3","73","1","2025-07-16 08:32:37","1f75c3e559b7213887762d5229550c2b","212.159.106.248","Mozilla/5.0 (Windows NT 10.0; Win64; x64) AppleWebKit/537.36 (KHTML, like Gecko) Chrome/137.0.0.0 Safari/537.36","WebKit","Chrome","137.0.0.0","Windows","10.0","https://app.prolific.com/","en-US,en;q=0.9","5d8e154af2858200171fdb95","68764874ac79eee8c1d4cb03","6877639aa31a09c62773f66e","2","0","5d8e154af2858200171fdb95","2","0","2025-07-16T08:36:23.230Z","","","","","","","","","","","ControlQ","","50","","","","","","","","","","","","","","","","","","","","","","","","","","","","",""
"1379","","<div style=""width:500px;"">
  <p>How would you describe your current emotional state?</p>
  </div>","23","html-slider-response","27","226638","0.0-5.0-3.3","73","1","2025-07-16 08:32:37","1f75c3e559b7213887762d5229550c2b","212.159.106.248","Mozilla/5.0 (Windows NT 10.0; Win64; x64) AppleWebKit/537.36 (KHTML, like Gecko) Chrome/137.0.0.0 Safari/537.36","WebKit","Chrome","137.0.0.0","Windows","10.0","https://app.prolific.com/","en-US,en;q=0.9","5d8e154af2858200171fdb95","68764874ac79eee8c1d4cb03","6877639aa31a09c62773f66e","2","0","5d8e154af2858200171fdb95","2","0","2025-07-16T08:36:24.610Z","","","","","","","","","","","StressQ","","50","","","","","","","","","","","","","","","","","","","","","","","","","","","","",""
"1517","","<div style=""width:500px;"">
  <p>What best describes how you currently feel?</p>
  </div>","45","html-slider-response","28","228156","0.0-5.0-4.3","73","1","2025-07-16 08:32:37","1f75c3e559b7213887762d5229550c2b","212.159.106.248","Mozilla/5.0 (Windows NT 10.0; Win64; x64) AppleWebKit/537.36 (KHTML, like Gecko) Chrome/137.0.0.0 Safari/537.36","WebKit","Chrome","137.0.0.0","Windows","10.0","https://app.prolific.com/","en-US,en;q=0.9","5d8e154af2858200171fdb95","68764874ac79eee8c1d4cb03","6877639aa31a09c62773f66e","2","0","5d8e154af2858200171fdb95","2","0","2025-07-16T08:36:26.128Z","","","","","","","","","","","MotivationQ","","50","","","","","","","","","","","","","","","","","","","","","","","","","","","","",""
"","","","","ctl-task-cpt","29","271989","0.0-5.0-0.4","73","1","2025-07-16 08:32:37","1f75c3e559b7213887762d5229550c2b","212.159.106.248","Mozilla/5.0 (Windows NT 10.0; Win64; x64) AppleWebKit/537.36 (KHTML, like Gecko) Chrome/137.0.0.0 Safari/537.36","WebKit","Chrome","137.0.0.0","Windows","10.0","https://app.prolific.com/","en-US,en;q=0.9","5d8e154af2858200171fdb95","68764874ac79eee8c1d4cb03","6877639aa31a09c62773f66e","2","0","5d8e154af2858200171fdb95","2","0","2025-07-16T08:37:09.961Z","","","","","","","","","","","","","","win-only","1","g1:NE,g2:SW","0.6","5","0","229309.4","1200.9","6206.4","40811.7","1","4","4","6","2","4","4","20","16","0.15151515151515152","1063.8","3000","280","[""down"",""left""]","{""num_key_presses"":10,""num_perfect"":6,""num_errors"":0,""num_randdir"":4,""num_randdir_good_moves"":2,""num_whilered"":0,""num_whileblue"":0,""num_blue"":2,""num_good_moves"":8}","[393.9683035714286,398.8745535714286,0.4,393.9683035714286,398.8745535714286,106.1,393.9683035714286,398.8745535714286,210.7,393.9683035714286,398.8745535714286,323.4,393.9683035714286,398.8745535714286,425.5,393.9683035714286,398.8745535714286,529.7,307.9683035714286,460.8745535714286,631.1,93.96830357142856,659.8745535714286,740.6,66.96830357142856,686.8745535714286,844,54.968303571428564,711.8745535714286,945.6,60.968303571428564,716.8745535714286,1056.3,60.968303571428564,717.8745535714286,1160.1,60.968303571428564,717.8745535714286,1266.8,60.968303571428564,717.8745535714286,1372.2,60.968303571428564,717.8745535714286,1475.6,60.968303571428564,717.8745535714286,1578,60.968303571428564,717.8745535714286,1680.3,60.968303571428564,717.8745535714286,1787.8,60.968303571428564,717.8745535714286,1889.5,60.968303571428564,717.8745535714286,1992.3,60.968303571428564,717.8745535714286,2095.3,60.968303571428564,717.8745535714286,2200.1,60.968303571428564,717.8745535714286,2304.8,60.968303571428564,717.8745535714286,2405.4,60.968303571428564,717.8745535714286,2507.2,60.968303571428564,717.8745535714286,2609.5,60.968303571428564,717.8745535714286,2711.2,60.968303571428564,717.8745535714286,2814.9,60.968303571428564,717.8745535714286,2919.4,60.968303571428564,717.8745535714286,3020.7,60.968303571428564,717.8745535714286,3122.5,60.968303571428564,717.8745535714286,3224.5,60.968303571428564,717.8745535714286,3324.9,60.968303571428564,717.8745535714286,3425.6,60.968303571428564,717.8745535714286,3530.9,60.968303571428564,717.8745535714286,3638.4,60.968303571428564,717.8745535714286,3740.5,60.968303571428564,717.8745535714286,3841.6,60.968303571428564,717.8745535714286,3942,60.968303571428564,717.8745535714286,4042.6,60.968303571428564,717.8745535714286,4144.9,8.968303571428564,699.8745535714286,4245.9,-170.03169642857142,594.8745535714286,4350.7,-204.03169642857142,566.8745535714286,4455.9,-204.03169642857142,566.8745535714286,4560,-204.03169642857142,566.8745535714286,4661.1,-204.03169642857142,566.8745535714286,4765.2,-204.03169642857142,566.8745535714286,4871,-204.03169642857142,566.8745535714286,4974.9]","[5871.8,5871.8,3418.8,2005.2,447.8,""smooth"",""left"",""left"",""good_move"",9402.2,3529.7,3184.4,5872.6,345.3,""oops"",""down"",""right"",""bad_move"",12133,2729.8,2440.9,9403.2,288.9,""smooth"",""down"",""down"",""good_move"",15615.8,3482.4,3072.9,12133.4,409.5,""oops"",""down"",""left"",""good_move"",18153.3,2537,2167,15616.3,370,""oops"",""down"",""up"",""bad_move"",20447.9,2294.1,1968.5,18153.8,325.6,""smooth"",""down"",""down"",""good_move"",22569.3,2121.1,1779.9,20448.2,341.2,""oops"",""down"",""down"",""good_move"",25235,2665.3,2350.4,22569.7,314.9,""smooth"",""left"",""left"",""good_move"",28419.2,3183.5,2884.9,25235.7,298.6,""smooth"",""down"",""down"",""good_move"",34489.3,6069.8,2606.8,31553.4,329.1,""smooth"",""left"",""left"",""good_move""]","",""
"6126","","<div style=""width:500px;"">
  <p>What determined the result of this run?</p>
  </div>","69","html-slider-response","30","278117","0.0-5.0-1.4","73","1","2025-07-16 08:32:37","1f75c3e559b7213887762d5229550c2b","212.159.106.248","Mozilla/5.0 (Windows NT 10.0; Win64; x64) AppleWebKit/537.36 (KHTML, like Gecko) Chrome/137.0.0.0 Safari/537.36","WebKit","Chrome","137.0.0.0","Windows","10.0","https://app.prolific.com/","en-US,en;q=0.9","5d8e154af2858200171fdb95","68764874ac79eee8c1d4cb03","6877639aa31a09c62773f66e","2","0","5d8e154af2858200171fdb95","2","0","2025-07-16T08:37:16.089Z","","","","","","","","","","","AttribQ","","50","","","","","","","","","","","","","","","","","","","","","","","","","","","","",""
"2023","","<div style=""width:500px;"">
  <p>How much control did you have over the ball?</p>
  </div>","36","html-slider-response","31","280143","0.0-5.0-2.4","73","1","2025-07-16 08:32:37","1f75c3e559b7213887762d5229550c2b","212.159.106.248","Mozilla/5.0 (Windows NT 10.0; Win64; x64) AppleWebKit/537.36 (KHTML, like Gecko) Chrome/137.0.0.0 Safari/537.36","WebKit","Chrome","137.0.0.0","Windows","10.0","https://app.prolific.com/","en-US,en;q=0.9","5d8e154af2858200171fdb95","68764874ac79eee8c1d4cb03","6877639aa31a09c62773f66e","2","0","5d8e154af2858200171fdb95","2","0","2025-07-16T08:37:18.115Z","","","","","","","","","","","ControlQ","","50","","","","","","","","","","","","","","","","","","","","","","","","","","","","",""
"3583","","<div style=""width:500px;"">
  <p>How would you describe your current emotional state?</p>
  </div>","8","html-slider-response","32","283728","0.0-5.0-3.4","73","1","2025-07-16 08:32:37","1f75c3e559b7213887762d5229550c2b","212.159.106.248","Mozilla/5.0 (Windows NT 10.0; Win64; x64) AppleWebKit/537.36 (KHTML, like Gecko) Chrome/137.0.0.0 Safari/537.36","WebKit","Chrome","137.0.0.0","Windows","10.0","https://app.prolific.com/","en-US,en;q=0.9","5d8e154af2858200171fdb95","68764874ac79eee8c1d4cb03","6877639aa31a09c62773f66e","2","0","5d8e154af2858200171fdb95","2","0","2025-07-16T08:37:21.700Z","","","","","","","","","","","StressQ","","50","","","","","","","","","","","","","","","","","","","","","","","","","","","","",""
"1985","","<div style=""width:500px;"">
  <p>What best describes how you currently feel?</p>
  </div>","54","html-slider-response","33","285714","0.0-5.0-4.4","73","1","2025-07-16 08:32:37","1f75c3e559b7213887762d5229550c2b","212.159.106.248","Mozilla/5.0 (Windows NT 10.0; Win64; x64) AppleWebKit/537.36 (KHTML, like Gecko) Chrome/137.0.0.0 Safari/537.36","WebKit","Chrome","137.0.0.0","Windows","10.0","https://app.prolific.com/","en-US,en;q=0.9","5d8e154af2858200171fdb95","68764874ac79eee8c1d4cb03","6877639aa31a09c62773f66e","2","0","5d8e154af2858200171fdb95","2","0","2025-07-16T08:37:23.686Z","","","","","","","","","","","MotivationQ","","50","","","","","","","","","","","","","","","","","","","","","","","","","","","","",""
"","","","","ctl-task-cpt","34","329995","0.0-5.0-0.5","73","1","2025-07-16 08:32:37","1f75c3e559b7213887762d5229550c2b","212.159.106.248","Mozilla/5.0 (Windows NT 10.0; Win64; x64) AppleWebKit/537.36 (KHTML, like Gecko) Chrome/137.0.0.0 Safari/537.36","WebKit","Chrome","137.0.0.0","Windows","10.0","https://app.prolific.com/","en-US,en;q=0.9","5d8e154af2858200171fdb95","68764874ac79eee8c1d4cb03","6877639aa31a09c62773f66e","2","0","5d8e154af2858200171fdb95","2","0","2025-07-16T08:38:07.967Z","","","","","","","","","","","","","","win-only","3","g1:SW,g2:NE","0.5","6","0","286863.4","1253.9","6260.8","41259.4","1","4","8","6","2","8","7","27","20","0.20454545454545456","1401.8","3000","835","[""up"",""right""]","{""num_key_presses"":10,""num_perfect"":5,""num_errors"":1,""num_randdir"":4,""num_randdir_good_moves"":2,""num_whilered"":0,""num_whileblue"":1,""num_blue"":3,""num_good_moves"":8}","[392.9683035714286,396.8745535714286,0.3,392.9683035714286,396.8745535714286,110.5,392.9683035714286,396.8745535714286,211.6,392.9683035714286,396.8745535714286,316.1,392.9683035714286,396.8745535714286,416.6,392.9683035714286,396.8745535714286,517.8,491.9683035714286,329.8745535714286,622.5,832.9683035714286,36.874553571428564,735.1,842.9683035714286,30.874553571428564,837.6,842.9683035714286,30.874553571428564,950,764.9683035714286,68.87455357142856,1055.7,731.9683035714286,74.87455357142856,1157.2,722.9683035714286,75.87455357142856,1257.7,713.9683035714286,77.87455357142856,1366.1,713.9683035714286,78.87455357142856,1467,713.9683035714286,78.87455357142856,1567.2,713.9683035714286,78.87455357142856,1670.4,713.9683035714286,78.87455357142856,1771.5,713.9683035714286,78.87455357142856,1872.2,713.9683035714286,78.87455357142856,1977.7,713.9683035714286,78.87455357142856,2082.6,713.9683035714286,78.87455357142856,2185.6,713.9683035714286,78.87455357142856,2287.4,713.9683035714286,78.87455357142856,2387.5,713.9683035714286,78.87455357142856,2500.1,713.9683035714286,78.87455357142856,2600.5,713.9683035714286,78.87455357142856,2702.8,713.9683035714286,78.87455357142856,2807.6,713.9683035714286,78.87455357142856,2911.6,713.9683035714286,78.87455357142856,3018.9,713.9683035714286,78.87455357142856,3122,713.9683035714286,78.87455357142856,3222.6,713.9683035714286,78.87455357142856,3327.2,713.9683035714286,78.87455357142856,3434.1,713.9683035714286,78.87455357142856,3537.3,713.9683035714286,78.87455357142856,3637.3,713.9683035714286,78.87455357142856,3737.4,713.9683035714286,78.87455357142856,3843.9,713.9683035714286,78.87455357142856,3950.2,713.9683035714286,78.87455357142856,4052.7,713.9683035714286,78.87455357142856,4154.9,713.9683035714286,78.87455357142856,4256.5,713.9683035714286,78.87455357142856,4357.5,713.9683035714286,78.87455357142856,4466.7,713.9683035714286,78.87455357142856,4569.7,713.9683035714286,78.87455357142856,4672.1,713.9683035714286,78.87455357142856,4772.4,713.9683035714286,78.87455357142856,4885.7,713.9683035714286,78.87455357142856,4986.3]","[1323.4,1323.4,1000,0,323.4,""smooth"",""right"",""right"",""good_move"",4440.8,3116.7,2796.7,1324.1,320,""smooth"",""up"",""up"",""good_move"",7391.1,2949.8,2661.4,4441.3,288.4,""oops"",""right"",""up"",""good_move"",10312.4,2921,2673.3,7391.4,247.7,""while_blue"",""right"",""up"",""good_move"",13259.4,2946.6,2631.9,10312.8,314.7,""oops"",""right"",""left"",""bad_move"",17034,3774.1,3464.2,13259.9,309.9,""smooth"",""right"",""right"",""good_move"",19552.5,2518.1,2195.3,17034.4,322.8,""oops"",""right"",""down"",""bad_move"",22461.3,2907.9,2618.1,19553.4,289.8,""oops"",""right"",""right"",""good_move"",28895.1,6433.6,2532.9,26050.4,311.9,""smooth"",""right"",""right"",""good_move"",34882.9,5987.4,2324.7,32265.2,293,""smooth"",""up"",""up"",""good_move""]","",""
"55499","","<div style=""width:500px;"">
  <p>What determined the result of this run?</p>
  </div>","26","html-slider-response","35","385501","0.0-5.0-1.5","73","1","2025-07-16 08:32:37","1f75c3e559b7213887762d5229550c2b","212.159.106.248","Mozilla/5.0 (Windows NT 10.0; Win64; x64) AppleWebKit/537.36 (KHTML, like Gecko) Chrome/137.0.0.0 Safari/537.36","WebKit","Chrome","137.0.0.0","Windows","10.0","https://app.prolific.com/","en-US,en;q=0.9","5d8e154af2858200171fdb95","68764874ac79eee8c1d4cb03","6877639aa31a09c62773f66e","2","0","5d8e154af2858200171fdb95","2","0","2025-07-16T08:39:03.473Z","","","","","","","","","","","AttribQ","","50","","","","","","","","","","","","","","","","","","","","","","","","","","","","",""
"3643","","<div style=""width:500px;"">
  <p>How much control did you have over the ball?</p>
  </div>","22","html-slider-response","36","389146","0.0-5.0-2.5","73","1","2025-07-16 08:32:37","1f75c3e559b7213887762d5229550c2b","212.159.106.248","Mozilla/5.0 (Windows NT 10.0; Win64; x64) AppleWebKit/537.36 (KHTML, like Gecko) Chrome/137.0.0.0 Safari/537.36","WebKit","Chrome","137.0.0.0","Windows","10.0","https://app.prolific.com/","en-US,en;q=0.9","5d8e154af2858200171fdb95","68764874ac79eee8c1d4cb03","6877639aa31a09c62773f66e","2","0","5d8e154af2858200171fdb95","2","0","2025-07-16T08:39:07.118Z","","","","","","","","","","","ControlQ","","50","","","","","","","","","","","","","","","","","","","","","","","","","","","","",""
"3932","","<div style=""width:500px;"">
  <p>How would you describe your current emotional state?</p>
  </div>","16","html-slider-response","37","393079","0.0-5.0-3.5","73","1","2025-07-16 08:32:37","1f75c3e559b7213887762d5229550c2b","212.159.106.248","Mozilla/5.0 (Windows NT 10.0; Win64; x64) AppleWebKit/537.36 (KHTML, like Gecko) Chrome/137.0.0.0 Safari/537.36","WebKit","Chrome","137.0.0.0","Windows","10.0","https://app.prolific.com/","en-US,en;q=0.9","5d8e154af2858200171fdb95","68764874ac79eee8c1d4cb03","6877639aa31a09c62773f66e","2","0","5d8e154af2858200171fdb95","2","0","2025-07-16T08:39:11.052Z","","","","","","","","","","","StressQ","","50","","","","","","","","","","","","","","","","","","","","","","","","","","","","",""
"8765","","<div style=""width:500px;"">
  <p>What best describes how you currently feel?</p>
  </div>","39","html-slider-response","38","401846","0.0-5.0-4.5","73","1","2025-07-16 08:32:37","1f75c3e559b7213887762d5229550c2b","212.159.106.248","Mozilla/5.0 (Windows NT 10.0; Win64; x64) AppleWebKit/537.36 (KHTML, like Gecko) Chrome/137.0.0.0 Safari/537.36","WebKit","Chrome","137.0.0.0","Windows","10.0","https://app.prolific.com/","en-US,en;q=0.9","5d8e154af2858200171fdb95","68764874ac79eee8c1d4cb03","6877639aa31a09c62773f66e","2","0","5d8e154af2858200171fdb95","2","0","2025-07-16T08:39:19.818Z","","","","","","","","","","","MotivationQ","","50","","","","","","","","","","","","","","","","","","","","","","","","","","","","",""
"","","","","ctl-task-cpt","39","441864","0.0-5.0-0.6","73","1","2025-07-16 08:32:37","1f75c3e559b7213887762d5229550c2b","212.159.106.248","Mozilla/5.0 (Windows NT 10.0; Win64; x64) AppleWebKit/537.36 (KHTML, like Gecko) Chrome/137.0.0.0 Safari/537.36","WebKit","Chrome","137.0.0.0","Windows","10.0","https://app.prolific.com/","en-US,en;q=0.9","5d8e154af2858200171fdb95","68764874ac79eee8c1d4cb03","6877639aa31a09c62773f66e","2","0","5d8e154af2858200171fdb95","2","0","2025-07-16T08:39:59.836Z","","","","","","","","","","","","","","win-only","3","g1:SW,g2:NE","0.4","7","0","402985.2","1441","6445.2","36995.8","1","4","4","6","1","1","1","28","27","0.21212121212121213","1398.6","3000","510","[""down"",""left""]","{""num_key_presses"":10,""num_perfect"":4,""num_errors"":0,""num_randdir"":6,""num_randdir_good_moves"":3,""num_whilered"":0,""num_whileblue"":0,""num_blue"":1,""num_good_moves"":7}","[397.9683035714286,400.8745535714286,0.5,397.9683035714286,400.8745535714286,100.4,397.9683035714286,400.8745535714286,201.5,397.9683035714286,400.8745535714286,304.8,397.9683035714286,400.8745535714286,406,370.9683035714286,426.8745535714286,517.3,253.96830357142858,554.8745535714286,619.8,689.9683035714286,141.87455357142858,726.3,689.9683035714286,141.87455357142858,829.7,680.9683035714286,145.87455357142858,931.4,251.96830357142858,470.8745535714286,1032.9,85.96830357142856,645.8745535714286,1135.3,46.968303571428564,720.8745535714286,1240.7,35.968303571428564,763.8745535714286,1356.9,35.968303571428564,763.8745535714286,1471,35.968303571428564,763.8745535714286,1576.4,35.968303571428564,763.8745535714286,1682.8,35.968303571428564,763.8745535714286,1785.1,35.968303571428564,763.8745535714286,1890.2,35.968303571428564,763.8745535714286,1995.3,35.968303571428564,763.8745535714286,2095.7,35.968303571428564,763.8745535714286,2201.4,35.968303571428564,763.8745535714286,2304.9,35.968303571428564,763.8745535714286,2404.9,35.968303571428564,763.8745535714286,2506.8,35.968303571428564,763.8745535714286,2623.1,35.968303571428564,763.8745535714286,2725.2,35.968303571428564,763.8745535714286,2826.2,35.968303571428564,763.8745535714286,2927.2,35.968303571428564,763.8745535714286,3033.5,35.968303571428564,763.8745535714286,3134.7,35.968303571428564,763.8745535714286,3234.7,35.968303571428564,763.8745535714286,3340.2,35.968303571428564,763.8745535714286,3444,35.968303571428564,763.8745535714286,3553.6,35.968303571428564,763.8745535714286,3654.6,35.968303571428564,763.8745535714286,3754.9,35.968303571428564,763.8745535714286,3855.6,35.968303571428564,763.8745535714286,3960.4,35.968303571428564,763.8745535714286,4061.7,35.968303571428564,763.8745535714286,4170.2,35.968303571428564,763.8745535714286,4270.3,35.968303571428564,763.8745535714286,4373,35.968303571428564,763.8745535714286,4479.2,35.968303571428564,763.8745535714286,4580.2,35.968303571428564,763.8745535714286,4684.4,35.968303571428564,763.8745535714286,4784.5,35.968303571428564,763.8745535714286,4889.2,35.968303571428564,763.8745535714286,4989.9]","[4797.9,4797.9,2479.5,2000.9,317.5,""oops"",""left"",""right"",""bad_move"",7895.7,3097.4,2717.7,4798.3,379.7,""smooth"",""left"",""left"",""good_move"",10413.8,2517.4,2141.9,7896.4,375.5,""smooth"",""left"",""left"",""good_move"",13361.9,2947.7,2567.3,10414.2,380.4,""oops"",""down"",""left"",""good_move"",15946.7,2584.6,2300.1,13362.1,284.5,""oops"",""down"",""right"",""bad_move"",18631.4,2684.1,2356.4,15947.3,327.7,""oops"",""down"",""left"",""good_move"",22101.9,3470,3119.1,18631.9,350.9,""oops"",""down"",""right"",""bad_move"",24846.5,2744.3,2418.6,22102.2,325.7,""smooth"",""down"",""down"",""good_move"",27877.8,3031,2701.9,24846.8,329.1,""oops"",""down"",""down"",""good_move"",30427.7,2549.5,2235.3,27878.2,314.2,""smooth"",""left"",""left"",""good_move""]","",""
"2882","","<div style=""width:500px;"">
  <p>What determined the result of this run?</p>
  </div>","11","html-slider-response","40","444748","0.0-5.0-1.6","73","1","2025-07-16 08:32:37","1f75c3e559b7213887762d5229550c2b","212.159.106.248","Mozilla/5.0 (Windows NT 10.0; Win64; x64) AppleWebKit/537.36 (KHTML, like Gecko) Chrome/137.0.0.0 Safari/537.36","WebKit","Chrome","137.0.0.0","Windows","10.0","https://app.prolific.com/","en-US,en;q=0.9","5d8e154af2858200171fdb95","68764874ac79eee8c1d4cb03","6877639aa31a09c62773f66e","2","0","5d8e154af2858200171fdb95","2","0","2025-07-16T08:40:02.720Z","","","","","","","","","","","AttribQ","","50","","","","","","","","","","","","","","","","","","","","","","","","","","","","",""
"2777","","<div style=""width:500px;"">
  <p>How much control did you have over the ball?</p>
  </div>","8","html-slider-response","41","447526","0.0-5.0-2.6","73","1","2025-07-16 08:32:37","1f75c3e559b7213887762d5229550c2b","212.159.106.248","Mozilla/5.0 (Windows NT 10.0; Win64; x64) AppleWebKit/537.36 (KHTML, like Gecko) Chrome/137.0.0.0 Safari/537.36","WebKit","Chrome","137.0.0.0","Windows","10.0","https://app.prolific.com/","en-US,en;q=0.9","5d8e154af2858200171fdb95","68764874ac79eee8c1d4cb03","6877639aa31a09c62773f66e","2","0","5d8e154af2858200171fdb95","2","0","2025-07-16T08:40:05.498Z","","","","","","","","","","","ControlQ","","50","","","","","","","","","","","","","","","","","","","","","","","","","","","","",""
"2572","","<div style=""width:500px;"">
  <p>How would you describe your current emotional state?</p>
  </div>","22","html-slider-response","42","450101","0.0-5.0-3.6","73","1","2025-07-16 08:32:37","1f75c3e559b7213887762d5229550c2b","212.159.106.248","Mozilla/5.0 (Windows NT 10.0; Win64; x64) AppleWebKit/537.36 (KHTML, like Gecko) Chrome/137.0.0.0 Safari/537.36","WebKit","Chrome","137.0.0.0","Windows","10.0","https://app.prolific.com/","en-US,en;q=0.9","5d8e154af2858200171fdb95","68764874ac79eee8c1d4cb03","6877639aa31a09c62773f66e","2","0","5d8e154af2858200171fdb95","2","0","2025-07-16T08:40:08.073Z","","","","","","","","","","","StressQ","","50","","","","","","","","","","","","","","","","","","","","","","","","","","","","",""
"1853","","<div style=""width:500px;"">
  <p>What best describes how you currently feel?</p>
  </div>","28","html-slider-response","43","451955","0.0-5.0-4.6","73","1","2025-07-16 08:32:37","1f75c3e559b7213887762d5229550c2b","212.159.106.248","Mozilla/5.0 (Windows NT 10.0; Win64; x64) AppleWebKit/537.36 (KHTML, like Gecko) Chrome/137.0.0.0 Safari/537.36","WebKit","Chrome","137.0.0.0","Windows","10.0","https://app.prolific.com/","en-US,en;q=0.9","5d8e154af2858200171fdb95","68764874ac79eee8c1d4cb03","6877639aa31a09c62773f66e","2","0","5d8e154af2858200171fdb95","2","0","2025-07-16T08:40:09.927Z","","","","","","","","","","","MotivationQ","","50","","","","","","","","","","","","","","","","","","","","","","","","","","","","",""
"","","","","ctl-task-cpt","44","486938","0.0-5.0-0.7","73","1","2025-07-16 08:32:37","1f75c3e559b7213887762d5229550c2b","212.159.106.248","Mozilla/5.0 (Windows NT 10.0; Win64; x64) AppleWebKit/537.36 (KHTML, like Gecko) Chrome/137.0.0.0 Safari/537.36","WebKit","Chrome","137.0.0.0","Windows","10.0","https://app.prolific.com/","en-US,en;q=0.9","5d8e154af2858200171fdb95","68764874ac79eee8c1d4cb03","6877639aa31a09c62773f66e","2","0","5d8e154af2858200171fdb95","2","0","2025-07-16T08:40:44.910Z","","","","","","","","","","","","","","win-only","0","g1:NW,g2:SE","0.3","8","0","453090.1","1690.1","6690.7","31971.2","1","4","8","6","1","-1","-1","27","28","0.20454545454545456","2018.1","3000","-2200","[""left"",""up""]","{""num_key_presses"":5,""num_perfect"":0,""num_errors"":0,""num_randdir"":5,""num_randdir_good_moves"":1,""num_whilered"":0,""num_whileblue"":0,""num_blue"":2,""num_good_moves"":1}","[399.9683035714286,394.8745535714286,0.5,399.9683035714286,394.8745535714286,100.8,399.9683035714286,394.8745535714286,206.6,399.9683035714286,394.8745535714286,322.3,399.9683035714286,394.8745535714286,427,399.9683035714286,392.8745535714286,527.2,425.9683035714286,403.8745535714286,638.5,477.9683035714286,461.8745535714286,741.2,487.9683035714286,469.8745535714286,842.1,374.9683035714286,390.8745535714286,942.9,340.9683035714286,342.8745535714286,1056.5,220.96830357142858,242.87455357142858,1157.1,161.96830357142858,173.87455357142858,1273.3,162.96830357142858,171.87455357142858,1375,162.96830357142858,171.87455357142858,1478,75.96830357142856,102.87455357142856,1581.3,59.968303571428564,92.87455357142856,1686.8,58.968303571428564,91.87455357142856,1790.3,58.968303571428564,91.87455357142856,1891.3,61.968303571428564,91.87455357142856,1996.2,61.968303571428564,91.87455357142856,2097.2,61.968303571428564,91.87455357142856,2203.5,61.968303571428564,91.87455357142856,2306.1,61.968303571428564,91.87455357142856,2411.3,63.968303571428564,92.87455357142856,2511.3,63.968303571428564,92.87455357142856,2611.6,63.968303571428564,92.87455357142856,2720.9,63.968303571428564,92.87455357142856,2822,63.968303571428564,92.87455357142856,2927.6,66.96830357142856,92.87455357142856,3031.8,66.96830357142856,92.87455357142856,3135.3,66.96830357142856,92.87455357142856,3237.2,66.96830357142856,92.87455357142856,3341.4,66.96830357142856,92.87455357142856,3452.9,66.96830357142856,92.87455357142856,3555.4,66.96830357142856,92.87455357142856,3656.1,66.96830357142856,92.87455357142856,3756.5,66.96830357142856,92.87455357142856,3857.2,66.96830357142856,92.87455357142856,3962.7,66.96830357142856,92.87455357142856,4069.4,66.96830357142856,92.87455357142856,4172.9,66.96830357142856,92.87455357142856,4278.8,66.96830357142856,92.87455357142856,4381.2,66.96830357142856,92.87455357142856,4485.9,66.96830357142856,92.87455357142856,4591.3,66.96830357142856,92.87455357142856,4691.6,66.96830357142856,92.87455357142856,4795.7,66.96830357142856,92.87455357142856,4899.1]","[8239.3,8239.3,2252,5705.1,282.2,""oops"",""left"",""down"",""bad_move"",11524,3284.1,2946.9,8240,337.1,""oops"",""left"",""down"",""bad_move"",14925.8,3401.5,3089.8,11524.3,311.7,""oops"",""left"",""left"",""good_move"",18101.5,3175.2,2848.2,14926.3,327,""oops"",""up"",""right"",""bad_move"",20618.7,2516.7,2187.4,18102,329.3,""oops"",""up"",""down"",""bad_move""]","",""
"2644","","<div style=""width:500px;"">
  <p>What determined the result of this run?</p>
  </div>","2","html-slider-response","45","489583","0.0-5.0-1.7","73","1","2025-07-16 08:32:37","1f75c3e559b7213887762d5229550c2b","212.159.106.248","Mozilla/5.0 (Windows NT 10.0; Win64; x64) AppleWebKit/537.36 (KHTML, like Gecko) Chrome/137.0.0.0 Safari/537.36","WebKit","Chrome","137.0.0.0","Windows","10.0","https://app.prolific.com/","en-US,en;q=0.9","5d8e154af2858200171fdb95","68764874ac79eee8c1d4cb03","6877639aa31a09c62773f66e","2","0","5d8e154af2858200171fdb95","2","0","2025-07-16T08:40:47.555Z","","","","","","","","","","","AttribQ","","50","","","","","","","","","","","","","","","","","","","","","","","","","","","","",""
"2122","","<div style=""width:500px;"">
  <p>How much control did you have over the ball?</p>
  </div>","0","html-slider-response","46","491707","0.0-5.0-2.7","73","1","2025-07-16 08:32:37","1f75c3e559b7213887762d5229550c2b","212.159.106.248","Mozilla/5.0 (Windows NT 10.0; Win64; x64) AppleWebKit/537.36 (KHTML, like Gecko) Chrome/137.0.0.0 Safari/537.36","WebKit","Chrome","137.0.0.0","Windows","10.0","https://app.prolific.com/","en-US,en;q=0.9","5d8e154af2858200171fdb95","68764874ac79eee8c1d4cb03","6877639aa31a09c62773f66e","2","0","5d8e154af2858200171fdb95","2","0","2025-07-16T08:40:49.679Z","","","","","","","","","","","ControlQ","","50","","","","","","","","","","","","","","","","","","","","","","","","","","","","",""
"2165","","<div style=""width:500px;"">
  <p>How would you describe your current emotional state?</p>
  </div>","39","html-slider-response","47","493873","0.0-5.0-3.7","73","1","2025-07-16 08:32:37","1f75c3e559b7213887762d5229550c2b","212.159.106.248","Mozilla/5.0 (Windows NT 10.0; Win64; x64) AppleWebKit/537.36 (KHTML, like Gecko) Chrome/137.0.0.0 Safari/537.36","WebKit","Chrome","137.0.0.0","Windows","10.0","https://app.prolific.com/","en-US,en;q=0.9","5d8e154af2858200171fdb95","68764874ac79eee8c1d4cb03","6877639aa31a09c62773f66e","2","0","5d8e154af2858200171fdb95","2","0","2025-07-16T08:40:51.846Z","","","","","","","","","","","StressQ","","50","","","","","","","","","","","","","","","","","","","","","","","","","","","","",""
"4008","","<div style=""width:500px;"">
  <p>What best describes how you currently feel?</p>
  </div>","18","html-slider-response","48","497883","0.0-5.0-4.7","73","1","2025-07-16 08:32:37","1f75c3e559b7213887762d5229550c2b","212.159.106.248","Mozilla/5.0 (Windows NT 10.0; Win64; x64) AppleWebKit/537.36 (KHTML, like Gecko) Chrome/137.0.0.0 Safari/537.36","WebKit","Chrome","137.0.0.0","Windows","10.0","https://app.prolific.com/","en-US,en;q=0.9","5d8e154af2858200171fdb95","68764874ac79eee8c1d4cb03","6877639aa31a09c62773f66e","2","0","5d8e154af2858200171fdb95","2","0","2025-07-16T08:40:55.855Z","","","","","","","","","","","MotivationQ","","50","","","","","","","","","","","","","","","","","","","","","","","","","","","","",""
"","","","","ctl-task-cpt","49","549679","0.0-5.0-0.8","73","1","2025-07-16 08:32:37","1f75c3e559b7213887762d5229550c2b","212.159.106.248","Mozilla/5.0 (Windows NT 10.0; Win64; x64) AppleWebKit/537.36 (KHTML, like Gecko) Chrome/137.0.0.0 Safari/537.36","WebKit","Chrome","137.0.0.0","Windows","10.0","https://app.prolific.com/","en-US,en;q=0.9","5d8e154af2858200171fdb95","68764874ac79eee8c1d4cb03","6877639aa31a09c62773f66e","2","0","5d8e154af2858200171fdb95","2","0","2025-07-16T08:41:47.651Z","","","","","","","","","","","","","","win-only","3","g1:SW,g2:NE","0.2","9","0","499018.2","1503.4","6507.1","48770.9","1","4","4","6","1","-1","-2","25","27","0.1893939393939394","1094.1","3000","-2715","[""down"",""left""]","{""num_key_presses"":8,""num_perfect"":2,""num_errors"":1,""num_randdir"":5,""num_randdir_good_moves"":2,""num_whilered"":0,""num_whileblue"":1,""num_blue"":6,""num_good_moves"":4}","[392.9683035714286,388.8745535714286,0.3,392.9683035714286,388.8745535714286,116.4,392.9683035714286,388.8745535714286,218.8,392.9683035714286,388.8745535714286,319.8,392.9683035714286,388.8745535714286,422.8,392.9683035714286,388.8745535714286,523.4,390.9683035714286,389.8745535714286,630.8,198.96830357142858,567.8745535714286,732.5,118.96830357142856,664.8745535714286,835.2,111.96830357142856,671.8745535714286,939.2,96.96830357142856,686.8745535714286,1044,93.96830357142856,686.8745535714286,1153,93.96830357142856,686.8745535714286,1253.7,93.96830357142856,686.8745535714286,1357.2,93.96830357142856,686.8745535714286,1457.9,93.96830357142856,686.8745535714286,1567.2,93.96830357142856,686.8745535714286,1668,93.96830357142856,686.8745535714286,1772.3,93.96830357142856,686.8745535714286,1872.5,93.96830357142856,686.8745535714286,1972.7,93.96830357142856,686.8745535714286,2077.5,93.96830357142856,686.8745535714286,2178.7,93.96830357142856,686.8745535714286,2283.2,93.96830357142856,686.8745535714286,2400.2,93.96830357142856,686.8745535714286,2502.1,93.96830357142856,686.8745535714286,2602.3,93.96830357142856,686.8745535714286,2717.6,93.96830357142856,686.8745535714286,2818,93.96830357142856,686.8745535714286,2919.9,93.96830357142856,686.8745535714286,3022.4,93.96830357142856,686.8745535714286,3133.6,93.96830357142856,686.8745535714286,3237,93.96830357142856,686.8745535714286,3337.6,93.96830357142856,686.8745535714286,3452,93.96830357142856,686.8745535714286,3552.5,93.96830357142856,686.8745535714286,3653.7,93.96830357142856,686.8745535714286,3758.1,93.96830357142856,686.8745535714286,3863.2,93.96830357142856,686.8745535714286,3967.7,93.96830357142856,686.8745535714286,4071.9,93.96830357142856,686.8745535714286,4177,93.96830357142856,686.8745535714286,4278.1,93.96830357142856,686.8745535714286,4383,93.96830357142856,686.8745535714286,4483,93.96830357142856,686.8745535714286,4583.8,93.96830357142856,686.8745535714286,4687.5,93.96830357142856,686.8745535714286,4793.8,93.96830357142856,686.8745535714286,4894,93.96830357142856,686.8745535714286,4998.5]","[4275.6,4275.6,1948.5,2009.1,318,""smooth"",""left"",""left"",""good_move"",6423.7,2147.6,1815,4276.1,332.6,""oops"",""left"",""down"",""good_move"",12899.9,6475.8,1914.6,10689.5,295.8,""oops"",""left"",""up"",""bad_move"",19824.8,6924.4,2980.9,16512.7,331.2,""oops"",""left"",""up"",""bad_move"",25924.8,6099.7,2242.2,23353.6,329,""smooth"",""left"",""left"",""good_move"",29027,3101.8,2781.4,25925.3,320.3,""oops"",""down"",""up"",""bad_move"",32412.3,3385,3086.7,29027.3,298.3,""oops"",""down"",""down"",""good_move"",35161.9,2749.3,2530.2,32412.6,219.1,""while_blue"",""down"",""up"",""bad_move""]","",""
"2728","","<div style=""width:500px;"">
  <p>What determined the result of this run?</p>
  </div>","0","html-slider-response","50","552409","0.0-5.0-1.8","73","1","2025-07-16 08:32:37","1f75c3e559b7213887762d5229550c2b","212.159.106.248","Mozilla/5.0 (Windows NT 10.0; Win64; x64) AppleWebKit/537.36 (KHTML, like Gecko) Chrome/137.0.0.0 Safari/537.36","WebKit","Chrome","137.0.0.0","Windows","10.0","https://app.prolific.com/","en-US,en;q=0.9","5d8e154af2858200171fdb95","68764874ac79eee8c1d4cb03","6877639aa31a09c62773f66e","2","0","5d8e154af2858200171fdb95","2","0","2025-07-16T08:41:50.381Z","","","","","","","","","","","AttribQ","","50","","","","","","","","","","","","","","","","","","","","","","","","","","","","",""
"2511","","<div style=""width:500px;"">
  <p>How much control did you have over the ball?</p>
  </div>","0","html-slider-response","51","554921","0.0-5.0-2.8","73","1","2025-07-16 08:32:37","1f75c3e559b7213887762d5229550c2b","212.159.106.248","Mozilla/5.0 (Windows NT 10.0; Win64; x64) AppleWebKit/537.36 (KHTML, like Gecko) Chrome/137.0.0.0 Safari/537.36","WebKit","Chrome","137.0.0.0","Windows","10.0","https://app.prolific.com/","en-US,en;q=0.9","5d8e154af2858200171fdb95","68764874ac79eee8c1d4cb03","6877639aa31a09c62773f66e","2","0","5d8e154af2858200171fdb95","2","0","2025-07-16T08:41:52.893Z","","","","","","","","","","","ControlQ","","50","","","","","","","","","","","","","","","","","","","","","","","","","","","","",""
"2836","","<div style=""width:500px;"">
  <p>How would you describe your current emotional state?</p>
  </div>","37","html-slider-response","52","557757","0.0-5.0-3.8","73","1","2025-07-16 08:32:37","1f75c3e559b7213887762d5229550c2b","212.159.106.248","Mozilla/5.0 (Windows NT 10.0; Win64; x64) AppleWebKit/537.36 (KHTML, like Gecko) Chrome/137.0.0.0 Safari/537.36","WebKit","Chrome","137.0.0.0","Windows","10.0","https://app.prolific.com/","en-US,en;q=0.9","5d8e154af2858200171fdb95","68764874ac79eee8c1d4cb03","6877639aa31a09c62773f66e","2","0","5d8e154af2858200171fdb95","2","0","2025-07-16T08:41:55.729Z","","","","","","","","","","","StressQ","","50","","","","","","","","","","","","","","","","","","","","","","","","","","","","",""
"1460","","<div style=""width:500px;"">
  <p>What best describes how you currently feel?</p>
  </div>","1","html-slider-response","53","559219","0.0-5.0-4.8","73","1","2025-07-16 08:32:37","1f75c3e559b7213887762d5229550c2b","212.159.106.248","Mozilla/5.0 (Windows NT 10.0; Win64; x64) AppleWebKit/537.36 (KHTML, like Gecko) Chrome/137.0.0.0 Safari/537.36","WebKit","Chrome","137.0.0.0","Windows","10.0","https://app.prolific.com/","en-US,en;q=0.9","5d8e154af2858200171fdb95","68764874ac79eee8c1d4cb03","6877639aa31a09c62773f66e","2","0","5d8e154af2858200171fdb95","2","0","2025-07-16T08:41:57.191Z","","","","","","","","","","","MotivationQ","","50","","","","","","","","","","","","","","","","","","","","","","","","","","","","",""
"","","","","ctl-task-cpt","54","608782","0.0-5.0-0.9","73","1","2025-07-16 08:32:37","1f75c3e559b7213887762d5229550c2b","212.159.106.248","Mozilla/5.0 (Windows NT 10.0; Win64; x64) AppleWebKit/537.36 (KHTML, like Gecko) Chrome/137.0.0.0 Safari/537.36","WebKit","Chrome","137.0.0.0","Windows","10.0","https://app.prolific.com/","en-US,en;q=0.9","5d8e154af2858200171fdb95","68764874ac79eee8c1d4cb03","6877639aa31a09c62773f66e","2","0","5d8e154af2858200171fdb95","2","0","2025-07-16T08:42:46.754Z","","","","","","","","","","","","","","win-only","3","g1:SW,g2:NE","0.4","10","0","560350.5","1791.9","6798.2","46538.7","1","4","8","6","1","-1","-3","22","25","0.16666666666666666","1161.7","3000","-2040","[""down"",""left""]","{""num_key_presses"":12,""num_perfect"":4,""num_errors"":2,""num_randdir"":6,""num_randdir_good_moves"":2,""num_whilered"":0,""num_whileblue"":2,""num_blue"":3,""num_good_moves"":6}","[398.9683035714286,390.8745535714286,0.3,398.9683035714286,390.8745535714286,102.4,398.9683035714286,390.8745535714286,204.1,398.9683035714286,390.8745535714286,308.7,398.9683035714286,390.8745535714286,419.7,398.9683035714286,390.8745535714286,524.9,399.9683035714286,384.8745535714286,627.8,399.9683035714286,384.8745535714286,727.9,111.96830357142856,627.8745535714286,830.9,83.96830357142856,677.8745535714286,939.5,84.96830357142856,696.8745535714286,1045.9,84.96830357142856,697.8745535714286,1150.5,84.96830357142856,697.8745535714286,1254.6,84.96830357142856,697.8745535714286,1355.9,84.96830357142856,697.8745535714286,1464.7,84.96830357142856,697.8745535714286,1570.1,84.96830357142856,697.8745535714286,1683.1,84.96830357142856,697.8745535714286,1786.2,84.96830357142856,697.8745535714286,1891.4,84.96830357142856,697.8745535714286,1996,84.96830357142856,697.8745535714286,2100.6,84.96830357142856,697.8745535714286,2200.7,84.96830357142856,697.8745535714286,2304.2,84.96830357142856,697.8745535714286,2404.6,84.96830357142856,697.8745535714286,2521.5,84.96830357142856,697.8745535714286,2621.6,84.96830357142856,697.8745535714286,2724.3,84.96830357142856,697.8745535714286,2838.1,84.96830357142856,697.8745535714286,2939.4,84.96830357142856,697.8745535714286,3042,84.96830357142856,697.8745535714286,3153.3,84.96830357142856,697.8745535714286,3253.9,84.96830357142856,697.8745535714286,3358.9,84.96830357142856,697.8745535714286,3462.7,84.96830357142856,697.8745535714286,3571.1,84.96830357142856,697.8745535714286,3685.9,84.96830357142856,697.8745535714286,3788.4,84.96830357142856,697.8745535714286,3888.9,84.96830357142856,697.8745535714286,4003,84.96830357142856,697.8745535714286,4104,84.96830357142856,697.8745535714286,4220.4,84.96830357142856,697.8745535714286,4321.8,84.96830357142856,697.8745535714286,4422.1,84.96830357142856,697.8745535714286,4537.7,84.96830357142856,697.8745535714286,4638.9,84.96830357142856,697.8745535714286,4739.7,84.96830357142856,697.8745535714286,4844.1,84.96830357142856,697.8745535714286,4950.1]","[5311.1,5311.1,2960.3,2008.6,342.2,""oops"",""left"",""right"",""bad_move"",8204.1,2892.3,2528.6,5311.8,363.7,""smooth"",""left"",""left"",""good_move"",10975.5,2770.6,2439.2,8204.9,331.4,""smooth"",""left"",""left"",""good_move"",14054.7,3078.8,2794.8,10975.9,284,""oops"",""down"",""right"",""bad_move"",16628.1,2572.9,2255.4,14055.2,317.5,""smooth"",""down"",""down"",""good_move"",19426.2,2797.5,2537.6,16628.8,259.9,""while_blue"",""left"",""up"",""bad_move"",22363.6,2936.8,2632.6,19426.8,304.2,""oops"",""left"",""left"",""good_move"",25056,2692.2,2407.6,22363.8,284.6,""oops"",""down"",""up"",""bad_move"",27777.3,2721,2389.3,25056.4,331.7,""oops"",""down"",""down"",""good_move"",29896.7,2118.6,1558.8,27778.1,559.8,""smooth"",""down"",""down"",""good_move"",32545.3,2648.2,2287.6,29897.1,360.6,""oops"",""down"",""right"",""bad_move"",35593.3,3047.7,2756.7,32545.6,291,""while_blue"",""down"",""up"",""bad_move""]","",""
"2497","","<div style=""width:500px;"">
  <p>What determined the result of this run?</p>
  </div>","0","html-slider-response","55","611280","0.0-5.0-1.9","73","1","2025-07-16 08:32:37","1f75c3e559b7213887762d5229550c2b","212.159.106.248","Mozilla/5.0 (Windows NT 10.0; Win64; x64) AppleWebKit/537.36 (KHTML, like Gecko) Chrome/137.0.0.0 Safari/537.36","WebKit","Chrome","137.0.0.0","Windows","10.0","https://app.prolific.com/","en-US,en;q=0.9","5d8e154af2858200171fdb95","68764874ac79eee8c1d4cb03","6877639aa31a09c62773f66e","2","0","5d8e154af2858200171fdb95","2","0","2025-07-16T08:42:49.252Z","","","","","","","","","","","AttribQ","","50","","","","","","","","","","","","","","","","","","","","","","","","","","","","",""
"1545","","<div style=""width:500px;"">
  <p>How much control did you have over the ball?</p>
  </div>","0","html-slider-response","56","612827","0.0-5.0-2.9","73","1","2025-07-16 08:32:37","1f75c3e559b7213887762d5229550c2b","212.159.106.248","Mozilla/5.0 (Windows NT 10.0; Win64; x64) AppleWebKit/537.36 (KHTML, like Gecko) Chrome/137.0.0.0 Safari/537.36","WebKit","Chrome","137.0.0.0","Windows","10.0","https://app.prolific.com/","en-US,en;q=0.9","5d8e154af2858200171fdb95","68764874ac79eee8c1d4cb03","6877639aa31a09c62773f66e","2","0","5d8e154af2858200171fdb95","2","0","2025-07-16T08:42:50.799Z","","","","","","","","","","","ControlQ","","50","","","","","","","","","","","","","","","","","","","","","","","","","","","","",""
"1911","","<div style=""width:500px;"">
  <p>How would you describe your current emotional state?</p>
  </div>","77","html-slider-response","57","614739","0.0-5.0-3.9","73","1","2025-07-16 08:32:37","1f75c3e559b7213887762d5229550c2b","212.159.106.248","Mozilla/5.0 (Windows NT 10.0; Win64; x64) AppleWebKit/537.36 (KHTML, like Gecko) Chrome/137.0.0.0 Safari/537.36","WebKit","Chrome","137.0.0.0","Windows","10.0","https://app.prolific.com/","en-US,en;q=0.9","5d8e154af2858200171fdb95","68764874ac79eee8c1d4cb03","6877639aa31a09c62773f66e","2","0","5d8e154af2858200171fdb95","2","0","2025-07-16T08:42:52.711Z","","","","","","","","","","","StressQ","","50","","","","","","","","","","","","","","","","","","","","","","","","","","","","",""
"1549","","<div style=""width:500px;"">
  <p>What best describes how you currently feel?</p>
  </div>","2","html-slider-response","58","616288","0.0-5.0-4.9","73","1","2025-07-16 08:32:37","1f75c3e559b7213887762d5229550c2b","212.159.106.248","Mozilla/5.0 (Windows NT 10.0; Win64; x64) AppleWebKit/537.36 (KHTML, like Gecko) Chrome/137.0.0.0 Safari/537.36","WebKit","Chrome","137.0.0.0","Windows","10.0","https://app.prolific.com/","en-US,en;q=0.9","5d8e154af2858200171fdb95","68764874ac79eee8c1d4cb03","6877639aa31a09c62773f66e","2","0","5d8e154af2858200171fdb95","2","0","2025-07-16T08:42:54.261Z","","","","","","","","","","","MotivationQ","","50","","","","","","","","","","","","","","","","","","","","","","","","","","","","",""
"","","","","ctl-task-cpt","59","635271","0.0-5.0-0.10","73","1","2025-07-16 08:32:37","1f75c3e559b7213887762d5229550c2b","212.159.106.248","Mozilla/5.0 (Windows NT 10.0; Win64; x64) AppleWebKit/537.36 (KHTML, like Gecko) Chrome/137.0.0.0 Safari/537.36","WebKit","Chrome","137.0.0.0","Windows","10.0","https://app.prolific.com/","en-US,en;q=0.9","5d8e154af2858200171fdb95","68764874ac79eee8c1d4cb03","6877639aa31a09c62773f66e","2","0","5d8e154af2858200171fdb95","2","0","2025-07-16T08:43:13.244Z","","","","","","","","","","","","","","win-only","1","g1:NE,g2:SW","0.5","11","0","617415.8","1000.2","6006.3","15964.4","1","4","4","6","1","1","1","23","22","0.17424242424242425","884","3000","2170","[""up"",""right""]","{""num_key_presses"":4,""num_perfect"":2,""num_errors"":0,""num_randdir"":2,""num_randdir_good_moves"":2,""num_whilered"":0,""num_whileblue"":0,""num_blue"":0,""num_good_moves"":4}","[387.9683035714286,403.8745535714286,0.6,387.9683035714286,403.8745535714286,103,387.9683035714286,403.8745535714286,206,387.9683035714286,403.8745535714286,306.4,387.9683035714286,403.8745535714286,407.8,387.9683035714286,403.8745535714286,511.1,387.9683035714286,403.8745535714286,612.4,387.9683035714286,403.8745535714286,719.2,387.9683035714286,403.8745535714286,823.9,738.9683035714286,77.87455357142856,925.9,738.9683035714286,77.87455357142856,1026.9,738.9683035714286,77.87455357142856,1143.9,738.9683035714286,77.87455357142856,1250.8,738.9683035714286,77.87455357142856,1362.2,738.9683035714286,77.87455357142856,1466.4,738.9683035714286,77.87455357142856,1567.3,738.9683035714286,77.87455357142856,1675.1,738.9683035714286,77.87455357142856,1776.5,738.9683035714286,77.87455357142856,1880,738.9683035714286,77.87455357142856,1991.8,738.9683035714286,77.87455357142856,2096.7,738.9683035714286,77.87455357142856,2198.6,738.9683035714286,77.87455357142856,2309.3,738.9683035714286,77.87455357142856,2410.4,738.9683035714286,77.87455357142856,2512.6,738.9683035714286,77.87455357142856,2614.1,738.9683035714286,77.87455357142856,2716,738.9683035714286,77.87455357142856,2818,738.9683035714286,77.87455357142856,2919.6,738.9683035714286,77.87455357142856,3023.7,738.9683035714286,77.87455357142856,3124.3,738.9683035714286,77.87455357142856,3229.5,738.9683035714286,77.87455357142856,3336.4,738.9683035714286,77.87455357142856,3440.3,738.9683035714286,77.87455357142856,3540.7,738.9683035714286,77.87455357142856,3644.2,738.9683035714286,77.87455357142856,3753.8,738.9683035714286,77.87455357142856,3856.7,738.9683035714286,77.87455357142856,3958.5,738.9683035714286,77.87455357142856,4063.2,738.9683035714286,77.87455357142856,4169.1,738.9683035714286,77.87455357142856,4271.7,738.9683035714286,77.87455357142856,4371.8,738.9683035714286,77.87455357142856,4474.3,738.9683035714286,77.87455357142856,4577.7,738.9683035714286,77.87455357142856,4684.4,738.9683035714286,77.87455357142856,4785.6,738.9683035714286,77.87455357142856,4888.6,738.9683035714286,77.87455357142856,4991.1]","[1431.3,1431.3,1000,0,431.4,""smooth"",""up"",""up"",""good_move"",4043.4,2611.3,2314.9,1432.1,296.4,""oops"",""right"",""up"",""good_move"",7129.9,3086.2,2757.2,4043.7,329,""smooth"",""right"",""right"",""good_move"",9820.8,2690.1,2378.8,7130.7,311.3,""oops"",""right"",""right"",""good_move""]","",""
"3199","","<div style=""width:500px;"">
  <p>What determined the result of this run?</p>
  </div>","47","html-slider-response","60","638472","0.0-5.0-1.10","73","1","2025-07-16 08:32:37","1f75c3e559b7213887762d5229550c2b","212.159.106.248","Mozilla/5.0 (Windows NT 10.0; Win64; x64) AppleWebKit/537.36 (KHTML, like Gecko) Chrome/137.0.0.0 Safari/537.36","WebKit","Chrome","137.0.0.0","Windows","10.0","https://app.prolific.com/","en-US,en;q=0.9","5d8e154af2858200171fdb95","68764874ac79eee8c1d4cb03","6877639aa31a09c62773f66e","2","0","5d8e154af2858200171fdb95","2","0","2025-07-16T08:43:16.444Z","","","","","","","","","","","AttribQ","","50","","","","","","","","","","","","","","","","","","","","","","","","","","","","",""
"3599","","<div style=""width:500px;"">
  <p>How much control did you have over the ball?</p>
  </div>","29","html-slider-response","61","642073","0.0-5.0-2.10","73","1","2025-07-16 08:32:37","1f75c3e559b7213887762d5229550c2b","212.159.106.248","Mozilla/5.0 (Windows NT 10.0; Win64; x64) AppleWebKit/537.36 (KHTML, like Gecko) Chrome/137.0.0.0 Safari/537.36","WebKit","Chrome","137.0.0.0","Windows","10.0","https://app.prolific.com/","en-US,en;q=0.9","5d8e154af2858200171fdb95","68764874ac79eee8c1d4cb03","6877639aa31a09c62773f66e","2","0","5d8e154af2858200171fdb95","2","0","2025-07-16T08:43:20.046Z","","","","","","","","","","","ControlQ","","50","","","","","","","","","","","","","","","","","","","","","","","","","","","","",""
"2262","","<div style=""width:500px;"">
  <p>How would you describe your current emotional state?</p>
  </div>","39","html-slider-response","62","644338","0.0-5.0-3.10","73","1","2025-07-16 08:32:37","1f75c3e559b7213887762d5229550c2b","212.159.106.248","Mozilla/5.0 (Windows NT 10.0; Win64; x64) AppleWebKit/537.36 (KHTML, like Gecko) Chrome/137.0.0.0 Safari/537.36","WebKit","Chrome","137.0.0.0","Windows","10.0","https://app.prolific.com/","en-US,en;q=0.9","5d8e154af2858200171fdb95","68764874ac79eee8c1d4cb03","6877639aa31a09c62773f66e","2","0","5d8e154af2858200171fdb95","2","0","2025-07-16T08:43:22.310Z","","","","","","","","","","","StressQ","","50","","","","","","","","","","","","","","","","","","","","","","","","","","","","",""
"1708","","<div style=""width:500px;"">
  <p>What best describes how you currently feel?</p>
  </div>","18","html-slider-response","63","646048","0.0-5.0-4.10","73","1","2025-07-16 08:32:37","1f75c3e559b7213887762d5229550c2b","212.159.106.248","Mozilla/5.0 (Windows NT 10.0; Win64; x64) AppleWebKit/537.36 (KHTML, like Gecko) Chrome/137.0.0.0 Safari/537.36","WebKit","Chrome","137.0.0.0","Windows","10.0","https://app.prolific.com/","en-US,en;q=0.9","5d8e154af2858200171fdb95","68764874ac79eee8c1d4cb03","6877639aa31a09c62773f66e","2","0","5d8e154af2858200171fdb95","2","0","2025-07-16T08:43:24.020Z","","","","","","","","","","","MotivationQ","","50","","","","","","","","","","","","","","","","","","","","","","","","","","","","",""
"","","","","ctl-task-cpt","64","681306","0.0-5.0-0.11","73","1","2025-07-16 08:32:37","1f75c3e559b7213887762d5229550c2b","212.159.106.248","Mozilla/5.0 (Windows NT 10.0; Win64; x64) AppleWebKit/537.36 (KHTML, like Gecko) Chrome/137.0.0.0 Safari/537.36","WebKit","Chrome","137.0.0.0","Windows","10.0","https://app.prolific.com/","en-US,en;q=0.9","5d8e154af2858200171fdb95","68764874ac79eee8c1d4cb03","6877639aa31a09c62773f66e","2","0","5d8e154af2858200171fdb95","2","0","2025-07-16T08:43:59.278Z","","","","","","","","","","","","","","win-only","3","g1:SW,g2:NE","0.6","12","0","647172.9","1477.3","6483.5","32232.6","1","4","8","6","1","1","1","24","23","0.18181818181818182","934.2","3000","1830","[""down"",""left""]","{""num_key_presses"":6,""num_perfect"":5,""num_errors"":0,""num_randdir"":1,""num_randdir_good_moves"":0,""num_whilered"":0,""num_whileblue"":0,""num_blue"":3,""num_good_moves"":5}","[405.9683035714286,401.8745535714286,0.5,405.9683035714286,401.8745535714286,103.3,405.9683035714286,401.8745535714286,215.1,405.9683035714286,401.8745535714286,319.4,405.9683035714286,401.8745535714286,431.9,405.9683035714286,401.8745535714286,534.8,405.9683035714286,401.8745535714286,654.3,405.9683035714286,401.8745535714286,758.6,405.9683035714286,401.8745535714286,858.7,80.96830357142856,715.8745535714286,962.4,80.96830357142856,715.8745535714286,1071.8,80.96830357142856,715.8745535714286,1176.3,80.96830357142856,715.8745535714286,1276.7,80.96830357142856,715.8745535714286,1377.2,80.96830357142856,715.8745535714286,1477.3,80.96830357142856,715.8745535714286,1578.8,80.96830357142856,715.8745535714286,1680.6,80.96830357142856,715.8745535714286,1787.5,80.96830357142856,715.8745535714286,1891,80.96830357142856,715.8745535714286,1995.2,80.96830357142856,715.8745535714286,2095.7,80.96830357142856,715.8745535714286,2202.2,80.96830357142856,715.8745535714286,2304,80.96830357142856,715.8745535714286,2416.3,80.96830357142856,715.8745535714286,2520.4,80.96830357142856,715.8745535714286,2621.9,80.96830357142856,715.8745535714286,2734.6,80.96830357142856,715.8745535714286,2846.3,80.96830357142856,715.8745535714286,2948.8,80.96830357142856,715.8745535714286,3050,80.96830357142856,715.8745535714286,3154.4,80.96830357142856,715.8745535714286,3264.9,80.96830357142856,715.8745535714286,3365.6,80.96830357142856,715.8745535714286,3468.4,80.96830357142856,715.8745535714286,3569.5,80.96830357142856,715.8745535714286,3674.3,80.96830357142856,715.8745535714286,3775.4,80.96830357142856,715.8745535714286,3879.2,80.96830357142856,715.8745535714286,3979.3,80.96830357142856,715.8745535714286,4096.8,80.96830357142856,715.8745535714286,4199.4,80.96830357142856,715.8745535714286,4301.1,80.96830357142856,715.8745535714286,4405.5,80.96830357142856,715.8745535714286,4508.9,80.96830357142856,715.8745535714286,4610.6,80.96830357142856,715.8745535714286,4714.6,80.96830357142856,715.8745535714286,4831.4,80.96830357142856,715.8745535714286,4935]","[1337.7,1337.7,1000,0,337.7,""smooth"",""left"",""left"",""good_move"",10836.8,9498.6,1831.6,8742.1,263.1,""smooth"",""down"",""down"",""good_move"",13771.4,2934,2551.7,10837.5,382.2,""smooth"",""left"",""left"",""good_move"",16918.1,3146.2,2831.9,13771.9,314.3,""oops"",""down"",""right"",""bad_move"",23013.1,6094.4,1919.2,20802.2,291.7,""smooth"",""down"",""down"",""good_move"",25610.1,2596.2,2257.6,23013.9,338.6,""smooth"",""left"",""left"",""good_move""]","",""
"4034","","<div style=""width:500px;"">
  <p>What determined the result of this run?</p>
  </div>","36","html-slider-response","65","685342","0.0-5.0-1.11","73","1","2025-07-16 08:32:37","1f75c3e559b7213887762d5229550c2b","212.159.106.248","Mozilla/5.0 (Windows NT 10.0; Win64; x64) AppleWebKit/537.36 (KHTML, like Gecko) Chrome/137.0.0.0 Safari/537.36","WebKit","Chrome","137.0.0.0","Windows","10.0","https://app.prolific.com/","en-US,en;q=0.9","5d8e154af2858200171fdb95","68764874ac79eee8c1d4cb03","6877639aa31a09c62773f66e","2","0","5d8e154af2858200171fdb95","2","0","2025-07-16T08:44:03.314Z","","","","","","","","","","","AttribQ","","50","","","","","","","","","","","","","","","","","","","","","","","","","","","","",""
"2350","","<div style=""width:500px;"">
  <p>How much control did you have over the ball?</p>
  </div>","43","html-slider-response","66","687694","0.0-5.0-2.11","73","1","2025-07-16 08:32:37","1f75c3e559b7213887762d5229550c2b","212.159.106.248","Mozilla/5.0 (Windows NT 10.0; Win64; x64) AppleWebKit/537.36 (KHTML, like Gecko) Chrome/137.0.0.0 Safari/537.36","WebKit","Chrome","137.0.0.0","Windows","10.0","https://app.prolific.com/","en-US,en;q=0.9","5d8e154af2858200171fdb95","68764874ac79eee8c1d4cb03","6877639aa31a09c62773f66e","2","0","5d8e154af2858200171fdb95","2","0","2025-07-16T08:44:05.666Z","","","","","","","","","","","ControlQ","","50","","","","","","","","","","","","","","","","","","","","","","","","","","","","",""
"1754","","<div style=""width:500px;"">
  <p>How would you describe your current emotional state?</p>
  </div>","26","html-slider-response","67","689451","0.0-5.0-3.11","73","1","2025-07-16 08:32:37","1f75c3e559b7213887762d5229550c2b","212.159.106.248","Mozilla/5.0 (Windows NT 10.0; Win64; x64) AppleWebKit/537.36 (KHTML, like Gecko) Chrome/137.0.0.0 Safari/537.36","WebKit","Chrome","137.0.0.0","Windows","10.0","https://app.prolific.com/","en-US,en;q=0.9","5d8e154af2858200171fdb95","68764874ac79eee8c1d4cb03","6877639aa31a09c62773f66e","2","0","5d8e154af2858200171fdb95","2","0","2025-07-16T08:44:07.423Z","","","","","","","","","","","StressQ","","50","","","","","","","","","","","","","","","","","","","","","","","","","","","","",""
"3220","","<div style=""width:500px;"">
  <p>What best describes how you currently feel?</p>
  </div>","25","html-slider-response","68","692673","0.0-5.0-4.11","73","1","2025-07-16 08:32:37","1f75c3e559b7213887762d5229550c2b","212.159.106.248","Mozilla/5.0 (Windows NT 10.0; Win64; x64) AppleWebKit/537.36 (KHTML, like Gecko) Chrome/137.0.0.0 Safari/537.36","WebKit","Chrome","137.0.0.0","Windows","10.0","https://app.prolific.com/","en-US,en;q=0.9","5d8e154af2858200171fdb95","68764874ac79eee8c1d4cb03","6877639aa31a09c62773f66e","2","0","5d8e154af2858200171fdb95","2","0","2025-07-16T08:44:10.646Z","","","","","","","","","","","MotivationQ","","50","","","","","","","","","","","","","","","","","","","","","","","","","","","","",""
"","","","","ctl-task-cpt","69","748631","0.0-5.0-0.12","73","1","2025-07-16 08:32:37","1f75c3e559b7213887762d5229550c2b","212.159.106.248","Mozilla/5.0 (Windows NT 10.0; Win64; x64) AppleWebKit/537.36 (KHTML, like Gecko) Chrome/137.0.0.0 Safari/537.36","WebKit","Chrome","137.0.0.0","Windows","10.0","https://app.prolific.com/","en-US,en;q=0.9","5d8e154af2858200171fdb95","68764874ac79eee8c1d4cb03","6877639aa31a09c62773f66e","2","0","5d8e154af2858200171fdb95","2","0","2025-07-16T08:45:06.603Z","","","","","","","","","","","","","","win-only","3","g1:SW,g2:NE","0.7","13","0","693795.7","1987.5","6998.5","52930","1","4","8","6","1","1","0","24","24","0.18181818181818182","1973","3000","2395","[""down"",""left""]","{""num_key_presses"":10,""num_perfect"":6,""num_errors"":1,""num_randdir"":3,""num_randdir_good_moves"":1,""num_whilered"":0,""num_whileblue"":1,""num_blue"":4,""num_good_moves"":7}","[392.9683035714286,395.8745535714286,0.3,392.9683035714286,395.8745535714286,117.2,392.9683035714286,395.8745535714286,224.6,392.9683035714286,395.8745535714286,335.7,392.9683035714286,395.8745535714286,438.4,392.9683035714286,395.8745535714286,539.9,392.9683035714286,395.8745535714286,646.5,392.9683035714286,395.8745535714286,747.2,392.9683035714286,395.8745535714286,855.2,392.9683035714286,395.8745535714286,956.2,392.9683035714286,395.8745535714286,1056.8,392.9683035714286,395.8745535714286,1168,392.9683035714286,395.8745535714286,1272.7,392.9683035714286,395.8745535714286,1380.1,292.9683035714286,492.8745535714286,1494.7,203.96830357142858,637.8745535714286,1608.8,139.96830357142858,681.8745535714286,1713.8,108.96830357142856,680.8745535714286,1820.5,103.96830357142856,677.8745535714286,1933.8,96.96830357142856,678.8745535714286,2040.2,96.96830357142856,678.8745535714286,2145,96.96830357142856,678.8745535714286,2249.9,96.96830357142856,678.8745535714286,2353.5,96.96830357142856,678.8745535714286,2460.1,96.96830357142856,678.8745535714286,2565.9,96.96830357142856,678.8745535714286,2677.2,96.96830357142856,678.8745535714286,2784.9,96.96830357142856,678.8745535714286,2888,96.96830357142856,678.8745535714286,2989.8,96.96830357142856,678.8745535714286,3096.2,96.96830357142856,678.8745535714286,3198.7,96.96830357142856,678.8745535714286,3314.7,96.96830357142856,678.8745535714286,3417.5,96.96830357142856,678.8745535714286,3522.9,96.96830357142856,678.8745535714286,3624.6,96.96830357142856,678.8745535714286,3725,96.96830357142856,678.8745535714286,3828,96.96830357142856,678.8745535714286,3928.3,96.96830357142856,678.8745535714286,4043.5,96.96830357142856,678.8745535714286,4153,96.96830357142856,678.8745535714286,4256,96.96830357142856,678.8745535714286,4359.5,96.96830357142856,678.8745535714286,4461.2,96.96830357142856,678.8745535714286,4561.3,96.96830357142856,678.8745535714286,4661.6,96.96830357142856,678.8745535714286,4768.9,96.96830357142856,678.8745535714286,4884,96.96830357142856,678.8745535714286,4988]","[1349,1349,1000,0,349,""smooth"",""left"",""left"",""good_move"",5439.5,4089.8,2983.9,1349.8,1105.9,""smooth"",""left"",""left"",""good_move"",9627.4,4187.6,3039.3,5439.9,1148.3,""oops"",""down"",""up"",""bad_move"",13841.7,4213.8,1776.1,9627.9,2437.7,""oops"",""down"",""up"",""bad_move"",18361.3,4519.4,4196.8,13841.9,322.6,""while_blue"",""down"",""right"",""bad_move"",25613,7251.3,2268.3,22935.5,409.2,""oops"",""down"",""down"",""good_move"",32184.4,6570.8,2645.1,29129.9,409.4,""smooth"",""down"",""down"",""good_move"",36148.7,3964,3476.4,32184.7,487.6,""smooth"",""down"",""down"",""good_move"",42477.9,6328.8,2431.2,39626.6,420.1,""smooth"",""down"",""down"",""good_move"",45142.5,2664.4,2089.4,42478.1,575,""smooth"",""left"",""left"",""good_move""]","",""
"2309","","<div style=""width:500px;"">
  <p>What determined the result of this run?</p>
  </div>","31","html-slider-response","70","750941","0.0-5.0-1.12","73","1","2025-07-16 08:32:37","1f75c3e559b7213887762d5229550c2b","212.159.106.248","Mozilla/5.0 (Windows NT 10.0; Win64; x64) AppleWebKit/537.36 (KHTML, like Gecko) Chrome/137.0.0.0 Safari/537.36","WebKit","Chrome","137.0.0.0","Windows","10.0","https://app.prolific.com/","en-US,en;q=0.9","5d8e154af2858200171fdb95","68764874ac79eee8c1d4cb03","6877639aa31a09c62773f66e","2","0","5d8e154af2858200171fdb95","2","0","2025-07-16T08:45:08.915Z","","","","","","","","","","","AttribQ","","50","","","","","","","","","","","","","","","","","","","","","","","","","","","","",""
"3145","","<div style=""width:500px;"">
  <p>How much control did you have over the ball?</p>
  </div>","25","html-slider-response","71","754093","0.0-5.0-2.12","73","1","2025-07-16 08:32:37","1f75c3e559b7213887762d5229550c2b","212.159.106.248","Mozilla/5.0 (Windows NT 10.0; Win64; x64) AppleWebKit/537.36 (KHTML, like Gecko) Chrome/137.0.0.0 Safari/537.36","WebKit","Chrome","137.0.0.0","Windows","10.0","https://app.prolific.com/","en-US,en;q=0.9","5d8e154af2858200171fdb95","68764874ac79eee8c1d4cb03","6877639aa31a09c62773f66e","2","0","5d8e154af2858200171fdb95","2","0","2025-07-16T08:45:12.066Z","","","","","","","","","","","ControlQ","","50","","","","","","","","","","","","","","","","","","","","","","","","","","","","",""
"2828","","<div style=""width:500px;"">
  <p>How would you describe your current emotional state?</p>
  </div>","31","html-slider-response","72","756923","0.0-5.0-3.12","73","1","2025-07-16 08:32:37","1f75c3e559b7213887762d5229550c2b","212.159.106.248","Mozilla/5.0 (Windows NT 10.0; Win64; x64) AppleWebKit/537.36 (KHTML, like Gecko) Chrome/137.0.0.0 Safari/537.36","WebKit","Chrome","137.0.0.0","Windows","10.0","https://app.prolific.com/","en-US,en;q=0.9","5d8e154af2858200171fdb95","68764874ac79eee8c1d4cb03","6877639aa31a09c62773f66e","2","0","5d8e154af2858200171fdb95","2","0","2025-07-16T08:45:14.895Z","","","","","","","","","","","StressQ","","50","","","","","","","","","","","","","","","","","","","","","","","","","","","","",""
"2295","","<div style=""width:500px;"">
  <p>What best describes how you currently feel?</p>
  </div>","19","html-slider-response","73","759220","0.0-5.0-4.12","73","1","2025-07-16 08:32:37","1f75c3e559b7213887762d5229550c2b","212.159.106.248","Mozilla/5.0 (Windows NT 10.0; Win64; x64) AppleWebKit/537.36 (KHTML, like Gecko) Chrome/137.0.0.0 Safari/537.36","WebKit","Chrome","137.0.0.0","Windows","10.0","https://app.prolific.com/","en-US,en;q=0.9","5d8e154af2858200171fdb95","68764874ac79eee8c1d4cb03","6877639aa31a09c62773f66e","2","0","5d8e154af2858200171fdb95","2","0","2025-07-16T08:45:17.192Z","","","","","","","","","","","MotivationQ","","50","","","","","","","","","","","","","","","","","","","","","","","","","","","","",""
"","","","","ctl-task-cpt","74","787446","0.0-5.0-0.13","73","1","2025-07-16 08:32:37","1f75c3e559b7213887762d5229550c2b","212.159.106.248","Mozilla/5.0 (Windows NT 10.0; Win64; x64) AppleWebKit/537.36 (KHTML, like Gecko) Chrome/137.0.0.0 Safari/537.36","WebKit","Chrome","137.0.0.0","Windows","10.0","https://app.prolific.com/","en-US,en;q=0.9","5d8e154af2858200171fdb95","68764874ac79eee8c1d4cb03","6877639aa31a09c62773f66e","2","0","5d8e154af2858200171fdb95","2","0","2025-07-16T08:45:45.418Z","","","","","","","","","","","","","","win-only","0","g1:NW,g2:SE","0.8","14","0","760340.5","4303.1","9312.5","25190.1","1","4","4","6","1","1","1","25","24","0.1893939393939394","1171.5","3000","2640","[""left"",""up""]","{""num_key_presses"":4,""num_perfect"":4,""num_errors"":0,""num_randdir"":0,""num_randdir_good_moves"":0,""num_whilered"":0,""num_whileblue"":0,""num_blue"":1,""num_good_moves"":4}","[386.9683035714286,397.8745535714286,0.2,386.9683035714286,397.8745535714286,104.5,386.9683035714286,397.8745535714286,204.6,386.9683035714286,397.8745535714286,314.5,386.9683035714286,397.8745535714286,428.6,388.9683035714286,416.8745535714286,534.8,145.96830357142858,202.87455357142858,637.7,74.96830357142856,126.87455357142856,748.5,75.96830357142856,126.87455357142856,857.9,75.96830357142856,126.87455357142856,959.1,75.96830357142856,125.87455357142856,1069.5,75.96830357142856,125.87455357142856,1184.9,75.96830357142856,125.87455357142856,1287,75.96830357142856,125.87455357142856,1394.5,75.96830357142856,125.87455357142856,1498.2,75.96830357142856,125.87455357142856,1600.3,75.96830357142856,125.87455357142856,1726.4,75.96830357142856,125.87455357142856,1835,75.96830357142856,125.87455357142856,1950.7,75.96830357142856,125.87455357142856,2056.5,75.96830357142856,125.87455357142856,2161.6,75.96830357142856,125.87455357142856,2265.2,75.96830357142856,125.87455357142856,2370.6,75.96830357142856,125.87455357142856,2481.2,75.96830357142856,125.87455357142856,2586.3,75.96830357142856,125.87455357142856,2690.3,75.96830357142856,125.87455357142856,2791,75.96830357142856,125.87455357142856,2902.9,75.96830357142856,125.87455357142856,3008.2,75.96830357142856,125.87455357142856,3117.7,75.96830357142856,125.87455357142856,3225.4,75.96830357142856,125.87455357142856,3333.2,75.96830357142856,125.87455357142856,3434.5,75.96830357142856,125.87455357142856,3545.2,75.96830357142856,125.87455357142856,3653.4,75.96830357142856,125.87455357142856,3755.4,75.96830357142856,125.87455357142856,3858.4,75.96830357142856,125.87455357142856,3965.7,75.96830357142856,125.87455357142856,4077.6,75.96830357142856,125.87455357142856,4180,75.96830357142856,125.87455357142856,4289.9,75.96830357142856,125.87455357142856,4391,75.96830357142856,125.87455357142856,4496.6,75.96830357142856,125.87455357142856,4608.1,75.96830357142856,125.87455357142856,4710.6,75.96830357142856,125.87455357142856,4821,75.96830357142856,125.87455357142856,4932.2]","[4756.7,4756.7,2420.3,2009,327.4,""smooth"",""left"",""left"",""good_move"",8122.8,3365.4,2108.7,4757.4,1256.7,""smooth"",""up"",""up"",""good_move"",11226.2,3102.7,2138.3,8123.5,964.5,""smooth"",""up"",""up"",""good_move"",15467.6,4241,2342.3,11226.7,1898.6,""smooth"",""left"",""left"",""good_move""]","",""
"2932","","<div style=""width:500px;"">
  <p>What determined the result of this run?</p>
  </div>","96","html-slider-response","75","790382","0.0-5.0-1.13","73","1","2025-07-16 08:32:37","1f75c3e559b7213887762d5229550c2b","212.159.106.248","Mozilla/5.0 (Windows NT 10.0; Win64; x64) AppleWebKit/537.36 (KHTML, like Gecko) Chrome/137.0.0.0 Safari/537.36","WebKit","Chrome","137.0.0.0","Windows","10.0","https://app.prolific.com/","en-US,en;q=0.9","5d8e154af2858200171fdb95","68764874ac79eee8c1d4cb03","6877639aa31a09c62773f66e","2","0","5d8e154af2858200171fdb95","2","0","2025-07-16T08:45:48.354Z","","","","","","","","","","","AttribQ","","50","","","","","","","","","","","","","","","","","","","","","","","","","","","","",""
"4065","","<div style=""width:500px;"">
  <p>How much control did you have over the ball?</p>
  </div>","97","html-slider-response","76","794450","0.0-5.0-2.13","73","1","2025-07-16 08:32:37","1f75c3e559b7213887762d5229550c2b","212.159.106.248","Mozilla/5.0 (Windows NT 10.0; Win64; x64) AppleWebKit/537.36 (KHTML, like Gecko) Chrome/137.0.0.0 Safari/537.36","WebKit","Chrome","137.0.0.0","Windows","10.0","https://app.prolific.com/","en-US,en;q=0.9","5d8e154af2858200171fdb95","68764874ac79eee8c1d4cb03","6877639aa31a09c62773f66e","2","0","5d8e154af2858200171fdb95","2","0","2025-07-16T08:45:52.422Z","","","","","","","","","","","ControlQ","","50","","","","","","","","","","","","","","","","","","","","","","","","","","","","",""
"3044","","<div style=""width:500px;"">
  <p>How would you describe your current emotional state?</p>
  </div>","21","html-slider-response","77","797496","0.0-5.0-3.13","73","1","2025-07-16 08:32:37","1f75c3e559b7213887762d5229550c2b","212.159.106.248","Mozilla/5.0 (Windows NT 10.0; Win64; x64) AppleWebKit/537.36 (KHTML, like Gecko) Chrome/137.0.0.0 Safari/537.36","WebKit","Chrome","137.0.0.0","Windows","10.0","https://app.prolific.com/","en-US,en;q=0.9","5d8e154af2858200171fdb95","68764874ac79eee8c1d4cb03","6877639aa31a09c62773f66e","2","0","5d8e154af2858200171fdb95","2","0","2025-07-16T08:45:55.468Z","","","","","","","","","","","StressQ","","50","","","","","","","","","","","","","","","","","","","","","","","","","","","","",""
"2138","","<div style=""width:500px;"">
  <p>What best describes how you currently feel?</p>
