"rt","response_timestamp","stimulus","response","trial_type","trial_index","time_elapsed","internal_node_id","run_id","condition","recorded_at","source_code_version","ip","user_agent","device","browser","browser_version","platform","platform_version","referer","accept_language","PROLIFIC_PID","STUDY_ID","SESSION_ID","WEEK","BATCH","prolific_id","week","batch","realtime","success","responses","item_order","radio_event_ids","radio_event_times","key_event_times","mouse_event_times","straightlining","zigzagging","honeypot","eventType","view_history","slider_start","which_type","canvas_config","goals_layout","control_level","trial_number","tutorial_trial_number","trial_start_time","phase1_start_time","phase2_start_time","phase3_start_time","goal_1_value","goal_1_distance","goal_2_value","goal_2_distance","goal_selected","outcome","outcome_total","participant_final_score","participant_initial_score","participant_final_score_prop","goal_choice_rt","allocated_time","allocated_time_remaining","goal_direction","counts","mouse_movements","key_presses","question_order","question_id"
"2326","1752696134088","<p style='font-size:40px;line-height:1.25'><strong>Welcome to the experiment!</strong></p><p style='font-size:1.1em;line-height:1.25'>Thank you for participanting in our experiment again! You will be asked to play the Dysfunctional Ball Game again. We will briefly recap the rules before we start.</p><p style='font-size:1.1em;line-height:1.25'>Press <strong>Next</strong> to continue.</p>","0","custom-html-button-response","0","2330","0.0-0.0","127","1","2025-07-16 20:02:08","1f75c3e559b7213887762d5229550c2b","5.69.202.172","Mozilla/5.0 (Windows NT 10.0; Win64; x64) AppleWebKit/537.36 (KHTML, like Gecko) Chrome/138.0.0.0 Safari/537.36","WebKit","Chrome","138.0.0.0","Windows","10.0","https://app.prolific.com/","en-GB,en-US;q=0.9,en;q=0.8","5c4f7b99b33a5300013dbfdd","686e379bc37a29ffa5cdc956","6878053a64ff1b83537ab29e","1","1","5c4f7b99b33a5300013dbfdd","1","1","2025-07-16T20:02:14.089Z","","","","","","","","","","","","","","","","","","","","","","","","","","","","","","","","","","","","","","","","","",""
"2939","","","","fullscreen","1","6275","0.0-1.0","127","1","2025-07-16 20:02:08","1f75c3e559b7213887762d5229550c2b","5.69.202.172","Mozilla/5.0 (Windows NT 10.0; Win64; x64) AppleWebKit/537.36 (KHTML, like Gecko) Chrome/138.0.0.0 Safari/537.36","WebKit","Chrome","138.0.0.0","Windows","10.0","https://app.prolific.com/","en-GB,en-US;q=0.9,en;q=0.8","5c4f7b99b33a5300013dbfdd","686e379bc37a29ffa5cdc956","6878053a64ff1b83537ab29e","1","1","5c4f7b99b33a5300013dbfdd","1","1","","true","","","","","","","","","","","","","","","","","","","","","","","","","","","","","","","","","","","","","","","","",""
"2132","1752696140168","<p style='font-size:1.1em;line-height:1.25'>In the following, we will ask you a few questions relating to your feelings in the last 24 hours.<br></p><p style='font-size:1.1em;line-height:1.25'>Press the <strong>Next</strong> button to continue.</p>","0","custom-html-button-response","2","8409","0.0-2.0-0.0","127","1","2025-07-16 20:02:08","1f75c3e559b7213887762d5229550c2b","5.69.202.172","Mozilla/5.0 (Windows NT 10.0; Win64; x64) AppleWebKit/537.36 (KHTML, like Gecko) Chrome/138.0.0.0 Safari/537.36","WebKit","Chrome","138.0.0.0","Windows","10.0","https://app.prolific.com/","en-GB,en-US;q=0.9,en;q=0.8","5c4f7b99b33a5300013dbfdd","686e379bc37a29ffa5cdc956","6878053a64ff1b83537ab29e","1","1","5c4f7b99b33a5300013dbfdd","1","1","2025-07-16T20:02:20.168Z","","","","","","","","","","","","","","","","","","","","","","","","","","","","","","","","","","","","","","","","","",""
"40837.200000047684","","","","survey-template","3","49255","0.0-2.0-1.0","127","1","2025-07-16 20:02:08","1f75c3e559b7213887762d5229550c2b","5.69.202.172","Mozilla/5.0 (Windows NT 10.0; Win64; x64) AppleWebKit/537.36 (KHTML, like Gecko) Chrome/138.0.0.0 Safari/537.36","WebKit","Chrome","138.0.0.0","Windows","10.0","https://app.prolific.com/","en-GB,en-US;q=0.9,en;q=0.8","5c4f7b99b33a5300013dbfdd","686e379bc37a29ffa5cdc956","6878053a64ff1b83537ab29e","1","1","5c4f7b99b33a5300013dbfdd","1","1","2025-07-16T20:03:01.014Z","","{""Q01"":""1"",""Q02"":""0"",""Q03"":""0"",""Q04"":""1"",""Q05"":""0"",""Q06"":""0"",""Q07"":""0"",""Q08"":""0"",""Q09"":""0"",""Q10"":""1"",""Q11"":""1"",""Q12"":""0"",""Q13"":""5"",""Q14"":""1"",""Q15"":""2"",""Q16"":""2"",""Q17"":""1"",""Q18"":""0"",""Q19"":""0"",""Q20"":""0"",""Q21"":""0"",""Q22"":""0""}","[0,1,2,3,4,5,6,7,8,9,10,11,12,13,14,15,16,17,18,19,20,21]","[""Q01"",""Q02"",""Q03"",""Q04"",""Q05"",""Q06"",""Q07"",""Q08"",""Q09"",""Q10"",""Q11"",""Q12"",""Q13"",""Q14"",""Q15"",""Q16"",""Q17"",""Q18"",""Q19"",""Q20"",""Q21"",""Q22""]","[4438,5267.800000071526,6385.899999976158,7366.399999976158,8834.300000071526,11115.800000071526,12380.200000047684,13506,14919.800000071526,17839.899999976158,18764.300000071526,19913.899999976158,21755.899999976158,23789.700000047684,25405.899999976158,27995.399999976158,29257.800000071526,31579.899999976158,32220,34579.700000047684,36781.300000071526,40095.800000071526]","[]","[0.30000007152557373,3157.600000023842,3764.3000000715256,4438,5267.800000071526,6385.899999976158,7366.399999976158,8834.300000071526,9987.600000023842,11115.800000071526,12077.700000047684,12380.200000047684,13506,14919.800000071526,17839.899999976158,18764.300000071526,19913.899999976158,21755.899999976158,23789.700000047684,25405.899999976158,27995.399999976158,29257.800000071526,30740.200000047684,31579.899999976158,32220,34579.700000047684,36189.89999997616,36781.300000071526,39021.89999997616,39769.700000047684,40095.800000071526,40829.89999997616]","0.5909090909090909","0.42857142857142855","0","drsp","","","","","","","","","","","","","","","","","","","","","","","","","","","","","","",""
"10364","","","","survey-template","4","59621","0.0-2.0-2.0","127","1","2025-07-16 20:02:08","1f75c3e559b7213887762d5229550c2b","5.69.202.172","Mozilla/5.0 (Windows NT 10.0; Win64; x64) AppleWebKit/537.36 (KHTML, like Gecko) Chrome/138.0.0.0 Safari/537.36","WebKit","Chrome","138.0.0.0","Windows","10.0","https://app.prolific.com/","en-GB,en-US;q=0.9,en;q=0.8","5c4f7b99b33a5300013dbfdd","686e379bc37a29ffa5cdc956","6878053a64ff1b83537ab29e","1","1","5c4f7b99b33a5300013dbfdd","1","1","2025-07-16T20:03:11.380Z","","{""Q01"":""1"",""Q02"":""2"",""Q03"":""0""}","[0,1,2]","[""Q01"",""Q02"",""Q03""]","[4566.600000023842,7480.800000071526,8750.800000071526]","[]","[3860.5,4566.600000023842,7096.399999976158,7480.800000071526,8750.800000071526,9252.800000071526,10362.700000047684]","0.3333333333333333","0","0","stress","","","","","","","","","","","","","","","","","","","","","","","","","","","","","","",""
"4805","","","","instructions","5","64427","0.0-3.0-0.0","127","1","2025-07-16 20:02:08","1f75c3e559b7213887762d5229550c2b","5.69.202.172","Mozilla/5.0 (Windows NT 10.0; Win64; x64) AppleWebKit/537.36 (KHTML, like Gecko) Chrome/138.0.0.0 Safari/537.36","WebKit","Chrome","138.0.0.0","Windows","10.0","https://app.prolific.com/","en-GB,en-US;q=0.9,en;q=0.8","5c4f7b99b33a5300013dbfdd","686e379bc37a29ffa5cdc956","6878053a64ff1b83537ab29e","1","1","5c4f7b99b33a5300013dbfdd","1","1","","","","","","","","","","","","","[{""page_index"":0,""viewing_time"":4805}]","","","","","","","","","","","","","","","","","","","","","","","","","","","","","",""
"7808","","<p>Before you start with this game please answer the following three questions yourself. </p>
  <p>Through this game, we measure several aspects of your cognitive performance, such as reaction times, multi-tasking capabilities </p>
  <p>and the ability to assess the situation you are in.</p>
  <p></p>
  <p><b>How good do you usually are in such tasks?</b></p>","77","html-slider-response","6","72237","0.0-4.0-0.0","127","1","2025-07-16 20:02:08","1f75c3e559b7213887762d5229550c2b","5.69.202.172","Mozilla/5.0 (Windows NT 10.0; Win64; x64) AppleWebKit/537.36 (KHTML, like Gecko) Chrome/138.0.0.0 Safari/537.36","WebKit","Chrome","138.0.0.0","Windows","10.0","https://app.prolific.com/","en-GB,en-US;q=0.9,en;q=0.8","5c4f7b99b33a5300013dbfdd","686e379bc37a29ffa5cdc956","6878053a64ff1b83537ab29e","1","1","5c4f7b99b33a5300013dbfdd","1","1","2025-07-16T20:03:23.996Z","","","","","","","","","","","PreSkillQ","","50","","","","","","","","","","","","","","","","","","","","","","","","","","","","",""
"2711","","<div style=""width:500px;"">
  <p>How well do you think you will perform in this task compared to other participants?</p>
  </div>","0","html-slider-response","7","74949","0.0-4.0-1.0","127","1","2025-07-16 20:02:08","1f75c3e559b7213887762d5229550c2b","5.69.202.172","Mozilla/5.0 (Windows NT 10.0; Win64; x64) AppleWebKit/537.36 (KHTML, like Gecko) Chrome/138.0.0.0 Safari/537.36","WebKit","Chrome","138.0.0.0","Windows","10.0","https://app.prolific.com/","en-GB,en-US;q=0.9,en;q=0.8","5c4f7b99b33a5300013dbfdd","686e379bc37a29ffa5cdc956","6878053a64ff1b83537ab29e","1","1","5c4f7b99b33a5300013dbfdd","1","1","2025-07-16T20:03:26.709Z","","","","","","","","","","","PrePerfQ","","50","","","","","","","","","","","","","","","","","","","","","","","","","","","","",""
"3193","","<div style=""width:500px;"">
  <p>What best describes how you currently feel?</p>
  </div>","21","html-slider-response","8","78143","0.0-4.0-2.0","127","1","2025-07-16 20:02:08","1f75c3e559b7213887762d5229550c2b","5.69.202.172","Mozilla/5.0 (Windows NT 10.0; Win64; x64) AppleWebKit/537.36 (KHTML, like Gecko) Chrome/138.0.0.0 Safari/537.36","WebKit","Chrome","138.0.0.0","Windows","10.0","https://app.prolific.com/","en-GB,en-US;q=0.9,en;q=0.8","5c4f7b99b33a5300013dbfdd","686e379bc37a29ffa5cdc956","6878053a64ff1b83537ab29e","1","1","5c4f7b99b33a5300013dbfdd","1","1","2025-07-16T20:03:29.902Z","","","","","","","","","","","PreMotivationQ","","50","","","","","","","","","","","","","","","","","","","","","","","","","","","","",""
"","","","","ctl-task-cpt","9","111660","0.0-5.0-0.0","127","1","2025-07-16 20:02:08","1f75c3e559b7213887762d5229550c2b","5.69.202.172","Mozilla/5.0 (Windows NT 10.0; Win64; x64) AppleWebKit/537.36 (KHTML, like Gecko) Chrome/138.0.0.0 Safari/537.36","WebKit","Chrome","138.0.0.0","Windows","10.0","https://app.prolific.com/","en-GB,en-US;q=0.9,en;q=0.8","5c4f7b99b33a5300013dbfdd","686e379bc37a29ffa5cdc956","6878053a64ff1b83537ab29e","1","1","5c4f7b99b33a5300013dbfdd","1","1","2025-07-16T20:04:03.419Z","","","","","","","","","","","","","","win-only","0","g1:NW,g2:SE","1","1","0","81933.6","1791.5","6793.2","30505.9","1","4","8","6","2","8","8","8","0","0.06060606060606061","1192.1","3000","40","[""down"",""right""]","{""num_key_presses"":6,""num_perfect"":6,""num_errors"":0,""num_randdir"":0,""num_randdir_good_moves"":0,""num_whilered"":0,""num_whileblue"":0,""num_blue"":2,""num_good_moves"":6}","[410.616960471017,406.9138378552028,0.7,411.991960471017,406.9138378552028,105,418.866960471017,401.4138378552028,211.8,418.866960471017,401.4138378552028,314.1,418.866960471017,401.4138378552028,414.6,418.866960471017,401.4138378552028,516.7,601.741960471017,603.5388378552028,617.7,746.116960471017,730.0388378552028,717.8,794.241960471017,779.5388378552028,820,842.366960471017,834.5388378552028,922.2,821.741960471017,805.6638378552028,1022.3,796.991960471017,769.9138378552028,1130.5,796.991960471017,769.9138378552028,1234.6,796.991960471017,769.9138378552028,1336.1,796.991960471017,769.9138378552028,1447.5,796.991960471017,769.9138378552028,1551,796.991960471017,769.9138378552028,1659.5,796.991960471017,769.9138378552028,1760.5,796.991960471017,769.9138378552028,1866,796.991960471017,769.9138378552028,1975.4,796.991960471017,769.9138378552028,2083.1,796.991960471017,769.9138378552028,2184.6,796.991960471017,769.9138378552028,2285.5,796.991960471017,769.9138378552028,2385.8,796.991960471017,769.9138378552028,2487.4,796.991960471017,769.9138378552028,2591.9,796.991960471017,769.9138378552028,2692.3,796.991960471017,769.9138378552028,2794.5,796.991960471017,769.9138378552028,2894.9,796.991960471017,769.9138378552028,2995,796.991960471017,769.9138378552028,3100.1,796.991960471017,769.9138378552028,3200.4,796.991960471017,769.9138378552028,3301.4,796.991960471017,769.9138378552028,3405,796.991960471017,769.9138378552028,3509.1,796.991960471017,769.9138378552028,3611.3,796.991960471017,769.9138378552028,3717.4,796.991960471017,769.9138378552028,3819.6,796.991960471017,769.9138378552028,3924.6,796.991960471017,769.9138378552028,4024.6,796.991960471017,769.9138378552028,4127.4,796.991960471017,769.9138378552028,4229.7,796.991960471017,769.9138378552028,4332,796.991960471017,769.9138378552028,4437.7,796.991960471017,769.9138378552028,4543,796.991960471017,769.9138378552028,4643.5,796.991960471017,769.9138378552028,4744.1,796.991960471017,769.9138378552028,4844.3,796.991960471017,769.9138378552028,4944.7]","[6575.5,6575.5,2973.6,2008.1,1593.9,""smooth"",""down"",""down"",""good_move"",9035.3,2459,1977.2,6576.4,481.8,""smooth"",""down"",""down"",""good_move"",12145.3,3109.5,2779,9035.9,330.5,""smooth"",""down"",""down"",""good_move"",14664.3,2518.4,2253.8,12146,264.6,""smooth"",""right"",""right"",""good_move"",20545.8,5880.3,2198,18033.8,314,""smooth"",""right"",""right"",""good_move"",23607.5,3061.1,2702.9,20546.4,358.2,""smooth"",""right"",""right"",""good_move""]","",""
"5082","","<div style=""width:500px;"">
  <p>What determined the result of this run?</p>
  </div>","34","html-slider-response","10","116745","0.0-5.0-1.0","127","1","2025-07-16 20:02:08","1f75c3e559b7213887762d5229550c2b","5.69.202.172","Mozilla/5.0 (Windows NT 10.0; Win64; x64) AppleWebKit/537.36 (KHTML, like Gecko) Chrome/138.0.0.0 Safari/537.36","WebKit","Chrome","138.0.0.0","Windows","10.0","https://app.prolific.com/","en-GB,en-US;q=0.9,en;q=0.8","5c4f7b99b33a5300013dbfdd","686e379bc37a29ffa5cdc956","6878053a64ff1b83537ab29e","1","1","5c4f7b99b33a5300013dbfdd","1","1","2025-07-16T20:04:08.505Z","","","","","","","","","","","AttribQ","","50","","","","","","","","","","","","","","","","","","","","","","","","","","","","",""
"3918","","<div style=""width:500px;"">
  <p>How much control did you have over the ball?</p>
  </div>","100","html-slider-response","11","120665","0.0-5.0-2.0","127","1","2025-07-16 20:02:08","1f75c3e559b7213887762d5229550c2b","5.69.202.172","Mozilla/5.0 (Windows NT 10.0; Win64; x64) AppleWebKit/537.36 (KHTML, like Gecko) Chrome/138.0.0.0 Safari/537.36","WebKit","Chrome","138.0.0.0","Windows","10.0","https://app.prolific.com/","en-GB,en-US;q=0.9,en;q=0.8","5c4f7b99b33a5300013dbfdd","686e379bc37a29ffa5cdc956","6878053a64ff1b83537ab29e","1","1","5c4f7b99b33a5300013dbfdd","1","1","2025-07-16T20:04:12.424Z","","","","","","","","","","","ControlQ","","50","","","","","","","","","","","","","","","","","","","","","","","","","","","","",""
"3117","","<div style=""width:500px;"">
  <p>How would you describe your current emotional state?</p>
  </div>","28","html-slider-response","12","123783","0.0-5.0-3.0","127","1","2025-07-16 20:02:08","1f75c3e559b7213887762d5229550c2b","5.69.202.172","Mozilla/5.0 (Windows NT 10.0; Win64; x64) AppleWebKit/537.36 (KHTML, like Gecko) Chrome/138.0.0.0 Safari/537.36","WebKit","Chrome","138.0.0.0","Windows","10.0","https://app.prolific.com/","en-GB,en-US;q=0.9,en;q=0.8","5c4f7b99b33a5300013dbfdd","686e379bc37a29ffa5cdc956","6878053a64ff1b83537ab29e","1","1","5c4f7b99b33a5300013dbfdd","1","1","2025-07-16T20:04:15.542Z","","","","","","","","","","","StressQ","","50","","","","","","","","","","","","","","","","","","","","","","","","","","","","",""
"8473","","<div style=""width:500px;"">
  <p>What best describes how you currently feel?</p>
  </div>","69","html-slider-response","13","132257","0.0-5.0-4.0","127","1","2025-07-16 20:02:08","1f75c3e559b7213887762d5229550c2b","5.69.202.172","Mozilla/5.0 (Windows NT 10.0; Win64; x64) AppleWebKit/537.36 (KHTML, like Gecko) Chrome/138.0.0.0 Safari/537.36","WebKit","Chrome","138.0.0.0","Windows","10.0","https://app.prolific.com/","en-GB,en-US;q=0.9,en;q=0.8","5c4f7b99b33a5300013dbfdd","686e379bc37a29ffa5cdc956","6878053a64ff1b83537ab29e","1","1","5c4f7b99b33a5300013dbfdd","1","1","2025-07-16T20:04:24.016Z","","","","","","","","","","","MotivationQ","","50","","","","","","","","","","","","","","","","","","","","","","","","","","","","",""
"","","","","ctl-task-cpt","14","162991","0.0-5.0-0.1","127","1","2025-07-16 20:02:08","1f75c3e559b7213887762d5229550c2b","5.69.202.172","Mozilla/5.0 (Windows NT 10.0; Win64; x64) AppleWebKit/537.36 (KHTML, like Gecko) Chrome/138.0.0.0 Safari/537.36","WebKit","Chrome","138.0.0.0","Windows","10.0","https://app.prolific.com/","en-GB,en-US;q=0.9,en;q=0.8","5c4f7b99b33a5300013dbfdd","686e379bc37a29ffa5cdc956","6878053a64ff1b83537ab29e","1","1","5c4f7b99b33a5300013dbfdd","1","1","2025-07-16T20:04:54.751Z","","","","","","","","","","","","","","win-only","1","g1:NE,g2:SW","0.9","2","0","136045.8","1085.1","6092.6","27716.1","1","4","4","6","2","4","4","12","8","0.09090909090909091","1053.7","3000","920","[""down"",""left""]","{""num_key_presses"":8,""num_perfect"":7,""num_errors"":0,""num_randdir"":1,""num_randdir_good_moves"":0,""num_whilered"":0,""num_whileblue"":0,""num_blue"":0,""num_good_moves"":7}","[413.366960471017,430.2888378552028,0.4,413.366960471017,430.2888378552028,100.6,413.366960471017,430.2888378552028,204.7,413.366960471017,430.2888378552028,309.1,413.366960471017,430.2888378552028,412.9,413.366960471017,430.2888378552028,523.9,413.366960471017,430.2888378552028,626,123.24196047101701,577.4138378552028,727.8,119.11696047101701,720.4138378552028,832.6,105.36696047101701,749.2888378552028,933.2,88.86696047101701,786.4138378552028,1034.6,88.86696047101701,786.4138378552028,1136.7,88.86696047101701,786.4138378552028,1237.3,95.74196047101701,769.9138378552028,1343.3,127.36696047101701,746.5388378552028,1444.8,152.11696047101702,739.6638378552028,1547.2,152.11696047101702,739.6638378552028,1660,152.11696047101702,739.6638378552028,1761.1,152.11696047101702,739.6638378552028,1861.2,152.11696047101702,739.6638378552028,1962.5,152.11696047101702,739.6638378552028,2074.5,152.11696047101702,739.6638378552028,2178.1,152.11696047101702,739.6638378552028,2287.1,152.11696047101702,739.6638378552028,2392.4,152.11696047101702,739.6638378552028,2495.9,152.11696047101702,739.6638378552028,2600.8,152.11696047101702,739.6638378552028,2702.7,152.11696047101702,739.6638378552028,2807,152.11696047101702,739.6638378552028,2912,152.11696047101702,739.6638378552028,3012,152.11696047101702,739.6638378552028,3112.2,152.11696047101702,739.6638378552028,3219.5,152.11696047101702,739.6638378552028,3322.3,152.11696047101702,739.6638378552028,3426.9,152.11696047101702,739.6638378552028,3528.4,152.11696047101702,739.6638378552028,3638.2,152.11696047101702,739.6638378552028,3740.8,152.11696047101702,739.6638378552028,3844.4,152.11696047101702,739.6638378552028,3946.7,152.11696047101702,739.6638378552028,4051.9,152.11696047101702,739.6638378552028,4152.3,152.11696047101702,739.6638378552028,4252.7,152.11696047101702,739.6638378552028,4356.6,152.11696047101702,739.6638378552028,4458,152.11696047101702,739.6638378552028,4558.2,152.11696047101702,739.6638378552028,4662.3,152.11696047101702,739.6638378552028,4762.7,152.11696047101702,739.6638378552028,4868.5,152.11696047101702,739.6638378552028,4970.9]","[1308.9,1308.9,1000,0,308.9,""smooth"",""down"",""down"",""good_move"",4586.7,3277.4,2904.1,1309.4,373.3,""oops"",""left"",""up"",""bad_move"",6794.2,2206.2,1885.8,4588.1,320.3,""smooth"",""down"",""down"",""good_move"",9498.6,2703.9,2376,6794.7,327.9,""smooth"",""left"",""left"",""good_move"",11873.5,2374,2072.4,9499.5,301.6,""smooth"",""left"",""left"",""good_move"",14477.3,2603.4,2266.7,11873.9,336.7,""smooth"",""left"",""left"",""good_move"",18842.7,4365,4027.4,14477.7,337.6,""smooth"",""down"",""down"",""good_move"",21506.5,2663.3,2343.8,18843.2,319.5,""smooth"",""down"",""down"",""good_move""]","",""
"2885","","<div style=""width:500px;"">
  <p>What determined the result of this run?</p>
  </div>","21","html-slider-response","15","165880","0.0-5.0-1.1","127","1","2025-07-16 20:02:08","1f75c3e559b7213887762d5229550c2b","5.69.202.172","Mozilla/5.0 (Windows NT 10.0; Win64; x64) AppleWebKit/537.36 (KHTML, like Gecko) Chrome/138.0.0.0 Safari/537.36","WebKit","Chrome","138.0.0.0","Windows","10.0","https://app.prolific.com/","en-GB,en-US;q=0.9,en;q=0.8","5c4f7b99b33a5300013dbfdd","686e379bc37a29ffa5cdc956","6878053a64ff1b83537ab29e","1","1","5c4f7b99b33a5300013dbfdd","1","1","2025-07-16T20:04:57.639Z","","","","","","","","","","","AttribQ","","50","","","","","","","","","","","","","","","","","","","","","","","","","","","","",""
"2185","","<div style=""width:500px;"">
  <p>How much control did you have over the ball?</p>
  </div>","95","html-slider-response","16","168067","0.0-5.0-2.1","127","1","2025-07-16 20:02:08","1f75c3e559b7213887762d5229550c2b","5.69.202.172","Mozilla/5.0 (Windows NT 10.0; Win64; x64) AppleWebKit/537.36 (KHTML, like Gecko) Chrome/138.0.0.0 Safari/537.36","WebKit","Chrome","138.0.0.0","Windows","10.0","https://app.prolific.com/","en-GB,en-US;q=0.9,en;q=0.8","5c4f7b99b33a5300013dbfdd","686e379bc37a29ffa5cdc956","6878053a64ff1b83537ab29e","1","1","5c4f7b99b33a5300013dbfdd","1","1","2025-07-16T20:04:59.826Z","","","","","","","","","","","ControlQ","","50","","","","","","","","","","","","","","","","","","","","","","","","","","","","",""
"3669","","<div style=""width:500px;"">
  <p>How would you describe your current emotional state?</p>
  </div>","27","html-slider-response","17","171737","0.0-5.0-3.1","127","1","2025-07-16 20:02:08","1f75c3e559b7213887762d5229550c2b","5.69.202.172","Mozilla/5.0 (Windows NT 10.0; Win64; x64) AppleWebKit/537.36 (KHTML, like Gecko) Chrome/138.0.0.0 Safari/537.36","WebKit","Chrome","138.0.0.0","Windows","10.0","https://app.prolific.com/","en-GB,en-US;q=0.9,en;q=0.8","5c4f7b99b33a5300013dbfdd","686e379bc37a29ffa5cdc956","6878053a64ff1b83537ab29e","1","1","5c4f7b99b33a5300013dbfdd","1","1","2025-07-16T20:05:03.496Z","","","","","","","","","","","StressQ","","50","","","","","","","","","","","","","","","","","","","","","","","","","","","","",""
"2853","","<div style=""width:500px;"">
  <p>What best describes how you currently feel?</p>
  </div>","37","html-slider-response","18","174592","0.0-5.0-4.1","127","1","2025-07-16 20:02:08","1f75c3e559b7213887762d5229550c2b","5.69.202.172","Mozilla/5.0 (Windows NT 10.0; Win64; x64) AppleWebKit/537.36 (KHTML, like Gecko) Chrome/138.0.0.0 Safari/537.36","WebKit","Chrome","138.0.0.0","Windows","10.0","https://app.prolific.com/","en-GB,en-US;q=0.9,en;q=0.8","5c4f7b99b33a5300013dbfdd","686e379bc37a29ffa5cdc956","6878053a64ff1b83537ab29e","1","1","5c4f7b99b33a5300013dbfdd","1","1","2025-07-16T20:05:06.351Z","","","","","","","","","","","MotivationQ","","50","","","","","","","","","","","","","","","","","","","","","","","","","","","","",""
"","","","","ctl-task-cpt","19","209370","0.0-5.0-0.2","127","1","2025-07-16 20:02:08","1f75c3e559b7213887762d5229550c2b","5.69.202.172","Mozilla/5.0 (Windows NT 10.0; Win64; x64) AppleWebKit/537.36 (KHTML, like Gecko) Chrome/138.0.0.0 Safari/537.36","WebKit","Chrome","138.0.0.0","Windows","10.0","https://app.prolific.com/","en-GB,en-US;q=0.9,en;q=0.8","5c4f7b99b33a5300013dbfdd","686e379bc37a29ffa5cdc956","6878053a64ff1b83537ab29e","1","1","5c4f7b99b33a5300013dbfdd","1","1","2025-07-16T20:05:41.130Z","","","","","","","","","","","","","","win-only","1","g1:NE,g2:SW","0.8","3","0","178381.9","908.4","5910.6","31757.2","1","4","4","6","2","4","4","16","12","0.12121212121212122","1042","3000","1125","[""down"",""left""]","{""num_key_presses"":8,""num_perfect"":6,""num_errors"":0,""num_randdir"":2,""num_randdir_good_moves"":1,""num_whilered"":0,""num_whileblue"":0,""num_blue"":1,""num_good_moves"":7}","[416.116960471017,430.2888378552028,0.7,416.116960471017,430.2888378552028,103.6,416.116960471017,430.2888378552028,216.8,416.116960471017,430.2888378552028,317.4,416.116960471017,430.2888378552028,418.2,417.491960471017,434.4138378552028,533.1,314.366960471017,548.5388378552028,634,182.36696047101702,702.5388378552028,739,142.49196047101702,728.6638378552028,843.2,131.49196047101702,730.0388378552028,956,123.24196047101701,734.1638378552028,1072.8,110.86696047101701,731.4138378552028,1183.1,105.36696047101701,731.4138378552028,1283.3,515.116960471017,753.4138378552028,1388.7,909.741960471017,779.5388378552028,1504.4,909.741960471017,779.5388378552028,1619.9,909.741960471017,779.5388378552028,1721.1,909.741960471017,779.5388378552028,1823.8,909.741960471017,779.5388378552028,1928.2,909.741960471017,779.5388378552028,2034.4,909.741960471017,779.5388378552028,2145.5,909.741960471017,779.5388378552028,2254.3,909.741960471017,779.5388378552028,2354.6,909.741960471017,779.5388378552028,2460.3,909.741960471017,779.5388378552028,2563,909.741960471017,779.5388378552028,2668.5,909.741960471017,779.5388378552028,2784.9,909.741960471017,779.5388378552028,2885.2,909.741960471017,779.5388378552028,2988.3,909.741960471017,779.5388378552028,3088.5,909.741960471017,779.5388378552028,3202.6,909.741960471017,779.5388378552028,3303.2,909.741960471017,779.5388378552028,3403.8,909.741960471017,779.5388378552028,3508.6,909.741960471017,779.5388378552028,3612.4,909.741960471017,779.5388378552028,3715.2,909.741960471017,779.5388378552028,3817.9,909.741960471017,779.5388378552028,3922.9,909.741960471017,779.5388378552028,4023.9,909.741960471017,779.5388378552028,4129.9,909.741960471017,779.5388378552028,4232.6,909.741960471017,779.5388378552028,4337.7,909.741960471017,779.5388378552028,4438.2,909.741960471017,779.5388378552028,4539.7,909.741960471017,779.5388378552028,4649.4,909.741960471017,779.5388378552028,4750.1,909.741960471017,779.5388378552028,4853.2,909.741960471017,779.5388378552028,4954.4]","[5041,5041,2668.3,2005.4,367.3,""smooth"",""down"",""down"",""good_move"",7529.6,2487.6,2147.2,5042.1,340.3,""smooth"",""down"",""down"",""good_move"",10506,2975.6,2675.8,7530.4,299.8,""smooth"",""down"",""down"",""good_move"",13880.3,3373.8,3042.5,10506.5,331.3,""oops"",""left"",""up"",""bad_move"",17024.8,3143.4,2890.4,13881.4,253,""smooth"",""left"",""left"",""good_move"",19976.1,2950.2,2651.9,17025.9,298.3,""oops"",""left"",""left"",""good_move"",22872.2,2895.4,2569.5,19976.8,325.9,""smooth"",""down"",""down"",""good_move"",25736.2,2863.3,2575.4,22872.9,287.9,""smooth"",""left"",""left"",""good_move""]","",""
"3010","","<div style=""width:500px;"">
  <p>What determined the result of this run?</p>
  </div>","28","html-slider-response","20","212383","0.0-5.0-1.2","127","1","2025-07-16 20:02:08","1f75c3e559b7213887762d5229550c2b","5.69.202.172","Mozilla/5.0 (Windows NT 10.0; Win64; x64) AppleWebKit/537.36 (KHTML, like Gecko) Chrome/138.0.0.0 Safari/537.36","WebKit","Chrome","138.0.0.0","Windows","10.0","https://app.prolific.com/","en-GB,en-US;q=0.9,en;q=0.8","5c4f7b99b33a5300013dbfdd","686e379bc37a29ffa5cdc956","6878053a64ff1b83537ab29e","1","1","5c4f7b99b33a5300013dbfdd","1","1","2025-07-16T20:05:44.142Z","","","","","","","","","","","AttribQ","","50","","","","","","","","","","","","","","","","","","","","","","","","","","","","",""
"1608","","<div style=""width:500px;"">
  <p>How much control did you have over the ball?</p>
  </div>","85","html-slider-response","21","213993","0.0-5.0-2.2","127","1","2025-07-16 20:02:08","1f75c3e559b7213887762d5229550c2b","5.69.202.172","Mozilla/5.0 (Windows NT 10.0; Win64; x64) AppleWebKit/537.36 (KHTML, like Gecko) Chrome/138.0.0.0 Safari/537.36","WebKit","Chrome","138.0.0.0","Windows","10.0","https://app.prolific.com/","en-GB,en-US;q=0.9,en;q=0.8","5c4f7b99b33a5300013dbfdd","686e379bc37a29ffa5cdc956","6878053a64ff1b83537ab29e","1","1","5c4f7b99b33a5300013dbfdd","1","1","2025-07-16T20:05:45.752Z","","","","","","","","","","","ControlQ","","50","","","","","","","","","","","","","","","","","","","","","","","","","","","","",""
"1948","","<div style=""width:500px;"">
  <p>How would you describe your current emotional state?</p>
  </div>","30","html-slider-response","22","215943","0.0-5.0-3.2","127","1","2025-07-16 20:02:08","1f75c3e559b7213887762d5229550c2b","5.69.202.172","Mozilla/5.0 (Windows NT 10.0; Win64; x64) AppleWebKit/537.36 (KHTML, like Gecko) Chrome/138.0.0.0 Safari/537.36","WebKit","Chrome","138.0.0.0","Windows","10.0","https://app.prolific.com/","en-GB,en-US;q=0.9,en;q=0.8","5c4f7b99b33a5300013dbfdd","686e379bc37a29ffa5cdc956","6878053a64ff1b83537ab29e","1","1","5c4f7b99b33a5300013dbfdd","1","1","2025-07-16T20:05:47.702Z","","","","","","","","","","","StressQ","","50","","","","","","","","","","","","","","","","","","","","","","","","","","","","",""
"2365","","<div style=""width:500px;"">
  <p>What best describes how you currently feel?</p>
  </div>","25","html-slider-response","23","218309","0.0-5.0-4.2","127","1","2025-07-16 20:02:08","1f75c3e559b7213887762d5229550c2b","5.69.202.172","Mozilla/5.0 (Windows NT 10.0; Win64; x64) AppleWebKit/537.36 (KHTML, like Gecko) Chrome/138.0.0.0 Safari/537.36","WebKit","Chrome","138.0.0.0","Windows","10.0","https://app.prolific.com/","en-GB,en-US;q=0.9,en;q=0.8","5c4f7b99b33a5300013dbfdd","686e379bc37a29ffa5cdc956","6878053a64ff1b83537ab29e","1","1","5c4f7b99b33a5300013dbfdd","1","1","2025-07-16T20:05:50.069Z","","","","","","","","","","","MotivationQ","","50","","","","","","","","","","","","","","","","","","","","","","","","","","","","",""
"","","","","ctl-task-cpt","24","264351","0.0-5.0-0.3","127","1","2025-07-16 20:02:08","1f75c3e559b7213887762d5229550c2b","5.69.202.172","Mozilla/5.0 (Windows NT 10.0; Win64; x64) AppleWebKit/537.36 (KHTML, like Gecko) Chrome/138.0.0.0 Safari/537.36","WebKit","Chrome","138.0.0.0","Windows","10.0","https://app.prolific.com/","en-GB,en-US;q=0.9,en;q=0.8","5c4f7b99b33a5300013dbfdd","686e379bc37a29ffa5cdc956","6878053a64ff1b83537ab29e","1","1","5c4f7b99b33a5300013dbfdd","1","1","2025-07-16T20:06:36.110Z","","","","","","","","","","","","","","win-only","0","g1:NW,g2:SE","0.7","4","0","222100.4","1330.2","6331.9","43014.4","1","4","8","6","2","-8","-9","7","16","0.05303030303030303","856.8","3000","-2115","[""down"",""right""]","{""num_key_presses"":11,""num_perfect"":7,""num_errors"":1,""num_randdir"":3,""num_randdir_good_moves"":1,""num_whilered"":0,""num_whileblue"":1,""num_blue"":2,""num_good_moves"":8}","[418.866960471017,427.5388378552028,0.5,418.866960471017,427.5388378552028,109.8,418.866960471017,427.5388378552028,210.5,418.866960471017,427.5388378552028,312.1,432.616960471017,463.2888378552028,415.5,603.116960471017,681.9138378552028,530.4,663.616960471017,702.5388378552028,634.5,717.241960471017,727.2888378552028,747.8,779.116960471017,750.6638378552028,847.9,779.116960471017,750.6638378552028,950.3,779.116960471017,750.6638378552028,1052.6,975.741960471017,677.7888378552028,1152.8,1113.241960471017,647.5388378552028,1256,1113.241960471017,647.5388378552028,1374.9,1113.241960471017,647.5388378552028,1475.5,1113.241960471017,647.5388378552028,1577.2,1113.241960471017,647.5388378552028,1683.3,1113.241960471017,647.5388378552028,1786.3,1113.241960471017,647.5388378552028,1893.3,1113.241960471017,647.5388378552028,1994.2,1113.241960471017,647.5388378552028,2095.3,1113.241960471017,647.5388378552028,2196,1113.241960471017,647.5388378552028,2310.4,1113.241960471017,647.5388378552028,2414.5,1113.241960471017,647.5388378552028,2517.1,1113.241960471017,647.5388378552028,2626,1113.241960471017,647.5388378552028,2730.2,1113.241960471017,647.5388378552028,2832.1,1113.241960471017,647.5388378552028,2945.6,1113.241960471017,647.5388378552028,3045.8,1113.241960471017,647.5388378552028,3151.6,1113.241960471017,647.5388378552028,3251.7,1113.241960471017,647.5388378552028,3364.8,1113.241960471017,647.5388378552028,3465.8,1113.241960471017,647.5388378552028,3567.4,1113.241960471017,647.5388378552028,3676,1113.241960471017,647.5388378552028,3782,1113.241960471017,647.5388378552028,3885.8,1113.241960471017,647.5388378552028,3985.9,1113.241960471017,647.5388378552028,4087.1,1113.241960471017,647.5388378552028,4191.7,1113.241960471017,647.5388378552028,4298.9,1113.241960471017,647.5388378552028,4414.8,1113.241960471017,647.5388378552028,4516.9,1113.241960471017,647.5388378552028,4623.2,1113.241960471017,647.5388378552028,4726.1,1113.241960471017,647.5388378552028,4827.1,1113.241960471017,647.5388378552028,4931.5]","[1325.3,1325.3,1000,0,325.3,""smooth"",""right"",""right"",""good_move"",4308.9,2982.7,2659.7,1326.2,323,""smooth"",""right"",""right"",""good_move"",6949.9,2640.3,2379.7,4309.6,260.6,""while_blue"",""down"",""up"",""bad_move"",9500.5,2549.6,2162.3,6951,387.3,""oops"",""down"",""left"",""bad_move"",11812.9,2311.4,1381.3,9501.5,930.1,""smooth"",""down"",""down"",""good_move"",18324.8,6510.8,2621.9,15266.8,436.1,""oops"",""down"",""down"",""good_move"",21821.2,3495.5,3063.7,18325.7,431.8,""smooth"",""down"",""down"",""good_move"",24931.3,3109.6,2745.3,21821.7,364.3,""smooth"",""down"",""down"",""good_move"",27604.3,2672.7,2375.5,24931.6,297.2,""oops"",""right"",""left"",""bad_move"",30709.3,3103.6,2839.3,27605.7,264.3,""smooth"",""right"",""right"",""good_move"",33741.1,3030.9,2733.1,30710.2,297.8,""smooth"",""right"",""right"",""good_move""]","",""
"2185","","<div style=""width:500px;"">
  <p>What determined the result of this run?</p>
  </div>","0","html-slider-response","25","266540","0.0-5.0-1.3","127","1","2025-07-16 20:02:08","1f75c3e559b7213887762d5229550c2b","5.69.202.172","Mozilla/5.0 (Windows NT 10.0; Win64; x64) AppleWebKit/537.36 (KHTML, like Gecko) Chrome/138.0.0.0 Safari/537.36","WebKit","Chrome","138.0.0.0","Windows","10.0","https://app.prolific.com/","en-GB,en-US;q=0.9,en;q=0.8","5c4f7b99b33a5300013dbfdd","686e379bc37a29ffa5cdc956","6878053a64ff1b83537ab29e","1","1","5c4f7b99b33a5300013dbfdd","1","1","2025-07-16T20:06:38.299Z","","","","","","","","","","","AttribQ","","50","","","","","","","","","","","","","","","","","","","","","","","","","","","","",""
"2390","","<div style=""width:500px;"">
  <p>How much control did you have over the ball?</p>
  </div>","54","html-slider-response","26","268933","0.0-5.0-2.3","127","1","2025-07-16 20:02:08","1f75c3e559b7213887762d5229550c2b","5.69.202.172","Mozilla/5.0 (Windows NT 10.0; Win64; x64) AppleWebKit/537.36 (KHTML, like Gecko) Chrome/138.0.0.0 Safari/537.36","WebKit","Chrome","138.0.0.0","Windows","10.0","https://app.prolific.com/","en-GB,en-US;q=0.9,en;q=0.8","5c4f7b99b33a5300013dbfdd","686e379bc37a29ffa5cdc956","6878053a64ff1b83537ab29e","1","1","5c4f7b99b33a5300013dbfdd","1","1","2025-07-16T20:06:40.692Z","","","","","","","","","","","ControlQ","","50","","","","","","","","","","","","","","","","","","","","","","","","","","","","",""
"2783","","<div style=""width:500px;"">
  <p>How would you describe your current emotional state?</p>
  </div>","60","html-slider-response","27","271717","0.0-5.0-3.3","127","1","2025-07-16 20:02:08","1f75c3e559b7213887762d5229550c2b","5.69.202.172","Mozilla/5.0 (Windows NT 10.0; Win64; x64) AppleWebKit/537.36 (KHTML, like Gecko) Chrome/138.0.0.0 Safari/537.36","WebKit","Chrome","138.0.0.0","Windows","10.0","https://app.prolific.com/","en-GB,en-US;q=0.9,en;q=0.8","5c4f7b99b33a5300013dbfdd","686e379bc37a29ffa5cdc956","6878053a64ff1b83537ab29e","1","1","5c4f7b99b33a5300013dbfdd","1","1","2025-07-16T20:06:43.476Z","","","","","","","","","","","StressQ","","50","","","","","","","","","","","","","","","","","","","","","","","","","","","","",""
"2799","","<div style=""width:500px;"">
  <p>What best describes how you currently feel?</p>
  </div>","31","html-slider-response","28","274517","0.0-5.0-4.3","127","1","2025-07-16 20:02:08","1f75c3e559b7213887762d5229550c2b","5.69.202.172","Mozilla/5.0 (Windows NT 10.0; Win64; x64) AppleWebKit/537.36 (KHTML, like Gecko) Chrome/138.0.0.0 Safari/537.36","WebKit","Chrome","138.0.0.0","Windows","10.0","https://app.prolific.com/","en-GB,en-US;q=0.9,en;q=0.8","5c4f7b99b33a5300013dbfdd","686e379bc37a29ffa5cdc956","6878053a64ff1b83537ab29e","1","1","5c4f7b99b33a5300013dbfdd","1","1","2025-07-16T20:06:46.277Z","","","","","","","","","","","MotivationQ","","50","","","","","","","","","","","","","","","","","","","","","","","","","","","","",""
"","","","","ctl-task-cpt","29","300216","0.0-5.0-0.4","127","1","2025-07-16 20:02:08","1f75c3e559b7213887762d5229550c2b","5.69.202.172","Mozilla/5.0 (Windows NT 10.0; Win64; x64) AppleWebKit/537.36 (KHTML, like Gecko) Chrome/138.0.0.0 Safari/537.36","WebKit","Chrome","138.0.0.0","Windows","10.0","https://app.prolific.com/","en-GB,en-US;q=0.9,en;q=0.8","5c4f7b99b33a5300013dbfdd","686e379bc37a29ffa5cdc956","6878053a64ff1b83537ab29e","1","1","5c4f7b99b33a5300013dbfdd","1","1","2025-07-16T20:07:11.975Z","","","","","","","","","","","","","","win-only","0","g1:NW,g2:SE","0.6","5","0","278308","1298.8","6301.5","22667.4","1","4","4","6","2","4","4","11","7","0.08333333333333333","967.2","3000","1735","[""down"",""right""]","{""num_key_presses"":6,""num_perfect"":3,""num_errors"":0,""num_randdir"":3,""num_randdir_good_moves"":3,""num_whilered"":0,""num_whileblue"":0,""num_blue"":0,""num_good_moves"":6}","[416.116960471017,412.4138378552028,0.3,416.116960471017,412.4138378552028,102.3,406.491960471017,416.5388378552028,220.7,405.116960471017,419.2888378552028,321.9,405.116960471017,424.7888378552028,436.4,537.116960471017,555.4138378552028,542.1,642.991960471017,677.7888378552028,656.1,703.491960471017,724.5388378552028,774.3,765.366960471017,757.5388378552028,896.5,772.241960471017,760.2888378552028,1000.3,783.241960471017,753.4138378552028,1103.5,1111.866960471017,662.6638378552028,1209.1,1374.491960471017,581.5388378552028,1312.9,1374.491960471017,581.5388378552028,1413.1,1374.491960471017,581.5388378552028,1517.9,1374.491960471017,581.5388378552028,1623.8,1374.491960471017,581.5388378552028,1732.1,1374.491960471017,581.5388378552028,1833.1,1374.491960471017,581.5388378552028,1937.2,1374.491960471017,581.5388378552028,2037.5,1374.491960471017,581.5388378552028,2137.8,1374.491960471017,581.5388378552028,2243.1,1374.491960471017,581.5388378552028,2344.2,1374.491960471017,581.5388378552028,2452.6,1374.491960471017,581.5388378552028,2559.6,1374.491960471017,581.5388378552028,2664.2,1374.491960471017,581.5388378552028,2768.2,1374.491960471017,581.5388378552028,2872.3,1374.491960471017,581.5388378552028,2973.8,1374.491960471017,581.5388378552028,3085.1,1374.491960471017,581.5388378552028,3188.3,1374.491960471017,581.5388378552028,3292.7,1374.491960471017,581.5388378552028,3392.9,1374.491960471017,581.5388378552028,3497,1374.491960471017,581.5388378552028,3599.4,1374.491960471017,581.5388378552028,3703.3,1374.491960471017,581.5388378552028,3818.2,1374.491960471017,581.5388378552028,3934.3,1374.491960471017,581.5388378552028,4034.7,1374.491960471017,581.5388378552028,4137,1374.491960471017,581.5388378552028,4244.8,1374.491960471017,581.5388378552028,4347.3,1374.491960471017,581.5388378552028,4448.2,1374.491960471017,581.5388378552028,4552.2,1374.491960471017,581.5388378552028,4667.1,1374.491960471017,581.5388378552028,4779.9,1374.491960471017,581.5388378552028,4880.9,1374.491960471017,581.5388378552028,4983.1]","[1363.9,1363.9,1000,0,363.9,""oops"",""right"",""right"",""good_move"",4014.7,2649.6,2349.1,1365.1,300.5,""smooth"",""right"",""right"",""good_move"",7139.2,3124.2,2828.8,4015,295.4,""oops"",""right"",""down"",""good_move"",9942.3,2802,2485.5,7140.3,316.5,""smooth"",""right"",""right"",""good_move"",12963.2,3020.5,2695.7,9942.8,324.7,""smooth"",""down"",""down"",""good_move"",16242.9,3279.3,2978.4,12963.6,300.9,""oops"",""down"",""down"",""good_move""]","",""
"2569","","<div style=""width:500px;"">
  <p>What determined the result of this run?</p>
  </div>","35","html-slider-response","30","302788","0.0-5.0-1.4","127","1","2025-07-16 20:02:08","1f75c3e559b7213887762d5229550c2b","5.69.202.172","Mozilla/5.0 (Windows NT 10.0; Win64; x64) AppleWebKit/537.36 (KHTML, like Gecko) Chrome/138.0.0.0 Safari/537.36","WebKit","Chrome","138.0.0.0","Windows","10.0","https://app.prolific.com/","en-GB,en-US;q=0.9,en;q=0.8","5c4f7b99b33a5300013dbfdd","686e379bc37a29ffa5cdc956","6878053a64ff1b83537ab29e","1","1","5c4f7b99b33a5300013dbfdd","1","1","2025-07-16T20:07:14.547Z","","","","","","","","","","","AttribQ","","50","","","","","","","","","","","","","","","","","","","","","","","","","","","","",""
"2843","","<div style=""width:500px;"">
  <p>How much control did you have over the ball?</p>
  </div>","66","html-slider-response","31","305633","0.0-5.0-2.4","127","1","2025-07-16 20:02:08","1f75c3e559b7213887762d5229550c2b","5.69.202.172","Mozilla/5.0 (Windows NT 10.0; Win64; x64) AppleWebKit/537.36 (KHTML, like Gecko) Chrome/138.0.0.0 Safari/537.36","WebKit","Chrome","138.0.0.0","Windows","10.0","https://app.prolific.com/","en-GB,en-US;q=0.9,en;q=0.8","5c4f7b99b33a5300013dbfdd","686e379bc37a29ffa5cdc956","6878053a64ff1b83537ab29e","1","1","5c4f7b99b33a5300013dbfdd","1","1","2025-07-16T20:07:17.392Z","","","","","","","","","","","ControlQ","","50","","","","","","","","","","","","","","","","","","","","","","","","","","","","",""
"2709","","<div style=""width:500px;"">
  <p>How would you describe your current emotional state?</p>
  </div>","57","html-slider-response","32","308344","0.0-5.0-3.4","127","1","2025-07-16 20:02:08","1f75c3e559b7213887762d5229550c2b","5.69.202.172","Mozilla/5.0 (Windows NT 10.0; Win64; x64) AppleWebKit/537.36 (KHTML, like Gecko) Chrome/138.0.0.0 Safari/537.36","WebKit","Chrome","138.0.0.0","Windows","10.0","https://app.prolific.com/","en-GB,en-US;q=0.9,en;q=0.8","5c4f7b99b33a5300013dbfdd","686e379bc37a29ffa5cdc956","6878053a64ff1b83537ab29e","1","1","5c4f7b99b33a5300013dbfdd","1","1","2025-07-16T20:07:20.103Z","","","","","","","","","","","StressQ","","50","","","","","","","","","","","","","","","","","","","","","","","","","","","","",""
"2808","","<div style=""width:500px;"">
  <p>What best describes how you currently feel?</p>
  </div>","33","html-slider-response","33","311153","0.0-5.0-4.4","127","1","2025-07-16 20:02:08","1f75c3e559b7213887762d5229550c2b","5.69.202.172","Mozilla/5.0 (Windows NT 10.0; Win64; x64) AppleWebKit/537.36 (KHTML, like Gecko) Chrome/138.0.0.0 Safari/537.36","WebKit","Chrome","138.0.0.0","Windows","10.0","https://app.prolific.com/","en-GB,en-US;q=0.9,en;q=0.8","5c4f7b99b33a5300013dbfdd","686e379bc37a29ffa5cdc956","6878053a64ff1b83537ab29e","1","1","5c4f7b99b33a5300013dbfdd","1","1","2025-07-16T20:07:22.912Z","","","","","","","","","","","MotivationQ","","50","","","","","","","","","","","","","","","","","","","","","","","","","","","","",""
"","","","","ctl-task-cpt","34","354101","0.0-5.0-0.5","127","1","2025-07-16 20:02:08","1f75c3e559b7213887762d5229550c2b","5.69.202.172","Mozilla/5.0 (Windows NT 10.0; Win64; x64) AppleWebKit/537.36 (KHTML, like Gecko) Chrome/138.0.0.0 Safari/537.36","WebKit","Chrome","138.0.0.0","Windows","10.0","https://app.prolific.com/","en-GB,en-US;q=0.9,en;q=0.8","5c4f7b99b33a5300013dbfdd","686e379bc37a29ffa5cdc956","6878053a64ff1b83537ab29e","1","1","5c4f7b99b33a5300013dbfdd","1","1","2025-07-16T20:08:05.861Z","","","","","","","","","","","","","","win-only","2","g1:SE,g2:NW","0.5","6","0","314942.9","1094.2","6108.2","39927.2","1","4","8","6","2","8","8","19","11","0.14393939393939395","1010.8","3000","805","[""left"",""up""]","{""num_key_presses"":10,""num_perfect"":5,""num_errors"":0,""num_randdir"":5,""num_randdir_good_moves"":3,""num_whilered"":0,""num_whileblue"":0,""num_blue"":2,""num_good_moves"":8}","[410.616960471017,427.5388378552028,0.5,410.616960471017,427.5388378552028,104.2,410.616960471017,427.5388378552028,207.6,410.616960471017,427.5388378552028,313.5,721.366960471017,742.4138378552028,419.2,886.366960471017,841.4138378552028,523.3,234.61696047101702,394.5388378552028,624.8,154.86696047101702,269.4138378552028,728,81.99196047101701,158.03883785520281,830,72.36696047101701,119.5388378552028,943.6,70.99196047101701,115.4138378552028,1061.8,101.24196047101701,131.91383785520281,1164.6,376.241960471017,252.91383785520281,1273.3,377.616960471017,254.28883785520281,1375.7,377.616960471017,254.28883785520281,1479.2,377.616960471017,254.28883785520281,1581,377.616960471017,254.28883785520281,1685.6,377.616960471017,254.28883785520281,1788.7,377.616960471017,254.28883785520281,1890.1,377.616960471017,254.28883785520281,1993.3,377.616960471017,254.28883785520281,2096.9,377.616960471017,254.28883785520281,2208.7,377.616960471017,254.28883785520281,2312.1,377.616960471017,254.28883785520281,2413.6,377.616960471017,254.28883785520281,2517.1,377.616960471017,254.28883785520281,2618.3,377.616960471017,254.28883785520281,2719.4,377.616960471017,254.28883785520281,2821.9,377.616960471017,254.28883785520281,2923.7,377.616960471017,254.28883785520281,3028.1,377.616960471017,254.28883785520281,3134.4,377.616960471017,254.28883785520281,3238.3,377.616960471017,254.28883785520281,3338.9,377.616960471017,254.28883785520281,3439.9,377.616960471017,254.28883785520281,3542.7,377.616960471017,254.28883785520281,3642.8,377.616960471017,254.28883785520281,3755,377.616960471017,254.28883785520281,3858.4,377.616960471017,254.28883785520281,3962.5,377.616960471017,254.28883785520281,4064.2,377.616960471017,254.28883785520281,4166.6,377.616960471017,254.28883785520281,4269,377.616960471017,254.28883785520281,4372.2,377.616960471017,254.28883785520281,4477.7,377.616960471017,254.28883785520281,4578.4,377.616960471017,254.28883785520281,4678.4,377.616960471017,254.28883785520281,4782.1,377.616960471017,254.28883785520281,4891.3,377.616960471017,254.28883785520281,4993.2]","[8650,8650,2474.4,5753.7,421.9,""smooth"",""up"",""up"",""good_move"",11402.7,2751.4,2449.5,8651.3,301.9,""smooth"",""left"",""left"",""good_move"",14287.9,2884.2,2508.6,11403.7,375.6,""smooth"",""up"",""up"",""good_move"",16345.8,2057.4,1658.8,14288.5,398.6,""oops"",""left"",""left"",""good_move"",19586.6,3240,2853.4,16346.6,386.6,""smooth"",""up"",""up"",""good_move"",22746,3158.7,2842.5,19587.4,316.1,""oops"",""left"",""right"",""bad_move"",25313.7,2567.1,2245.2,22746.7,321.8,""oops"",""left"",""left"",""good_move"",28616.5,3302,2945.6,25314.6,356.3,""oops"",""left"",""down"",""bad_move"",30981,2363.8,2075.3,28617.2,288.5,""smooth"",""left"",""left"",""good_move"",33693.1,2711.4,2414.8,30981.8,296.5,""oops"",""up"",""up"",""good_move""]","",""
"3361","","<div style=""width:500px;"">
  <p>What determined the result of this run?</p>
  </div>","7","html-slider-response","35","357465","0.0-5.0-1.5","127","1","2025-07-16 20:02:08","1f75c3e559b7213887762d5229550c2b","5.69.202.172","Mozilla/5.0 (Windows NT 10.0; Win64; x64) AppleWebKit/537.36 (KHTML, like Gecko) Chrome/138.0.0.0 Safari/537.36","WebKit","Chrome","138.0.0.0","Windows","10.0","https://app.prolific.com/","en-GB,en-US;q=0.9,en;q=0.8","5c4f7b99b33a5300013dbfdd","686e379bc37a29ffa5cdc956","6878053a64ff1b83537ab29e","1","1","5c4f7b99b33a5300013dbfdd","1","1","2025-07-16T20:08:09.224Z","","","","","","","","","","","AttribQ","","50","","","","","","","","","","","","","","","","","","","","","","","","","","","","",""
"2269","","<div style=""width:500px;"">
  <p>How much control did you have over the ball?</p>
  </div>","31","html-slider-response","36","359736","0.0-5.0-2.5","127","1","2025-07-16 20:02:08","1f75c3e559b7213887762d5229550c2b","5.69.202.172","Mozilla/5.0 (Windows NT 10.0; Win64; x64) AppleWebKit/537.36 (KHTML, like Gecko) Chrome/138.0.0.0 Safari/537.36","WebKit","Chrome","138.0.0.0","Windows","10.0","https://app.prolific.com/","en-GB,en-US;q=0.9,en;q=0.8","5c4f7b99b33a5300013dbfdd","686e379bc37a29ffa5cdc956","6878053a64ff1b83537ab29e","1","1","5c4f7b99b33a5300013dbfdd","1","1","2025-07-16T20:08:11.495Z","","","","","","","","","","","ControlQ","","50","","","","","","","","","","","","","","","","","","","","","","","","","","","","",""
"3310","","<div style=""width:500px;"">
  <p>How would you describe your current emotional state?</p>
  </div>","66","html-slider-response","37","363048","0.0-5.0-3.5","127","1","2025-07-16 20:02:08","1f75c3e559b7213887762d5229550c2b","5.69.202.172","Mozilla/5.0 (Windows NT 10.0; Win64; x64) AppleWebKit/537.36 (KHTML, like Gecko) Chrome/138.0.0.0 Safari/537.36","WebKit","Chrome","138.0.0.0","Windows","10.0","https://app.prolific.com/","en-GB,en-US;q=0.9,en;q=0.8","5c4f7b99b33a5300013dbfdd","686e379bc37a29ffa5cdc956","6878053a64ff1b83537ab29e","1","1","5c4f7b99b33a5300013dbfdd","1","1","2025-07-16T20:08:14.807Z","","","","","","","","","","","StressQ","","50","","","","","","","","","","","","","","","","","","","","","","","","","","","","",""
"1757","","<div style=""width:500px;"">
  <p>What best describes how you currently feel?</p>
  </div>","25","html-slider-response","38","364807","0.0-5.0-4.5","127","1","2025-07-16 20:02:08","1f75c3e559b7213887762d5229550c2b","5.69.202.172","Mozilla/5.0 (Windows NT 10.0; Win64; x64) AppleWebKit/537.36 (KHTML, like Gecko) Chrome/138.0.0.0 Safari/537.36","WebKit","Chrome","138.0.0.0","Windows","10.0","https://app.prolific.com/","en-GB,en-US;q=0.9,en;q=0.8","5c4f7b99b33a5300013dbfdd","686e379bc37a29ffa5cdc956","6878053a64ff1b83537ab29e","1","1","5c4f7b99b33a5300013dbfdd","1","1","2025-07-16T20:08:16.566Z","","","","","","","","","","","MotivationQ","","50","","","","","","","","","","","","","","","","","","","","","","","","","","","","",""
"","","","","ctl-task-cpt","39","423035","0.0-5.0-0.6","127","1","2025-07-16 20:02:08","1f75c3e559b7213887762d5229550c2b","5.69.202.172","Mozilla/5.0 (Windows NT 10.0; Win64; x64) AppleWebKit/537.36 (KHTML, like Gecko) Chrome/138.0.0.0 Safari/537.36","WebKit","Chrome","138.0.0.0","Windows","10.0","https://app.prolific.com/","en-GB,en-US;q=0.9,en;q=0.8","5c4f7b99b33a5300013dbfdd","686e379bc37a29ffa5cdc956","6878053a64ff1b83537ab29e","1","1","5c4f7b99b33a5300013dbfdd","1","1","2025-07-16T20:09:14.795Z","","","","","","","","","","","","","","win-only","1","g1:NE,g2:SW","0.4","7","0","368596.7","876.1","5880.5","55207.6","1","4","4","6","2","-4","-7","12","19","0.09090909090909091","988.1","3000","-1835","[""down"",""left""]","{""num_key_presses"":17,""num_perfect"":5,""num_errors"":3,""num_randdir"":9,""num_randdir_good_moves"":6,""num_whilered"":0,""num_whileblue"":3,""num_blue"":3,""num_good_moves"":11}","[420.241960471017,416.5388378552028,0.5,420.241960471017,416.5388378552028,101.7,420.241960471017,416.5388378552028,205.7,420.241960471017,416.5388378552028,306.4,420.241960471017,416.5388378552028,406.6,363.866960471017,478.4138378552028,509.7,9.11696047101701,761.6638378552028,610.6,-1.8830395289829909,779.5388378552028,718.3,-1.8830395289829909,779.5388378552028,823.3,26.99196047101701,757.5388378552028,924.1,44.86696047101701,750.6638378552028,1025.3,44.86696047101701,750.6638378552028,1126.5,44.86696047101701,750.6638378552028,1230.6,26.99196047101701,723.1638378552028,1333.4,-23.88303952898299,695.6638378552028,1438.5,-23.88303952898299,695.6638378552028,1540,-23.88303952898299,695.6638378552028,1657.1,-23.88303952898299,695.6638378552028,1777.8,-23.88303952898299,695.6638378552028,1888.4,-23.88303952898299,695.6638378552028,1988.4,-23.88303952898299,695.6638378552028,2089.9,-23.88303952898299,695.6638378552028,2190.4,-23.88303952898299,695.6638378552028,2298.8,-23.88303952898299,695.6638378552028,2403.9,-23.88303952898299,695.6638378552028,2504.3,-23.88303952898299,695.6638378552028,2606.3,-23.88303952898299,695.6638378552028,2708.1,-23.88303952898299,695.6638378552028,2810.8,-23.88303952898299,695.6638378552028,2912.4,-23.88303952898299,695.6638378552028,3013.6,-23.88303952898299,695.6638378552028,3115.9,-23.88303952898299,695.6638378552028,3216.3,-23.88303952898299,695.6638378552028,3323.4,-23.88303952898299,695.6638378552028,3425.6,-23.88303952898299,695.6638378552028,3540.3,-23.88303952898299,695.6638378552028,3642.4,-23.88303952898299,695.6638378552028,3742.8,-23.88303952898299,695.6638378552028,3848,-23.88303952898299,695.6638378552028,3952.1,-23.88303952898299,695.6638378552028,4052.1,-23.88303952898299,695.6638378552028,4155.5,-23.88303952898299,695.6638378552028,4258,-23.88303952898299,695.6638378552028,4362.6,-23.88303952898299,695.6638378552028,4464.8,-23.88303952898299,695.6638378552028,4566.8,-23.88303952898299,695.6638378552028,4669,-23.88303952898299,695.6638378552028,4772.5,-23.88303952898299,695.6638378552028,4875.7,-23.88303952898299,695.6638378552028,4976.2]","[1351.8,1351.8,1000,0,351.8,""smooth"",""down"",""down"",""good_move"",3783.4,2430.7,2106.2,1352.8,324.5,""smooth"",""down"",""down"",""good_move"",6904.6,3120.2,2793.2,3784.4,327,""smooth"",""down"",""down"",""good_move"",10279.5,3374.4,3044.4,6905.2,330,""oops"",""left"",""right"",""bad_move"",13361.2,3080.5,2824.7,10280.7,255.9,""while_blue"",""left"",""right"",""bad_move"",16090.4,2728.3,2394.8,13362.1,333.6,""oops"",""left"",""left"",""good_move"",18761.4,2670.1,2287.9,16091.3,382.2,""oops"",""left"",""left"",""good_move"",21827.6,3065.7,2736.5,18761.9,329.2,""oops"",""left"",""up"",""bad_move"",24609.1,2780.9,2462,21828.2,318.9,""oops"",""left"",""left"",""good_move"",27343.8,2734.1,2430.9,24609.7,303.2,""while_blue"",""left"",""up"",""bad_move"",29887.6,2543,2158.2,27344.6,384.8,""smooth"",""left"",""left"",""good_move"",32807,2918.9,2565.6,29888.1,353.3,""oops"",""down"",""down"",""good_move"",35706.5,2898.7,2599.9,32807.8,298.8,""oops"",""left"",""down"",""good_move"",38055.6,2348.5,2005,35707.1,343.5,""while_blue"",""left"",""right"",""bad_move"",41151,3094.6,2684.3,38056.5,410.2,""oops"",""left"",""left"",""good_move"",44333.8,3182.5,2726.6,41151.5,455.8,""oops"",""left"",""right"",""bad_move"",46967.3,2632.4,2288.7,44334.9,343.7,""smooth"",""left"",""left"",""good_move""]","",""
"2134","","<div style=""width:500px;"">
  <p>What determined the result of this run?</p>
  </div>","82","html-slider-response","40","425173","0.0-5.0-1.6","127","1","2025-07-16 20:02:08","1f75c3e559b7213887762d5229550c2b","5.69.202.172","Mozilla/5.0 (Windows NT 10.0; Win64; x64) AppleWebKit/537.36 (KHTML, like Gecko) Chrome/138.0.0.0 Safari/537.36","WebKit","Chrome","138.0.0.0","Windows","10.0","https://app.prolific.com/","en-GB,en-US;q=0.9,en;q=0.8","5c4f7b99b33a5300013dbfdd","686e379bc37a29ffa5cdc956","6878053a64ff1b83537ab29e","1","1","5c4f7b99b33a5300013dbfdd","1","1","2025-07-16T20:09:16.932Z","","","","","","","","","","","AttribQ","","50","","","","","","","","","","","","","","","","","","","","","","","","","","","","",""
"3272","","<div style=""width:500px;"">
  <p>How much control did you have over the ball?</p>
  </div>","44","html-slider-response","41","428447","0.0-5.0-2.6","127","1","2025-07-16 20:02:08","1f75c3e559b7213887762d5229550c2b","5.69.202.172","Mozilla/5.0 (Windows NT 10.0; Win64; x64) AppleWebKit/537.36 (KHTML, like Gecko) Chrome/138.0.0.0 Safari/537.36","WebKit","Chrome","138.0.0.0","Windows","10.0","https://app.prolific.com/","en-GB,en-US;q=0.9,en;q=0.8","5c4f7b99b33a5300013dbfdd","686e379bc37a29ffa5cdc956","6878053a64ff1b83537ab29e","1","1","5c4f7b99b33a5300013dbfdd","1","1","2025-07-16T20:09:20.206Z","","","","","","","","","","","ControlQ","","50","","","","","","","","","","","","","","","","","","","","","","","","","","","","",""
"3878","","<div style=""width:500px;"">
  <p>How would you describe your current emotional state?</p>
  </div>","95","html-slider-response","42","432327","0.0-5.0-3.6","127","1","2025-07-16 20:02:08","1f75c3e559b7213887762d5229550c2b","5.69.202.172","Mozilla/5.0 (Windows NT 10.0; Win64; x64) AppleWebKit/537.36 (KHTML, like Gecko) Chrome/138.0.0.0 Safari/537.36","WebKit","Chrome","138.0.0.0","Windows","10.0","https://app.prolific.com/","en-GB,en-US;q=0.9,en;q=0.8","5c4f7b99b33a5300013dbfdd","686e379bc37a29ffa5cdc956","6878053a64ff1b83537ab29e","1","1","5c4f7b99b33a5300013dbfdd","1","1","2025-07-16T20:09:24.087Z","","","","","","","","","","","StressQ","","50","","","","","","","","","","","","","","","","","","","","","","","","","","","","",""
"2059","","<div style=""width:500px;"">
  <p>What best describes how you currently feel?</p>
  </div>","23","html-slider-response","43","434388","0.0-5.0-4.6","127","1","2025-07-16 20:02:08","1f75c3e559b7213887762d5229550c2b","5.69.202.172","Mozilla/5.0 (Windows NT 10.0; Win64; x64) AppleWebKit/537.36 (KHTML, like Gecko) Chrome/138.0.0.0 Safari/537.36","WebKit","Chrome","138.0.0.0","Windows","10.0","https://app.prolific.com/","en-GB,en-US;q=0.9,en;q=0.8","5c4f7b99b33a5300013dbfdd","686e379bc37a29ffa5cdc956","6878053a64ff1b83537ab29e","1","1","5c4f7b99b33a5300013dbfdd","1","1","2025-07-16T20:09:26.147Z","","","","","","","","","","","MotivationQ","","50","","","","","","","","","","","","","","","","","","","","","","","","","","","","",""
"","","","","ctl-task-cpt","44","511758","0.0-5.0-0.7","127","1","2025-07-16 20:02:08","1f75c3e559b7213887762d5229550c2b","5.69.202.172","Mozilla/5.0 (Windows NT 10.0; Win64; x64) AppleWebKit/537.36 (KHTML, like Gecko) Chrome/138.0.0.0 Safari/537.36","WebKit","Chrome","138.0.0.0","Windows","10.0","https://app.prolific.com/","en-GB,en-US;q=0.9,en;q=0.8","5c4f7b99b33a5300013dbfdd","686e379bc37a29ffa5cdc956","6878053a64ff1b83537ab29e","1","1","5c4f7b99b33a5300013dbfdd","1","1","2025-07-16T20:10:43.517Z","","","","","","","","","","","","","","win-only","1","g1:NE,g2:SW","0.3","8","0","438178.8","1101.2","6104.4","74347.5","1","4","8","6","2","-8","-12","0","12","0","1012.6","3000","-1785","[""down"",""left""]","{""num_key_presses"":27,""num_perfect"":4,""num_errors"":4,""num_randdir"":9,""num_randdir_good_moves"":4,""num_whilered"":10,""num_whileblue"":1,""num_blue"":8,""num_good_moves"":8}","[411.991960471017,416.5388378552028,0.7,411.991960471017,416.5388378552028,113,411.991960471017,416.5388378552028,218.8,411.991960471017,417.9138378552028,335.4,402.366960471017,435.7888378552028,443.9,355.616960471017,472.9138378552028,547.1,186.49196047101702,631.0388378552028,651.3,178.24196047101702,665.4138378552028,753.6,154.86696047101702,694.2888378552028,856.1,123.24196047101701,724.5388378552028,964.2,113.61696047101701,732.7888378552028,1072.3,108.11696047101701,732.7888378552028,1175.8,185.11696047101702,582.9138378552028,1279.2,286.866960471017,448.1638378552028,1391.9,286.866960471017,448.1638378552028,1496.7,286.866960471017,448.1638378552028,1618.2,286.866960471017,448.1638378552028,1722.5,286.866960471017,448.1638378552028,1822.9,286.866960471017,448.1638378552028,1929.2,286.866960471017,448.1638378552028,2033.2,286.866960471017,448.1638378552028,2136.1,286.866960471017,448.1638378552028,2251.2,286.866960471017,448.1638378552028,2353.7,286.866960471017,448.1638378552028,2464,286.866960471017,448.1638378552028,2585.8,286.866960471017,448.1638378552028,2689.7,286.866960471017,448.1638378552028,2793.8,286.866960471017,448.1638378552028,2901,286.866960471017,448.1638378552028,3016,286.866960471017,448.1638378552028,3136.4,286.866960471017,448.1638378552028,3251.6,286.866960471017,448.1638378552028,3355,286.866960471017,448.1638378552028,3466.7,286.866960471017,448.1638378552028,3572,286.866960471017,448.1638378552028,3672.7,286.866960471017,448.1638378552028,3776.7,286.866960471017,448.1638378552028,3879.6,286.866960471017,448.1638378552028,3983.9,286.866960471017,448.1638378552028,4088,286.866960471017,448.1638378552028,4188.4,286.866960471017,448.1638378552028,4294.6,286.866960471017,448.1638378552028,4406.9,286.866960471017,448.1638378552028,4511.7,286.866960471017,448.1638378552028,4624.9,286.866960471017,448.1638378552028,4726.1,286.866960471017,448.1638378552028,4827.2,286.866960471017,448.1638378552028,4940.9]","[8265.1,8265.1,2239,5652.3,373.8,""smooth"",""down"",""down"",""good_move"",10897.2,2631.3,2243.8,8265.9,387.5,""smooth"",""down"",""down"",""good_move"",13617.6,2719.7,2415.6,10898,304,""oops"",""down"",""left"",""good_move"",16057,2438.6,2117.2,13618.4,321.4,""smooth"",""down"",""down"",""good_move"",18488.7,2431.1,2181.9,16057.6,249.2,""oops"",""left"",""left"",""good_move"",21153.7,2664.7,2376.6,18489,288.1,""while_blue"",""left"",""right"",""bad_move"",27443.6,6289.3,2806.9,24235.6,401.1,""oops"",""left"",""right"",""bad_move"",33906,6462,2215.3,31332.2,358.5,""oops"",""left"",""right"",""bad_move"",39720.6,5814.1,1741.1,37575.3,404.2,""oops"",""left"",""right"",""bad_move"",42753,3031.9,2617.5,39721.1,414.5,""oops"",""left"",""left"",""good_move"",46193.6,3439.7,3066.1,42754.1,373.4,""oops"",""left"",""up"",""bad_move"",48777.2,2582.6,2213.9,46194.6,368.7,""smooth"",""left"",""left"",""good_move"",51577.2,2798.9,2491.7,48778.3,307.2,""oops"",""left"",""down"",""good_move"",53838.3,2260,1869.4,51578.3,390.6,""oops"",""left"",""right"",""bad_move"",55654.3,1815.2,2135.8,53839.1,-320.6,""error"",""-"",""-"",""no_move"",56137.6,482.8,2135.8,53839.1,162.7,""while_red"",""-"",""-"",""no_move"",56313.6,658.8,2135.8,53839.1,338.8,""while_red"",""-"",""-"",""no_move"",56465.5,810.7,2135.8,53839.1,490.6,""while_red"",""-"",""-"",""no_move"",56610.1,955.3,2135.8,53839.1,635.2,""while_red"",""-"",""-"",""no_move"",56745.4,1090.6,1942.8,56661.1,-1858.5,""error"",""-"",""-"",""no_move"",56906.3,160.6,1942.8,56661.1,-1697.6,""while_red"",""-"",""-"",""no_move"",57065.9,320.2,1942.8,56661.1,-1538,""while_red"",""-"",""-"",""no_move"",57210.1,464.4,1942.8,56661.1,-1393.8,""while_red"",""-"",""-"",""no_move"",57386.3,640.6,1942.8,56661.1,-1217.6,""while_red"",""-"",""-"",""no_move"",57553.5,807.8,1942.8,56661.1,-1050.4,""while_red"",""-"",""-"",""no_move"",57728.7,983,1942.8,56661.1,-875.2,""while_red"",""-"",""-"",""no_move"",57906.1,1160.4,2504.7,57748.4,-2347,""error"",""-"",""-"",""no_move""]","",""
"4113","","<div style=""width:500px;"">
  <p>What determined the result of this run?</p>
  </div>","0","html-slider-response","45","515874","0.0-5.0-1.7","127","1","2025-07-16 20:02:08","1f75c3e559b7213887762d5229550c2b","5.69.202.172","Mozilla/5.0 (Windows NT 10.0; Win64; x64) AppleWebKit/537.36 (KHTML, like Gecko) Chrome/138.0.0.0 Safari/537.36","WebKit","Chrome","138.0.0.0","Windows","10.0","https://app.prolific.com/","en-GB,en-US;q=0.9,en;q=0.8","5c4f7b99b33a5300013dbfdd","686e379bc37a29ffa5cdc956","6878053a64ff1b83537ab29e","1","1","5c4f7b99b33a5300013dbfdd","1","1","2025-07-16T20:10:47.633Z","","","","","","","","","","","AttribQ","","50","","","","","","","","","","","","","","","","","","","","","","","","","","","","",""
"9710","","<div style=""width:500px;"">
  <p>How much control did you have over the ball?</p>
  </div>","37","html-slider-response","46","525585","0.0-5.0-2.7","127","1","2025-07-16 20:02:08","1f75c3e559b7213887762d5229550c2b","5.69.202.172","Mozilla/5.0 (Windows NT 10.0; Win64; x64) AppleWebKit/537.36 (KHTML, like Gecko) Chrome/138.0.0.0 Safari/537.36","WebKit","Chrome","138.0.0.0","Windows","10.0","https://app.prolific.com/","en-GB,en-US;q=0.9,en;q=0.8","5c4f7b99b33a5300013dbfdd","686e379bc37a29ffa5cdc956","6878053a64ff1b83537ab29e","1","1","5c4f7b99b33a5300013dbfdd","1","1","2025-07-16T20:10:57.344Z","","","","","","","","","","","ControlQ","","50","","","","","","","","","","","","","","","","","","","","","","","","","","","","",""
"4921","","<div style=""width:500px;"">
  <p>How would you describe your current emotional state?</p>
  </div>","45","html-slider-response","47","530507","0.0-5.0-3.7","127","1","2025-07-16 20:02:08","1f75c3e559b7213887762d5229550c2b","5.69.202.172","Mozilla/5.0 (Windows NT 10.0; Win64; x64) AppleWebKit/537.36 (KHTML, like Gecko) Chrome/138.0.0.0 Safari/537.36","WebKit","Chrome","138.0.0.0","Windows","10.0","https://app.prolific.com/","en-GB,en-US;q=0.9,en;q=0.8","5c4f7b99b33a5300013dbfdd","686e379bc37a29ffa5cdc956","6878053a64ff1b83537ab29e","1","1","5c4f7b99b33a5300013dbfdd","1","1","2025-07-16T20:11:02.266Z","","","","","","","","","","","StressQ","","50","","","","","","","","","","","","","","","","","","","","","","","","","","","","",""
"19964","","<div style=""width:500px;"">
  <p>What best describes how you currently feel?</p>
  </div>","46","html-slider-response","48","550474","0.0-5.0-4.7","127","1","2025-07-16 20:02:08","1f75c3e559b7213887762d5229550c2b","5.69.202.172","Mozilla/5.0 (Windows NT 10.0; Win64; x64) AppleWebKit/537.36 (KHTML, like Gecko) Chrome/138.0.0.0 Safari/537.36","WebKit","Chrome","138.0.0.0","Windows","10.0","https://app.prolific.com/","en-GB,en-US;q=0.9,en;q=0.8","5c4f7b99b33a5300013dbfdd","686e379bc37a29ffa5cdc956","6878053a64ff1b83537ab29e","1","1","5c4f7b99b33a5300013dbfdd","1","1","2025-07-16T20:11:22.233Z","","","","","","","","","","","MotivationQ","","50","","","","","","","","","","","","","","","","","","","","","","","","","","","","",""
"","","","","ctl-task-cpt","49","638862","0.0-5.0-0.8","127","1","2025-07-16 20:02:08","1f75c3e559b7213887762d5229550c2b","5.69.202.172","Mozilla/5.0 (Windows NT 10.0; Win64; x64) AppleWebKit/537.36 (KHTML, like Gecko) Chrome/138.0.0.0 Safari/537.36","WebKit","Chrome","138.0.0.0","Windows","10.0","https://app.prolific.com/","en-GB,en-US;q=0.9,en;q=0.8","5c4f7b99b33a5300013dbfdd","686e379bc37a29ffa5cdc956","6878053a64ff1b83537ab29e","1","1","5c4f7b99b33a5300013dbfdd","1","1","2025-07-16T20:12:50.622Z","","","","","","","","","","","","","","win-only","0","g1:NW,g2:SE","0.2","9","0","554267.5","15898.5","20902.8","85359.3","1","4","4","6","2","-4","-7","0","0","0","1314.4","3000","-1655","[""down"",""right""]","{""num_key_presses"":16,""num_perfect"":2,""num_errors"":3,""num_randdir"":11,""num_randdir_good_moves"":5,""num_whilered"":0,""num_whileblue"":3,""num_blue"":7,""num_good_moves"":9}","[422.49194521222796,414.5232142857143,0.7,422.49194521222796,414.5232142857143,107.1,422.49194521222796,414.5232142857143,211.3,422.49194521222796,414.5232142857143,329.4,422.49194521222796,414.5232142857143,434.8,410.11694521222796,437.8982142857143,541.7,410.11694521222796,437.8982142857143,652.5,509.11694521222796,539.6482142857143,758.6,588.866945212228,589.1482142857143,867.4,627.366945212228,631.7732142857143,975,690.616945212228,692.2732142857143,1076.2,715.366945212228,708.7732142857143,1182,771.741945212228,748.6482142857143,1286.5,771.741945212228,748.6482142857143,1388.8,771.741945212228,748.6482142857143,1504,771.741945212228,748.6482142857143,1607.2,767.616945212228,747.2732142857143,1713.7,760.741945212228,743.1482142857143,1820.3,735.991945212228,725.2732142857143,1923.3,735.991945212228,725.2732142857143,2024.3,734.616945212228,754.8982161930629,2129.9,727.741945212228,843.6482181004116,2237.3,727.741945212228,840.5232171467372,2351.2,727.741945212228,839.1482171467372,2459.5,727.741945212228,839.1482171467372,2565.3,734.616945212228,837.7732171467372,2668.2,734.616945212228,837.7732171467372,2772.5,734.616945212228,837.7732171467372,2877.9,734.616945212228,837.7732171467372,2981.5,734.616945212228,837.7732171467372,3087.4,734.616945212228,837.7732171467372,3193.8,734.616945212228,837.7732171467372,3294.6,734.616945212228,837.7732171467372,3403.6,734.616945212228,837.7732171467372,3512.4,734.616945212228,837.7732171467372,3619.3,734.616945212228,837.7732171467372,3726,734.616945212228,837.7732171467372,3829.6,734.616945212228,837.7732171467372,3933.3,734.616945212228,837.7732171467372,4041.4,734.616945212228,837.7732171467372,4143.7,734.616945212228,837.7732171467372,4247.4,734.616945212228,837.7732171467372,4347.5,734.616945212228,837.7732171467372,4450.4,734.616945212228,837.7732171467372,4551.3,734.616945212228,837.7732171467372,4666.5,734.616945212228,837.7732171467372,4769.3,734.616945212228,837.7732171467372,4876.2,734.616945212228,837.7732171467372,4981.3]","[4956.6,4956.6,2541.7,2013.4,401.5,""smooth"",""down"",""down"",""good_move"",7560,2602.6,2202.7,4957.4,399.9,""oops"",""down"",""up"",""bad_move"",10713.4,3152.1,2816.6,7561.4,335.5,""while_blue"",""down"",""down"",""good_move"",14121.7,3407.9,3036.4,10713.8,371.5,""oops"",""down"",""down"",""good_move"",21034.3,6912.2,2895.9,17770.5,367.9,""while_blue"",""down"",""up"",""bad_move"",23927.2,2892.4,2405.7,21034.8,486.7,""oops"",""right"",""up"",""bad_move"",30474.5,6546.9,2169.8,27788.1,516.7,""smooth"",""down"",""down"",""good_move"",33011.3,2536.2,2042.5,30475.1,493.7,""oops"",""down"",""right"",""good_move"",36529.7,3517.7,2849.3,33012,668.4,""oops"",""down"",""left"",""bad_move"",39849.8,3319.4,2983.1,36530.4,336.3,""oops"",""down"",""left"",""bad_move"",43273.3,3423.1,1949.4,39850.2,1473.7,""oops"",""down"",""up"",""bad_move"",46882.1,3608.5,3291,43273.6,317.5,""oops"",""down"",""right"",""good_move"",53486.8,6604.2,2676.1,50452.5,358.3,""while_blue"",""down"",""down"",""good_move"",56681.3,3194,2767.6,53487.3,426.4,""oops"",""down"",""up"",""bad_move"",59497.1,2815.5,2422.7,56681.6,392.8,""oops"",""down"",""down"",""good_move"",61746.2,2248.7,1474.4,59497.5,774.3,""oops"",""down"",""down"",""good_move""]","",""
"3315","","<div style=""width:500px;"">
  <p>What determined the result of this run?</p>
  </div>","0","html-slider-response","50","642182","0.0-5.0-1.8","127","1","2025-07-16 20:02:08","1f75c3e559b7213887762d5229550c2b","5.69.202.172","Mozilla/5.0 (Windows NT 10.0; Win64; x64) AppleWebKit/537.36 (KHTML, like Gecko) Chrome/138.0.0.0 Safari/537.36","WebKit","Chrome","138.0.0.0","Windows","10.0","https://app.prolific.com/","en-GB,en-US;q=0.9,en;q=0.8","5c4f7b99b33a5300013dbfdd","686e379bc37a29ffa5cdc956","6878053a64ff1b83537ab29e","1","1","5c4f7b99b33a5300013dbfdd","1","1","2025-07-16T20:12:53.941Z","","","","","","","","","","","AttribQ","","50","","","","","","","","","","","","","","","","","","","","","","","","","","","","",""
"2536","","<div style=""width:500px;"">
  <p>How much control did you have over the ball?</p>
  </div>","0","html-slider-response","51","644720","0.0-5.0-2.8","127","1","2025-07-16 20:02:08","1f75c3e559b7213887762d5229550c2b","5.69.202.172","Mozilla/5.0 (Windows NT 10.0; Win64; x64) AppleWebKit/537.36 (KHTML, like Gecko) Chrome/138.0.0.0 Safari/537.36","WebKit","Chrome","138.0.0.0","Windows","10.0","https://app.prolific.com/","en-GB,en-US;q=0.9,en;q=0.8","5c4f7b99b33a5300013dbfdd","686e379bc37a29ffa5cdc956","6878053a64ff1b83537ab29e","1","1","5c4f7b99b33a5300013dbfdd","1","1","2025-07-16T20:12:56.479Z","","","","","","","","","","","ControlQ","","50","","","","","","","","","","","","","","","","","","","","","","","","","","","","",""
"2712","","<div style=""width:500px;"">
  <p>How would you describe your current emotional state?</p>
  </div>","100","html-slider-response","52","647434","0.0-5.0-3.8","127","1","2025-07-16 20:02:08","1f75c3e559b7213887762d5229550c2b","5.69.202.172","Mozilla/5.0 (Windows NT 10.0; Win64; x64) AppleWebKit/537.36 (KHTML, like Gecko) Chrome/138.0.0.0 Safari/537.36","WebKit","Chrome","138.0.0.0","Windows","10.0","https://app.prolific.com/","en-GB,en-US;q=0.9,en;q=0.8","5c4f7b99b33a5300013dbfdd","686e379bc37a29ffa5cdc956","6878053a64ff1b83537ab29e","1","1","5c4f7b99b33a5300013dbfdd","1","1","2025-07-16T20:12:59.193Z","","","","","","","","","","","StressQ","","50","","","","","","","","","","","","","","","","","","","","","","","","","","","","",""
"1867","","<div style=""width:500px;"">
  <p>What best describes how you currently feel?</p>
  </div>","0","html-slider-response","53","649303","0.0-5.0-4.8","127","1","2025-07-16 20:02:08","1f75c3e559b7213887762d5229550c2b","5.69.202.172","Mozilla/5.0 (Windows NT 10.0; Win64; x64) AppleWebKit/537.36 (KHTML, like Gecko) Chrome/138.0.0.0 Safari/537.36","WebKit","Chrome","138.0.0.0","Windows","10.0","https://app.prolific.com/","en-GB,en-US;q=0.9,en;q=0.8","5c4f7b99b33a5300013dbfdd","686e379bc37a29ffa5cdc956","6878053a64ff1b83537ab29e","1","1","5c4f7b99b33a5300013dbfdd","1","1","2025-07-16T20:13:01.062Z","","","","","","","","","","","MotivationQ","","50","","","","","","","","","","","","","","","","","","","","","","","","","","","","",""
"","","","","ctl-task-cpt","54","707977","0.0-5.0-0.9","127","1","2025-07-16 20:02:08","1f75c3e559b7213887762d5229550c2b","5.69.202.172","Mozilla/5.0 (Windows NT 10.0; Win64; x64) AppleWebKit/537.36 (KHTML, like Gecko) Chrome/138.0.0.0 Safari/537.36","WebKit","Chrome","138.0.0.0","Windows","10.0","https://app.prolific.com/","en-GB,en-US;q=0.9,en;q=0.8","5c4f7b99b33a5300013dbfdd","686e379bc37a29ffa5cdc956","6878053a64ff1b83537ab29e","1","1","5c4f7b99b33a5300013dbfdd","1","1","2025-07-16T20:13:59.736Z","","","","","","","","","","","","","","win-only","1","g1:NE,g2:SW","0.4","10","0","653093.3","1301.8","6302.5","55658.6","1","4","8","6","2","8","5","5","0","0.03787878787878788","863.6","3000","425","[""down"",""left""]","{""num_key_presses"":16,""num_perfect"":6,""num_errors"":3,""num_randdir"":7,""num_randdir_good_moves"":4,""num_whilered"":0,""num_whileblue"":3,""num_blue"":4,""num_good_moves"":11}","[328.60803189958847,332.5299085685185,0.7,328.60803189958847,332.5299085685185,113,328.60803189958847,332.5299085685185,217.9,328.60803189958847,332.5299085685185,325,420.73303189958847,269.2799085685185,432.2,303.85803189958847,338.0299085685185,542.4,48.10803189958845,584.1549085685185,647.8,46.73303189958845,610.2799085685185,754.7,53.60803189958845,618.5299085685185,869.9,53.60803189958845,619.9049085685185,971.6,68.73303189958844,617.1549085685185,1075.2,974.8580318995885,386.1549085685185,1181.1,1286.9830318995885,426.0299085685185,1283.9,1286.9830318995885,426.0299085685185,1385.5,1286.9830318995885,426.0299085685185,1488.2,1286.9830318995885,426.0299085685185,1593.2,1286.9830318995885,426.0299085685185,1698,1286.9830318995885,426.0299085685185,1803.7,1286.9830318995885,426.0299085685185,1909.9,1286.9830318995885,426.0299085685185,2014.4,1286.9830318995885,426.0299085685185,2121.7,1286.9830318995885,426.0299085685185,2221.9,1286.9830318995885,426.0299085685185,2321.9,1286.9830318995885,426.0299085685185,2425.8,1286.9830318995885,426.0299085685185,2527.7,1286.9830318995885,426.0299085685185,2636.1,1286.9830318995885,426.0299085685185,2737.2,1286.9830318995885,426.0299085685185,2838.7,1286.9830318995885,426.0299085685185,2941.6,1286.9830318995885,426.0299085685185,3043,1286.9830318995885,426.0299085685185,3149.3,1286.9830318995885,426.0299085685185,3255.3,1286.9830318995885,426.0299085685185,3363.1,1286.9830318995885,426.0299085685185,3466.3,1286.9830318995885,426.0299085685185,3575.2,1286.9830318995885,426.0299085685185,3678.6,1286.9830318995885,426.0299085685185,3782.2,1286.9830318995885,426.0299085685185,3882.6,1286.9830318995885,426.0299085685185,3992.4,1286.9830318995885,426.0299085685185,4107.5,1286.9830318995885,426.0299085685185,4210,1286.9830318995885,426.0299085685185,4314.3,1286.9830318995885,426.0299085685185,4414.6,1286.9830318995885,426.0299085685185,4518.2,1286.9830318995885,426.0299085685185,4619.6,1286.9830318995885,426.0299085685185,4721.3,1286.9830318995885,426.0299085685185,4828.2,1286.9830318995885,426.0299085685185,4933.2]","[1384.3,1384.3,1000,0,384.3,""oops"",""down"",""left"",""good_move"",4592.9,3208.2,2869.4,1384.7,338.8,""oops"",""down"",""right"",""bad_move"",7640.7,3046.9,2713.5,4593.9,333.3,""oops"",""down"",""left"",""good_move"",10207.7,2566.5,2238.8,7641.2,327.7,""while_blue"",""down"",""up"",""bad_move"",12845.6,2637.4,2195.7,10208.4,441.6,""oops"",""down"",""right"",""bad_move"",19512.1,6666,2873.5,16248.6,390,""oops"",""down"",""up"",""bad_move"",23497.5,3985.2,3594.5,19512.3,390.7,""smooth"",""down"",""down"",""good_move"",26037.8,2539.2,2090.1,23498.6,449.1,""smooth"",""down"",""down"",""good_move"",28369.4,2331.2,2018.3,26038.2,312.9,""oops"",""down"",""left"",""good_move"",30809.8,2438.8,2068.4,28371,370.4,""smooth"",""down"",""down"",""good_move"",33938.4,3128,2741,30810.4,387,""while_blue"",""down"",""up"",""bad_move"",36928.1,2988.5,2641.5,33939.7,346.9,""smooth"",""down"",""down"",""good_move"",40120.5,3191.5,2849.3,36929.1,342.1,""oops"",""down"",""left"",""good_move"",42995.9,2874.8,2533.3,40121.1,341.5,""smooth"",""down"",""down"",""good_move"",45880.1,2883.3,2567.5,42996.8,315.8,""smooth"",""down"",""down"",""good_move"",49095.6,3215,2914.4,45880.6,300.6,""while_blue"",""left"",""left"",""good_move""]","",""
"3121","","<div style=""width:500px;"">
  <p>What determined the result of this run?</p>
  </div>","0","html-slider-response","55","711100","0.0-5.0-1.9","127","1","2025-07-16 20:02:08","1f75c3e559b7213887762d5229550c2b","5.69.202.172","Mozilla/5.0 (Windows NT 10.0; Win64; x64) AppleWebKit/537.36 (KHTML, like Gecko) Chrome/138.0.0.0 Safari/537.36","WebKit","Chrome","138.0.0.0","Windows","10.0","https://app.prolific.com/","en-GB,en-US;q=0.9,en;q=0.8","5c4f7b99b33a5300013dbfdd","686e379bc37a29ffa5cdc956","6878053a64ff1b83537ab29e","1","1","5c4f7b99b33a5300013dbfdd","1","1","2025-07-16T20:14:02.859Z","","","","","","","","","","","AttribQ","","50","","","","","","","","","","","","","","","","","","","","","","","","","","","","",""
"2765","","<div style=""width:500px;"">
  <p>How much control did you have over the ball?</p>
  </div>","23","html-slider-response","56","713867","0.0-5.0-2.9","127","1","2025-07-16 20:02:08","1f75c3e559b7213887762d5229550c2b","5.69.202.172","Mozilla/5.0 (Windows NT 10.0; Win64; x64) AppleWebKit/537.36 (KHTML, like Gecko) Chrome/138.0.0.0 Safari/537.36","WebKit","Chrome","138.0.0.0","Windows","10.0","https://app.prolific.com/","en-GB,en-US;q=0.9,en;q=0.8","5c4f7b99b33a5300013dbfdd","686e379bc37a29ffa5cdc956","6878053a64ff1b83537ab29e","1","1","5c4f7b99b33a5300013dbfdd","1","1","2025-07-16T20:14:05.626Z","","","","","","","","","","","ControlQ","","50","","","","","","","","","","","","","","","","","","","","","","","","","","","","",""
"2326","","<div style=""width:500px;"">
  <p>How would you describe your current emotional state?</p>
  </div>","100","html-slider-response","57","716195","0.0-5.0-3.9","127","1","2025-07-16 20:02:08","1f75c3e559b7213887762d5229550c2b","5.69.202.172","Mozilla/5.0 (Windows NT 10.0; Win64; x64) AppleWebKit/537.36 (KHTML, like Gecko) Chrome/138.0.0.0 Safari/537.36","WebKit","Chrome","138.0.0.0","Windows","10.0","https://app.prolific.com/","en-GB,en-US;q=0.9,en;q=0.8","5c4f7b99b33a5300013dbfdd","686e379bc37a29ffa5cdc956","6878053a64ff1b83537ab29e","1","1","5c4f7b99b33a5300013dbfdd","1","1","2025-07-16T20:14:07.955Z","","","","","","","","","","","StressQ","","50","","","","","","","","","","","","","","","","","","","","","","","","","","","","",""
"2161","","<div style=""width:500px;"">
  <p>What best describes how you currently feel?</p>
  </div>","0","html-slider-response","58","718358","0.0-5.0-4.9","127","1","2025-07-16 20:02:08","1f75c3e559b7213887762d5229550c2b","5.69.202.172","Mozilla/5.0 (Windows NT 10.0; Win64; x64) AppleWebKit/537.36 (KHTML, like Gecko) Chrome/138.0.0.0 Safari/537.36","WebKit","Chrome","138.0.0.0","Windows","10.0","https://app.prolific.com/","en-GB,en-US;q=0.9,en;q=0.8","5c4f7b99b33a5300013dbfdd","686e379bc37a29ffa5cdc956","6878053a64ff1b83537ab29e","1","1","5c4f7b99b33a5300013dbfdd","1","1","2025-07-16T20:14:10.118Z","","","","","","","","","","","MotivationQ","","50","","","","","","","","","","","","","","","","","","","","","","","","","","","","",""
"","","","","ctl-task-cpt","59","756407","0.0-5.0-0.10","127","1","2025-07-16 20:02:08","1f75c3e559b7213887762d5229550c2b","5.69.202.172","Mozilla/5.0 (Windows NT 10.0; Win64; x64) AppleWebKit/537.36 (KHTML, like Gecko) Chrome/138.0.0.0 Safari/537.36","WebKit","Chrome","138.0.0.0","Windows","10.0","https://app.prolific.com/","en-GB,en-US;q=0.9,en;q=0.8","5c4f7b99b33a5300013dbfdd","686e379bc37a29ffa5cdc956","6878053a64ff1b83537ab29e","1","1","5c4f7b99b33a5300013dbfdd","1","1","2025-07-16T20:14:48.166Z","","","","","","","","","","","","","","win-only","0","g1:NW,g2:SE","0.5","11","0","722150.3","1246.9","6251.3","35031.4","1","4","4","6","2","4","4","9","5","0.06818181818181818","849.7","3000","1285","[""down"",""right""]","{""num_key_presses"":10,""num_perfect"":5,""num_errors"":0,""num_randdir"":5,""num_randdir_good_moves"":3,""num_whilered"":0,""num_whileblue"":0,""num_blue"":0,""num_good_moves"":8}","[328.60803189958847,324.2799085685185,0.3,328.60803189958847,324.2799085685185,104.9,328.60803189958847,324.2799085685185,207.3,328.60803189958847,332.5299085685185,311.1,343.73303189958847,354.5299085685185,415.3,384.98303189958847,432.9049085685185,516.4,515.6080318995885,522.2799085685185,618.5,581.6080318995885,588.2799085685185,727.7,593.9830318995885,599.2799085685185,864.5,593.9830318995885,599.2799085685185,965.5,823.6080318995885,640.5299085685185,1066.6,1227.8580318995885,749.1549085685185,1177.3,1227.8580318995885,749.1549085685185,1285.6,1227.8580318995885,749.1549085685185,1387,1227.8580318995885,749.1549085685185,1495.6,1227.8580318995885,749.1549085685185,1604.1,1227.8580318995885,749.1549085685185,1714.8,1227.8580318995885,749.1549085685185,1824.8,1227.8580318995885,749.1549085685185,1936.2,1227.8580318995885,749.1549085685185,2040,1227.8580318995885,749.1549085685185,2140.3,1227.8580318995885,749.1549085685185,2244.5,1227.8580318995885,749.1549085685185,2349.2,1227.8580318995885,749.1549085685185,2451.9,1227.8580318995885,749.1549085685185,2554.5,1227.8580318995885,749.1549085685185,2661.7,1227.8580318995885,749.1549085685185,2763,1227.8580318995885,749.1549085685185,2866,1227.8580318995885,749.1549085685185,2982.8,1227.8580318995885,749.1549085685185,3083.6,1227.8580318995885,749.1549085685185,3199.7,1227.8580318995885,749.1549085685185,3314.1,1227.8580318995885,749.1549085685185,3428,1227.8580318995885,749.1549085685185,3536.5,1227.8580318995885,749.1549085685185,3639.7,1227.8580318995885,749.1549085685185,3743.7,1227.8580318995885,749.1549085685185,3845.6,1227.8580318995885,749.1549085685185,3951.9,1227.8580318995885,749.1549085685185,4053.8,1227.8580318995885,749.1549085685185,4156.9,1227.8580318995885,749.1549085685185,4261.4,1227.8580318995885,749.1549085685185,4366.4,1227.8580318995885,749.1549085685185,4476.7,1227.8580318995885,749.1549085685185,4582.2,1227.8580318995885,749.1549085685185,4682.6,1227.8580318995885,749.1549085685185,4789.3,1227.8580318995885,749.1549085685185,4892.9,1227.8580318995885,749.1549085685185,4997.2]","[1530.5,1530.5,1000,0,530.5,""oops"",""right"",""down"",""good_move"",4354.1,2823,2482.4,1531.2,340.6,""oops"",""right"",""up"",""bad_move"",7203,2848.1,2476.8,4354.9,371.3,""smooth"",""right"",""right"",""good_move"",11203,3999.4,3601,7203.6,398.4,""oops"",""down"",""down"",""good_move"",15043.4,3839.6,3456.2,11203.8,383.4,""oops"",""right"",""up"",""bad_move"",18210.2,3166.4,2769.9,15043.8,396.5,""smooth"",""right"",""right"",""good_move"",21274,3063.6,2741.5,18210.5,322.1,""smooth"",""right"",""right"",""good_move"",23537.5,2262.9,1725.6,21274.6,537.3,""smooth"",""down"",""down"",""good_move"",25882.3,2344.5,1984,23537.8,360.5,""oops"",""down"",""down"",""good_move"",28603.3,2720.6,2374.2,25882.7,346.4,""smooth"",""down"",""down"",""good_move""]","",""
"3598","","<div style=""width:500px;"">
  <p>What determined the result of this run?</p>
  </div>","0","html-slider-response","60","760007","0.0-5.0-1.10","127","1","2025-07-16 20:02:08","1f75c3e559b7213887762d5229550c2b","5.69.202.172","Mozilla/5.0 (Windows NT 10.0; Win64; x64) AppleWebKit/537.36 (KHTML, like Gecko) Chrome/138.0.0.0 Safari/537.36","WebKit","Chrome","138.0.0.0","Windows","10.0","https://app.prolific.com/","en-GB,en-US;q=0.9,en;q=0.8","5c4f7b99b33a5300013dbfdd","686e379bc37a29ffa5cdc956","6878053a64ff1b83537ab29e","1","1","5c4f7b99b33a5300013dbfdd","1","1","2025-07-16T20:14:51.766Z","","","","","","","","","","","AttribQ","","50","","","","","","","","","","","","","","","","","","","","","","","","","","","","",""
"3328","","<div style=""width:500px;"">
  <p>How much control did you have over the ball?</p>
  </div>","77","html-slider-response","61","763336","0.0-5.0-2.10","127","1","2025-07-16 20:02:08","1f75c3e559b7213887762d5229550c2b","5.69.202.172","Mozilla/5.0 (Windows NT 10.0; Win64; x64) AppleWebKit/537.36 (KHTML, like Gecko) Chrome/138.0.0.0 Safari/537.36","WebKit","Chrome","138.0.0.0","Windows","10.0","https://app.prolific.com/","en-GB,en-US;q=0.9,en;q=0.8","5c4f7b99b33a5300013dbfdd","686e379bc37a29ffa5cdc956","6878053a64ff1b83537ab29e","1","1","5c4f7b99b33a5300013dbfdd","1","1","2025-07-16T20:14:55.095Z","","","","","","","","","","","ControlQ","","50","","","","","","","","","","","","","","","","","","","","","","","","","","","","",""
"2332","","<div style=""width:500px;"">
  <p>How would you describe your current emotional state?</p>
  </div>","100","html-slider-response","62","765671","0.0-5.0-3.10","127","1","2025-07-16 20:02:08","1f75c3e559b7213887762d5229550c2b","5.69.202.172","Mozilla/5.0 (Windows NT 10.0; Win64; x64) AppleWebKit/537.36 (KHTML, like Gecko) Chrome/138.0.0.0 Safari/537.36","WebKit","Chrome","138.0.0.0","Windows","10.0","https://app.prolific.com/","en-GB,en-US;q=0.9,en;q=0.8","5c4f7b99b33a5300013dbfdd","686e379bc37a29ffa5cdc956","6878053a64ff1b83537ab29e","1","1","5c4f7b99b33a5300013dbfdd","1","1","2025-07-16T20:14:57.430Z","","","","","","","","","","","StressQ","","50","","","","","","","","","","","","","","","","","","","","","","","","","","","","",""
"1872","","<div style=""width:500px;"">
  <p>What best describes how you currently feel?</p>
  </div>","0","html-slider-response","63","767545","0.0-5.0-4.10","127","1","2025-07-16 20:02:08","1f75c3e559b7213887762d5229550c2b","5.69.202.172","Mozilla/5.0 (Windows NT 10.0; Win64; x64) AppleWebKit/537.36 (KHTML, like Gecko) Chrome/138.0.0.0 Safari/537.36","WebKit","Chrome","138.0.0.0","Windows","10.0","https://app.prolific.com/","en-GB,en-US;q=0.9,en;q=0.8","5c4f7b99b33a5300013dbfdd","686e379bc37a29ffa5cdc956","6878053a64ff1b83537ab29e","1","1","5c4f7b99b33a5300013dbfdd","1","1","2025-07-16T20:14:59.304Z","","","","","","","","","","","MotivationQ","","50","","","","","","","","","","","","","","","","","","","","","","","","","","","","",""
"","","","","ctl-task-cpt","64","812587","0.0-5.0-0.11","127","1","2025-07-16 20:02:08","1f75c3e559b7213887762d5229550c2b","5.69.202.172","Mozilla/5.0 (Windows NT 10.0; Win64; x64) AppleWebKit/537.36 (KHTML, like Gecko) Chrome/138.0.0.0 Safari/537.36","WebKit","Chrome","138.0.0.0","Windows","10.0","https://app.prolific.com/","en-GB,en-US;q=0.9,en;q=0.8","5c4f7b99b33a5300013dbfdd","686e379bc37a29ffa5cdc956","6878053a64ff1b83537ab29e","1","1","5c4f7b99b33a5300013dbfdd","1","1","2025-07-16T20:15:44.346Z","","","","","","","","","","","","","","win-only","3","g1:SW,g2:NE","0.6","12","0","771335.9","875.5","5885.7","42012.4","1","4","8","6","2","8","7","16","9","0.12121212121212122","883.3","3000","1455","[""up"",""right""]","{""num_key_presses"":13,""num_perfect"":7,""num_errors"":1,""num_randdir"":5,""num_randdir_good_moves"":3,""num_whilered"":0,""num_whileblue"":0,""num_blue"":0,""num_good_moves"":9}","[324.48303189958847,329.7799085685185,0.2,324.48303189958847,329.7799085685185,104.4,324.48303189958847,329.7799085685185,223.9,323.10803189958847,331.1549085685185,326.1,409.73303189958847,327.0299085685185,442,544.4830318995885,141.4049085685185,562.5,551.3580318995885,75.4049085685185,668.8,569.2330318995885,76.7799085685185,769.4,632.4830318995885,71.2799085685185,890.1,632.4830318995885,71.2799085685185,1000.5,639.3580318995885,85.0299085685185,1100.7,855.2330318995885,366.9049085685185,1205.6,948.7330318995885,456.2799085685185,1306.3,948.7330318995885,456.2799085685185,1412.4,948.7330318995885,456.2799085685185,1520.4,948.7330318995885,456.2799085685185,1622.9,948.7330318995885,456.2799085685185,1737.2,948.7330318995885,456.2799085685185,1838.2,948.7330318995885,456.2799085685185,1944.1,948.7330318995885,456.2799085685185,2046.4,948.7330318995885,456.2799085685185,2147.1,948.7330318995885,456.2799085685185,2254.5,948.7330318995885,456.2799085685185,2362.8,948.7330318995885,456.2799085685185,2463.3,948.7330318995885,456.2799085685185,2565.2,948.7330318995885,456.2799085685185,2674,948.7330318995885,456.2799085685185,2778.5,948.7330318995885,456.2799085685185,2882.4,948.7330318995885,456.2799085685185,2987.9,948.7330318995885,456.2799085685185,3088.5,948.7330318995885,456.2799085685185,3191.3,948.7330318995885,456.2799085685185,3291.7,948.7330318995885,456.2799085685185,3398.4,948.7330318995885,456.2799085685185,3500.3,948.7330318995885,456.2799085685185,3601.3,948.7330318995885,456.2799085685185,3704.5,948.7330318995885,456.2799085685185,3807,948.7330318995885,456.2799085685185,3921,948.7330318995885,456.2799085685185,4022.2,948.7330318995885,456.2799085685185,4123.9,948.7330318995885,456.2799085685185,4232.4,948.7330318995885,456.2799085685185,4332.5,948.7330318995885,456.2799085685185,4433.1,948.7330318995885,456.2799085685185,4534.1,948.7330318995885,456.2799085685185,4637.2,948.7330318995885,456.2799085685185,4737.8,948.7330318995885,456.2799085685185,4839.8,948.7330318995885,456.2799085685185,4946.5]","[1376.7,1376.8,1000,0,376.8,""smooth"",""up"",""up"",""good_move"",4502.1,3124.1,2776.1,1378,348,""smooth"",""up"",""up"",""good_move"",7471,2968.6,2656.9,4502.4,311.7,""smooth"",""right"",""right"",""good_move"",10303.4,2831,2507.5,7472.5,323.4,""oops"",""right"",""right"",""good_move"",12854.9,2551,2199.5,10303.9,351.5,""smooth"",""up"",""up"",""good_move"",15646.2,2790.9,2214.3,12855.3,576.6,""oops"",""right"",""down"",""bad_move"",19302.1,3655.4,3363.6,15646.7,291.8,""smooth"",""right"",""right"",""good_move"",22071.4,2769,2473.7,19302.4,295.3,""smooth"",""right"",""down"",""bad_move"",22173.6,101.9,2186.1,22071.7,-2084.2,""error"",""-"",""-"",""no_move"",26662.1,4488.1,3121.4,23185.1,355.6,""oops"",""up"",""down"",""bad_move"",29551.3,2889,2533.8,26662.4,355.1,""oops"",""up"",""up"",""good_move"",32901.6,3349.7,3058,29551.9,291.7,""smooth"",""up"",""up"",""good_move"",35782.4,2880.4,2188.9,32902,691.5,""oops"",""up"",""up"",""good_move""]","",""
"1895","","<div style=""width:500px;"">
  <p>What determined the result of this run?</p>
  </div>","0","html-slider-response","65","814485","0.0-5.0-1.11","127","1","2025-07-16 20:02:08","1f75c3e559b7213887762d5229550c2b","5.69.202.172","Mozilla/5.0 (Windows NT 10.0; Win64; x64) AppleWebKit/537.36 (KHTML, like Gecko) Chrome/138.0.0.0 Safari/537.36","WebKit","Chrome","138.0.0.0","Windows","10.0","https://app.prolific.com/","en-GB,en-US;q=0.9,en;q=0.8","5c4f7b99b33a5300013dbfdd","686e379bc37a29ffa5cdc956","6878053a64ff1b83537ab29e","1","1","5c4f7b99b33a5300013dbfdd","1","1","2025-07-16T20:15:46.244Z","","","","","","","","","","","AttribQ","","50","","","","","","","","","","","","","","","","","","","","","","","","","","","","",""
"2536","","<div style=""width:500px;"">
  <p>How much control did you have over the ball?</p>
  </div>","84","html-slider-response","66","817023","0.0-5.0-2.11","127","1","2025-07-16 20:02:08","1f75c3e559b7213887762d5229550c2b","5.69.202.172","Mozilla/5.0 (Windows NT 10.0; Win64; x64) AppleWebKit/537.36 (KHTML, like Gecko) Chrome/138.0.0.0 Safari/537.36","WebKit","Chrome","138.0.0.0","Windows","10.0","https://app.prolific.com/","en-GB,en-US;q=0.9,en;q=0.8","5c4f7b99b33a5300013dbfdd","686e379bc37a29ffa5cdc956","6878053a64ff1b83537ab29e","1","1","5c4f7b99b33a5300013dbfdd","1","1","2025-07-16T20:15:48.782Z","","","","","","","","","","","ControlQ","","50","","","","","","","","","","","","","","","","","","","","","","","","","","","","",""
"2125","","<div style=""width:500px;"">
  <p>How would you describe your current emotional state?</p>
  </div>","100","html-slider-response","67","819151","0.0-5.0-3.11","127","1","2025-07-16 20:02:08","1f75c3e559b7213887762d5229550c2b","5.69.202.172","Mozilla/5.0 (Windows NT 10.0; Win64; x64) AppleWebKit/537.36 (KHTML, like Gecko) Chrome/138.0.0.0 Safari/537.36","WebKit","Chrome","138.0.0.0","Windows","10.0","https://app.prolific.com/","en-GB,en-US;q=0.9,en;q=0.8","5c4f7b99b33a5300013dbfdd","686e379bc37a29ffa5cdc956","6878053a64ff1b83537ab29e","1","1","5c4f7b99b33a5300013dbfdd","1","1","2025-07-16T20:15:50.910Z","","","","","","","","","","","StressQ","","50","","","","","","","","","","","","","","","","","","","","","","","","","","","","",""
"2227","","<div style=""width:500px;"">
  <p>What best describes how you currently feel?</p>
  </div>","0","html-slider-response","68","821379","0.0-5.0-4.11","127","1","2025-07-16 20:02:08","1f75c3e559b7213887762d5229550c2b","5.69.202.172","Mozilla/5.0 (Windows NT 10.0; Win64; x64) AppleWebKit/537.36 (KHTML, like Gecko) Chrome/138.0.0.0 Safari/537.36","WebKit","Chrome","138.0.0.0","Windows","10.0","https://app.prolific.com/","en-GB,en-US;q=0.9,en;q=0.8","5c4f7b99b33a5300013dbfdd","686e379bc37a29ffa5cdc956","6878053a64ff1b83537ab29e","1","1","5c4f7b99b33a5300013dbfdd","1","1","2025-07-16T20:15:53.138Z","","","","","","","","","","","MotivationQ","","50","","","","","","","","","","","","","","","","","","","","","","","","","","","","",""
"","","","","ctl-task-cpt","69","848512","0.0-5.0-0.12","127","1","2025-07-16 20:02:08","1f75c3e559b7213887762d5229550c2b","5.69.202.172","Mozilla/5.0 (Windows NT 10.0; Win64; x64) AppleWebKit/537.36 (KHTML, like Gecko) Chrome/138.0.0.0 Safari/537.36","WebKit","Chrome","138.0.0.0","Windows","10.0","https://app.prolific.com/","en-GB,en-US;q=0.9,en;q=0.8","5c4f7b99b33a5300013dbfdd","686e379bc37a29ffa5cdc956","6878053a64ff1b83537ab29e","1","1","5c4f7b99b33a5300013dbfdd","1","1","2025-07-16T20:16:20.271Z","","","","","","","","","","","","","","win-only","1","g1:NE,g2:SW","0.7","13","0","825169.2","1727.8","6732.9","24100","1","4","8","6","2","8","8","24","16","0.18181818181818182","1183.1","3000","2115","[""down"",""left""]","{""num_key_presses"":6,""num_perfect"":5,""num_errors"":0,""num_randdir"":1,""num_randdir_good_moves"":1,""num_whilered"":0,""num_whileblue"":0,""num_blue"":0,""num_good_moves"":6}","[328.60803189958847,328.4049085685185,0.4,328.60803189958847,328.4049085685185,102.6,328.60803189958847,328.4049085685185,208.1,328.60803189958847,328.4049085685185,312.3,328.60803189958847,329.7799085685185,414.5,185.60803189958844,437.0299085685185,521.7,144.35803189958844,492.0299085685185,622.9,126.48303189958844,526.4049085685185,733.6,140.23303189958844,575.9049085685185,837.1,114.10803189958844,602.0299085685185,962.5,100.35803189958844,596.5299085685185,1067.1,64.60803189958844,575.9049085685185,1172.2,64.60803189958844,575.9049085685185,1273.6,68.73303189958844,575.9049085685185,1378.1,585.7330318995885,585.5299085685185,1479.6,626.9830318995885,591.0299085685185,1583.9,626.9830318995885,591.0299085685185,1694,626.9830318995885,591.0299085685185,1794.1,626.9830318995885,591.0299085685185,1897,626.9830318995885,591.0299085685185,2003.6,626.9830318995885,591.0299085685185,2108.4,626.9830318995885,591.0299085685185,2209.2,626.9830318995885,591.0299085685185,2311.6,626.9830318995885,591.0299085685185,2413,626.9830318995885,591.0299085685185,2522.2,626.9830318995885,591.0299085685185,2627,626.9830318995885,591.0299085685185,2731.6,626.9830318995885,591.0299085685185,2833.3,626.9830318995885,591.0299085685185,2938.1,626.9830318995885,591.0299085685185,3046.6,626.9830318995885,591.0299085685185,3152.5,626.9830318995885,591.0299085685185,3259.2,626.9830318995885,591.0299085685185,3367.2,626.9830318995885,591.0299085685185,3474,626.9830318995885,591.0299085685185,3580.1,626.9830318995885,591.0299085685185,3685.6,626.9830318995885,591.0299085685185,3792.6,626.9830318995885,591.0299085685185,3896.7,626.9830318995885,591.0299085685185,4004,626.9830318995885,591.0299085685185,4104,626.9830318995885,591.0299085685185,4204.3,626.9830318995885,591.0299085685185,4311,626.9830318995885,591.0299085685185,4413,626.9830318995885,591.0299085685185,4516.5,626.9830318995885,591.0299085685185,4616.9,626.9830318995885,591.0299085685185,4719.6,626.9830318995885,591.0299085685185,4826.8,626.9830318995885,591.0299085685185,4929.7]","[1535.5,1535.5,1000,0,535.5,""oops"",""down"",""left"",""good_move"",4229.7,2693.6,2284.7,1536.1,408.9,""smooth"",""down"",""down"",""good_move"",7230.4,3000.1,2640.1,4230.3,360,""smooth"",""down"",""down"",""good_move"",10614,3383.3,3003.8,7230.7,379.5,""smooth"",""down"",""down"",""good_move"",14150.5,3536.1,3196.2,10614.4,339.9,""smooth"",""left"",""left"",""good_move"",17157.7,3006.9,2697.4,14150.8,309.5,""smooth"",""left"",""left"",""good_move""]","",""
"1685","","<div style=""width:500px;"">
  <p>What determined the result of this run?</p>
  </div>","0","html-slider-response","70","850198","0.0-5.0-1.12","127","1","2025-07-16 20:02:08","1f75c3e559b7213887762d5229550c2b","5.69.202.172","Mozilla/5.0 (Windows NT 10.0; Win64; x64) AppleWebKit/537.36 (KHTML, like Gecko) Chrome/138.0.0.0 Safari/537.36","WebKit","Chrome","138.0.0.0","Windows","10.0","https://app.prolific.com/","en-GB,en-US;q=0.9,en;q=0.8","5c4f7b99b33a5300013dbfdd","686e379bc37a29ffa5cdc956","6878053a64ff1b83537ab29e","1","1","5c4f7b99b33a5300013dbfdd","1","1","2025-07-16T20:16:21.957Z","","","","","","","","","","","AttribQ","","50","","","","","","","","","","","","","","","","","","","","","","","","","","","","",""
"2552","","<div style=""width:500px;"">
  <p>How much control did you have over the ball?</p>
  </div>","95","html-slider-response","71","852752","0.0-5.0-2.12","127","1","2025-07-16 20:02:08","1f75c3e559b7213887762d5229550c2b","5.69.202.172","Mozilla/5.0 (Windows NT 10.0; Win64; x64) AppleWebKit/537.36 (KHTML, like Gecko) Chrome/138.0.0.0 Safari/537.36","WebKit","Chrome","138.0.0.0","Windows","10.0","https://app.prolific.com/","en-GB,en-US;q=0.9,en;q=0.8","5c4f7b99b33a5300013dbfdd","686e379bc37a29ffa5cdc956","6878053a64ff1b83537ab29e","1","1","5c4f7b99b33a5300013dbfdd","1","1","2025-07-16T20:16:24.511Z","","","","","","","","","","","ControlQ","","50","","","","","","","","","","","","","","","","","","","","","","","","","","","","",""
"2000","","<div style=""width:500px;"">
  <p>How would you describe your current emotional state?</p>
  </div>","100","html-slider-response","72","854754","0.0-5.0-3.12","127","1","2025-07-16 20:02:08","1f75c3e559b7213887762d5229550c2b","5.69.202.172","Mozilla/5.0 (Windows NT 10.0; Win64; x64) AppleWebKit/537.36 (KHTML, like Gecko) Chrome/138.0.0.0 Safari/537.36","WebKit","Chrome","138.0.0.0","Windows","10.0","https://app.prolific.com/","en-GB,en-US;q=0.9,en;q=0.8","5c4f7b99b33a5300013dbfdd","686e379bc37a29ffa5cdc956","6878053a64ff1b83537ab29e","1","1","5c4f7b99b33a5300013dbfdd","1","1","2025-07-16T20:16:26.514Z","","","","","","","","","","","StressQ","","50","","","","","","","","","","","","","","","","","","","","","","","","","","","","",""
"1740","","<div style=""width:500px;"">
  <p>What best describes how you currently feel?</p>
  </div>","0","html-slider-response","73","856496","0.0-5.0-4.12","127","1","2025-07-16 20:02:08","1f75c3e559b7213887762d5229550c2b","5.69.202.172","Mozilla/5.0 (Windows NT 10.0; Win64; x64) AppleWebKit/537.36 (KHTML, like Gecko) Chrome/138.0.0.0 Safari/537.36","WebKit","Chrome","138.0.0.0","Windows","10.0","https://app.prolific.com/","en-GB,en-US;q=0.9,en;q=0.8","5c4f7b99b33a5300013dbfdd","686e379bc37a29ffa5cdc956","6878053a64ff1b83537ab29e","1","1","5c4f7b99b33a5300013dbfdd","1","1","2025-07-16T20:16:28.256Z","","","","","","","","","","","MotivationQ","","50","","","","","","","","","","","","","","","","","","","","","","","","","","","","",""
