"rt","response_timestamp","stimulus","response","trial_type","trial_index","time_elapsed","internal_node_id","run_id","condition","recorded_at","source_code_version","ip","user_agent","device","browser","browser_version","platform","platform_version","referer","accept_language","PROLIFIC_PID","STUDY_ID","SESSION_ID","WEEK","BATCH","prolific_id","week","batch","realtime","success","responses","item_order","radio_event_ids","radio_event_times","key_event_times","mouse_event_times","straightlining","zigzagging","honeypot","eventType","view_history","slider_start","which_type","canvas_config","goals_layout","control_level","trial_number","tutorial_trial_number","trial_start_time","phase1_start_time","phase2_start_time","phase3_start_time","goal_1_value","goal_1_distance","goal_2_value","goal_2_distance","goal_selected","outcome","outcome_total","participant_final_score","participant_initial_score","participant_final_score_prop","goal_choice_rt","allocated_time","allocated_time_remaining","goal_direction","counts","mouse_movements","key_presses","question_order","question_id"
"6507","1753865006693","<p style='font-size:40px;line-height:1.25'><strong>Welcome to the experiment!</strong></p><p style='font-size:1.1em;line-height:1.25'>Thank you for participanting in our experiment again! You will be asked to play the Dysfunctional Ball Game again. We will briefly recap the rules before we start.</p><p style='font-size:1.1em;line-height:1.25'>Press <strong>Next</strong> to continue.</p>","0","custom-html-button-response","0","6511","0.0-0.0","264","1","2025-07-30 08:43:18","1f75c3e559b7213887762d5229550c2b","105.245.233.173","Mozilla/5.0 (Windows NT 10.0; Win64; x64) AppleWebKit/537.36 (KHTML, like Gecko) Chrome/138.0.0.0 Safari/537.36","WebKit","Chrome","138.0.0.0","Windows","10.0","https://app.prolific.com/","en-US,en;q=0.9","650ac282d9578d72800bf303","6877631c9844ddd5501205fc","6889dae0fcdb27df444a067f","3","1","650ac282d9578d72800bf303","3","1","2025-07-30T08:43:26.697Z","","","","","","","","","","","","","","","","","","","","","","","","","","","","","","","","","","","","","","","","","",""
"57362","","","","fullscreen","1","64877","0.0-1.0","264","1","2025-07-30 08:43:18","1f75c3e559b7213887762d5229550c2b","105.245.233.173","Mozilla/5.0 (Windows NT 10.0; Win64; x64) AppleWebKit/537.36 (KHTML, like Gecko) Chrome/138.0.0.0 Safari/537.36","WebKit","Chrome","138.0.0.0","Windows","10.0","https://app.prolific.com/","en-US,en;q=0.9","650ac282d9578d72800bf303","6877631c9844ddd5501205fc","6889dae0fcdb27df444a067f","3","1","650ac282d9578d72800bf303","3","1","","true","","","","","","","","","","","","","","","","","","","","","","","","","","","","","","","","","","","","","","","","",""
"4393","1753865069458","<p style='font-size:1.1em;line-height:1.25'>In the following, we will ask you a few questions relating to your feelings in the last 24 hours.<br></p><p style='font-size:1.1em;line-height:1.25'>Press the <strong>Next</strong> button to continue.</p>","0","custom-html-button-response","2","69273","0.0-2.0-0.0","264","1","2025-07-30 08:43:18","1f75c3e559b7213887762d5229550c2b","105.245.233.173","Mozilla/5.0 (Windows NT 10.0; Win64; x64) AppleWebKit/537.36 (KHTML, like Gecko) Chrome/138.0.0.0 Safari/537.36","WebKit","Chrome","138.0.0.0","Windows","10.0","https://app.prolific.com/","en-US,en;q=0.9","650ac282d9578d72800bf303","6877631c9844ddd5501205fc","6889dae0fcdb27df444a067f","3","1","650ac282d9578d72800bf303","3","1","2025-07-30T08:44:29.458Z","","","","","","","","","","","","","","","","","","","","","","","","","","","","","","","","","","","","","","","","","",""
"92431.10000002384","","","","survey-template","3","161709","0.0-2.0-1.0","264","1","2025-07-30 08:43:18","1f75c3e559b7213887762d5229550c2b","105.245.233.173","Mozilla/5.0 (Windows NT 10.0; Win64; x64) AppleWebKit/537.36 (KHTML, like Gecko) Chrome/138.0.0.0 Safari/537.36","WebKit","Chrome","138.0.0.0","Windows","10.0","https://app.prolific.com/","en-US,en;q=0.9","650ac282d9578d72800bf303","6877631c9844ddd5501205fc","6889dae0fcdb27df444a067f","3","1","650ac282d9578d72800bf303","3","1","2025-07-30T08:46:01.894Z","","{""Q01"":""1"",""Q02"":""1"",""Q03"":""2"",""Q04"":""2"",""Q05"":""1"",""Q06"":""0"",""Q07"":""1"",""Q08"":""1"",""Q09"":""1"",""Q10"":""1"",""Q11"":""3"",""Q12"":""3"",""Q13"":""5"",""Q14"":""2"",""Q15"":""2"",""Q16"":""2"",""Q17"":""3"",""Q18"":""1"",""Q19"":""3"",""Q20"":""1"",""Q21"":""0"",""Q22"":""0""}","[0,1,2,3,4,5,6,7,8,9,10,11,12,13,14,15,16,17,18,19,20,21]","[""Q01"",""Q02"",""Q03"",""Q04"",""Q05"",""Q06"",""Q07"",""Q08"",""Q09"",""Q10"",""Q11"",""Q12"",""Q13"",""Q14"",""Q15"",""Q15"",""Q16"",""Q17"",""Q18"",""Q19"",""Q20"",""Q21"",""Q22""]","[10004.699999928474,11235.199999928474,12931.299999952316,14831.5,19854.5,23322.799999952316,27662.199999928474,28630.799999952316,34991.199999928474,36756.699999928474,42006.89999997616,44431.799999952316,48112.199999928474,49898.5,54930.60000002384,57262,60134,67834.19999992847,69912.5,73370.5,79521.39999997616,86902.89999997616,91231]","[]","[0,10004.699999928474,11235.199999928474,12931.299999952316,14831.5,18598.199999928474,19854.5,21666.399999976158,23322.799999952316,24499.799999952316,26766,27662.199999928474,28630.799999952316,34991.199999928474,36756.699999928474,42006.89999997616,44431.799999952316,48112.199999928474,49898.5,54930.60000002384,57262,60134,62563.699999928474,65106.10000002384,67834.19999992847,69912.5,73370.5,79521.39999997616,85933.19999992847,86902.89999997616,89764.29999995232,91231,92426.69999992847]","0.4090909090909091","0.2857142857142857","0","drsp","","","","","","","","","","","","","","","","","","","","","","","","","","","","","","",""
"24214.600000023842","","","","survey-template","4","185925","0.0-2.0-2.0","264","1","2025-07-30 08:43:18","1f75c3e559b7213887762d5229550c2b","105.245.233.173","Mozilla/5.0 (Windows NT 10.0; Win64; x64) AppleWebKit/537.36 (KHTML, like Gecko) Chrome/138.0.0.0 Safari/537.36","WebKit","Chrome","138.0.0.0","Windows","10.0","https://app.prolific.com/","en-US,en;q=0.9","650ac282d9578d72800bf303","6877631c9844ddd5501205fc","6889dae0fcdb27df444a067f","3","1","650ac282d9578d72800bf303","3","1","2025-07-30T08:46:26.110Z","","{""Q01"":""1"",""Q02"":""2"",""Q03"":""1""}","[0,1,2]","[""Q01"",""Q02"",""Q02"",""Q03""]","[8264.600000023842,11796.600000023842,19797,22130.100000023842]","[]","[8264.600000023842,11796.600000023842,15265.200000047684,17382.299999952316,19797,20865.200000047684,22130.100000023842,24213.799999952316]","0.6666666666666666","0","0","stress","","","","","","","","","","","","","","","","","","","","","","","","","","","","","","",""
"5947","","","","instructions","5","191873","0.0-3.0-0.0","264","1","2025-07-30 08:43:18","1f75c3e559b7213887762d5229550c2b","105.245.233.173","Mozilla/5.0 (Windows NT 10.0; Win64; x64) AppleWebKit/537.36 (KHTML, like Gecko) Chrome/138.0.0.0 Safari/537.36","WebKit","Chrome","138.0.0.0","Windows","10.0","https://app.prolific.com/","en-US,en;q=0.9","650ac282d9578d72800bf303","6877631c9844ddd5501205fc","6889dae0fcdb27df444a067f","3","1","650ac282d9578d72800bf303","3","1","","","","","","","","","","","","","[{""page_index"":0,""viewing_time"":5947}]","","","","","","","","","","","","","","","","","","","","","","","","","","","","","",""
"4969","","<p>Before you start with this game please answer the following three questions yourself. </p>
  <p>Through this game, we measure several aspects of your cognitive performance, such as reaction times, multi-tasking capabilities </p>
  <p>and the ability to assess the situation you are in.</p>
  <p></p>
  <p><b>How good do you usually are in such tasks?</b></p>","34","html-slider-response","6","196843","0.0-4.0-0.0","264","1","2025-07-30 08:43:18","1f75c3e559b7213887762d5229550c2b","105.245.233.173","Mozilla/5.0 (Windows NT 10.0; Win64; x64) AppleWebKit/537.36 (KHTML, like Gecko) Chrome/138.0.0.0 Safari/537.36","WebKit","Chrome","138.0.0.0","Windows","10.0","https://app.prolific.com/","en-US,en;q=0.9","650ac282d9578d72800bf303","6877631c9844ddd5501205fc","6889dae0fcdb27df444a067f","3","1","650ac282d9578d72800bf303","3","1","2025-07-30T08:46:37.029Z","","","","","","","","","","","PreSkillQ","","50","","","","","","","","","","","","","","","","","","","","","","","","","","","","",""
"5027","","<div style=""width:500px;"">
  <p>How well do you think you will perform in this task compared to other participants?</p>
  </div>","48","html-slider-response","7","201873","0.0-4.0-1.0","264","1","2025-07-30 08:43:18","1f75c3e559b7213887762d5229550c2b","105.245.233.173","Mozilla/5.0 (Windows NT 10.0; Win64; x64) AppleWebKit/537.36 (KHTML, like Gecko) Chrome/138.0.0.0 Safari/537.36","WebKit","Chrome","138.0.0.0","Windows","10.0","https://app.prolific.com/","en-US,en;q=0.9","650ac282d9578d72800bf303","6877631c9844ddd5501205fc","6889dae0fcdb27df444a067f","3","1","650ac282d9578d72800bf303","3","1","2025-07-30T08:46:42.059Z","","","","","","","","","","","PrePerfQ","","50","","","","","","","","","","","","","","","","","","","","","","","","","","","","",""
"4099","","<div style=""width:500px;"">
  <p>What best describes how you currently feel?</p>
  </div>","52","html-slider-response","8","205975","0.0-4.0-2.0","264","1","2025-07-30 08:43:18","1f75c3e559b7213887762d5229550c2b","105.245.233.173","Mozilla/5.0 (Windows NT 10.0; Win64; x64) AppleWebKit/537.36 (KHTML, like Gecko) Chrome/138.0.0.0 Safari/537.36","WebKit","Chrome","138.0.0.0","Windows","10.0","https://app.prolific.com/","en-US,en;q=0.9","650ac282d9578d72800bf303","6877631c9844ddd5501205fc","6889dae0fcdb27df444a067f","3","1","650ac282d9578d72800bf303","3","1","2025-07-30T08:46:46.160Z","","","","","","","","","","","PreMotivationQ","","50","","","","","","","","","","","","","","","","","","","","","","","","","","","","",""
"","","","","ctl-task-cpt","9","228927","0.0-5.0-0.0","264","1","2025-07-30 08:43:18","1f75c3e559b7213887762d5229550c2b","105.245.233.173","Mozilla/5.0 (Windows NT 10.0; Win64; x64) AppleWebKit/537.36 (KHTML, like Gecko) Chrome/138.0.0.0 Safari/537.36","WebKit","Chrome","138.0.0.0","Windows","10.0","https://app.prolific.com/","en-US,en;q=0.9","650ac282d9578d72800bf303","6877631c9844ddd5501205fc","6889dae0fcdb27df444a067f","3","1","650ac282d9578d72800bf303","3","1","2025-07-30T08:47:09.113Z","","","","","","","","","","","","","","win-only","0","g1:NW,g2:SE","1","1","0","208926","2324.1","7326.7","19944.4","1","4","4","6","1","1","1","1","0","0.007575757575757576","1755.1","3000","1485","[""left"",""up""]","{""num_key_presses"":4,""num_perfect"":4,""num_errors"":0,""num_randdir"":0,""num_randdir_good_moves"":0,""num_whilered"":0,""num_whileblue"":0,""num_blue"":0,""num_good_moves"":4}","[295.22232142857143,298.12857142857143,0.2,295.22232142857143,298.12857142857143,102.1,295.22232142857143,298.12857142857143,206.9,295.22232142857143,298.12857142857143,307.4,295.22232142857143,298.12857142857143,407.5,295.22232142857143,298.12857142857143,511.8,295.22232142857143,298.12857142857143,617.7,295.22232142857143,298.12857142857143,721.6,459.22232142857143,403.12857142857143,822.9,539.2223214285714,492.12857142857143,926.8,474.22232142857143,504.12857142857143,1027.3,-29.777678571428574,135.12857142857143,1132.4,-56.777678571428574,73.12857142857143,1236.5,-34.777678571428574,61.128571428571426,1336.9,14.222321428571426,60.128571428571426,1442,41.222321428571426,62.128571428571426,1547,42.222321428571426,62.128571428571426,1647,42.222321428571426,62.128571428571426,1747.7,42.222321428571426,62.128571428571426,1852.1,42.222321428571426,62.128571428571426,1952.3,42.222321428571426,62.128571428571426,2052.4,42.222321428571426,62.128571428571426,2152.4,42.222321428571426,62.128571428571426,2256.6,42.222321428571426,62.128571428571426,2356.6,42.222321428571426,62.128571428571426,2456.7,42.222321428571426,62.128571428571426,2557.6,42.222321428571426,62.128571428571426,2662.6,42.222321428571426,62.128571428571426,2767.3,42.222321428571426,62.128571428571426,2867.6,42.222321428571426,62.128571428571426,2972.2,42.222321428571426,62.128571428571426,3077,42.222321428571426,62.128571428571426,3182.1,42.222321428571426,62.128571428571426,3287.4,42.222321428571426,62.128571428571426,3392.6,42.222321428571426,62.128571428571426,3497.4,42.222321428571426,62.128571428571426,3597.5,42.222321428571426,62.128571428571426,3697.7,42.222321428571426,62.128571428571426,3802.1,42.222321428571426,62.128571428571426,3902.3,42.222321428571426,62.128571428571426,4007,42.222321428571426,62.128571428571426,4107.1,42.222321428571426,62.128571428571426,4212.1,42.222321428571426,62.128571428571426,4312.3,42.222321428571426,62.128571428571426,4417.1,42.222321428571426,62.128571428571426,4522.8,42.222321428571426,62.128571428571426,4626.7,42.222321428571426,62.128571428571426,4727.4,42.222321428571426,62.128571428571426,4828.4,42.222321428571426,62.128571428571426,4931.9]","[2391.8,2391.7,1000,0.1,1391.7,""smooth"",""up"",""up"",""good_move"",5255.2,2862.8,2119.2,2392.4,743.6,""smooth"",""left"",""left"",""good_move"",7896.9,2641.3,2245.3,5255.6,396.1,""smooth"",""up"",""up"",""good_move"",12526.7,4629.5,2567,7897.2,2062.5,""smooth"",""left"",""left"",""good_move""]","",""
"5799","","<div style=""width:500px;"">
  <p>What determined the result of this run?</p>
  </div>","7","html-slider-response","10","234729","0.0-5.0-1.0","264","1","2025-07-30 08:43:18","1f75c3e559b7213887762d5229550c2b","105.245.233.173","Mozilla/5.0 (Windows NT 10.0; Win64; x64) AppleWebKit/537.36 (KHTML, like Gecko) Chrome/138.0.0.0 Safari/537.36","WebKit","Chrome","138.0.0.0","Windows","10.0","https://app.prolific.com/","en-US,en;q=0.9","650ac282d9578d72800bf303","6877631c9844ddd5501205fc","6889dae0fcdb27df444a067f","3","1","650ac282d9578d72800bf303","3","1","2025-07-30T08:47:14.914Z","","","","","","","","","","","AttribQ","","50","","","","","","","","","","","","","","","","","","","","","","","","","","","","",""
"5085","","<div style=""width:500px;"">
  <p>How much control did you have over the ball?</p>
  </div>","62","html-slider-response","11","239816","0.0-5.0-2.0","264","1","2025-07-30 08:43:18","1f75c3e559b7213887762d5229550c2b","105.245.233.173","Mozilla/5.0 (Windows NT 10.0; Win64; x64) AppleWebKit/537.36 (KHTML, like Gecko) Chrome/138.0.0.0 Safari/537.36","WebKit","Chrome","138.0.0.0","Windows","10.0","https://app.prolific.com/","en-US,en;q=0.9","650ac282d9578d72800bf303","6877631c9844ddd5501205fc","6889dae0fcdb27df444a067f","3","1","650ac282d9578d72800bf303","3","1","2025-07-30T08:47:20.001Z","","","","","","","","","","","ControlQ","","50","","","","","","","","","","","","","","","","","","","","","","","","","","","","",""
"3290","","<div style=""width:500px;"">
  <p>How would you describe your current emotional state?</p>
  </div>","24","html-slider-response","12","243109","0.0-5.0-3.0","264","1","2025-07-30 08:43:18","1f75c3e559b7213887762d5229550c2b","105.245.233.173","Mozilla/5.0 (Windows NT 10.0; Win64; x64) AppleWebKit/537.36 (KHTML, like Gecko) Chrome/138.0.0.0 Safari/537.36","WebKit","Chrome","138.0.0.0","Windows","10.0","https://app.prolific.com/","en-US,en;q=0.9","650ac282d9578d72800bf303","6877631c9844ddd5501205fc","6889dae0fcdb27df444a067f","3","1","650ac282d9578d72800bf303","3","1","2025-07-30T08:47:23.294Z","","","","","","","","","","","StressQ","","50","","","","","","","","","","","","","","","","","","","","","","","","","","","","",""
"4445","","<div style=""width:500px;"">
  <p>What best describes how you currently feel?</p>
  </div>","51","html-slider-response","13","247557","0.0-5.0-4.0","264","1","2025-07-30 08:43:18","1f75c3e559b7213887762d5229550c2b","105.245.233.173","Mozilla/5.0 (Windows NT 10.0; Win64; x64) AppleWebKit/537.36 (KHTML, like Gecko) Chrome/138.0.0.0 Safari/537.36","WebKit","Chrome","138.0.0.0","Windows","10.0","https://app.prolific.com/","en-US,en;q=0.9","650ac282d9578d72800bf303","6877631c9844ddd5501205fc","6889dae0fcdb27df444a067f","3","1","650ac282d9578d72800bf303","3","1","2025-07-30T08:47:27.742Z","","","","","","","","","","","MotivationQ","","50","","","","","","","","","","","","","","","","","","","","","","","","","","","","",""
"","","","","ctl-task-cpt","14","281567","0.0-5.0-0.1","264","1","2025-07-30 08:43:18","1f75c3e559b7213887762d5229550c2b","105.245.233.173","Mozilla/5.0 (Windows NT 10.0; Win64; x64) AppleWebKit/537.36 (KHTML, like Gecko) Chrome/138.0.0.0 Safari/537.36","WebKit","Chrome","138.0.0.0","Windows","10.0","https://app.prolific.com/","en-US,en;q=0.9","650ac282d9578d72800bf303","6877631c9844ddd5501205fc","6889dae0fcdb27df444a067f","3","1","650ac282d9578d72800bf303","3","1","2025-07-30T08:48:01.752Z","","","","","","","","","","","","","","win-only","2","g1:SE,g2:NW","0.9","2","0","250505.6","1528.6","6530.9","31002.4","1","4","8","6","2","-8","-9","0","1","0","1304.6","3000","-2990","[""left"",""up""]","{""num_key_presses"":8,""num_perfect"":6,""num_errors"":1,""num_randdir"":1,""num_randdir_good_moves"":0,""num_whilered"":0,""num_whileblue"":1,""num_blue"":2,""num_good_moves"":6}","[295.22232142857143,301.12857142857143,0.2,295.22232142857143,301.12857142857143,102,295.22232142857143,301.12857142857143,202,295.22232142857143,301.12857142857143,302.1,295.22232142857143,301.12857142857143,402.1,295.22232142857143,301.12857142857143,507.7,295.22232142857143,301.12857142857143,612.8,209.22232142857143,239.12857142857143,717.7,93.22232142857143,136.12857142857143,818.1,50.222321428571426,68.12857142857143,922.2,46.222321428571426,53.128571428571426,1022.8,49.222321428571426,50.128571428571426,1123.2,49.222321428571426,50.128571428571426,1227.1,49.222321428571426,50.128571428571426,1327.7,49.222321428571426,50.128571428571426,1432.1,49.222321428571426,50.128571428571426,1535.6,49.222321428571426,50.128571428571426,1637.3,49.222321428571426,50.128571428571426,1741.9,49.222321428571426,50.128571428571426,1842.5,49.222321428571426,50.128571428571426,1948.3,49.222321428571426,50.128571428571426,2051.9,49.222321428571426,50.128571428571426,2156.9,49.222321428571426,50.128571428571426,2257.1,49.222321428571426,50.128571428571426,2357.1,49.222321428571426,50.128571428571426,2457.2,49.222321428571426,50.128571428571426,2562.3,49.222321428571426,50.128571428571426,2667.6,49.222321428571426,50.128571428571426,2767.7,49.222321428571426,50.128571428571426,2872,49.222321428571426,50.128571428571426,2972.5,49.222321428571426,50.128571428571426,3073,49.222321428571426,50.128571428571426,3173,49.222321428571426,50.128571428571426,3277.8,49.222321428571426,50.128571428571426,3378.4,49.222321428571426,50.128571428571426,3483.3,49.222321428571426,50.128571428571426,3583.8,49.222321428571426,50.128571428571426,3687.2,49.222321428571426,50.128571428571426,3792,49.222321428571426,50.128571428571426,3892.1,49.222321428571426,50.128571428571426,3992.4,49.222321428571426,50.128571428571426,4092.5,49.222321428571426,50.128571428571426,4192.7,49.222321428571426,50.128571428571426,4297,49.222321428571426,50.128571428571426,4397.8,49.222321428571426,50.128571428571426,4502.4,49.222321428571426,50.128571428571426,4607,49.222321428571426,50.128571428571426,4708.5,49.222321428571426,50.128571428571426,4813,49.222321428571426,50.128571428571426,4917]","[1520.5,1520.6,1000,0,520.6,""smooth"",""up"",""up"",""good_move"",3987.2,2466.4,1954.2,1520.8,512.2,""smooth"",""up"",""up"",""good_move"",6405.2,2417.8,2009.1,3987.4,408.7,""smooth"",""up"",""up"",""good_move"",12441.9,6036.5,2461.4,9599.6,380.9,""oops"",""left"",""down"",""bad_move"",15044.4,2602.3,2259.7,12442.1,342.6,""smooth"",""left"",""left"",""good_move"",17483.1,2438.4,2031.5,15044.7,406.9,""smooth"",""left"",""left"",""good_move"",19849.6,2366.2,2024.3,17483.4,341.9,""smooth"",""up"",""up"",""good_move"",21898.1,2048.5,1749.7,19849.7,298.8,""while_blue"",""left"",""right"",""bad_move""]","",""
"2666","","<div style=""width:500px;"">
  <p>What determined the result of this run?</p>
  </div>","3","html-slider-response","15","284234","0.0-5.0-1.1","264","1","2025-07-30 08:43:18","1f75c3e559b7213887762d5229550c2b","105.245.233.173","Mozilla/5.0 (Windows NT 10.0; Win64; x64) AppleWebKit/537.36 (KHTML, like Gecko) Chrome/138.0.0.0 Safari/537.36","WebKit","Chrome","138.0.0.0","Windows","10.0","https://app.prolific.com/","en-US,en;q=0.9","650ac282d9578d72800bf303","6877631c9844ddd5501205fc","6889dae0fcdb27df444a067f","3","1","650ac282d9578d72800bf303","3","1","2025-07-30T08:48:04.419Z","","","","","","","","","","","AttribQ","","50","","","","","","","","","","","","","","","","","","","","","","","","","","","","",""
"2421","","<div style=""width:500px;"">
  <p>How much control did you have over the ball?</p>
  </div>","23","html-slider-response","16","286656","0.0-5.0-2.1","264","1","2025-07-30 08:43:18","1f75c3e559b7213887762d5229550c2b","105.245.233.173","Mozilla/5.0 (Windows NT 10.0; Win64; x64) AppleWebKit/537.36 (KHTML, like Gecko) Chrome/138.0.0.0 Safari/537.36","WebKit","Chrome","138.0.0.0","Windows","10.0","https://app.prolific.com/","en-US,en;q=0.9","650ac282d9578d72800bf303","6877631c9844ddd5501205fc","6889dae0fcdb27df444a067f","3","1","650ac282d9578d72800bf303","3","1","2025-07-30T08:48:06.841Z","","","","","","","","","","","ControlQ","","50","","","","","","","","","","","","","","","","","","","","","","","","","","","","",""
"2671","","<div style=""width:500px;"">
  <p>How would you describe your current emotional state?</p>
  </div>","17","html-slider-response","17","289328","0.0-5.0-3.1","264","1","2025-07-30 08:43:18","1f75c3e559b7213887762d5229550c2b","105.245.233.173","Mozilla/5.0 (Windows NT 10.0; Win64; x64) AppleWebKit/537.36 (KHTML, like Gecko) Chrome/138.0.0.0 Safari/537.36","WebKit","Chrome","138.0.0.0","Windows","10.0","https://app.prolific.com/","en-US,en;q=0.9","650ac282d9578d72800bf303","6877631c9844ddd5501205fc","6889dae0fcdb27df444a067f","3","1","650ac282d9578d72800bf303","3","1","2025-07-30T08:48:09.513Z","","","","","","","","","","","StressQ","","50","","","","","","","","","","","","","","","","","","","","","","","","","","","","",""
"3727","","<div style=""width:500px;"">
  <p>What best describes how you currently feel?</p>
  </div>","53","html-slider-response","18","293057","0.0-5.0-4.1","264","1","2025-07-30 08:43:18","1f75c3e559b7213887762d5229550c2b","105.245.233.173","Mozilla/5.0 (Windows NT 10.0; Win64; x64) AppleWebKit/537.36 (KHTML, like Gecko) Chrome/138.0.0.0 Safari/537.36","WebKit","Chrome","138.0.0.0","Windows","10.0","https://app.prolific.com/","en-US,en;q=0.9","650ac282d9578d72800bf303","6877631c9844ddd5501205fc","6889dae0fcdb27df444a067f","3","1","650ac282d9578d72800bf303","3","1","2025-07-30T08:48:13.242Z","","","","","","","","","","","MotivationQ","","50","","","","","","","","","","","","","","","","","","","","","","","","","","","","",""
"","","","","ctl-task-cpt","19","317096","0.0-5.0-0.2","264","1","2025-07-30 08:43:18","1f75c3e559b7213887762d5229550c2b","105.245.233.173","Mozilla/5.0 (Windows NT 10.0; Win64; x64) AppleWebKit/537.36 (KHTML, like Gecko) Chrome/138.0.0.0 Safari/537.36","WebKit","Chrome","138.0.0.0","Windows","10.0","https://app.prolific.com/","en-US,en;q=0.9","650ac282d9578d72800bf303","6877631c9844ddd5501205fc","6889dae0fcdb27df444a067f","3","1","650ac282d9578d72800bf303","3","1","2025-07-30T08:48:37.281Z","","","","","","","","","","","","","","win-only","2","g1:SE,g2:NW","0.8","3","0","296005.5","2121.5","7126.5","21030.6","1","4","8","6","1","1","0","0","0","0","1987","3000","1440","[""down"",""right""]","{""num_key_presses"":4,""num_perfect"":2,""num_errors"":1,""num_randdir"":1,""num_randdir_good_moves"":1,""num_whilered"":0,""num_whileblue"":1,""num_blue"":2,""num_good_moves"":4}","[293.22232142857143,305.12857142857143,0.2,293.22232142857143,305.12857142857143,104.3,293.22232142857143,305.12857142857143,204.3,293.22232142857143,305.12857142857143,309,293.22232142857143,305.12857142857143,409,293.22232142857143,305.12857142857143,509.2,293.22232142857143,305.12857142857143,612,293.22232142857143,305.12857142857143,714.6,218.22232142857143,254.12857142857143,815,211.22232142857143,121.12857142857143,919.8,580.2223214285714,354.12857142857143,1024.6,647.2223214285714,477.12857142857143,1129.8,630.2223214285714,486.12857142857143,1234.1,636.2223214285714,504.12857142857143,1339.6,622.2223214285714,506.12857142857143,1444.9,602.2223214285714,519.1285714285714,1549,594.2223214285714,530.1285714285714,1649.9,561.2223214285714,564.1285714285714,1754.1,555.2223214285714,562.1285714285714,1854.3,555.2223214285714,562.1285714285714,1955.6,555.2223214285714,562.1285714285714,2059.4,555.2223214285714,562.1285714285714,2164.5,555.2223214285714,562.1285714285714,2265,555.2223214285714,562.1285714285714,2369.2,555.2223214285714,562.1285714285714,2475.3,555.2223214285714,562.1285714285714,2580,555.2223214285714,562.1285714285714,2685.6,555.2223214285714,562.1285714285714,2789.2,555.2223214285714,562.1285714285714,2889.6,555.2223214285714,562.1285714285714,2989.9,555.2223214285714,562.1285714285714,3095.1,555.2223214285714,562.1285714285714,3198.8,555.2223214285714,562.1285714285714,3299.9,555.2223214285714,562.1285714285714,3399.9,555.2223214285714,562.1285714285714,3500,555.2223214285714,562.1285714285714,3604.1,555.2223214285714,562.1285714285714,3704.3,555.2223214285714,562.1285714285714,3808.9,555.2223214285714,562.1285714285714,3909.1,555.2223214285714,562.1285714285714,4009.2,555.2223214285714,562.1285714285714,4114,555.2223214285714,562.1285714285714,4214.4,555.2223214285714,562.1285714285714,4314.4,555.2223214285714,562.1285714285714,4414.9,555.2223214285714,562.1285714285714,4519.7,555.2223214285714,562.1285714285714,4619.8,555.2223214285714,562.1285714285714,4724,555.2223214285714,562.1285714285714,4824.1,555.2223214285714,562.1285714285714,4924.3]","[1541,1541,1000,0,541,""smooth"",""right"",""right"",""good_move"",7860.2,6318.9,2610,4809.4,440.8,""while_blue"",""right"",""down"",""good_move"",10707.1,2846.6,2358.6,7860.5,488,""smooth"",""right"",""right"",""good_move"",13808.9,3101.7,2552,10707.2,549.7,""oops"",""down"",""down"",""good_move""]","",""
"4729","","<div style=""width:500px;"">
  <p>What determined the result of this run?</p>
  </div>","15","html-slider-response","20","321826","0.0-5.0-1.2","264","1","2025-07-30 08:43:18","1f75c3e559b7213887762d5229550c2b","105.245.233.173","Mozilla/5.0 (Windows NT 10.0; Win64; x64) AppleWebKit/537.36 (KHTML, like Gecko) Chrome/138.0.0.0 Safari/537.36","WebKit","Chrome","138.0.0.0","Windows","10.0","https://app.prolific.com/","en-US,en;q=0.9","650ac282d9578d72800bf303","6877631c9844ddd5501205fc","6889dae0fcdb27df444a067f","3","1","650ac282d9578d72800bf303","3","1","2025-07-30T08:48:42.011Z","","","","","","","","","","","AttribQ","","50","","","","","","","","","","","","","","","","","","","","","","","","","","","","",""
"4118","","<div style=""width:500px;"">
  <p>How much control did you have over the ball?</p>
  </div>","17","html-slider-response","21","325945","0.0-5.0-2.2","264","1","2025-07-30 08:43:18","1f75c3e559b7213887762d5229550c2b","105.245.233.173","Mozilla/5.0 (Windows NT 10.0; Win64; x64) AppleWebKit/537.36 (KHTML, like Gecko) Chrome/138.0.0.0 Safari/537.36","WebKit","Chrome","138.0.0.0","Windows","10.0","https://app.prolific.com/","en-US,en;q=0.9","650ac282d9578d72800bf303","6877631c9844ddd5501205fc","6889dae0fcdb27df444a067f","3","1","650ac282d9578d72800bf303","3","1","2025-07-30T08:48:46.130Z","","","","","","","","","","","ControlQ","","50","","","","","","","","","","","","","","","","","","","","","","","","","","","","",""
"2768","","<div style=""width:500px;"">
  <p>How would you describe your current emotional state?</p>
  </div>","20","html-slider-response","22","328714","0.0-5.0-3.2","264","1","2025-07-30 08:43:18","1f75c3e559b7213887762d5229550c2b","105.245.233.173","Mozilla/5.0 (Windows NT 10.0; Win64; x64) AppleWebKit/537.36 (KHTML, like Gecko) Chrome/138.0.0.0 Safari/537.36","WebKit","Chrome","138.0.0.0","Windows","10.0","https://app.prolific.com/","en-US,en;q=0.9","650ac282d9578d72800bf303","6877631c9844ddd5501205fc","6889dae0fcdb27df444a067f","3","1","650ac282d9578d72800bf303","3","1","2025-07-30T08:48:48.899Z","","","","","","","","","","","StressQ","","50","","","","","","","","","","","","","","","","","","","","","","","","","","","","",""
"3532","","<div style=""width:500px;"">
  <p>What best describes how you currently feel?</p>
  </div>","53","html-slider-response","23","332247","0.0-5.0-4.2","264","1","2025-07-30 08:43:18","1f75c3e559b7213887762d5229550c2b","105.245.233.173","Mozilla/5.0 (Windows NT 10.0; Win64; x64) AppleWebKit/537.36 (KHTML, like Gecko) Chrome/138.0.0.0 Safari/537.36","WebKit","Chrome","138.0.0.0","Windows","10.0","https://app.prolific.com/","en-US,en;q=0.9","650ac282d9578d72800bf303","6877631c9844ddd5501205fc","6889dae0fcdb27df444a067f","3","1","650ac282d9578d72800bf303","3","1","2025-07-30T08:48:52.432Z","","","","","","","","","","","MotivationQ","","50","","","","","","","","","","","","","","","","","","","","","","","","","","","","",""
"","","","","ctl-task-cpt","24","363476","0.0-5.0-0.3","264","1","2025-07-30 08:43:18","1f75c3e559b7213887762d5229550c2b","105.245.233.173","Mozilla/5.0 (Windows NT 10.0; Win64; x64) AppleWebKit/537.36 (KHTML, like Gecko) Chrome/138.0.0.0 Safari/537.36","WebKit","Chrome","138.0.0.0","Windows","10.0","https://app.prolific.com/","en-US,en;q=0.9","650ac282d9578d72800bf303","6877631c9844ddd5501205fc","6889dae0fcdb27df444a067f","3","1","650ac282d9578d72800bf303","3","1","2025-07-30T08:49:23.661Z","","","","","","","","","","","","","","win-only","3","g1:SW,g2:NE","0.7","4","0","335194.9","1319.7","6321.6","28213.2","1","4","4","6","2","-4","-4","0","0","0","1230.5","3000","-2995","[""up"",""right""]","{""num_key_presses"":6,""num_perfect"":4,""num_errors"":0,""num_randdir"":2,""num_randdir_good_moves"":1,""num_whilered"":0,""num_whileblue"":0,""num_blue"":1,""num_good_moves"":5}","[295.22232142857143,289.12857142857143,0.1,295.22232142857143,289.12857142857143,101.5,295.22232142857143,289.12857142857143,205.8,295.22232142857143,289.12857142857143,307.1,295.22232142857143,289.12857142857143,411.6,295.22232142857143,289.12857142857143,511.6,295.22232142857143,289.12857142857143,612.1,316.22232142857143,242.12857142857143,716,456.22232142857143,75.12857142857143,821.6,516.2223214285714,36.128571428571426,927.4,524.2223214285714,30.128571428571426,1031.7,524.2223214285714,30.128571428571426,1131.8,524.2223214285714,30.128571428571426,1238.1,524.2223214285714,30.128571428571426,1340.5,524.2223214285714,30.128571428571426,1441.3,524.2223214285714,30.128571428571426,1542.4,524.2223214285714,30.128571428571426,1643,524.2223214285714,30.128571428571426,1746.2,524.2223214285714,30.128571428571426,1851.5,524.2223214285714,30.128571428571426,1956.1,524.2223214285714,30.128571428571426,2061.6,524.2223214285714,30.128571428571426,2161.8,524.2223214285714,30.128571428571426,2262.2,524.2223214285714,30.128571428571426,2362.6,524.2223214285714,30.128571428571426,2466.5,524.2223214285714,30.128571428571426,2570.9,524.2223214285714,30.128571428571426,2671.2,524.2223214285714,30.128571428571426,2776.3,524.2223214285714,30.128571428571426,2881.7,524.2223214285714,30.128571428571426,2986.9,524.2223214285714,30.128571428571426,3092.5,524.2223214285714,30.128571428571426,3196.4,524.2223214285714,30.128571428571426,3296.5,524.2223214285714,30.128571428571426,3396.5,524.2223214285714,30.128571428571426,3498,524.2223214285714,30.128571428571426,3602.1,524.2223214285714,30.128571428571426,3708.8,524.2223214285714,30.128571428571426,3811.6,524.2223214285714,30.128571428571426,3911.7,524.2223214285714,30.128571428571426,4015.9,524.2223214285714,30.128571428571426,4120.8,524.2223214285714,30.128571428571426,4221,524.2223214285714,30.128571428571426,4321.3,524.2223214285714,30.128571428571426,4426.4,524.2223214285714,30.128571428571426,4531.4,524.2223214285714,30.128571428571426,4631.4,524.2223214285714,30.128571428571426,4731.7,524.2223214285714,30.128571428571426,4835.7,524.2223214285714,30.128571428571426,4937]","[1519.4,1519.4,1000,0,519.4,""smooth"",""up"",""up"",""good_move"",4239.7,2719.7,2269.2,1520,450.5,""oops"",""up"",""down"",""bad_move"",7195.7,2955.7,2461.6,4240,494.1,""oops"",""up"",""up"",""good_move"",12982.2,5786.3,2130.5,10403.7,448,""smooth"",""up"",""up"",""good_move"",16139.8,3157.5,2712.5,12982.3,445,""smooth"",""up"",""up"",""good_move"",19200.2,3060.3,2601.9,16139.9,458.4,""smooth"",""right"",""right"",""good_move""]","",""
"6070","","<div style=""width:500px;"">
  <p>What determined the result of this run?</p>
  </div>","19","html-slider-response","25","369547","0.0-5.0-1.3","264","1","2025-07-30 08:43:18","1f75c3e559b7213887762d5229550c2b","105.245.233.173","Mozilla/5.0 (Windows NT 10.0; Win64; x64) AppleWebKit/537.36 (KHTML, like Gecko) Chrome/138.0.0.0 Safari/537.36","WebKit","Chrome","138.0.0.0","Windows","10.0","https://app.prolific.com/","en-US,en;q=0.9","650ac282d9578d72800bf303","6877631c9844ddd5501205fc","6889dae0fcdb27df444a067f","3","1","650ac282d9578d72800bf303","3","1","2025-07-30T08:49:29.732Z","","","","","","","","","","","AttribQ","","50","","","","","","","","","","","","","","","","","","","","","","","","","","","","",""
"81694","","<div style=""width:500px;"">
  <p>How much control did you have over the ball?</p>
  </div>","32","html-slider-response","26","451242","0.0-5.0-2.3","264","1","2025-07-30 08:43:18","1f75c3e559b7213887762d5229550c2b","105.245.233.173","Mozilla/5.0 (Windows NT 10.0; Win64; x64) AppleWebKit/537.36 (KHTML, like Gecko) Chrome/138.0.0.0 Safari/537.36","WebKit","Chrome","138.0.0.0","Windows","10.0","https://app.prolific.com/","en-US,en;q=0.9","650ac282d9578d72800bf303","6877631c9844ddd5501205fc","6889dae0fcdb27df444a067f","3","1","650ac282d9578d72800bf303","3","1","2025-07-30T08:50:51.427Z","","","","","","","","","","","ControlQ","","50","","","","","","","","","","","","","","","","","","","","","","","","","","","","",""
"4575","","<div style=""width:500px;"">
  <p>How would you describe your current emotional state?</p>
  </div>","22","html-slider-response","27","455818","0.0-5.0-3.3","264","1","2025-07-30 08:43:18","1f75c3e559b7213887762d5229550c2b","105.245.233.173","Mozilla/5.0 (Windows NT 10.0; Win64; x64) AppleWebKit/537.36 (KHTML, like Gecko) Chrome/138.0.0.0 Safari/537.36","WebKit","Chrome","138.0.0.0","Windows","10.0","https://app.prolific.com/","en-US,en;q=0.9","650ac282d9578d72800bf303","6877631c9844ddd5501205fc","6889dae0fcdb27df444a067f","3","1","650ac282d9578d72800bf303","3","1","2025-07-30T08:50:56.003Z","","","","","","","","","","","StressQ","","50","","","","","","","","","","","","","","","","","","","","","","","","","","","","",""
"3913","","<div style=""width:500px;"">
  <p>What best describes how you currently feel?</p>
  </div>","53","html-slider-response","28","459732","0.0-5.0-4.3","264","1","2025-07-30 08:43:18","1f75c3e559b7213887762d5229550c2b","105.245.233.173","Mozilla/5.0 (Windows NT 10.0; Win64; x64) AppleWebKit/537.36 (KHTML, like Gecko) Chrome/138.0.0.0 Safari/537.36","WebKit","Chrome","138.0.0.0","Windows","10.0","https://app.prolific.com/","en-US,en;q=0.9","650ac282d9578d72800bf303","6877631c9844ddd5501205fc","6889dae0fcdb27df444a067f","3","1","650ac282d9578d72800bf303","3","1","2025-07-30T08:50:59.917Z","","","","","","","","","","","MotivationQ","","50","","","","","","","","","","","","","","","","","","","","","","","","","","","","",""
"","","","","ctl-task-cpt","29","480043","0.0-5.0-0.4","264","1","2025-07-30 08:43:18","1f75c3e559b7213887762d5229550c2b","105.245.233.173","Mozilla/5.0 (Windows NT 10.0; Win64; x64) AppleWebKit/537.36 (KHTML, like Gecko) Chrome/138.0.0.0 Safari/537.36","WebKit","Chrome","138.0.0.0","Windows","10.0","https://app.prolific.com/","en-US,en;q=0.9","650ac282d9578d72800bf303","6877631c9844ddd5501205fc","6889dae0fcdb27df444a067f","3","1","650ac282d9578d72800bf303","3","1","2025-07-30T08:51:20.228Z","","","","","","","","","","","","","","win-only","0","g1:NW,g2:SE","0.6","5","0","462679.4","1442.7","6446","17305.9","1","4","4","6","1","1","0","0","0","0","1395.1","3000","1830","[""left"",""up""]","{""num_key_presses"":4,""num_perfect"":2,""num_errors"":1,""num_randdir"":1,""num_randdir_good_moves"":1,""num_whilered"":0,""num_whileblue"":1,""num_blue"":1,""num_good_moves"":4}","[295.22232142857143,295.12857142857143,0.2,295.22232142857143,295.12857142857143,102.8,295.22232142857143,295.12857142857143,204.3,295.22232142857143,295.12857142857143,309,295.22232142857143,295.12857142857143,413.9,295.22232142857143,295.12857142857143,517.8,295.22232142857143,295.12857142857143,619.6,295.22232142857143,295.12857142857143,723.6,295.22232142857143,295.12857142857143,823.7,155.22232142857143,237.12857142857143,928.1,41.222321428571426,37.128571428571426,1028.8,44.222321428571426,18.128571428571426,1129.6,43.222321428571426,13.128571428571426,1233.6,43.222321428571426,13.128571428571426,1336.5,43.222321428571426,13.128571428571426,1437,43.222321428571426,13.128571428571426,1538.6,43.222321428571426,13.128571428571426,1643.3,43.222321428571426,13.128571428571426,1747.7,43.222321428571426,13.128571428571426,1847.8,43.222321428571426,13.128571428571426,1952.9,43.222321428571426,13.128571428571426,2054.9,43.222321428571426,13.128571428571426,2158.9,43.222321428571426,13.128571428571426,2263.9,43.222321428571426,13.128571428571426,2369.2,43.222321428571426,13.128571428571426,2472.9,43.222321428571426,13.128571428571426,2576,43.222321428571426,13.128571428571426,2678.4,43.222321428571426,13.128571428571426,2782.9,43.222321428571426,13.128571428571426,2884.8,43.222321428571426,13.128571428571426,2988.8,43.222321428571426,13.128571428571426,3089,43.222321428571426,13.128571428571426,3189.1,43.222321428571426,13.128571428571426,3293.4,43.222321428571426,13.128571428571426,3397.9,43.222321428571426,13.128571428571426,3503.3,43.222321428571426,13.128571428571426,3608.3,43.222321428571426,13.128571428571426,3713.1,43.222321428571426,13.128571428571426,3813.2,43.222321428571426,13.128571428571426,3913.3,43.222321428571426,13.128571428571426,4023.4,43.222321428571426,13.128571428571426,4123.4,43.222321428571426,13.128571428571426,4228.5,43.222321428571426,13.128571428571426,4328.8,43.222321428571426,13.128571428571426,4434.5,43.222321428571426,13.128571428571426,4534.5,43.222321428571426,13.128571428571426,4638.6,43.222321428571426,13.128571428571426,4743.2,43.222321428571426,13.128571428571426,4843.5,43.222321428571426,13.128571428571426,4947.8]","[1417.2,1417.2,1000,0,417.2,""smooth"",""up"",""up"",""good_move"",4576.3,3158.8,2835.2,1417.5,323.6,""oops"",""left"",""left"",""good_move"",7766.1,3189.6,2833.6,4576.5,356,""while_blue"",""up"",""left"",""good_move"",10767,3000.7,2550.3,7766.3,450.4,""smooth"",""up"",""up"",""good_move""]","",""
"5468","","<div style=""width:500px;"">
  <p>What determined the result of this run?</p>
  </div>","18","html-slider-response","30","485512","0.0-5.0-1.4","264","1","2025-07-30 08:43:18","1f75c3e559b7213887762d5229550c2b","105.245.233.173","Mozilla/5.0 (Windows NT 10.0; Win64; x64) AppleWebKit/537.36 (KHTML, like Gecko) Chrome/138.0.0.0 Safari/537.36","WebKit","Chrome","138.0.0.0","Windows","10.0","https://app.prolific.com/","en-US,en;q=0.9","650ac282d9578d72800bf303","6877631c9844ddd5501205fc","6889dae0fcdb27df444a067f","3","1","650ac282d9578d72800bf303","3","1","2025-07-30T08:51:25.697Z","","","","","","","","","","","AttribQ","","50","","","","","","","","","","","","","","","","","","","","","","","","","","","","",""
"3359","","<div style=""width:500px;"">
  <p>How much control did you have over the ball?</p>
  </div>","5","html-slider-response","31","488872","0.0-5.0-2.4","264","1","2025-07-30 08:43:18","1f75c3e559b7213887762d5229550c2b","105.245.233.173","Mozilla/5.0 (Windows NT 10.0; Win64; x64) AppleWebKit/537.36 (KHTML, like Gecko) Chrome/138.0.0.0 Safari/537.36","WebKit","Chrome","138.0.0.0","Windows","10.0","https://app.prolific.com/","en-US,en;q=0.9","650ac282d9578d72800bf303","6877631c9844ddd5501205fc","6889dae0fcdb27df444a067f","3","1","650ac282d9578d72800bf303","3","1","2025-07-30T08:51:29.057Z","","","","","","","","","","","ControlQ","","50","","","","","","","","","","","","","","","","","","","","","","","","","","","","",""
"2722","","<div style=""width:500px;"">
  <p>How would you describe your current emotional state?</p>
  </div>","7","html-slider-response","32","491595","0.0-5.0-3.4","264","1","2025-07-30 08:43:18","1f75c3e559b7213887762d5229550c2b","105.245.233.173","Mozilla/5.0 (Windows NT 10.0; Win64; x64) AppleWebKit/537.36 (KHTML, like Gecko) Chrome/138.0.0.0 Safari/537.36","WebKit","Chrome","138.0.0.0","Windows","10.0","https://app.prolific.com/","en-US,en;q=0.9","650ac282d9578d72800bf303","6877631c9844ddd5501205fc","6889dae0fcdb27df444a067f","3","1","650ac282d9578d72800bf303","3","1","2025-07-30T08:51:31.780Z","","","","","","","","","","","StressQ","","50","","","","","","","","","","","","","","","","","","","","","","","","","","","","",""
"5438","","<div style=""width:500px;"">
  <p>What best describes how you currently feel?</p>
  </div>","40","html-slider-response","33","497033","0.0-5.0-4.4","264","1","2025-07-30 08:43:18","1f75c3e559b7213887762d5229550c2b","105.245.233.173","Mozilla/5.0 (Windows NT 10.0; Win64; x64) AppleWebKit/537.36 (KHTML, like Gecko) Chrome/138.0.0.0 Safari/537.36","WebKit","Chrome","138.0.0.0","Windows","10.0","https://app.prolific.com/","en-US,en;q=0.9","650ac282d9578d72800bf303","6877631c9844ddd5501205fc","6889dae0fcdb27df444a067f","3","1","650ac282d9578d72800bf303","3","1","2025-07-30T08:51:37.218Z","","","","","","","","","","","MotivationQ","","50","","","","","","","","","","","","","","","","","","","","","","","","","","","","",""
"","","","","ctl-task-cpt","34","542347","0.0-5.0-0.5","264","1","2025-07-30 08:43:18","1f75c3e559b7213887762d5229550c2b","105.245.233.173","Mozilla/5.0 (Windows NT 10.0; Win64; x64) AppleWebKit/537.36 (KHTML, like Gecko) Chrome/138.0.0.0 Safari/537.36","WebKit","Chrome","138.0.0.0","Windows","10.0","https://app.prolific.com/","en-US,en;q=0.9","650ac282d9578d72800bf303","6877631c9844ddd5501205fc","6889dae0fcdb27df444a067f","3","1","650ac282d9578d72800bf303","3","1","2025-07-30T08:52:22.532Z","","","","","","","","","","","","","","win-only","2","g1:SE,g2:NW","0.5","6","0","499980.4","1381.4","6386.4","42301.4","1","4","8","6","1","-1","-2","0","0","0","1628","3000","-2925","[""down"",""right""]","{""num_key_presses"":7,""num_perfect"":3,""num_errors"":1,""num_randdir"":3,""num_randdir_good_moves"":0,""num_whilered"":0,""num_whileblue"":0,""num_blue"":4,""num_good_moves"":3}","[295.22232142857143,290.12857142857143,0.1,295.22232142857143,290.12857142857143,105.9,295.22232142857143,290.12857142857143,209.7,295.22232142857143,290.12857142857143,314.2,295.22232142857143,290.12857142857143,414.9,40.222321428571426,44.128571428571426,519.2,7.222321428571426,-3.8714285714285737,624.8,27.222321428571426,-22.871428571428574,725.4,61.222321428571426,28.128571428571426,829.7,150.22232142857143,115.12857142857143,933.8,523.2223214285714,355.12857142857143,1034.5,548.2223214285714,467.12857142857143,1135.4,544.2223214285714,508.12857142857143,1239.6,544.2223214285714,514.1285714285714,1340.2,544.2223214285714,514.1285714285714,1445,544.2223214285714,514.1285714285714,1550.1,544.2223214285714,514.1285714285714,1654.6,544.2223214285714,514.1285714285714,1754.7,544.2223214285714,514.1285714285714,1859.3,544.2223214285714,514.1285714285714,1959.7,544.2223214285714,514.1285714285714,2064.2,544.2223214285714,514.1285714285714,2169.3,544.2223214285714,514.1285714285714,2269.4,544.2223214285714,514.1285714285714,2369.5,544.2223214285714,514.1285714285714,2474.5,544.2223214285714,514.1285714285714,2579.2,544.2223214285714,514.1285714285714,2679.2,544.2223214285714,514.1285714285714,2782.8,544.2223214285714,514.1285714285714,2882.8,544.2223214285714,514.1285714285714,2984.1,544.2223214285714,514.1285714285714,3084.3,544.2223214285714,514.1285714285714,3184.7,544.2223214285714,514.1285714285714,3284.8,544.2223214285714,514.1285714285714,3386,544.2223214285714,514.1285714285714,3489.8,544.2223214285714,514.1285714285714,3590.5,544.2223214285714,514.1285714285714,3698,544.2223214285714,514.1285714285714,3799,544.2223214285714,514.1285714285714,3899,544.2223214285714,514.1285714285714,3999.4,544.2223214285714,514.1285714285714,4104.5,544.2223214285714,514.1285714285714,4209,544.2223214285714,514.1285714285714,4309.5,544.2223214285714,514.1285714285714,4409.6,544.2223214285714,514.1285714285714,4514.4,544.2223214285714,514.1285714285714,4614.6,544.2223214285714,514.1285714285714,4719.6,544.2223214285714,514.1285714285714,4820,544.2223214285714,514.1285714285714,4920.6]","[329.1,329.1,1000,0,-670.9,""error"",""-"",""-"",""no_move"",5009.3,4680.1,3121.3,1334.7,553.3,""smooth"",""right"",""right"",""good_move"",22422.9,17413.3,2703.1,19150.2,569.6,""smooth"",""right"",""right"",""good_move"",25258.3,2835.2,2373.9,22423.2,461.2,""smooth"",""down"",""down"",""good_move"",28109.1,2850.6,2339.6,25258.5,511,""oops"",""up"",""left"",""bad_move"",30657.2,2547.8,2159.3,28109.4,388.5,""oops"",""right"",""left"",""bad_move"",33361.5,2704.1,2229.6,30657.4,474.5,""oops"",""right"",""up"",""bad_move""]","",""
"30397","","<div style=""width:500px;"">
  <p>What determined the result of this run?</p>
  </div>","1","html-slider-response","35","572746","0.0-5.0-1.5","264","1","2025-07-30 08:43:18","1f75c3e559b7213887762d5229550c2b","105.245.233.173","Mozilla/5.0 (Windows NT 10.0; Win64; x64) AppleWebKit/537.36 (KHTML, like Gecko) Chrome/138.0.0.0 Safari/537.36","WebKit","Chrome","138.0.0.0","Windows","10.0","https://app.prolific.com/","en-US,en;q=0.9","650ac282d9578d72800bf303","6877631c9844ddd5501205fc","6889dae0fcdb27df444a067f","3","1","650ac282d9578d72800bf303","3","1","2025-07-30T08:52:52.931Z","","","","","","","","","","","AttribQ","","50","","","","","","","","","","","","","","","","","","","","","","","","","","","","",""
"3112","","<div style=""width:500px;"">
  <p>How much control did you have over the ball?</p>
  </div>","5","html-slider-response","36","575858","0.0-5.0-2.5","264","1","2025-07-30 08:43:18","1f75c3e559b7213887762d5229550c2b","105.245.233.173","Mozilla/5.0 (Windows NT 10.0; Win64; x64) AppleWebKit/537.36 (KHTML, like Gecko) Chrome/138.0.0.0 Safari/537.36","WebKit","Chrome","138.0.0.0","Windows","10.0","https://app.prolific.com/","en-US,en;q=0.9","650ac282d9578d72800bf303","6877631c9844ddd5501205fc","6889dae0fcdb27df444a067f","3","1","650ac282d9578d72800bf303","3","1","2025-07-30T08:52:56.043Z","","","","","","","","","","","ControlQ","","50","","","","","","","","","","","","","","","","","","","","","","","","","","","","",""
"3778","","<div style=""width:500px;"">
  <p>How would you describe your current emotional state?</p>
  </div>","54","html-slider-response","37","579638","0.0-5.0-3.5","264","1","2025-07-30 08:43:18","1f75c3e559b7213887762d5229550c2b","105.245.233.173","Mozilla/5.0 (Windows NT 10.0; Win64; x64) AppleWebKit/537.36 (KHTML, like Gecko) Chrome/138.0.0.0 Safari/537.36","WebKit","Chrome","138.0.0.0","Windows","10.0","https://app.prolific.com/","en-US,en;q=0.9","650ac282d9578d72800bf303","6877631c9844ddd5501205fc","6889dae0fcdb27df444a067f","3","1","650ac282d9578d72800bf303","3","1","2025-07-30T08:52:59.823Z","","","","","","","","","","","StressQ","","50","","","","","","","","","","","","","","","","","","","","","","","","","","","","",""
"9191","","<div style=""width:500px;"">
  <p>What best describes how you currently feel?</p>
  </div>","43","html-slider-response","38","588829","0.0-5.0-4.5","264","1","2025-07-30 08:43:18","1f75c3e559b7213887762d5229550c2b","105.245.233.173","Mozilla/5.0 (Windows NT 10.0; Win64; x64) AppleWebKit/537.36 (KHTML, like Gecko) Chrome/138.0.0.0 Safari/537.36","WebKit","Chrome","138.0.0.0","Windows","10.0","https://app.prolific.com/","en-US,en;q=0.9","650ac282d9578d72800bf303","6877631c9844ddd5501205fc","6889dae0fcdb27df444a067f","3","1","650ac282d9578d72800bf303","3","1","2025-07-30T08:53:09.014Z","","","","","","","","","","","MotivationQ","","50","","","","","","","","","","","","","","","","","","","","","","","","","","","","",""
"","","","","ctl-task-cpt","39","618397","0.0-5.0-0.6","264","1","2025-07-30 08:43:18","1f75c3e559b7213887762d5229550c2b","105.245.233.173","Mozilla/5.0 (Windows NT 10.0; Win64; x64) AppleWebKit/537.36 (KHTML, like Gecko) Chrome/138.0.0.0 Safari/537.36","WebKit","Chrome","138.0.0.0","Windows","10.0","https://app.prolific.com/","en-US,en;q=0.9","650ac282d9578d72800bf303","6877631c9844ddd5501205fc","6889dae0fcdb27df444a067f","3","1","650ac282d9578d72800bf303","3","1","2025-07-30T08:53:38.582Z","","","","","","","","","","","","","","win-only","0","g1:NW,g2:SE","0.4","7","0","591776.7","2579.4","7581.7","26555.8","1","4","8","6","1","-1","-1","0","0","0","2081.1","3000","-2890","[""left"",""up""]","{""num_key_presses"":6,""num_perfect"":3,""num_errors"":0,""num_randdir"":3,""num_randdir_good_moves"":1,""num_whilered"":0,""num_whileblue"":0,""num_blue"":0,""num_good_moves"":4}","[296.22232142857143,297.12857142857143,0.2,296.22232142857143,297.12857142857143,102.6,296.22232142857143,297.12857142857143,208.6,296.22232142857143,297.12857142857143,311.3,296.22232142857143,297.12857142857143,411.7,296.22232142857143,297.12857142857143,511.9,88.22232142857143,166.12857142857143,619.7,41.222321428571426,122.12857142857143,721.7,47.222321428571426,100.12857142857143,823.1,47.222321428571426,100.12857142857143,926.2,47.222321428571426,100.12857142857143,1035.8,47.222321428571426,100.12857142857143,1136.6,47.222321428571426,100.12857142857143,1241.3,47.222321428571426,100.12857142857143,1341.3,47.222321428571426,100.12857142857143,1441.6,47.222321428571426,100.12857142857143,1549.5,47.222321428571426,100.12857142857143,1656.8,47.222321428571426,100.12857142857143,1756.8,49.222321428571426,89.12857142857143,1857.8,49.222321428571426,89.12857142857143,1962.5,49.222321428571426,89.12857142857143,2070.5,49.222321428571426,89.12857142857143,2172.9,49.222321428571426,89.12857142857143,2276.4,49.222321428571426,89.12857142857143,2376.9,49.222321428571426,89.12857142857143,2482.3,49.222321428571426,89.12857142857143,2585.9,49.222321428571426,89.12857142857143,2686.3,49.222321428571426,89.12857142857143,2786.3,49.222321428571426,89.12857142857143,2892.2,49.222321428571426,89.12857142857143,2999.4,49.222321428571426,89.12857142857143,3101.8,49.222321428571426,89.12857142857143,3206.7,49.222321428571426,89.12857142857143,3310.8,49.222321428571426,89.12857142857143,3410.9,49.222321428571426,89.12857142857143,3512,49.222321428571426,89.12857142857143,3616.9,49.222321428571426,89.12857142857143,3721.9,49.222321428571426,89.12857142857143,3826.7,49.222321428571426,89.12857142857143,3927,49.222321428571426,89.12857142857143,4031.1,49.222321428571426,89.12857142857143,4131.2,49.222321428571426,89.12857142857143,4232.5,49.222321428571426,89.12857142857143,4336.6,49.222321428571426,89.12857142857143,4441.9,49.222321428571426,89.12857142857143,4550.3,49.222321428571426,89.12857142857143,4654.5,49.222321428571426,89.12857142857143,4756.2,49.222321428571426,89.12857142857143,4861.1,49.222321428571426,89.12857142857143,4961.6]","[1552.4,1552.4,1000,0,552.4,""oops"",""left"",""right"",""bad_move"",4273.1,2720.5,2291,1552.6,429.5,""oops"",""left"",""up"",""good_move"",7759.9,3486.6,3030,4273.3,456.6,""oops"",""left"",""down"",""bad_move"",11136.1,3376,2914,7760.1,462.1,""smooth"",""left"",""left"",""good_move"",13942.4,2806.1,2415.1,11136.3,391,""smooth"",""left"",""left"",""good_move"",16482.1,2539.4,2081.5,13942.7,457.9,""smooth"",""left"",""left"",""good_move""]","",""
"4061","","<div style=""width:500px;"">
  <p>What determined the result of this run?</p>
  </div>","53","html-slider-response","40","622458","0.0-5.0-1.6","264","1","2025-07-30 08:43:18","1f75c3e559b7213887762d5229550c2b","105.245.233.173","Mozilla/5.0 (Windows NT 10.0; Win64; x64) AppleWebKit/537.36 (KHTML, like Gecko) Chrome/138.0.0.0 Safari/537.36","WebKit","Chrome","138.0.0.0","Windows","10.0","https://app.prolific.com/","en-US,en;q=0.9","650ac282d9578d72800bf303","6877631c9844ddd5501205fc","6889dae0fcdb27df444a067f","3","1","650ac282d9578d72800bf303","3","1","2025-07-30T08:53:42.643Z","","","","","","","","","","","AttribQ","","50","","","","","","","","","","","","","","","","","","","","","","","","","","","","",""
"3226","","<div style=""width:500px;"">
  <p>How much control did you have over the ball?</p>
  </div>","1","html-slider-response","41","625685","0.0-5.0-2.6","264","1","2025-07-30 08:43:18","1f75c3e559b7213887762d5229550c2b","105.245.233.173","Mozilla/5.0 (Windows NT 10.0; Win64; x64) AppleWebKit/537.36 (KHTML, like Gecko) Chrome/138.0.0.0 Safari/537.36","WebKit","Chrome","138.0.0.0","Windows","10.0","https://app.prolific.com/","en-US,en;q=0.9","650ac282d9578d72800bf303","6877631c9844ddd5501205fc","6889dae0fcdb27df444a067f","3","1","650ac282d9578d72800bf303","3","1","2025-07-30T08:53:45.870Z","","","","","","","","","","","ControlQ","","50","","","","","","","","","","","","","","","","","","","","","","","","","","","","",""
"2872","","<div style=""width:500px;"">
  <p>How would you describe your current emotional state?</p>
  </div>","17","html-slider-response","42","628558","0.0-5.0-3.6","264","1","2025-07-30 08:43:18","1f75c3e559b7213887762d5229550c2b","105.245.233.173","Mozilla/5.0 (Windows NT 10.0; Win64; x64) AppleWebKit/537.36 (KHTML, like Gecko) Chrome/138.0.0.0 Safari/537.36","WebKit","Chrome","138.0.0.0","Windows","10.0","https://app.prolific.com/","en-US,en;q=0.9","650ac282d9578d72800bf303","6877631c9844ddd5501205fc","6889dae0fcdb27df444a067f","3","1","650ac282d9578d72800bf303","3","1","2025-07-30T08:53:48.743Z","","","","","","","","","","","StressQ","","50","","","","","","","","","","","","","","","","","","","","","","","","","","","","",""
"4425","","<div style=""width:500px;"">
  <p>What best describes how you currently feel?</p>
  </div>","37","html-slider-response","43","632984","0.0-5.0-4.6","264","1","2025-07-30 08:43:18","1f75c3e559b7213887762d5229550c2b","105.245.233.173","Mozilla/5.0 (Windows NT 10.0; Win64; x64) AppleWebKit/537.36 (KHTML, like Gecko) Chrome/138.0.0.0 Safari/537.36","WebKit","Chrome","138.0.0.0","Windows","10.0","https://app.prolific.com/","en-US,en;q=0.9","650ac282d9578d72800bf303","6877631c9844ddd5501205fc","6889dae0fcdb27df444a067f","3","1","650ac282d9578d72800bf303","3","1","2025-07-30T08:53:53.169Z","","","","","","","","","","","MotivationQ","","50","","","","","","","","","","","","","","","","","","","","","","","","","","","","",""
"","","","","ctl-task-cpt","44","654102","0.0-5.0-0.7","264","1","2025-07-30 08:43:18","1f75c3e559b7213887762d5229550c2b","105.245.233.173","Mozilla/5.0 (Windows NT 10.0; Win64; x64) AppleWebKit/537.36 (KHTML, like Gecko) Chrome/138.0.0.0 Safari/537.36","WebKit","Chrome","138.0.0.0","Windows","10.0","https://app.prolific.com/","en-US,en;q=0.9","650ac282d9578d72800bf303","6877631c9844ddd5501205fc","6889dae0fcdb27df444a067f","3","1","650ac282d9578d72800bf303","3","1","2025-07-30T08:54:14.287Z","","","","","","","","","","","","","","win-only","3","g1:SW,g2:NE","0.3","8","0","635931.6","1433.3","6435.5","18100.6","1","4","4","6","1","1","1","1","0","0.007575757575757576","1621.7","3000","1275","[""down"",""left""]","{""num_key_presses"":4,""num_perfect"":2,""num_errors"":0,""num_randdir"":2,""num_randdir_good_moves"":2,""num_whilered"":0,""num_whileblue"":0,""num_blue"":0,""num_good_moves"":4}","[290.22232142857143,301.12857142857143,0.2,290.22232142857143,301.12857142857143,102.6,290.22232142857143,301.12857142857143,202.6,290.22232142857143,301.12857142857143,307.7,290.22232142857143,301.12857142857143,412,290.22232142857143,301.12857142857143,512.3,291.22232142857143,294.12857142857143,612.4,284.22232142857143,289.12857142857143,717.7,367.22232142857143,143.12857142857143,823.5,333.22232142857143,293.12857142857143,928.3,134.22232142857143,492.12857142857143,1032.8,109.22232142857143,510.12857142857143,1137.5,72.22232142857143,517.1285714285714,1242.3,41.222321428571426,528.1285714285714,1347,39.222321428571426,529.1285714285714,1448.4,39.222321428571426,529.1285714285714,1552.5,39.222321428571426,529.1285714285714,1657.9,39.222321428571426,529.1285714285714,1758.2,39.222321428571426,529.1285714285714,1862.8,39.222321428571426,529.1285714285714,1967.8,39.222321428571426,529.1285714285714,2072.9,39.222321428571426,529.1285714285714,2174.1,39.222321428571426,529.1285714285714,2277.1,39.222321428571426,529.1285714285714,2378.4,39.222321428571426,529.1285714285714,2481.9,39.222321428571426,529.1285714285714,2581.9,39.222321428571426,529.1285714285714,2683.2,39.222321428571426,529.1285714285714,2787.1,39.222321428571426,529.1285714285714,2887.7,39.222321428571426,529.1285714285714,2993.1,39.222321428571426,529.1285714285714,3097.6,39.222321428571426,529.1285714285714,3202.3,39.222321428571426,529.1285714285714,3302.8,39.222321428571426,529.1285714285714,3411.5,39.222321428571426,529.1285714285714,3513,39.222321428571426,529.1285714285714,3616.9,39.222321428571426,529.1285714285714,3717.8,39.222321428571426,529.1285714285714,3818.3,39.222321428571426,529.1285714285714,3922.5,39.222321428571426,529.1285714285714,4025.9,39.222321428571426,529.1285714285714,4127.1,39.222321428571426,529.1285714285714,4235,39.222321428571426,529.1285714285714,4337.4,39.222321428571426,529.1285714285714,4437.6,39.222321428571426,529.1285714285714,4547.9,39.222321428571426,529.1285714285714,4648.4,39.222321428571426,529.1285714285714,4751.9,39.222321428571426,529.1285714285714,4852,39.222321428571426,529.1285714285714,4953.2]","[1489.5,1489.5,1000,0,489.5,""smooth"",""left"",""left"",""good_move"",4570.7,3080.9,2614,1489.8,466.9,""smooth"",""down"",""down"",""good_move"",7853.6,3282.6,2815.4,4571,467.2,""oops"",""down"",""left"",""good_move"",11574,3720.1,3267.8,7853.9,452.3,""oops"",""down"",""down"",""good_move""]","",""
"3219","","<div style=""width:500px;"">
  <p>What determined the result of this run?</p>
  </div>","15","html-slider-response","45","657322","0.0-5.0-1.7","264","1","2025-07-30 08:43:18","1f75c3e559b7213887762d5229550c2b","105.245.233.173","Mozilla/5.0 (Windows NT 10.0; Win64; x64) AppleWebKit/537.36 (KHTML, like Gecko) Chrome/138.0.0.0 Safari/537.36","WebKit","Chrome","138.0.0.0","Windows","10.0","https://app.prolific.com/","en-US,en;q=0.9","650ac282d9578d72800bf303","6877631c9844ddd5501205fc","6889dae0fcdb27df444a067f","3","1","650ac282d9578d72800bf303","3","1","2025-07-30T08:54:17.507Z","","","","","","","","","","","AttribQ","","50","","","","","","","","","","","","","","","","","","","","","","","","","","","","",""
"4222","","<div style=""width:500px;"">
  <p>How much control did you have over the ball?</p>
  </div>","13","html-slider-response","46","661545","0.0-5.0-2.7","264","1","2025-07-30 08:43:18","1f75c3e559b7213887762d5229550c2b","105.245.233.173","Mozilla/5.0 (Windows NT 10.0; Win64; x64) AppleWebKit/537.36 (KHTML, like Gecko) Chrome/138.0.0.0 Safari/537.36","WebKit","Chrome","138.0.0.0","Windows","10.0","https://app.prolific.com/","en-US,en;q=0.9","650ac282d9578d72800bf303","6877631c9844ddd5501205fc","6889dae0fcdb27df444a067f","3","1","650ac282d9578d72800bf303","3","1","2025-07-30T08:54:21.731Z","","","","","","","","","","","ControlQ","","50","","","","","","","","","","","","","","","","","","","","","","","","","","","","",""
"3857","","<div style=""width:500px;"">
  <p>How would you describe your current emotional state?</p>
  </div>","23","html-slider-response","47","665403","0.0-5.0-3.7","264","1","2025-07-30 08:43:18","1f75c3e559b7213887762d5229550c2b","105.245.233.173","Mozilla/5.0 (Windows NT 10.0; Win64; x64) AppleWebKit/537.36 (KHTML, like Gecko) Chrome/138.0.0.0 Safari/537.36","WebKit","Chrome","138.0.0.0","Windows","10.0","https://app.prolific.com/","en-US,en;q=0.9","650ac282d9578d72800bf303","6877631c9844ddd5501205fc","6889dae0fcdb27df444a067f","3","1","650ac282d9578d72800bf303","3","1","2025-07-30T08:54:25.588Z","","","","","","","","","","","StressQ","","50","","","","","","","","","","","","","","","","","","","","","","","","","","","","",""
"3193","","<div style=""width:500px;"">
  <p>What best describes how you currently feel?</p>
  </div>","23","html-slider-response","48","668597","0.0-5.0-4.7","264","1","2025-07-30 08:43:18","1f75c3e559b7213887762d5229550c2b","105.245.233.173","Mozilla/5.0 (Windows NT 10.0; Win64; x64) AppleWebKit/537.36 (KHTML, like Gecko) Chrome/138.0.0.0 Safari/537.36","WebKit","Chrome","138.0.0.0","Windows","10.0","https://app.prolific.com/","en-US,en;q=0.9","650ac282d9578d72800bf303","6877631c9844ddd5501205fc","6889dae0fcdb27df444a067f","3","1","650ac282d9578d72800bf303","3","1","2025-07-30T08:54:28.782Z","","","","","","","","","","","MotivationQ","","50","","","","","","","","","","","","","","","","","","","","","","","","","","","","",""
"","","","","ctl-task-cpt","49","710897","0.0-5.0-0.8","264","1","2025-07-30 08:43:18","1f75c3e559b7213887762d5229550c2b","105.245.233.173","Mozilla/5.0 (Windows NT 10.0; Win64; x64) AppleWebKit/537.36 (KHTML, like Gecko) Chrome/138.0.0.0 Safari/537.36","WebKit","Chrome","138.0.0.0","Windows","10.0","https://app.prolific.com/","en-US,en;q=0.9","650ac282d9578d72800bf303","6877631c9844ddd5501205fc","6889dae0fcdb27df444a067f","3","1","650ac282d9578d72800bf303","3","1","2025-07-30T08:55:11.082Z","","","","","","","","","","","","","","win-only","0","g1:NW,g2:SE","0.2","9","0","671544.4","1508.7","6512.4","39282.1","1","4","8","6","1","-1","-4","0","1","0","1253","3000","-2955","[""left"",""up""]","{""num_key_presses"":8,""num_perfect"":1,""num_errors"":3,""num_randdir"":4,""num_randdir_good_moves"":1,""num_whilered"":0,""num_whileblue"":2,""num_blue"":4,""num_good_moves"":3}","[295.22232142857143,294.12857142857143,0.3,295.22232142857143,294.12857142857143,102.6,295.22232142857143,294.12857142857143,205,295.22232142857143,294.12857142857143,307.3,295.22232142857143,294.12857142857143,407.6,295.22232142857143,294.12857142857143,507.6,254.22232142857143,266.12857142857143,607.6,27.222321428571426,133.12857142857143,708.8,5.222321428571426,78.12857142857143,812.6,45.222321428571426,84.12857142857143,920.1,51.222321428571426,86.12857142857143,1024.4,51.222321428571426,86.12857142857143,1128.9,51.222321428571426,86.12857142857143,1233.2,51.222321428571426,86.12857142857143,1339.5,51.222321428571426,86.12857142857143,1441.9,51.222321428571426,86.12857142857143,1542.3,51.222321428571426,86.12857142857143,1643.1,51.222321428571426,86.12857142857143,1747.7,51.222321428571426,86.12857142857143,1848.8,51.222321428571426,86.12857142857143,1956.5,51.222321428571426,86.12857142857143,2058,51.222321428571426,86.12857142857143,2158,51.222321428571426,86.12857142857143,2263.1,51.222321428571426,86.12857142857143,2367.5,51.222321428571426,86.12857142857143,2467.9,51.222321428571426,86.12857142857143,2568,51.222321428571426,86.12857142857143,2672.1,51.222321428571426,86.12857142857143,2772.5,51.222321428571426,86.12857142857143,2873.5,51.222321428571426,86.12857142857143,2977.5,51.222321428571426,86.12857142857143,3087.1,51.222321428571426,86.12857142857143,3190.9,51.222321428571426,86.12857142857143,3292.1,51.222321428571426,86.12857142857143,3392.7,51.222321428571426,86.12857142857143,3497.9,51.222321428571426,86.12857142857143,3602,51.222321428571426,86.12857142857143,3702.3,51.222321428571426,86.12857142857143,3803.8,51.222321428571426,86.12857142857143,3907.5,51.222321428571426,86.12857142857143,4007.6,51.222321428571426,86.12857142857143,4112.1,51.222321428571426,86.12857142857143,4212.9,51.222321428571426,86.12857142857143,4313.7,51.222321428571426,86.12857142857143,4418,51.222321428571426,86.12857142857143,4518,51.222321428571426,86.12857142857143,4623.6,51.222321428571426,86.12857142857143,4727.8,51.222321428571426,86.12857142857143,4832.8,51.222321428571426,86.12857142857143,4932.9]","[1532.7,1532.7,1000,0,532.7,""oops"",""up"",""up"",""good_move"",4996.2,3463.1,3041.8,1533.1,421.3,""oops"",""up"",""right"",""bad_move"",7631,2634.5,2226.1,4996.5,408.4,""smooth"",""up"",""up"",""good_move"",11265.2,3634,3241.5,7631.2,392.5,""oops"",""left"",""right"",""bad_move"",21668.6,10403.1,2535,18729.3,404.3,""oops"",""left"",""right"",""bad_move"",22187.3,518.5,2026.2,21668.8,-1507.7,""error"",""-"",""-"",""no_move"",26520.6,4333.2,2965.9,23189.3,365.4,""while_blue"",""left"",""left"",""good_move"",29470.1,2949.1,2368.3,26521,580.8,""while_blue"",""left"",""right"",""bad_move""]","",""
"5790","","<div style=""width:500px;"">
  <p>What determined the result of this run?</p>
  </div>","0","html-slider-response","50","716688","0.0-5.0-1.8","264","1","2025-07-30 08:43:18","1f75c3e559b7213887762d5229550c2b","105.245.233.173","Mozilla/5.0 (Windows NT 10.0; Win64; x64) AppleWebKit/537.36 (KHTML, like Gecko) Chrome/138.0.0.0 Safari/537.36","WebKit","Chrome","138.0.0.0","Windows","10.0","https://app.prolific.com/","en-US,en;q=0.9","650ac282d9578d72800bf303","6877631c9844ddd5501205fc","6889dae0fcdb27df444a067f","3","1","650ac282d9578d72800bf303","3","1","2025-07-30T08:55:16.873Z","","","","","","","","","","","AttribQ","","50","","","","","","","","","","","","","","","","","","","","","","","","","","","","",""
"3480","","<div style=""width:500px;"">
  <p>How much control did you have over the ball?</p>
  </div>","0","html-slider-response","51","720169","0.0-5.0-2.8","264","1","2025-07-30 08:43:18","1f75c3e559b7213887762d5229550c2b","105.245.233.173","Mozilla/5.0 (Windows NT 10.0; Win64; x64) AppleWebKit/537.36 (KHTML, like Gecko) Chrome/138.0.0.0 Safari/537.36","WebKit","Chrome","138.0.0.0","Windows","10.0","https://app.prolific.com/","en-US,en;q=0.9","650ac282d9578d72800bf303","6877631c9844ddd5501205fc","6889dae0fcdb27df444a067f","3","1","650ac282d9578d72800bf303","3","1","2025-07-30T08:55:20.354Z","","","","","","","","","","","ControlQ","","50","","","","","","","","","","","","","","","","","","","","","","","","","","","","",""
"2970","","<div style=""width:500px;"">
  <p>How would you describe your current emotional state?</p>
  </div>","12","html-slider-response","52","723140","0.0-5.0-3.8","264","1","2025-07-30 08:43:18","1f75c3e559b7213887762d5229550c2b","105.245.233.173","Mozilla/5.0 (Windows NT 10.0; Win64; x64) AppleWebKit/537.36 (KHTML, like Gecko) Chrome/138.0.0.0 Safari/537.36","WebKit","Chrome","138.0.0.0","Windows","10.0","https://app.prolific.com/","en-US,en;q=0.9","650ac282d9578d72800bf303","6877631c9844ddd5501205fc","6889dae0fcdb27df444a067f","3","1","650ac282d9578d72800bf303","3","1","2025-07-30T08:55:23.325Z","","","","","","","","","","","StressQ","","50","","","","","","","","","","","","","","","","","","","","","","","","","","","","",""
"2340","","<div style=""width:500px;"">
  <p>What best describes how you currently feel?</p>
  </div>","19","html-slider-response","53","725481","0.0-5.0-4.8","264","1","2025-07-30 08:43:18","1f75c3e559b7213887762d5229550c2b","105.245.233.173","Mozilla/5.0 (Windows NT 10.0; Win64; x64) AppleWebKit/537.36 (KHTML, like Gecko) Chrome/138.0.0.0 Safari/537.36","WebKit","Chrome","138.0.0.0","Windows","10.0","https://app.prolific.com/","en-US,en;q=0.9","650ac282d9578d72800bf303","6877631c9844ddd5501205fc","6889dae0fcdb27df444a067f","3","1","650ac282d9578d72800bf303","3","1","2025-07-30T08:55:25.666Z","","","","","","","","","","","MotivationQ","","50","","","","","","","","","","","","","","","","","","","","","","","","","","","","",""
"","","","","ctl-task-cpt","54","754780","0.0-5.0-0.9","264","1","2025-07-30 08:43:18","1f75c3e559b7213887762d5229550c2b","105.245.233.173","Mozilla/5.0 (Windows NT 10.0; Win64; x64) AppleWebKit/537.36 (KHTML, like Gecko) Chrome/138.0.0.0 Safari/537.36","WebKit","Chrome","138.0.0.0","Windows","10.0","https://app.prolific.com/","en-US,en;q=0.9","650ac282d9578d72800bf303","6877631c9844ddd5501205fc","6889dae0fcdb27df444a067f","3","1","650ac282d9578d72800bf303","3","1","2025-07-30T08:55:54.966Z","","","","","","","","","","","","","","win-only","2","g1:SE,g2:NW","0.4","10","0","728428.3","2865.9","7870.9","26286.4","1","4","4","6","1","1","0","0","0","0","1763.1","3000","975","[""down"",""right""]","{""num_key_presses"":6,""num_perfect"":2,""num_errors"":1,""num_randdir"":3,""num_randdir_good_moves"":3,""num_whilered"":0,""num_whileblue"":1,""num_blue"":2,""num_good_moves"":5}","[289.22232142857143,295.12857142857143,0.1,289.22232142857143,295.12857142857143,104.8,289.22232142857143,295.12857142857143,205.3,289.22232142857143,295.12857142857143,306.6,289.22232142857143,295.12857142857143,412.3,295.22232142857143,292.12857142857143,512.7,320.22232142857143,290.12857142857143,614.6,361.22232142857143,315.12857142857143,716.5,367.22232142857143,319.12857142857143,819.9,413.22232142857143,348.12857142857143,919.9,514.2223214285714,458.12857142857143,1020.1,610.2223214285714,541.1285714285714,1120.4,616.2223214285714,550.1285714285714,1226.5,616.2223214285714,550.1285714285714,1330.8,578.2223214285714,547.1285714285714,1432.5,557.2223214285714,546.1285714285714,1535.6,557.2223214285714,546.1285714285714,1640.2,557.2223214285714,546.1285714285714,1746.2,557.2223214285714,546.1285714285714,1850.2,557.2223214285714,546.1285714285714,1950.7,557.2223214285714,546.1285714285714,2055.3,557.2223214285714,546.1285714285714,2159.7,557.2223214285714,546.1285714285714,2261.1,557.2223214285714,546.1285714285714,2364.9,557.2223214285714,546.1285714285714,2465.9,557.2223214285714,546.1285714285714,2570.2,557.2223214285714,546.1285714285714,2670.3,557.2223214285714,546.1285714285714,2770.3,557.2223214285714,546.1285714285714,2878.4,557.2223214285714,546.1285714285714,2986.3,557.2223214285714,546.1285714285714,3090.8,557.2223214285714,546.1285714285714,3198.9,557.2223214285714,546.1285714285714,3300.1,557.2223214285714,546.1285714285714,3405,557.2223214285714,546.1285714285714,3515.5,557.2223214285714,546.1285714285714,3619.9,557.2223214285714,546.1285714285714,3725.5,557.2223214285714,546.1285714285714,3834.2,557.2223214285714,546.1285714285714,3934.4,557.2223214285714,546.1285714285714,4034.5,557.2223214285714,546.1285714285714,4136,557.2223214285714,546.1285714285714,4241.2,557.2223214285714,546.1285714285714,4341.3,557.2223214285714,546.1285714285714,4441.4,557.2223214285714,546.1285714285714,4541.6,557.2223214285714,546.1285714285714,4652.1,557.2223214285714,546.1285714285714,4755.3,557.2223214285714,546.1285714285714,4859.6,557.2223214285714,546.1285714285714,4965.1]","[4721.8,4721.8,2320.8,2004.6,396.4,""oops"",""right"",""right"",""good_move"",7342.1,2620.1,2185.4,4722.1,434.6,""smooth"",""right"",""right"",""good_move"",11043.8,3701.5,3270.9,7342.3,430.6,""oops"",""down"",""down"",""good_move"",13003.1,1959,1506.9,11044.1,452.1,""while_blue"",""down"",""left"",""bad_move"",16027,3023.7,2633.2,13003.3,390.5,""oops"",""down"",""down"",""good_move"",18325.9,2298.7,1827.3,16027.3,471.4,""smooth"",""right"",""right"",""good_move""]","",""
"3702","","<div style=""width:500px;"">
  <p>What determined the result of this run?</p>
  </div>","0","html-slider-response","55","758483","0.0-5.0-1.9","264","1","2025-07-30 08:43:18","1f75c3e559b7213887762d5229550c2b","105.245.233.173","Mozilla/5.0 (Windows NT 10.0; Win64; x64) AppleWebKit/537.36 (KHTML, like Gecko) Chrome/138.0.0.0 Safari/537.36","WebKit","Chrome","138.0.0.0","Windows","10.0","https://app.prolific.com/","en-US,en;q=0.9","650ac282d9578d72800bf303","6877631c9844ddd5501205fc","6889dae0fcdb27df444a067f","3","1","650ac282d9578d72800bf303","3","1","2025-07-30T08:55:58.669Z","","","","","","","","","","","AttribQ","","50","","","","","","","","","","","","","","","","","","","","","","","","","","","","",""
"2785","","<div style=""width:500px;"">
  <p>How much control did you have over the ball?</p>
  </div>","16","html-slider-response","56","761270","0.0-5.0-2.9","264","1","2025-07-30 08:43:18","1f75c3e559b7213887762d5229550c2b","105.245.233.173","Mozilla/5.0 (Windows NT 10.0; Win64; x64) AppleWebKit/537.36 (KHTML, like Gecko) Chrome/138.0.0.0 Safari/537.36","WebKit","Chrome","138.0.0.0","Windows","10.0","https://app.prolific.com/","en-US,en;q=0.9","650ac282d9578d72800bf303","6877631c9844ddd5501205fc","6889dae0fcdb27df444a067f","3","1","650ac282d9578d72800bf303","3","1","2025-07-30T08:56:01.455Z","","","","","","","","","","","ControlQ","","50","","","","","","","","","","","","","","","","","","","","","","","","","","","","",""
"2682","","<div style=""width:500px;"">
  <p>How would you describe your current emotional state?</p>
  </div>","14","html-slider-response","57","763953","0.0-5.0-3.9","264","1","2025-07-30 08:43:18","1f75c3e559b7213887762d5229550c2b","105.245.233.173","Mozilla/5.0 (Windows NT 10.0; Win64; x64) AppleWebKit/537.36 (KHTML, like Gecko) Chrome/138.0.0.0 Safari/537.36","WebKit","Chrome","138.0.0.0","Windows","10.0","https://app.prolific.com/","en-US,en;q=0.9","650ac282d9578d72800bf303","6877631c9844ddd5501205fc","6889dae0fcdb27df444a067f","3","1","650ac282d9578d72800bf303","3","1","2025-07-30T08:56:04.138Z","","","","","","","","","","","StressQ","","50","","","","","","","","","","","","","","","","","","","","","","","","","","","","",""
"3037","","<div style=""width:500px;"">
  <p>What best describes how you currently feel?</p>
  </div>","14","html-slider-response","58","766990","0.0-5.0-4.9","264","1","2025-07-30 08:43:18","1f75c3e559b7213887762d5229550c2b","105.245.233.173","Mozilla/5.0 (Windows NT 10.0; Win64; x64) AppleWebKit/537.36 (KHTML, like Gecko) Chrome/138.0.0.0 Safari/537.36","WebKit","Chrome","138.0.0.0","Windows","10.0","https://app.prolific.com/","en-US,en;q=0.9","650ac282d9578d72800bf303","6877631c9844ddd5501205fc","6889dae0fcdb27df444a067f","3","1","650ac282d9578d72800bf303","3","1","2025-07-30T08:56:07.175Z","","","","","","","","","","","MotivationQ","","50","","","","","","","","","","","","","","","","","","","","","","","","","","","","",""
"","","","","ctl-task-cpt","59","812974","0.0-5.0-0.10","264","1","2025-07-30 08:43:18","1f75c3e559b7213887762d5229550c2b","105.245.233.173","Mozilla/5.0 (Windows NT 10.0; Win64; x64) AppleWebKit/537.36 (KHTML, like Gecko) Chrome/138.0.0.0 Safari/537.36","WebKit","Chrome","138.0.0.0","Windows","10.0","https://app.prolific.com/","en-US,en;q=0.9","650ac282d9578d72800bf303","6877631c9844ddd5501205fc","6889dae0fcdb27df444a067f","3","1","650ac282d9578d72800bf303","3","1","2025-07-30T08:56:53.159Z","","","","","","","","","","","","","","win-only","3","g1:SW,g2:NE","0.5","11","0","769937.8","1337","6342.6","42975.8","1","4","8","6","1","-1","-3","0","0","0","2062.8","3000","-2795","[""down"",""left""]","{""num_key_presses"":8,""num_perfect"":3,""num_errors"":2,""num_randdir"":3,""num_randdir_good_moves"":1,""num_whilered"":0,""num_whileblue"":2,""num_blue"":5,""num_good_moves"":5}","[292.22232142857143,301.12857142857143,0.1,292.22232142857143,301.12857142857143,103.8,292.22232142857143,301.12857142857143,209.8,292.22232142857143,301.12857142857143,319.3,292.22232142857143,301.12857142857143,424.1,292.22232142857143,301.12857142857143,524.2,316.22232142857143,178.12857142857143,628.9,396.22232142857143,123.12857142857143,739.3,452.22232142857143,84.12857142857143,843.4,452.22232142857143,84.12857142857143,945.6,414.22232142857143,164.12857142857143,1052.6,144.22232142857143,473.12857142857143,1153.3,93.22232142857143,538.1285714285714,1254.4,84.22232142857143,497.12857142857143,1358.4,85.22232142857143,475.12857142857143,1460.9,85.22232142857143,475.12857142857143,1564.2,85.22232142857143,475.12857142857143,1668,83.22232142857143,497.12857142857143,1775.8,81.22232142857143,508.12857142857143,1879.2,81.22232142857143,508.12857142857143,1984.6,81.22232142857143,508.12857142857143,2084.6,81.22232142857143,508.12857142857143,2189.1,81.22232142857143,508.12857142857143,2299.2,81.22232142857143,508.12857142857143,2400.6,81.22232142857143,508.12857142857143,2503.4,81.22232142857143,508.12857142857143,2603.9,81.22232142857143,508.12857142857143,2708.8,81.22232142857143,508.12857142857143,2810.2,81.22232142857143,508.12857142857143,2913.6,81.22232142857143,508.12857142857143,3018.6,81.22232142857143,508.12857142857143,3119.3,81.22232142857143,508.12857142857143,3220.3,81.22232142857143,508.12857142857143,3323.8,81.22232142857143,508.12857142857143,3424.5,81.22232142857143,508.12857142857143,3536,81.22232142857143,508.12857142857143,3639.1,81.22232142857143,508.12857142857143,3744.6,81.22232142857143,508.12857142857143,3854.1,81.22232142857143,508.12857142857143,3954.3,81.22232142857143,508.12857142857143,4058.7,81.22232142857143,508.12857142857143,4158.7,81.22232142857143,508.12857142857143,4268.6,81.22232142857143,508.12857142857143,4373.6,81.22232142857143,508.12857142857143,4474.5,81.22232142857143,508.12857142857143,4579.3,81.22232142857143,508.12857142857143,4686.6,81.22232142857143,508.12857142857143,4789.9,81.22232142857143,508.12857142857143,4894,81.22232142857143,508.12857142857143,4998.8]","[1474.6,1474.6,1000,0,474.6,""smooth"",""down"",""down"",""good_move"",4219.2,2744.2,2294.3,1475,449.9,""smooth"",""left"",""left"",""good_move"",7395.7,3176.1,2777.6,4219.6,398.5,""smooth"",""left"",""left"",""good_move"",10428.6,3032.8,2600.3,7395.8,432.5,""oops"",""down"",""right"",""bad_move"",13724.8,3296,2914.1,10428.9,381.9,""while_blue"",""left"",""down"",""good_move"",19413,5687.7,1610.3,17367.6,435.1,""while_blue"",""left"",""right"",""bad_move"",25824.4,6411.2,2206.5,23149,468.9,""oops"",""left"",""left"",""good_move"",29106.3,3281.6,2828,25824.7,453.6,""oops"",""left"",""right"",""bad_move""]","",""
"4997","","<div style=""width:500px;"">
  <p>What determined the result of this run?</p>
  </div>","0","html-slider-response","60","817972","0.0-5.0-1.10","264","1","2025-07-30 08:43:18","1f75c3e559b7213887762d5229550c2b","105.245.233.173","Mozilla/5.0 (Windows NT 10.0; Win64; x64) AppleWebKit/537.36 (KHTML, like Gecko) Chrome/138.0.0.0 Safari/537.36","WebKit","Chrome","138.0.0.0","Windows","10.0","https://app.prolific.com/","en-US,en;q=0.9","650ac282d9578d72800bf303","6877631c9844ddd5501205fc","6889dae0fcdb27df444a067f","3","1","650ac282d9578d72800bf303","3","1","2025-07-30T08:56:58.157Z","","","","","","","","","","","AttribQ","","50","","","","","","","","","","","","","","","","","","","","","","","","","","","","",""
"6210","","<div style=""width:500px;"">
  <p>How much control did you have over the ball?</p>
  </div>","3","html-slider-response","61","824184","0.0-5.0-2.10","264","1","2025-07-30 08:43:18","1f75c3e559b7213887762d5229550c2b","105.245.233.173","Mozilla/5.0 (Windows NT 10.0; Win64; x64) AppleWebKit/537.36 (KHTML, like Gecko) Chrome/138.0.0.0 Safari/537.36","WebKit","Chrome","138.0.0.0","Windows","10.0","https://app.prolific.com/","en-US,en;q=0.9","650ac282d9578d72800bf303","6877631c9844ddd5501205fc","6889dae0fcdb27df444a067f","3","1","650ac282d9578d72800bf303","3","1","2025-07-30T08:57:04.369Z","","","","","","","","","","","ControlQ","","50","","","","","","","","","","","","","","","","","","","","","","","","","","","","",""
"2242","","<div style=""width:500px;"">
  <p>How would you describe your current emotional state?</p>
  </div>","6","html-slider-response","62","826426","0.0-5.0-3.10","264","1","2025-07-30 08:43:18","1f75c3e559b7213887762d5229550c2b","105.245.233.173","Mozilla/5.0 (Windows NT 10.0; Win64; x64) AppleWebKit/537.36 (KHTML, like Gecko) Chrome/138.0.0.0 Safari/537.36","WebKit","Chrome","138.0.0.0","Windows","10.0","https://app.prolific.com/","en-US,en;q=0.9","650ac282d9578d72800bf303","6877631c9844ddd5501205fc","6889dae0fcdb27df444a067f","3","1","650ac282d9578d72800bf303","3","1","2025-07-30T08:57:06.611Z","","","","","","","","","","","StressQ","","50","","","","","","","","","","","","","","","","","","","","","","","","","","","","",""
"3307","","<div style=""width:500px;"">
  <p>What best describes how you currently feel?</p>
  </div>","10","html-slider-response","63","829734","0.0-5.0-4.10","264","1","2025-07-30 08:43:18","1f75c3e559b7213887762d5229550c2b","105.245.233.173","Mozilla/5.0 (Windows NT 10.0; Win64; x64) AppleWebKit/537.36 (KHTML, like Gecko) Chrome/138.0.0.0 Safari/537.36","WebKit","Chrome","138.0.0.0","Windows","10.0","https://app.prolific.com/","en-US,en;q=0.9","650ac282d9578d72800bf303","6877631c9844ddd5501205fc","6889dae0fcdb27df444a067f","3","1","650ac282d9578d72800bf303","3","1","2025-07-30T08:57:09.919Z","","","","","","","","","","","MotivationQ","","50","","","","","","","","","","","","","","","","","","","","","","","","","","","","",""
"","","","","ctl-task-cpt","64","854446","0.0-5.0-0.11","264","1","2025-07-30 08:43:18","1f75c3e559b7213887762d5229550c2b","105.245.233.173","Mozilla/5.0 (Windows NT 10.0; Win64; x64) AppleWebKit/537.36 (KHTML, like Gecko) Chrome/138.0.0.0 Safari/537.36","WebKit","Chrome","138.0.0.0","Windows","10.0","https://app.prolific.com/","en-US,en;q=0.9","650ac282d9578d72800bf303","6877631c9844ddd5501205fc","6889dae0fcdb27df444a067f","3","1","650ac282d9578d72800bf303","3","1","2025-07-30T08:57:34.631Z","","","","","","","","","","","","","","win-only","1","g1:NE,g2:SW","0.6","12","0","832681.8","1562.4","6565.8","21692.8","1","4","4","6","1","-1","-1","0","0","0","974.5","3000","-2735","[""up"",""right""]","{""num_key_presses"":5,""num_perfect"":3,""num_errors"":0,""num_randdir"":2,""num_randdir_good_moves"":0,""num_whilered"":0,""num_whileblue"":0,""num_blue"":0,""num_good_moves"":3}","[298.22232142857143,299.12857142857143,0.2,298.22232142857143,299.12857142857143,103.6,298.22232142857143,299.12857142857143,209.8,298.22232142857143,299.12857142857143,319.2,298.22232142857143,299.12857142857143,424,505.22232142857143,70.12857142857143,534.9,523.2223214285714,64.12857142857143,638.4,527.2223214285714,63.128571428571426,739.1,527.2223214285714,62.128571428571426,844.3,527.2223214285714,62.128571428571426,948.6,527.2223214285714,62.128571428571426,1048.7,527.2223214285714,62.128571428571426,1153.2,527.2223214285714,62.128571428571426,1253.5,527.2223214285714,62.128571428571426,1358.7,527.2223214285714,62.128571428571426,1459,527.2223214285714,62.128571428571426,1570.2,527.2223214285714,62.128571428571426,1673.7,527.2223214285714,62.128571428571426,1774.1,527.2223214285714,62.128571428571426,1874.1,527.2223214285714,62.128571428571426,1982.8,527.2223214285714,62.128571428571426,2083.4,527.2223214285714,62.128571428571426,2184.4,527.2223214285714,62.128571428571426,2289,527.2223214285714,62.128571428571426,2389,527.2223214285714,62.128571428571426,2489.9,527.2223214285714,62.128571428571426,2595.3,527.2223214285714,62.128571428571426,2698.2,527.2223214285714,62.128571428571426,2802.9,527.2223214285714,62.128571428571426,2903.3,527.2223214285714,62.128571428571426,3003.7,527.2223214285714,62.128571428571426,3104.1,527.2223214285714,62.128571428571426,3204.2,527.2223214285714,62.128571428571426,3304.3,527.2223214285714,62.128571428571426,3404.5,527.2223214285714,62.128571428571426,3504.6,527.2223214285714,62.128571428571426,3611.5,527.2223214285714,62.128571428571426,3712,527.2223214285714,62.128571428571426,3813.9,527.2223214285714,62.128571428571426,3914.4,527.2223214285714,62.128571428571426,4018.3,527.2223214285714,62.128571428571426,4123.3,527.2223214285714,62.128571428571426,4224.9,527.2223214285714,62.128571428571426,4335.7,527.2223214285714,62.128571428571426,4438.2,527.2223214285714,62.128571428571426,4538.5,527.2223214285714,62.128571428571426,4643.9,527.2223214285714,62.128571428571426,4746.9,527.2223214285714,62.128571428571426,4848.5,527.2223214285714,62.128571428571426,4948.9]","[1627.7,1627.7,1000,0,627.7,""oops"",""up"",""left"",""bad_move"",4931.5,3303.2,2261,1628.4,1042.1,""smooth"",""up"",""up"",""good_move"",7222.9,2291.2,1705.8,4931.7,585.4,""smooth"",""right"",""right"",""good_move"",10065.7,2842.2,2384.3,7223.5,457.9,""smooth"",""right"",""right"",""good_move"",12521.9,2456.2,1969.8,10065.8,486.4,""oops"",""up"",""down"",""bad_move""]","",""
"5628","","<div style=""width:500px;"">
  <p>What determined the result of this run?</p>
  </div>","0","html-slider-response","65","860075","0.0-5.0-1.11","264","1","2025-07-30 08:43:18","1f75c3e559b7213887762d5229550c2b","105.245.233.173","Mozilla/5.0 (Windows NT 10.0; Win64; x64) AppleWebKit/537.36 (KHTML, like Gecko) Chrome/138.0.0.0 Safari/537.36","WebKit","Chrome","138.0.0.0","Windows","10.0","https://app.prolific.com/","en-US,en;q=0.9","650ac282d9578d72800bf303","6877631c9844ddd5501205fc","6889dae0fcdb27df444a067f","3","1","650ac282d9578d72800bf303","3","1","2025-07-30T08:57:40.260Z","","","","","","","","","","","AttribQ","","50","","","","","","","","","","","","","","","","","","","","","","","","","","","","",""
"3383","","<div style=""width:500px;"">
  <p>How much control did you have over the ball?</p>
  </div>","4","html-slider-response","66","863458","0.0-5.0-2.11","264","1","2025-07-30 08:43:18","1f75c3e559b7213887762d5229550c2b","105.245.233.173","Mozilla/5.0 (Windows NT 10.0; Win64; x64) AppleWebKit/537.36 (KHTML, like Gecko) Chrome/138.0.0.0 Safari/537.36","WebKit","Chrome","138.0.0.0","Windows","10.0","https://app.prolific.com/","en-US,en;q=0.9","650ac282d9578d72800bf303","6877631c9844ddd5501205fc","6889dae0fcdb27df444a067f","3","1","650ac282d9578d72800bf303","3","1","2025-07-30T08:57:43.643Z","","","","","","","","","","","ControlQ","","50","","","","","","","","","","","","","","","","","","","","","","","","","","","","",""
"8537","","<div style=""width:500px;"">
  <p>How would you describe your current emotional state?</p>
  </div>","0","html-slider-response","67","871996","0.0-5.0-3.11","264","1","2025-07-30 08:43:18","1f75c3e559b7213887762d5229550c2b","105.245.233.173","Mozilla/5.0 (Windows NT 10.0; Win64; x64) AppleWebKit/537.36 (KHTML, like Gecko) Chrome/138.0.0.0 Safari/537.36","WebKit","Chrome","138.0.0.0","Windows","10.0","https://app.prolific.com/","en-US,en;q=0.9","650ac282d9578d72800bf303","6877631c9844ddd5501205fc","6889dae0fcdb27df444a067f","3","1","650ac282d9578d72800bf303","3","1","2025-07-30T08:57:52.182Z","","","","","","","","","","","StressQ","","50","","","","","","","","","","","","","","","","","","","","","","","","","","","","",""
"3554","","<div style=""width:500px;"">
  <p>What best describes how you currently feel?</p>
  </div>","42","html-slider-response","68","875551","0.0-5.0-4.11","264","1","2025-07-30 08:43:18","1f75c3e559b7213887762d5229550c2b","105.245.233.173","Mozilla/5.0 (Windows NT 10.0; Win64; x64) AppleWebKit/537.36 (KHTML, like Gecko) Chrome/138.0.0.0 Safari/537.36","WebKit","Chrome","138.0.0.0","Windows","10.0","https://app.prolific.com/","en-US,en;q=0.9","650ac282d9578d72800bf303","6877631c9844ddd5501205fc","6889dae0fcdb27df444a067f","3","1","650ac282d9578d72800bf303","3","1","2025-07-30T08:57:55.736Z","","","","","","","","","","","MotivationQ","","50","","","","","","","","","","","","","","","","","","","","","","","","","","","","",""
"","","","","ctl-task-cpt","69","912166","0.0-5.0-0.12","264","1","2025-07-30 08:43:18","1f75c3e559b7213887762d5229550c2b","105.245.233.173","Mozilla/5.0 (Windows NT 10.0; Win64; x64) AppleWebKit/537.36 (KHTML, like Gecko) Chrome/138.0.0.0 Safari/537.36","WebKit","Chrome","138.0.0.0","Windows","10.0","https://app.prolific.com/","en-US,en;q=0.9","650ac282d9578d72800bf303","6877631c9844ddd5501205fc","6889dae0fcdb27df444a067f","3","1","650ac282d9578d72800bf303","3","1","2025-07-30T08:58:32.351Z","","","","","","","","","","","","","","win-only","0","g1:NW,g2:SE","0.7","13","0","878498.8","1981.7","6985.6","33596.3","1","4","8","6","1","-1","-2","0","0","0","2070.4","3000","-2880","[""left"",""up""]","{""num_key_presses"":7,""num_perfect"":3,""num_errors"":1,""num_randdir"":3,""num_randdir_good_moves"":1,""num_whilered"":0,""num_whileblue"":1,""num_blue"":2,""num_good_moves"":5}","[294.22232142857143,290.12857142857143,0.3,294.22232142857143,290.12857142857143,104.2,294.22232142857143,290.12857142857143,204.6,294.22232142857143,290.12857142857143,305.5,294.22232142857143,290.12857142857143,408.7,288.22232142857143,287.12857142857143,510.4,204.22232142857143,206.12857142857143,614,150.22232142857143,162.12857142857143,714.1,93.22232142857143,107.12857142857143,820,85.22232142857143,101.12857142857143,931.6,85.22232142857143,101.12857142857143,1034.5,85.22232142857143,101.12857142857143,1138.6,85.22232142857143,101.12857142857143,1238.6,85.22232142857143,101.12857142857143,1339.7,85.22232142857143,101.12857142857143,1449.6,85.22232142857143,101.12857142857143,1553.9,85.22232142857143,101.12857142857143,1659.1,79.22232142857143,94.12857142857143,1759.7,75.22232142857143,89.12857142857143,1864.5,75.22232142857143,89.12857142857143,1969,75.22232142857143,89.12857142857143,2070.2,75.22232142857143,89.12857142857143,2170.3,75.22232142857143,89.12857142857143,2274.2,75.22232142857143,89.12857142857143,2375.5,75.22232142857143,89.12857142857143,2478.6,75.22232142857143,89.12857142857143,2578.8,75.22232142857143,89.12857142857143,2679.5,75.22232142857143,89.12857142857143,2780.2,75.22232142857143,89.12857142857143,2883.8,75.22232142857143,89.12857142857143,2985.4,75.22232142857143,89.12857142857143,3089.4,75.22232142857143,89.12857142857143,3194.3,75.22232142857143,89.12857142857143,3294.8,75.22232142857143,89.12857142857143,3397.7,75.22232142857143,89.12857142857143,3498.8,75.22232142857143,89.12857142857143,3599.2,75.22232142857143,89.12857142857143,3699.8,75.22232142857143,89.12857142857143,3803.6,75.22232142857143,89.12857142857143,3904.4,75.22232142857143,89.12857142857143,4004.6,75.22232142857143,89.12857142857143,4113.8,75.22232142857143,89.12857142857143,4214.4,75.22232142857143,89.12857142857143,4314.9,75.22232142857143,89.12857142857143,4419.2,75.22232142857143,89.12857142857143,4524.4,75.22232142857143,89.12857142857143,4624.7,75.22232142857143,89.12857142857143,4728.6,75.22232142857143,89.12857142857143,4829.4,75.22232142857143,89.12857142857143,4929.6]","[1436.4,1436.4,1000,0,436.4,""oops"",""up"",""up"",""good_move"",4509.7,3072.9,2614.7,1436.8,458.2,""smooth"",""left"",""left"",""good_move"",8394.8,3884.6,3539.6,4510.2,345,""while_blue"",""up"",""up"",""good_move"",10988,2592.8,2080,8395.2,512.8,""oops"",""left"",""right"",""bad_move"",14192.4,3204.2,2716.5,10988.2,487.7,""oops"",""left"",""right"",""bad_move"",17650.7,3458.1,2725.2,14192.6,732.9,""smooth"",""left"",""left"",""good_move"",24148.9,6498,2295.1,21400.4,453.4,""smooth"",""left"",""left"",""good_move""]","",""
"4300","","<div style=""width:500px;"">
  <p>What determined the result of this run?</p>
  </div>","0","html-slider-response","70","916467","0.0-5.0-1.12","264","1","2025-07-30 08:43:18","1f75c3e559b7213887762d5229550c2b","105.245.233.173","Mozilla/5.0 (Windows NT 10.0; Win64; x64) AppleWebKit/537.36 (KHTML, like Gecko) Chrome/138.0.0.0 Safari/537.36","WebKit","Chrome","138.0.0.0","Windows","10.0","https://app.prolific.com/","en-US,en;q=0.9","650ac282d9578d72800bf303","6877631c9844ddd5501205fc","6889dae0fcdb27df444a067f","3","1","650ac282d9578d72800bf303","3","1","2025-07-30T08:58:36.653Z","","","","","","","","","","","AttribQ","","50","","","","","","","","","","","","","","","","","","","","","","","","","","","","",""
"3586","","<div style=""width:500px;"">
  <p>How much control did you have over the ball?</p>
  </div>","0","html-slider-response","71","920054","0.0-5.0-2.12","264","1","2025-07-30 08:43:18","1f75c3e559b7213887762d5229550c2b","105.245.233.173","Mozilla/5.0 (Windows NT 10.0; Win64; x64) AppleWebKit/537.36 (KHTML, like Gecko) Chrome/138.0.0.0 Safari/537.36","WebKit","Chrome","138.0.0.0","Windows","10.0","https://app.prolific.com/","en-US,en;q=0.9","650ac282d9578d72800bf303","6877631c9844ddd5501205fc","6889dae0fcdb27df444a067f","3","1","650ac282d9578d72800bf303","3","1","2025-07-30T08:58:40.239Z","","","","","","","","","","","ControlQ","","50","","","","","","","","","","","","","","","","","","","","","","","","","","","","",""
"3908","","<div style=""width:500px;"">
  <p>How would you describe your current emotional state?</p>
  </div>","5","html-slider-response","72","923964","0.0-5.0-3.12","264","1","2025-07-30 08:43:18","1f75c3e559b7213887762d5229550c2b","105.245.233.173","Mozilla/5.0 (Windows NT 10.0; Win64; x64) AppleWebKit/537.36 (KHTML, like Gecko) Chrome/138.0.0.0 Safari/537.36","WebKit","Chrome","138.0.0.0","Windows","10.0","https://app.prolific.com/","en-US,en;q=0.9","650ac282d9578d72800bf303","6877631c9844ddd5501205fc","6889dae0fcdb27df444a067f","3","1","650ac282d9578d72800bf303","3","1","2025-07-30T08:58:44.149Z","","","","","","","","","","","StressQ","","50","","","","","","","","","","","","","","","","","","","","","","","","","","","","",""
"3057","","<div style=""width:500px;"">
  <p>What best describes how you currently feel?</p>
  </div>","7","html-slider-response","73","927021","0.0-5.0-4.12","264","1","2025-07-30 08:43:18","1f75c3e559b7213887762d5229550c2b","105.245.233.173","Mozilla/5.0 (Windows NT 10.0; Win64; x64) AppleWebKit/537.36 (KHTML, like Gecko) Chrome/138.0.0.0 Safari/537.36","WebKit","Chrome","138.0.0.0","Windows","10.0","https://app.prolific.com/","en-US,en;q=0.9","650ac282d9578d72800bf303","6877631c9844ddd5501205fc","6889dae0fcdb27df444a067f","3","1","650ac282d9578d72800bf303","3","1","2025-07-30T08:58:47.206Z","","","","","","","","","","","MotivationQ","","50","","","","","","","","","","","","","","","","","","","","","","","","","","","","",""
"","","","","ctl-task-cpt","74","950211","0.0-5.0-0.13","264","1","2025-07-30 08:43:18","1f75c3e559b7213887762d5229550c2b","105.245.233.173","Mozilla/5.0 (Windows NT 10.0; Win64; x64) AppleWebKit/537.36 (KHTML, like Gecko) Chrome/138.0.0.0 Safari/537.36","WebKit","Chrome","138.0.0.0","Windows","10.0","https://app.prolific.com/","en-US,en;q=0.9","650ac282d9578d72800bf303","6877631c9844ddd5501205fc","6889dae0fcdb27df444a067f","3","1","650ac282d9578d72800bf303","3","1","2025-07-30T08:59:10.396Z","","","","","","","","","","","","","","win-only","2","g1:SE,g2:NW","0.8","14","0","929968.9","2441","7442.2","20170.8","1","4","4","6","1","1","1","1","0","0.007575757575757576","2122.7","3000","1290","[""down"",""right""]","{""num_key_presses"":4,""num_perfect"":3,""num_errors"":0,""num_randdir"":1,""num_randdir_good_moves"":1,""num_whilered"":0,""num_whileblue"":0,""num_blue"":1,""num_good_moves"":4}","[300.22232142857143,298.12857142857143,0.1,300.22232142857143,298.12857142857143,100,300.22232142857143,298.12857142857143,201.4,300.22232142857143,298.12857142857143,305.2,300.22232142857143,298.12857142857143,413.8,300.22232142857143,298.12857142857143,514.2,300.22232142857143,298.12857142857143,615.1,300.22232142857143,298.12857142857143,719.2,300.22232142857143,298.12857142857143,819.8,296.22232142857143,300.12857142857143,920.4,397.22232142857143,452.12857142857143,1020.5,445.22232142857143,529.1285714285714,1125.1,445.22232142857143,529.1285714285714,1225.6,445.22232142857143,529.1285714285714,1329.8,454.22232142857143,529.1285714285714,1430.3,547.2223214285714,570.1285714285714,1535.5,560.2223214285714,581.1285714285714,1635.8,548.2223214285714,572.1285714285714,1736.6,546.2223214285714,569.1285714285714,1839.8,537.2223214285714,546.1285714285714,1945.8,537.2223214285714,546.1285714285714,2049.5,537.2223214285714,546.1285714285714,2150,537.2223214285714,546.1285714285714,2254.7,537.2223214285714,546.1285714285714,2354.7,537.2223214285714,546.1285714285714,2459.9,537.2223214285714,546.1285714285714,2560.1,537.2223214285714,546.1285714285714,2660.2,537.2223214285714,546.1285714285714,2764.6,537.2223214285714,546.1285714285714,2865.5,537.2223214285714,546.1285714285714,2970.2,537.2223214285714,546.1285714285714,3075.2,537.2223214285714,546.1285714285714,3176.2,537.2223214285714,546.1285714285714,3279.6,537.2223214285714,546.1285714285714,3380.3,537.2223214285714,546.1285714285714,3480.3,537.2223214285714,546.1285714285714,3584.5,537.2223214285714,546.1285714285714,3690.5,537.2223214285714,546.1285714285714,3798.1,537.2223214285714,546.1285714285714,3900.2,537.2223214285714,546.1285714285714,4001.1,537.2223214285714,546.1285714285714,4101.5,537.2223214285714,546.1285714285714,4205.4,537.2223214285714,546.1285714285714,4311.7,537.2223214285714,546.1285714285714,4415.2,537.2223214285714,546.1285714285714,4520.2,537.2223214285714,546.1285714285714,4620.2,537.2223214285714,546.1285714285714,4724.9,537.2223214285714,546.1285714285714,4827.1,537.2223214285714,546.1285714285714,4931.4]","[4687.2,4687.2,1999.9,2004.3,683,""smooth"",""right"",""right"",""good_move"",7297.7,2610.3,2242.5,4687.5,367.7,""oops"",""down"",""down"",""good_move"",9542.1,2244.1,1829.2,7298,414.9,""smooth"",""right"",""right"",""good_move"",12629.8,3087.3,2728,9542.5,359.3,""smooth"",""down"",""down"",""good_move""]","",""
"4910","","<div style=""width:500px;"">
  <p>What determined the result of this run?</p>
  </div>","7","html-slider-response","75","955122","0.0-5.0-1.13","264","1","2025-07-30 08:43:18","1f75c3e559b7213887762d5229550c2b","105.245.233.173","Mozilla/5.0 (Windows NT 10.0; Win64; x64) AppleWebKit/537.36 (KHTML, like Gecko) Chrome/138.0.0.0 Safari/537.36","WebKit","Chrome","138.0.0.0","Windows","10.0","https://app.prolific.com/","en-US,en;q=0.9","650ac282d9578d72800bf303","6877631c9844ddd5501205fc","6889dae0fcdb27df444a067f","3","1","650ac282d9578d72800bf303","3","1","2025-07-30T08:59:15.307Z","","","","","","","","","","","AttribQ","","50","","","","","","","","","","","","","","","","","","","","","","","","","","","","",""
"2735","","<div style=""width:500px;"">
  <p>How much control did you have over the ball?</p>
  </div>","5","html-slider-response","76","957858","0.0-5.0-2.13","264","1","2025-07-30 08:43:18","1f75c3e559b7213887762d5229550c2b","105.245.233.173","Mozilla/5.0 (Windows NT 10.0; Win64; x64) AppleWebKit/537.36 (KHTML, like Gecko) Chrome/138.0.0.0 Safari/537.36","WebKit","Chrome","138.0.0.0","Windows","10.0","https://app.prolific.com/","en-US,en;q=0.9","650ac282d9578d72800bf303","6877631c9844ddd5501205fc","6889dae0fcdb27df444a067f","3","1","650ac282d9578d72800bf303","3","1","2025-07-30T08:59:18.043Z","","","","","","","","","","","ControlQ","","50","","","","","","","","","","","","","","","","","","","","","","","","","","","","",""
"3030","","<div style=""width:500px;"">
  <p>How would you describe your current emotional state?</p>
  </div>","7","html-slider-response","77","960889","0.0-5.0-3.13","264","1","2025-07-30 08:43:18","1f75c3e559b7213887762d5229550c2b","105.245.233.173","Mozilla/5.0 (Windows NT 10.0; Win64; x64) AppleWebKit/537.36 (KHTML, like Gecko) Chrome/138.0.0.0 Safari/537.36","WebKit","Chrome","138.0.0.0","Windows","10.0","https://app.prolific.com/","en-US,en;q=0.9","650ac282d9578d72800bf303","6877631c9844ddd5501205fc","6889dae0fcdb27df444a067f","3","1","650ac282d9578d72800bf303","3","1","2025-07-30T08:59:21.074Z","","","","","","","","","","","StressQ","","50","","","","","","","","","","","","","","","","","","","","","","","","","","","","",""
"2921","","<div style=""width:500px;"">
  <p>What best describes how you currently feel?</p>
  </div>","1","html-slider-response","78","963810","0.0-5.0-4.13","264","1","2025-07-30 08:43:18","1f75c3e559b7213887762d5229550c2b","105.245.233.173","Mozilla/5.0 (Windows NT 10.0; Win64; x64) AppleWebKit/537.36 (KHTML, like Gecko) Chrome/138.0.0.0 Safari/537.36","WebKit","Chrome","138.0.0.0","Windows","10.0","https://app.prolific.com/","en-US,en;q=0.9","650ac282d9578d72800bf303","6877631c9844ddd5501205fc","6889dae0fcdb27df444a067f","3","1","650ac282d9578d72800bf303","3","1","2025-07-30T08:59:23.996Z","","","","","","","","","","","MotivationQ","","50","","","","","","","","","","","","","","","","","","","","","","","","","","","","",""
