"rt","response_timestamp","stimulus","response","trial_type","trial_index","time_elapsed","internal_node_id","run_id","condition","recorded_at","source_code_version","ip","user_agent","device","browser","browser_version","platform","platform_version","referer","accept_language","PROLIFIC_PID","STUDY_ID","SESSION_ID","WEEK","BATCH","prolific_id","week","batch","realtime","success","responses","item_order","radio_event_ids","radio_event_times","key_event_times","mouse_event_times","straightlining","zigzagging","honeypot","eventType","view_history","slider_start","which_type","canvas_config","goals_layout","control_level","trial_number","tutorial_trial_number","trial_start_time","phase1_start_time","phase2_start_time","phase3_start_time","goal_1_value","goal_1_distance","goal_2_value","goal_2_distance","goal_selected","outcome","outcome_total","participant_final_score","participant_initial_score","participant_final_score_prop","goal_choice_rt","allocated_time","allocated_time_remaining","goal_direction","counts","mouse_movements","key_presses","question_order","question_id"
"4688","1753252174801","<p style='font-size:40px;line-height:1.25'><strong>Welcome to the experiment!</strong></p><p style='font-size:1.1em;line-height:1.25'>Thank you for participanting in our experiment again! You will be asked to play the Dysfunctional Ball Game again. We will briefly recap the rules before we start.</p><p style='font-size:1.1em;line-height:1.25'>Press <strong>Next</strong> to continue.</p>","0","custom-html-button-response","0","4691","0.0-0.0","139","1","2025-07-23 06:29:21","1f75c3e559b7213887762d5229550c2b","41.56.199.189","Mozilla/5.0 (Windows NT 10.0; Win64; x64) AppleWebKit/537.36 (KHTML, like Gecko) Chrome/138.0.0.0 Safari/537.36","WebKit","Chrome","138.0.0.0","Windows","10.0","https://app.prolific.com/","en-ZA,en-GB;q=0.9,en-US;q=0.8,en;q=0.7","60292aabf20c7d2af65541a7","683db9eb0562dbf637994deb","6880812cba3a4b437ec8f068","2","1","60292aabf20c7d2af65541a7","2","1","2025-07-23T06:29:34.803Z","","","","","","","","","","","","","","","","","","","","","","","","","","","","","","","","","","","","","","","","","",""
"7340","","","","fullscreen","1","13049","0.0-1.0","139","1","2025-07-23 06:29:21","1f75c3e559b7213887762d5229550c2b","41.56.199.189","Mozilla/5.0 (Windows NT 10.0; Win64; x64) AppleWebKit/537.36 (KHTML, like Gecko) Chrome/138.0.0.0 Safari/537.36","WebKit","Chrome","138.0.0.0","Windows","10.0","https://app.prolific.com/","en-ZA,en-GB;q=0.9,en-US;q=0.8,en;q=0.7","60292aabf20c7d2af65541a7","683db9eb0562dbf637994deb","6880812cba3a4b437ec8f068","2","1","60292aabf20c7d2af65541a7","2","1","","true","","","","","","","","","","","","","","","","","","","","","","","","","","","","","","","","","","","","","","","","",""
"4030","1753252187193","<p style='font-size:1.1em;line-height:1.25'>In the following, we will ask you a few questions relating to your feelings in the last 24 hours.<br></p><p style='font-size:1.1em;line-height:1.25'>Press the <strong>Next</strong> button to continue.</p>","0","custom-html-button-response","2","17081","0.0-2.0-0.0","139","1","2025-07-23 06:29:21","1f75c3e559b7213887762d5229550c2b","41.56.199.189","Mozilla/5.0 (Windows NT 10.0; Win64; x64) AppleWebKit/537.36 (KHTML, like Gecko) Chrome/138.0.0.0 Safari/537.36","WebKit","Chrome","138.0.0.0","Windows","10.0","https://app.prolific.com/","en-ZA,en-GB;q=0.9,en-US;q=0.8,en;q=0.7","60292aabf20c7d2af65541a7","683db9eb0562dbf637994deb","6880812cba3a4b437ec8f068","2","1","60292aabf20c7d2af65541a7","2","1","2025-07-23T06:29:47.193Z","","","","","","","","","","","","","","","","","","","","","","","","","","","","","","","","","","","","","","","","","",""
"101711.70000001788","","","","survey-template","3","118847","0.0-2.0-1.0","139","1","2025-07-23 06:29:21","1f75c3e559b7213887762d5229550c2b","41.56.199.189","Mozilla/5.0 (Windows NT 10.0; Win64; x64) AppleWebKit/537.36 (KHTML, like Gecko) Chrome/138.0.0.0 Safari/537.36","WebKit","Chrome","138.0.0.0","Windows","10.0","https://app.prolific.com/","en-ZA,en-GB;q=0.9,en-US;q=0.8,en;q=0.7","60292aabf20c7d2af65541a7","683db9eb0562dbf637994deb","6880812cba3a4b437ec8f068","2","1","60292aabf20c7d2af65541a7","2","1","2025-07-23T06:31:28.959Z","","{""Q01"":""0"",""Q02"":""0"",""Q03"":""0"",""Q04"":""1"",""Q05"":""1"",""Q06"":""1"",""Q07"":""1"",""Q08"":""0"",""Q09"":""1"",""Q10"":""0"",""Q11"":""1"",""Q12"":""1"",""Q13"":""5"",""Q14"":""1"",""Q15"":""0"",""Q16"":""0"",""Q17"":""0"",""Q18"":""0"",""Q19"":""1"",""Q20"":""1"",""Q21"":""1"",""Q22"":""0""}","[0,1,2,3,4,5,6,7,8,9,10,11,12,13,14,15,16,17,18,19,20,21]","[""Q01"",""Q02"",""Q03"",""Q04"",""Q04"",""Q05"",""Q06"",""Q07"",""Q08"",""Q09"",""Q10"",""Q11"",""Q12"",""Q13"",""Q14"",""Q15"",""Q16"",""Q17"",""Q18"",""Q19"",""Q20"",""Q21"",""Q22""]","[3188.5,4421,5844.800000011921,7236.9000000059605,8284.59999999404,9948.700000017881,12924.40000000596,18428.40000000596,32572.59999999404,40508.40000000596,45588.40000000596,48708.5,51420.59999999404,53964.40000000596,56036.5,60732.30000001192,64924.40000000596,67364.40000000596,69404.5,73852.40000000596,86508.70000001788,96132.40000000596,99948.40000000596]","[]","[0.09999999403953552,3188.5,4421,5844.800000011921,7236.9000000059605,8284.59999999404,9948.700000017881,12924.40000000596,16628.70000001788,18428.40000000596,32572.59999999404,40508.40000000596,45588.40000000596,48708.5,51420.59999999404,53964.40000000596,56036.5,60732.30000001192,63452.80000001192,64924.40000000596,67364.40000000596,69404.5,73852.40000000596,86508.70000001788,95212.70000001788,96132.40000000596,99948.40000000596,101140.70000001788]","0.5","0.38095238095238093","0","drsp","","","","","","","","","","","","","","","","","","","","","","","","","","","","","","",""
"21759.399999976158","","","","survey-template","4","140610","0.0-2.0-2.0","139","1","2025-07-23 06:29:21","1f75c3e559b7213887762d5229550c2b","41.56.199.189","Mozilla/5.0 (Windows NT 10.0; Win64; x64) AppleWebKit/537.36 (KHTML, like Gecko) Chrome/138.0.0.0 Safari/537.36","WebKit","Chrome","138.0.0.0","Windows","10.0","https://app.prolific.com/","en-ZA,en-GB;q=0.9,en-US;q=0.8,en;q=0.7","60292aabf20c7d2af65541a7","683db9eb0562dbf637994deb","6880812cba3a4b437ec8f068","2","1","60292aabf20c7d2af65541a7","2","1","2025-07-23T06:31:50.722Z","","{""Q01"":""0"",""Q02"":""3"",""Q03"":""0""}","[0,1,2]","[""Q01"",""Q02"",""Q03""]","[10174.799999982119,16726.79999998212,21078.79999998212]","[]","[10174.799999982119,11838.899999976158,16726.79999998212,20374.79999998212,21078.79999998212,21758.59999999404]","0.6666666666666666","0","0","stress","","","","","","","","","","","","","","","","","","","","","","","","","","","","","","",""
"4942","","","","instructions","5","145554","0.0-3.0-0.0","139","1","2025-07-23 06:29:21","1f75c3e559b7213887762d5229550c2b","41.56.199.189","Mozilla/5.0 (Windows NT 10.0; Win64; x64) AppleWebKit/537.36 (KHTML, like Gecko) Chrome/138.0.0.0 Safari/537.36","WebKit","Chrome","138.0.0.0","Windows","10.0","https://app.prolific.com/","en-ZA,en-GB;q=0.9,en-US;q=0.8,en;q=0.7","60292aabf20c7d2af65541a7","683db9eb0562dbf637994deb","6880812cba3a4b437ec8f068","2","1","60292aabf20c7d2af65541a7","2","1","","","","","","","","","","","","","[{""page_index"":0,""viewing_time"":4942}]","","","","","","","","","","","","","","","","","","","","","","","","","","","","","",""
"4416","","<p>Before you start with this game please answer the following three questions yourself. </p>
  <p>Through this game, we measure several aspects of your cognitive performance, such as reaction times, multi-tasking capabilities </p>
  <p>and the ability to assess the situation you are in.</p>
  <p></p>
  <p><b>How good do you usually are in such tasks?</b></p>","87","html-slider-response","6","150201","0.0-4.0-0.0","139","1","2025-07-23 06:29:21","1f75c3e559b7213887762d5229550c2b","41.56.199.189","Mozilla/5.0 (Windows NT 10.0; Win64; x64) AppleWebKit/537.36 (KHTML, like Gecko) Chrome/138.0.0.0 Safari/537.36","WebKit","Chrome","138.0.0.0","Windows","10.0","https://app.prolific.com/","en-ZA,en-GB;q=0.9,en-US;q=0.8,en;q=0.7","60292aabf20c7d2af65541a7","683db9eb0562dbf637994deb","6880812cba3a4b437ec8f068","2","1","60292aabf20c7d2af65541a7","2","1","2025-07-23T06:32:00.314Z","","","","","","","","","","","PreSkillQ","","50","","","","","","","","","","","","","","","","","","","","","","","","","","","","",""
"3862","","<div style=""width:500px;"">
  <p>How well do you think you will perform in this task compared to other participants?</p>
  </div>","80","html-slider-response","7","154065","0.0-4.0-1.0","139","1","2025-07-23 06:29:21","1f75c3e559b7213887762d5229550c2b","41.56.199.189","Mozilla/5.0 (Windows NT 10.0; Win64; x64) AppleWebKit/537.36 (KHTML, like Gecko) Chrome/138.0.0.0 Safari/537.36","WebKit","Chrome","138.0.0.0","Windows","10.0","https://app.prolific.com/","en-ZA,en-GB;q=0.9,en-US;q=0.8,en;q=0.7","60292aabf20c7d2af65541a7","683db9eb0562dbf637994deb","6880812cba3a4b437ec8f068","2","1","60292aabf20c7d2af65541a7","2","1","2025-07-23T06:32:04.177Z","","","","","","","","","","","PrePerfQ","","50","","","","","","","","","","","","","","","","","","","","","","","","","","","","",""
"6087","","<div style=""width:500px;"">
  <p>What best describes how you currently feel?</p>
  </div>","62","html-slider-response","8","160153","0.0-4.0-2.0","139","1","2025-07-23 06:29:21","1f75c3e559b7213887762d5229550c2b","41.56.199.189","Mozilla/5.0 (Windows NT 10.0; Win64; x64) AppleWebKit/537.36 (KHTML, like Gecko) Chrome/138.0.0.0 Safari/537.36","WebKit","Chrome","138.0.0.0","Windows","10.0","https://app.prolific.com/","en-ZA,en-GB;q=0.9,en-US;q=0.8,en;q=0.7","60292aabf20c7d2af65541a7","683db9eb0562dbf637994deb","6880812cba3a4b437ec8f068","2","1","60292aabf20c7d2af65541a7","2","1","2025-07-23T06:32:10.266Z","","","","","","","","","","","PreMotivationQ","","50","","","","","","","","","","","","","","","","","","","","","","","","","","","","",""
"","","","","ctl-task-cpt","9","248239","0.0-5.0-0.0","139","1","2025-07-23 06:29:21","1f75c3e559b7213887762d5229550c2b","41.56.199.189","Mozilla/5.0 (Windows NT 10.0; Win64; x64) AppleWebKit/537.36 (KHTML, like Gecko) Chrome/138.0.0.0 Safari/537.36","WebKit","Chrome","138.0.0.0","Windows","10.0","https://app.prolific.com/","en-ZA,en-GB;q=0.9,en-US;q=0.8,en;q=0.7","60292aabf20c7d2af65541a7","683db9eb0562dbf637994deb","6880812cba3a4b437ec8f068","2","1","60292aabf20c7d2af65541a7","2","1","2025-07-23T06:33:38.351Z","","","","","","","","","","","","","","win-only","2","g1:SE,g2:NW","1","1","0","171880.6","51409.8","56412.9","84450.7","1","4","4","6","2","-4","-4","0","0","0","5003","3000","-3000","[""left"",""up""]","{""num_key_presses"":5,""num_perfect"":5,""num_errors"":0,""num_randdir"":0,""num_randdir_good_moves"":0,""num_whilered"":0,""num_whileblue"":0,""num_blue"":0,""num_good_moves"":5}","[350.14285714285717,350.04910714285717,2476.4,347.14285714285717,341.04910714285717,3629.5,341.14285714285717,355.04910714285717,4393.1,341.14285714285717,374.04910714285717,4496.7,337.14285714285717,391.04910714285717,4596.8,337.14285714285717,396.04910714285717,4700.9,360.14285714285717,426.04910714285717,4806.5,412.14285714285717,493.04910714285717,4911.8]","[9723.2,9723.2,1000,0,8723.2,""smooth"",""up"",""up"",""good_move"",15744.3,6019.3,2318.4,9725,3700.9,""smooth"",""up"",""up"",""good_move"",20389.1,4644.3,2188.7,15744.8,2455.6,""smooth"",""up"",""up"",""good_move"",23288.7,2899.3,2459.7,20389.4,439.6,""smooth"",""left"",""left"",""good_move"",25720.8,2431.5,1898,23289.3,533.5,""smooth"",""left"",""left"",""good_move""]","",""
"6305","","<div style=""width:500px;"">
  <p>What determined the result of this run?</p>
  </div>","100","html-slider-response","10","254545","0.0-5.0-1.0","139","1","2025-07-23 06:29:21","1f75c3e559b7213887762d5229550c2b","41.56.199.189","Mozilla/5.0 (Windows NT 10.0; Win64; x64) AppleWebKit/537.36 (KHTML, like Gecko) Chrome/138.0.0.0 Safari/537.36","WebKit","Chrome","138.0.0.0","Windows","10.0","https://app.prolific.com/","en-ZA,en-GB;q=0.9,en-US;q=0.8,en;q=0.7","60292aabf20c7d2af65541a7","683db9eb0562dbf637994deb","6880812cba3a4b437ec8f068","2","1","60292aabf20c7d2af65541a7","2","1","2025-07-23T06:33:44.658Z","","","","","","","","","","","AttribQ","","50","","","","","","","","","","","","","","","","","","","","","","","","","","","","",""
"3895","","<div style=""width:500px;"">
  <p>How much control did you have over the ball?</p>
  </div>","100","html-slider-response","11","258441","0.0-5.0-2.0","139","1","2025-07-23 06:29:21","1f75c3e559b7213887762d5229550c2b","41.56.199.189","Mozilla/5.0 (Windows NT 10.0; Win64; x64) AppleWebKit/537.36 (KHTML, like Gecko) Chrome/138.0.0.0 Safari/537.36","WebKit","Chrome","138.0.0.0","Windows","10.0","https://app.prolific.com/","en-ZA,en-GB;q=0.9,en-US;q=0.8,en;q=0.7","60292aabf20c7d2af65541a7","683db9eb0562dbf637994deb","6880812cba3a4b437ec8f068","2","1","60292aabf20c7d2af65541a7","2","1","2025-07-23T06:33:48.553Z","","","","","","","","","","","ControlQ","","50","","","","","","","","","","","","","","","","","","","","","","","","","","","","",""
"5327","","<div style=""width:500px;"">
  <p>How would you describe your current emotional state?</p>
  </div>","54","html-slider-response","12","263770","0.0-5.0-3.0","139","1","2025-07-23 06:29:21","1f75c3e559b7213887762d5229550c2b","41.56.199.189","Mozilla/5.0 (Windows NT 10.0; Win64; x64) AppleWebKit/537.36 (KHTML, like Gecko) Chrome/138.0.0.0 Safari/537.36","WebKit","Chrome","138.0.0.0","Windows","10.0","https://app.prolific.com/","en-ZA,en-GB;q=0.9,en-US;q=0.8,en;q=0.7","60292aabf20c7d2af65541a7","683db9eb0562dbf637994deb","6880812cba3a4b437ec8f068","2","1","60292aabf20c7d2af65541a7","2","1","2025-07-23T06:33:53.882Z","","","","","","","","","","","StressQ","","50","","","","","","","","","","","","","","","","","","","","","","","","","","","","",""
"4333","","<div style=""width:500px;"">
  <p>What best describes how you currently feel?</p>
  </div>","100","html-slider-response","13","268105","0.0-5.0-4.0","139","1","2025-07-23 06:29:21","1f75c3e559b7213887762d5229550c2b","41.56.199.189","Mozilla/5.0 (Windows NT 10.0; Win64; x64) AppleWebKit/537.36 (KHTML, like Gecko) Chrome/138.0.0.0 Safari/537.36","WebKit","Chrome","138.0.0.0","Windows","10.0","https://app.prolific.com/","en-ZA,en-GB;q=0.9,en-US;q=0.8,en;q=0.7","60292aabf20c7d2af65541a7","683db9eb0562dbf637994deb","6880812cba3a4b437ec8f068","2","1","60292aabf20c7d2af65541a7","2","1","2025-07-23T06:33:58.217Z","","","","","","","","","","","MotivationQ","","50","","","","","","","","","","","","","","","","","","","","","","","","","","","","",""
"","","","","ctl-task-cpt","14","289908","0.0-5.0-0.1","139","1","2025-07-23 06:29:21","1f75c3e559b7213887762d5229550c2b","41.56.199.189","Mozilla/5.0 (Windows NT 10.0; Win64; x64) AppleWebKit/537.36 (KHTML, like Gecko) Chrome/138.0.0.0 Safari/537.36","WebKit","Chrome","138.0.0.0","Windows","10.0","https://app.prolific.com/","en-ZA,en-GB;q=0.9,en-US;q=0.8,en;q=0.7","60292aabf20c7d2af65541a7","683db9eb0562dbf637994deb","6880812cba3a4b437ec8f068","2","1","60292aabf20c7d2af65541a7","2","1","2025-07-23T06:34:20.020Z","","","","","","","","","","","","","","win-only","1","g1:NE,g2:SW","0.9","2","0","279208.6","1479.4","6481.8","18785.6","1","4","8","6","1","1","1","1","0","0.007575757575757576","925.6","3000","1440","[""up"",""right""]","{""num_key_presses"":4,""num_perfect"":3,""num_errors"":0,""num_randdir"":1,""num_randdir_good_moves"":1,""num_whilered"":0,""num_whileblue"":0,""num_blue"":1,""num_good_moves"":4}","[355.14285714285717,351.04910714285717,0.2,355.14285714285717,351.04910714285717,109.7,355.14285714285717,351.04910714285717,209.7,355.14285714285717,351.04910714285717,309.9,365.14285714285717,349.04910714285717,410.4,371.14285714285717,346.04910714285717,511.9,481.14285714285717,250.04910714285714,611.9,599.1428571428571,85.04910714285714,712.3,604.1428571428571,77.04910714285714,827,604.1428571428571,77.04910714285714,987.9,604.1428571428571,77.04910714285714,1091.9,606.1428571428571,78.04910714285714,1193,464.14285714285717,200.04910714285714,1298.6,375.14285714285717,324.04910714285717,1405.2,336.14285714285717,384.04910714285717,1506.1,314.14285714285717,426.04910714285717,1607.8,295.14285714285717,443.04910714285717,1712.1,274.14285714285717,463.04910714285717,1816.5,274.14285714285717,463.04910714285717,1921.9,274.14285714285717,463.04910714285717,2022.9,274.14285714285717,463.04910714285717,2126.8,274.14285714285717,463.04910714285717,2226.8,274.14285714285717,463.04910714285717,2327.8,274.14285714285717,463.04910714285717,2427.8,274.14285714285717,463.04910714285717,2527.9,274.14285714285717,463.04910714285717,2633,274.14285714285717,463.04910714285717,2737.1,274.14285714285717,463.04910714285717,2880.8,274.14285714285717,463.04910714285717,2981.7,274.14285714285717,463.04910714285717,3081.8,274.14285714285717,463.04910714285717,3192.2,274.14285714285717,463.04910714285717,3292.5,274.14285714285717,463.04910714285717,3397.9,274.14285714285717,463.04910714285717,3502,274.14285714285717,463.04910714285717,3606.9,274.14285714285717,463.04910714285717,3706.9,274.14285714285717,463.04910714285717,3806.9,274.14285714285717,463.04910714285717,3906.9,274.14285714285717,463.04910714285717,4011.6,274.14285714285717,463.04910714285717,4111.6,274.14285714285717,463.04910714285717,4211.7,274.14285714285717,463.04910714285717,4312.7,274.14285714285717,463.04910714285717,4425.6,274.14285714285717,463.04910714285717,4525.9,274.14285714285717,463.04910714285717,4626,274.14285714285717,463.04910714285717,4726.2,274.14285714285717,463.04910714285717,4831.7,274.14285714285717,463.04910714285717,4932.2]","[4075.7,4075.7,1647.1,2006.5,422.1,""smooth"",""up"",""up"",""good_move"",6604.7,2528.7,1961.4,4076,567.3,""smooth"",""up"",""up"",""good_move"",9020.2,2415.1,1966.7,6605.1,448.4,""smooth"",""right"",""right"",""good_move"",12187.6,3166.9,2495.6,9020.8,671.3,""oops"",""right"",""right"",""good_move""]","",""
"4612","","<div style=""width:500px;"">
  <p>What determined the result of this run?</p>
  </div>","100","html-slider-response","15","294522","0.0-5.0-1.1","139","1","2025-07-23 06:29:21","1f75c3e559b7213887762d5229550c2b","41.56.199.189","Mozilla/5.0 (Windows NT 10.0; Win64; x64) AppleWebKit/537.36 (KHTML, like Gecko) Chrome/138.0.0.0 Safari/537.36","WebKit","Chrome","138.0.0.0","Windows","10.0","https://app.prolific.com/","en-ZA,en-GB;q=0.9,en-US;q=0.8,en;q=0.7","60292aabf20c7d2af65541a7","683db9eb0562dbf637994deb","6880812cba3a4b437ec8f068","2","1","60292aabf20c7d2af65541a7","2","1","2025-07-23T06:34:24.634Z","","","","","","","","","","","AttribQ","","50","","","","","","","","","","","","","","","","","","","","","","","","","","","","",""
"3142","","<div style=""width:500px;"">
  <p>How much control did you have over the ball?</p>
  </div>","100","html-slider-response","16","297665","0.0-5.0-2.1","139","1","2025-07-23 06:29:21","1f75c3e559b7213887762d5229550c2b","41.56.199.189","Mozilla/5.0 (Windows NT 10.0; Win64; x64) AppleWebKit/537.36 (KHTML, like Gecko) Chrome/138.0.0.0 Safari/537.36","WebKit","Chrome","138.0.0.0","Windows","10.0","https://app.prolific.com/","en-ZA,en-GB;q=0.9,en-US;q=0.8,en;q=0.7","60292aabf20c7d2af65541a7","683db9eb0562dbf637994deb","6880812cba3a4b437ec8f068","2","1","60292aabf20c7d2af65541a7","2","1","2025-07-23T06:34:27.777Z","","","","","","","","","","","ControlQ","","50","","","","","","","","","","","","","","","","","","","","","","","","","","","","",""
"3047","","<div style=""width:500px;"">
  <p>How would you describe your current emotional state?</p>
  </div>","34","html-slider-response","17","300714","0.0-5.0-3.1","139","1","2025-07-23 06:29:21","1f75c3e559b7213887762d5229550c2b","41.56.199.189","Mozilla/5.0 (Windows NT 10.0; Win64; x64) AppleWebKit/537.36 (KHTML, like Gecko) Chrome/138.0.0.0 Safari/537.36","WebKit","Chrome","138.0.0.0","Windows","10.0","https://app.prolific.com/","en-ZA,en-GB;q=0.9,en-US;q=0.8,en;q=0.7","60292aabf20c7d2af65541a7","683db9eb0562dbf637994deb","6880812cba3a4b437ec8f068","2","1","60292aabf20c7d2af65541a7","2","1","2025-07-23T06:34:30.826Z","","","","","","","","","","","StressQ","","50","","","","","","","","","","","","","","","","","","","","","","","","","","","","",""
"3271","","<div style=""width:500px;"">
  <p>What best describes how you currently feel?</p>
  </div>","100","html-slider-response","18","303986","0.0-5.0-4.1","139","1","2025-07-23 06:29:21","1f75c3e559b7213887762d5229550c2b","41.56.199.189","Mozilla/5.0 (Windows NT 10.0; Win64; x64) AppleWebKit/537.36 (KHTML, like Gecko) Chrome/138.0.0.0 Safari/537.36","WebKit","Chrome","138.0.0.0","Windows","10.0","https://app.prolific.com/","en-ZA,en-GB;q=0.9,en-US;q=0.8,en;q=0.7","60292aabf20c7d2af65541a7","683db9eb0562dbf637994deb","6880812cba3a4b437ec8f068","2","1","60292aabf20c7d2af65541a7","2","1","2025-07-23T06:34:34.098Z","","","","","","","","","","","MotivationQ","","50","","","","","","","","","","","","","","","","","","","","","","","","","","","","",""
"","","","","ctl-task-cpt","19","346101","0.0-5.0-0.2","139","1","2025-07-23 06:29:21","1f75c3e559b7213887762d5229550c2b","41.56.199.189","Mozilla/5.0 (Windows NT 10.0; Win64; x64) AppleWebKit/537.36 (KHTML, like Gecko) Chrome/138.0.0.0 Safari/537.36","WebKit","Chrome","138.0.0.0","Windows","10.0","https://app.prolific.com/","en-ZA,en-GB;q=0.9,en-US;q=0.8,en;q=0.7","60292aabf20c7d2af65541a7","683db9eb0562dbf637994deb","6880812cba3a4b437ec8f068","2","1","60292aabf20c7d2af65541a7","2","1","2025-07-23T06:35:16.213Z","","","","","","","","","","","","","","win-only","0","g1:NW,g2:SE","0.8","3","0","315090.6","2734.8","7736.1","39081.5","1","4","4","6","2","-4","-4","0","1","0","1487.3","3000","-2215","[""down"",""right""]","{""num_key_presses"":8,""num_perfect"":6,""num_errors"":0,""num_randdir"":2,""num_randdir_good_moves"":0,""num_whilered"":0,""num_whileblue"":0,""num_blue"":2,""num_good_moves"":6}","[353.14285714285717,344.04910714285717,0.4,353.14285714285717,344.04910714285717,101.3,353.14285714285717,344.04910714285717,201.4,353.14285714285717,344.04910714285717,301.6,353.14285714285717,344.04910714285717,405.9,353.14285714285717,344.04910714285717,506.4,357.14285714285717,356.04910714285717,612.3,358.14285714285717,359.04910714285717,716.2,351.14285714285717,370.04910714285717,834.2,414.14285714285717,468.04910714285717,934.9,457.14285714285717,528.0491071428571,1035.1,589.1428571428571,663.0491071428571,1135.2,615.1428571428571,673.0491071428571,1235.2,632.1428571428571,662.0491071428571,1336.3,632.1428571428571,662.0491071428571,1451.6,632.1428571428571,662.0491071428571,1556.5,632.1428571428571,662.0491071428571,1661.3,632.1428571428571,662.0491071428571,1761.4,632.1428571428571,661.0491071428571,1861.4,578.1428571428571,641.0491071428571,1965.8,574.1428571428571,641.0491071428571,2067.3,574.1428571428571,641.0491071428571,2167.3,574.1428571428571,641.0491071428571,2271.9,574.1428571428571,641.0491071428571,2376.5,574.1428571428571,641.0491071428571,2476.6,574.1428571428571,641.0491071428571,2580.9,574.1428571428571,641.0491071428571,2681.4,574.1428571428571,641.0491071428571,2786.2,574.1428571428571,641.0491071428571,2886.2,574.1428571428571,641.0491071428571,2987.1,574.1428571428571,641.0491071428571,3101.1,574.1428571428571,641.0491071428571,3205.7,574.1428571428571,641.0491071428571,3305.8,574.1428571428571,641.0491071428571,3411.2,574.1428571428571,641.0491071428571,3511.3,574.1428571428571,641.0491071428571,3612.3,574.1428571428571,641.0491071428571,3717.9,574.1428571428571,641.0491071428571,3821.1,574.1428571428571,641.0491071428571,3928.7,574.1428571428571,641.0491071428571,4031.2,574.1428571428571,641.0491071428571,4131.2,574.1428571428571,641.0491071428571,4236.1,574.1428571428571,641.0491071428571,4350.5,574.1428571428571,641.0491071428571,4450.6,574.1428571428571,641.0491071428571,4555.8,574.1428571428571,641.0491071428571,4661.1,574.1428571428571,641.0491071428571,4762,574.1428571428571,641.0491071428571,4867.1,574.1428571428571,641.0491071428571,4983.3]","[1411.5,1411.5,1000,0,411.5,""smooth"",""right"",""right"",""good_move"",5063.5,3651.2,3109.6,1412.3,541.6,""oops"",""right"",""left"",""bad_move"",11924.3,6860.3,3164.7,8325.2,434.4,""smooth"",""down"",""down"",""good_move"",15195.8,3270.8,2647.5,11925,623.3,""smooth"",""down"",""down"",""good_move"",20739.7,5543.6,2305.4,17937.2,497.1,""smooth"",""down"",""down"",""good_move"",22803.3,2063.3,1602.3,20740,461,""smooth"",""right"",""right"",""good_move"",26159.5,3355.3,2943.1,22804.2,412.2,""smooth"",""right"",""right"",""good_move"",28579.4,2419.5,1913.3,26160,506.2,""oops"",""right"",""left"",""bad_move""]","",""
"7444","","<div style=""width:500px;"">
  <p>What determined the result of this run?</p>
  </div>","86","html-slider-response","20","353546","0.0-5.0-1.2","139","1","2025-07-23 06:29:21","1f75c3e559b7213887762d5229550c2b","41.56.199.189","Mozilla/5.0 (Windows NT 10.0; Win64; x64) AppleWebKit/537.36 (KHTML, like Gecko) Chrome/138.0.0.0 Safari/537.36","WebKit","Chrome","138.0.0.0","Windows","10.0","https://app.prolific.com/","en-ZA,en-GB;q=0.9,en-US;q=0.8,en;q=0.7","60292aabf20c7d2af65541a7","683db9eb0562dbf637994deb","6880812cba3a4b437ec8f068","2","1","60292aabf20c7d2af65541a7","2","1","2025-07-23T06:35:23.658Z","","","","","","","","","","","AttribQ","","50","","","","","","","","","","","","","","","","","","","","","","","","","","","","",""
"4166","","<div style=""width:500px;"">
  <p>How much control did you have over the ball?</p>
  </div>","86","html-slider-response","21","357713","0.0-5.0-2.2","139","1","2025-07-23 06:29:21","1f75c3e559b7213887762d5229550c2b","41.56.199.189","Mozilla/5.0 (Windows NT 10.0; Win64; x64) AppleWebKit/537.36 (KHTML, like Gecko) Chrome/138.0.0.0 Safari/537.36","WebKit","Chrome","138.0.0.0","Windows","10.0","https://app.prolific.com/","en-ZA,en-GB;q=0.9,en-US;q=0.8,en;q=0.7","60292aabf20c7d2af65541a7","683db9eb0562dbf637994deb","6880812cba3a4b437ec8f068","2","1","60292aabf20c7d2af65541a7","2","1","2025-07-23T06:35:27.826Z","","","","","","","","","","","ControlQ","","50","","","","","","","","","","","","","","","","","","","","","","","","","","","","",""
"3919","","<div style=""width:500px;"">
  <p>How would you describe your current emotional state?</p>
  </div>","48","html-slider-response","22","361634","0.0-5.0-3.2","139","1","2025-07-23 06:29:21","1f75c3e559b7213887762d5229550c2b","41.56.199.189","Mozilla/5.0 (Windows NT 10.0; Win64; x64) AppleWebKit/537.36 (KHTML, like Gecko) Chrome/138.0.0.0 Safari/537.36","WebKit","Chrome","138.0.0.0","Windows","10.0","https://app.prolific.com/","en-ZA,en-GB;q=0.9,en-US;q=0.8,en;q=0.7","60292aabf20c7d2af65541a7","683db9eb0562dbf637994deb","6880812cba3a4b437ec8f068","2","1","60292aabf20c7d2af65541a7","2","1","2025-07-23T06:35:31.746Z","","","","","","","","","","","StressQ","","50","","","","","","","","","","","","","","","","","","","","","","","","","","","","",""
"2735","","<div style=""width:500px;"">
  <p>What best describes how you currently feel?</p>
  </div>","100","html-slider-response","23","364369","0.0-5.0-4.2","139","1","2025-07-23 06:29:21","1f75c3e559b7213887762d5229550c2b","41.56.199.189","Mozilla/5.0 (Windows NT 10.0; Win64; x64) AppleWebKit/537.36 (KHTML, like Gecko) Chrome/138.0.0.0 Safari/537.36","WebKit","Chrome","138.0.0.0","Windows","10.0","https://app.prolific.com/","en-ZA,en-GB;q=0.9,en-US;q=0.8,en;q=0.7","60292aabf20c7d2af65541a7","683db9eb0562dbf637994deb","6880812cba3a4b437ec8f068","2","1","60292aabf20c7d2af65541a7","2","1","2025-07-23T06:35:34.482Z","","","","","","","","","","","MotivationQ","","50","","","","","","","","","","","","","","","","","","","","","","","","","","","","",""
"","","","","ctl-task-cpt","24","384348","0.0-5.0-0.3","139","1","2025-07-23 06:29:21","1f75c3e559b7213887762d5229550c2b","41.56.199.189","Mozilla/5.0 (Windows NT 10.0; Win64; x64) AppleWebKit/537.36 (KHTML, like Gecko) Chrome/138.0.0.0 Safari/537.36","WebKit","Chrome","138.0.0.0","Windows","10.0","https://app.prolific.com/","en-ZA,en-GB;q=0.9,en-US;q=0.8,en;q=0.7","60292aabf20c7d2af65541a7","683db9eb0562dbf637994deb","6880812cba3a4b437ec8f068","2","1","60292aabf20c7d2af65541a7","2","1","2025-07-23T06:35:54.460Z","","","","","","","","","","","","","","win-only","0","g1:NW,g2:SE","0.7","4","0","375474.2","1209.9","6211.4","16955.4","1","4","8","6","1","1","1","1","0","0.007575757575757576","1614.9","3000","1815","[""left"",""up""]","{""num_key_presses"":4,""num_perfect"":3,""num_errors"":0,""num_randdir"":1,""num_randdir_good_moves"":1,""num_whilered"":0,""num_whileblue"":0,""num_blue"":0,""num_good_moves"":4}","[353.14285714285717,340.04910714285717,0.2,353.14285714285717,340.04910714285717,102.4,353.14285714285717,340.04910714285717,206.4,353.14285714285717,340.04910714285717,317.8,353.14285714285717,340.04910714285717,418.3,353.14285714285717,340.04910714285717,522.1,405.14285714285717,443.04910714285717,634.9,475.14285714285717,561.0491071428571,735.3,476.14285714285717,562.0491071428571,837.1,330.14285714285717,355.04910714285717,941.1,169.14285714285714,181.04910714285714,1051,119.14285714285714,166.04910714285714,1152.3,89.14285714285714,149.04910714285714,1256.6,95.14285714285714,119.04910714285714,1361,87.14285714285714,82.04910714285714,1461.8,87.14285714285714,81.04910714285714,1561.7,86.14285714285714,80.04910714285714,1667.2,85.14285714285714,80.04910714285714,1785.1,85.14285714285714,88.04910714285714,1885.9,174.14285714285714,168.04910714285714,1991.7,280.14285714285717,283.04910714285717,2097,367.14285714285717,296.04910714285717,2201.1,458.14285714285717,296.04910714285717,2319.2,481.14285714285717,296.04910714285717,2421.3,481.14285714285717,296.04910714285717,2525.8,481.14285714285717,296.04910714285717,2626.2,483.14285714285717,296.04910714285717,2731.5,483.14285714285717,296.04910714285717,2831.7,483.14285714285717,296.04910714285717,2951.3,483.14285714285717,296.04910714285717,3051.6,483.14285714285717,296.04910714285717,3156.1,483.14285714285717,296.04910714285717,3268.5,483.14285714285717,296.04910714285717,3371.9,483.14285714285717,296.04910714285717,3471.9,483.14285714285717,296.04910714285717,3571.9,483.14285714285717,296.04910714285717,3672.1,483.14285714285717,296.04910714285717,3776,483.14285714285717,296.04910714285717,3876.1,483.14285714285717,296.04910714285717,3976.2,483.14285714285717,296.04910714285717,4081.2,483.14285714285717,296.04910714285717,4186.9,483.14285714285717,296.04910714285717,4301.8,483.14285714285717,296.04910714285717,4405.6,483.14285714285717,296.04910714285717,4505.6,483.14285714285717,296.04910714285717,4605.7,483.14285714285717,296.04910714285717,4706.5,483.14285714285717,296.04910714285717,4806.6,483.14285714285717,296.04910714285717,4911.2]","[1416.8,1416.9,1000,0,416.9,""oops"",""up"",""up"",""good_move"",4472.9,3055.4,2574.9,1417.5,480.5,""smooth"",""up"",""up"",""good_move"",7694.2,3220.7,2801.6,4473.5,419.1,""smooth"",""left"",""left"",""good_move"",10630,2935.2,2503.2,7695,431.9,""smooth"",""left"",""left"",""good_move""]","",""
"3405","","<div style=""width:500px;"">
  <p>What determined the result of this run?</p>
  </div>","100","html-slider-response","25","387755","0.0-5.0-1.3","139","1","2025-07-23 06:29:21","1f75c3e559b7213887762d5229550c2b","41.56.199.189","Mozilla/5.0 (Windows NT 10.0; Win64; x64) AppleWebKit/537.36 (KHTML, like Gecko) Chrome/138.0.0.0 Safari/537.36","WebKit","Chrome","138.0.0.0","Windows","10.0","https://app.prolific.com/","en-ZA,en-GB;q=0.9,en-US;q=0.8,en;q=0.7","60292aabf20c7d2af65541a7","683db9eb0562dbf637994deb","6880812cba3a4b437ec8f068","2","1","60292aabf20c7d2af65541a7","2","1","2025-07-23T06:35:57.867Z","","","","","","","","","","","AttribQ","","50","","","","","","","","","","","","","","","","","","","","","","","","","","","","",""
"4077","","<div style=""width:500px;"">
  <p>How much control did you have over the ball?</p>
  </div>","100","html-slider-response","26","391834","0.0-5.0-2.3","139","1","2025-07-23 06:29:21","1f75c3e559b7213887762d5229550c2b","41.56.199.189","Mozilla/5.0 (Windows NT 10.0; Win64; x64) AppleWebKit/537.36 (KHTML, like Gecko) Chrome/138.0.0.0 Safari/537.36","WebKit","Chrome","138.0.0.0","Windows","10.0","https://app.prolific.com/","en-ZA,en-GB;q=0.9,en-US;q=0.8,en;q=0.7","60292aabf20c7d2af65541a7","683db9eb0562dbf637994deb","6880812cba3a4b437ec8f068","2","1","60292aabf20c7d2af65541a7","2","1","2025-07-23T06:36:01.946Z","","","","","","","","","","","ControlQ","","50","","","","","","","","","","","","","","","","","","","","","","","","","","","","",""
"5647","","<div style=""width:500px;"">
  <p>How would you describe your current emotional state?</p>
  </div>","47","html-slider-response","27","397482","0.0-5.0-3.3","139","1","2025-07-23 06:29:21","1f75c3e559b7213887762d5229550c2b","41.56.199.189","Mozilla/5.0 (Windows NT 10.0; Win64; x64) AppleWebKit/537.36 (KHTML, like Gecko) Chrome/138.0.0.0 Safari/537.36","WebKit","Chrome","138.0.0.0","Windows","10.0","https://app.prolific.com/","en-ZA,en-GB;q=0.9,en-US;q=0.8,en;q=0.7","60292aabf20c7d2af65541a7","683db9eb0562dbf637994deb","6880812cba3a4b437ec8f068","2","1","60292aabf20c7d2af65541a7","2","1","2025-07-23T06:36:07.595Z","","","","","","","","","","","StressQ","","50","","","","","","","","","","","","","","","","","","","","","","","","","","","","",""
"5605","","<div style=""width:500px;"">
  <p>What best describes how you currently feel?</p>
  </div>","100","html-slider-response","28","403090","0.0-5.0-4.3","139","1","2025-07-23 06:29:21","1f75c3e559b7213887762d5229550c2b","41.56.199.189","Mozilla/5.0 (Windows NT 10.0; Win64; x64) AppleWebKit/537.36 (KHTML, like Gecko) Chrome/138.0.0.0 Safari/537.36","WebKit","Chrome","138.0.0.0","Windows","10.0","https://app.prolific.com/","en-ZA,en-GB;q=0.9,en-US;q=0.8,en;q=0.7","60292aabf20c7d2af65541a7","683db9eb0562dbf637994deb","6880812cba3a4b437ec8f068","2","1","60292aabf20c7d2af65541a7","2","1","2025-07-23T06:36:13.202Z","","","","","","","","","","","MotivationQ","","50","","","","","","","","","","","","","","","","","","","","","","","","","","","","",""
"","","","","ctl-task-cpt","29","438450","0.0-5.0-0.4","139","1","2025-07-23 06:29:21","1f75c3e559b7213887762d5229550c2b","41.56.199.189","Mozilla/5.0 (Windows NT 10.0; Win64; x64) AppleWebKit/537.36 (KHTML, like Gecko) Chrome/138.0.0.0 Safari/537.36","WebKit","Chrome","138.0.0.0","Windows","10.0","https://app.prolific.com/","en-ZA,en-GB;q=0.9,en-US;q=0.8,en;q=0.7","60292aabf20c7d2af65541a7","683db9eb0562dbf637994deb","6880812cba3a4b437ec8f068","2","1","60292aabf20c7d2af65541a7","2","1","2025-07-23T06:36:48.562Z","","","","","","","","","","","","","","win-only","0","g1:NW,g2:SE","0.6","5","0","414194.5","1472.1","6477.4","32339","1","4","8","6","1","1","1","2","1","0.015151515151515152","1238.4","3000","405","[""left"",""up""]","{""num_key_presses"":6,""num_perfect"":4,""num_errors"":0,""num_randdir"":2,""num_randdir_good_moves"":1,""num_whilered"":0,""num_whileblue"":0,""num_blue"":3,""num_good_moves"":5}","[339.14285714285717,354.04910714285717,0.5,339.14285714285717,354.04910714285717,108.3,339.14285714285717,354.04910714285717,215.9,339.14285714285717,354.04910714285717,319.8,339.14285714285717,355.04910714285717,422.6,342.14285714285717,416.04910714285717,532.5,317.14285714285717,469.04910714285717,634.1,-45.857142857142854,104.04910714285714,736.3,-46.857142857142854,66.04910714285714,839,-18.857142857142854,60.049107142857146,939.1,36.142857142857146,57.049107142857146,1039.5,43.142857142857146,56.049107142857146,1139.6,44.142857142857146,56.049107142857146,1240.6,44.142857142857146,56.049107142857146,1343.9,44.142857142857146,56.049107142857146,1449,92.14285714285714,94.04910714285714,1555.6,155.14285714285714,201.04910714285714,1660.2,172.14285714285714,227.04910714285714,1764.9,176.14285714285714,240.04910714285714,1870.2,210.14285714285714,294.04910714285717,1973.7,212.14285714285714,299.04910714285717,2073.9,212.14285714285714,300.04910714285717,2174.1,212.14285714285714,300.04910714285717,2278.7,212.14285714285714,300.04910714285717,2379.6,212.14285714285714,300.04910714285717,2485.2,212.14285714285714,300.04910714285717,2588.6,212.14285714285714,300.04910714285717,2693.9,212.14285714285714,300.04910714285717,2798.5,212.14285714285714,300.04910714285717,2902.7,212.14285714285714,300.04910714285717,3011.9,212.14285714285714,300.04910714285717,3113.6,212.14285714285714,300.04910714285717,3215.3,212.14285714285714,300.04910714285717,3319.6,212.14285714285714,300.04910714285717,3423.4,212.14285714285714,300.04910714285717,3524.8,212.14285714285714,300.04910714285717,3629.3,212.14285714285714,300.04910714285717,3734.2,212.14285714285714,300.04910714285717,3834.4,212.14285714285714,300.04910714285717,3937.2,212.14285714285714,300.04910714285717,4045.6,212.14285714285714,300.04910714285717,4151,212.14285714285714,300.04910714285717,4255.5,212.14285714285714,300.04910714285717,4358.6,212.14285714285714,300.04910714285717,4459.6,212.14285714285714,300.04910714285717,4564.6,212.14285714285714,300.04910714285717,4668.4,212.14285714285714,300.04910714285717,4769.9,212.14285714285714,300.04910714285717,4871.1,212.14285714285714,300.04910714285717,4974.6]","[1519.1,1519.2,1000,0,519.2,""smooth"",""up"",""up"",""good_move"",4158.5,2638.6,2113.2,1519.9,525.4,""oops"",""up"",""left"",""good_move"",6454.1,2295.1,1810.5,4159,484.6,""oops"",""up"",""down"",""bad_move"",20630.9,14175.9,2743.2,17434.2,453.5,""smooth"",""up"",""up"",""good_move"",23639.1,3007.5,2462.6,20631.6,544.9,""smooth"",""up"",""up"",""good_move"",25750.1,2110.6,1688.9,23639.5,421.7,""smooth"",""left"",""left"",""good_move""]","",""
"4839","","<div style=""width:500px;"">
  <p>What determined the result of this run?</p>
  </div>","100","html-slider-response","30","443291","0.0-5.0-1.4","139","1","2025-07-23 06:29:21","1f75c3e559b7213887762d5229550c2b","41.56.199.189","Mozilla/5.0 (Windows NT 10.0; Win64; x64) AppleWebKit/537.36 (KHTML, like Gecko) Chrome/138.0.0.0 Safari/537.36","WebKit","Chrome","138.0.0.0","Windows","10.0","https://app.prolific.com/","en-ZA,en-GB;q=0.9,en-US;q=0.8,en;q=0.7","60292aabf20c7d2af65541a7","683db9eb0562dbf637994deb","6880812cba3a4b437ec8f068","2","1","60292aabf20c7d2af65541a7","2","1","2025-07-23T06:36:53.403Z","","","","","","","","","","","AttribQ","","50","","","","","","","","","","","","","","","","","","","","","","","","","","","","",""
"3333","","<div style=""width:500px;"">
  <p>How much control did you have over the ball?</p>
  </div>","97","html-slider-response","31","446626","0.0-5.0-2.4","139","1","2025-07-23 06:29:21","1f75c3e559b7213887762d5229550c2b","41.56.199.189","Mozilla/5.0 (Windows NT 10.0; Win64; x64) AppleWebKit/537.36 (KHTML, like Gecko) Chrome/138.0.0.0 Safari/537.36","WebKit","Chrome","138.0.0.0","Windows","10.0","https://app.prolific.com/","en-ZA,en-GB;q=0.9,en-US;q=0.8,en;q=0.7","60292aabf20c7d2af65541a7","683db9eb0562dbf637994deb","6880812cba3a4b437ec8f068","2","1","60292aabf20c7d2af65541a7","2","1","2025-07-23T06:36:56.738Z","","","","","","","","","","","ControlQ","","50","","","","","","","","","","","","","","","","","","","","","","","","","","","","",""
"3280","","<div style=""width:500px;"">
  <p>How would you describe your current emotional state?</p>
  </div>","48","html-slider-response","32","449908","0.0-5.0-3.4","139","1","2025-07-23 06:29:21","1f75c3e559b7213887762d5229550c2b","41.56.199.189","Mozilla/5.0 (Windows NT 10.0; Win64; x64) AppleWebKit/537.36 (KHTML, like Gecko) Chrome/138.0.0.0 Safari/537.36","WebKit","Chrome","138.0.0.0","Windows","10.0","https://app.prolific.com/","en-ZA,en-GB;q=0.9,en-US;q=0.8,en;q=0.7","60292aabf20c7d2af65541a7","683db9eb0562dbf637994deb","6880812cba3a4b437ec8f068","2","1","60292aabf20c7d2af65541a7","2","1","2025-07-23T06:37:00.020Z","","","","","","","","","","","StressQ","","50","","","","","","","","","","","","","","","","","","","","","","","","","","","","",""
"2748","","<div style=""width:500px;"">
  <p>What best describes how you currently feel?</p>
  </div>","100","html-slider-response","33","452658","0.0-5.0-4.4","139","1","2025-07-23 06:29:21","1f75c3e559b7213887762d5229550c2b","41.56.199.189","Mozilla/5.0 (Windows NT 10.0; Win64; x64) AppleWebKit/537.36 (KHTML, like Gecko) Chrome/138.0.0.0 Safari/537.36","WebKit","Chrome","138.0.0.0","Windows","10.0","https://app.prolific.com/","en-ZA,en-GB;q=0.9,en-US;q=0.8,en;q=0.7","60292aabf20c7d2af65541a7","683db9eb0562dbf637994deb","6880812cba3a4b437ec8f068","2","1","60292aabf20c7d2af65541a7","2","1","2025-07-23T06:37:02.770Z","","","","","","","","","","","MotivationQ","","50","","","","","","","","","","","","","","","","","","","","","","","","","","","","",""
"","","","","ctl-task-cpt","34","483035","0.0-5.0-0.5","139","1","2025-07-23 06:29:21","1f75c3e559b7213887762d5229550c2b","41.56.199.189","Mozilla/5.0 (Windows NT 10.0; Win64; x64) AppleWebKit/537.36 (KHTML, like Gecko) Chrome/138.0.0.0 Safari/537.36","WebKit","Chrome","138.0.0.0","Windows","10.0","https://app.prolific.com/","en-ZA,en-GB;q=0.9,en-US;q=0.8,en;q=0.7","60292aabf20c7d2af65541a7","683db9eb0562dbf637994deb","6880812cba3a4b437ec8f068","2","1","60292aabf20c7d2af65541a7","2","1","2025-07-23T06:37:33.147Z","","","","","","","","","","","","","","win-only","1","g1:NE,g2:SW","0.5","6","0","463762.4","1213.9","6215.8","27343.1","1","4","4","6","1","-1","-1","1","2","0.007575757575757576","1656.6","3000","-2045","[""up"",""right""]","{""num_key_presses"":7,""num_perfect"":4,""num_errors"":0,""num_randdir"":3,""num_randdir_good_moves"":2,""num_whilered"":0,""num_whileblue"":0,""num_blue"":0,""num_good_moves"":5}","[352.14285714285717,354.04910714285717,0.5,352.14285714285717,354.04910714285717,102.1,352.14285714285717,354.04910714285717,215.4,352.14285714285717,354.04910714285717,315.6,352.14285714285717,354.04910714285717,432,352.14285714285717,354.04910714285717,536.6,352.14285714285717,354.04910714285717,636.6,352.14285714285717,354.04910714285717,736.6,352.14285714285717,354.04910714285717,836.7,352.14285714285717,354.04910714285717,937.6,425.14285714285717,272.04910714285717,1041.6,470.14285714285717,203.04910714285714,1142.6,552.1428571428571,139.04910714285714,1246.6,609.1428571428571,87.04910714285714,1346.6,615.1428571428571,80.04910714285714,1449.8,616.1428571428571,78.04910714285714,1552.8,616.1428571428571,78.04910714285714,1668.4,616.1428571428571,78.04910714285714,1771.5,616.1428571428571,78.04910714285714,1872.6,616.1428571428571,78.04910714285714,1977.1,612.1428571428571,89.04910714285714,2077.6,594.1428571428571,144.04910714285714,2182.6,570.1428571428571,221.04910714285714,2300.1,570.1428571428571,249.04910714285714,2401.8,570.1428571428571,249.04910714285714,2502.8,570.1428571428571,249.04910714285714,2608.7,570.1428571428571,249.04910714285714,2712.5,570.1428571428571,249.04910714285714,2828.1,570.1428571428571,249.04910714285714,2931.3,570.1428571428571,249.04910714285714,3031.9,570.1428571428571,249.04910714285714,3137,570.1428571428571,249.04910714285714,3237.7,570.1428571428571,249.04910714285714,3342.5,570.1428571428571,249.04910714285714,3456.7,570.1428571428571,249.04910714285714,3564.5,570.1428571428571,249.04910714285714,3666.9,570.1428571428571,249.04910714285714,3772.4,570.1428571428571,249.04910714285714,3873.5,570.1428571428571,249.04910714285714,3977.4,570.1428571428571,249.04910714285714,4078.4,570.1428571428571,249.04910714285714,4197.5,570.1428571428571,249.04910714285714,4302.5,570.1428571428571,249.04910714285714,4407.4,570.1428571428571,249.04910714285714,4507.4,570.1428571428571,249.04910714285714,4607.4,570.1428571428571,249.04910714285714,4707.5,570.1428571428571,249.04910714285714,4808.5,570.1428571428571,249.04910714285714,4908.5]","[1573.6,1573.6,1000,0,573.6,""oops"",""up"",""right"",""good_move"",4579.9,3005.5,2483.8,1574.4,521.7,""oops"",""up"",""right"",""good_move"",7796.3,3215.8,1820.9,4580.6,1394.8,""smooth"",""left"",""left"",""bad_move"",10560.6,2763.7,2321.1,7796.9,442.6,""smooth"",""up"",""up"",""good_move"",13484.5,2923.5,2424.7,10561,498.8,""oops"",""up"",""down"",""bad_move"",15972.5,2487.3,1950.1,13485.3,537.2,""smooth"",""up"",""up"",""good_move"",18908.1,2935.1,2520.9,15973,414.2,""smooth"",""right"",""right"",""good_move""]","",""
"4973","","<div style=""width:500px;"">
  <p>What determined the result of this run?</p>
  </div>","58","html-slider-response","35","488010","0.0-5.0-1.5","139","1","2025-07-23 06:29:21","1f75c3e559b7213887762d5229550c2b","41.56.199.189","Mozilla/5.0 (Windows NT 10.0; Win64; x64) AppleWebKit/537.36 (KHTML, like Gecko) Chrome/138.0.0.0 Safari/537.36","WebKit","Chrome","138.0.0.0","Windows","10.0","https://app.prolific.com/","en-ZA,en-GB;q=0.9,en-US;q=0.8,en;q=0.7","60292aabf20c7d2af65541a7","683db9eb0562dbf637994deb","6880812cba3a4b437ec8f068","2","1","60292aabf20c7d2af65541a7","2","1","2025-07-23T06:37:38.122Z","","","","","","","","","","","AttribQ","","50","","","","","","","","","","","","","","","","","","","","","","","","","","","","",""
"3839","","<div style=""width:500px;"">
  <p>How much control did you have over the ball?</p>
  </div>","54","html-slider-response","36","491850","0.0-5.0-2.5","139","1","2025-07-23 06:29:21","1f75c3e559b7213887762d5229550c2b","41.56.199.189","Mozilla/5.0 (Windows NT 10.0; Win64; x64) AppleWebKit/537.36 (KHTML, like Gecko) Chrome/138.0.0.0 Safari/537.36","WebKit","Chrome","138.0.0.0","Windows","10.0","https://app.prolific.com/","en-ZA,en-GB;q=0.9,en-US;q=0.8,en;q=0.7","60292aabf20c7d2af65541a7","683db9eb0562dbf637994deb","6880812cba3a4b437ec8f068","2","1","60292aabf20c7d2af65541a7","2","1","2025-07-23T06:37:41.962Z","","","","","","","","","","","ControlQ","","50","","","","","","","","","","","","","","","","","","","","","","","","","","","","",""
"2823","","<div style=""width:500px;"">
  <p>How would you describe your current emotional state?</p>
  </div>","54","html-slider-response","37","494674","0.0-5.0-3.5","139","1","2025-07-23 06:29:21","1f75c3e559b7213887762d5229550c2b","41.56.199.189","Mozilla/5.0 (Windows NT 10.0; Win64; x64) AppleWebKit/537.36 (KHTML, like Gecko) Chrome/138.0.0.0 Safari/537.36","WebKit","Chrome","138.0.0.0","Windows","10.0","https://app.prolific.com/","en-ZA,en-GB;q=0.9,en-US;q=0.8,en;q=0.7","60292aabf20c7d2af65541a7","683db9eb0562dbf637994deb","6880812cba3a4b437ec8f068","2","1","60292aabf20c7d2af65541a7","2","1","2025-07-23T06:37:44.786Z","","","","","","","","","","","StressQ","","50","","","","","","","","","","","","","","","","","","","","","","","","","","","","",""
"2735","","<div style=""width:500px;"">
  <p>What best describes how you currently feel?</p>
  </div>","100","html-slider-response","38","497410","0.0-5.0-4.5","139","1","2025-07-23 06:29:21","1f75c3e559b7213887762d5229550c2b","41.56.199.189","Mozilla/5.0 (Windows NT 10.0; Win64; x64) AppleWebKit/537.36 (KHTML, like Gecko) Chrome/138.0.0.0 Safari/537.36","WebKit","Chrome","138.0.0.0","Windows","10.0","https://app.prolific.com/","en-ZA,en-GB;q=0.9,en-US;q=0.8,en;q=0.7","60292aabf20c7d2af65541a7","683db9eb0562dbf637994deb","6880812cba3a4b437ec8f068","2","1","60292aabf20c7d2af65541a7","2","1","2025-07-23T06:37:47.522Z","","","","","","","","","","","MotivationQ","","50","","","","","","","","","","","","","","","","","","","","","","","","","","","","",""
"","","","","ctl-task-cpt","39","538982","0.0-5.0-0.6","139","1","2025-07-23 06:29:21","1f75c3e559b7213887762d5229550c2b","41.56.199.189","Mozilla/5.0 (Windows NT 10.0; Win64; x64) AppleWebKit/537.36 (KHTML, like Gecko) Chrome/138.0.0.0 Safari/537.36","WebKit","Chrome","138.0.0.0","Windows","10.0","https://app.prolific.com/","en-ZA,en-GB;q=0.9,en-US;q=0.8,en;q=0.7","60292aabf20c7d2af65541a7","683db9eb0562dbf637994deb","6880812cba3a4b437ec8f068","2","1","60292aabf20c7d2af65541a7","2","1","2025-07-23T06:38:29.095Z","","","","","","","","","","","","","","win-only","2","g1:SE,g2:NW","0.4","7","0","508514.2","2638.4","7654.3","38565.1","1","4","8","6","1","-1","-1","0","1","0","1146.8","3000","-1995","[""down"",""right""]","{""num_key_presses"":9,""num_perfect"":3,""num_errors"":0,""num_randdir"":6,""num_randdir_good_moves"":1,""num_whilered"":0,""num_whileblue"":0,""num_blue"":1,""num_good_moves"":4}","[351.14285714285717,345.04910714285717,0.8,351.14285714285717,345.04910714285717,117.1,351.14285714285717,345.04910714285717,217.9,351.14285714285717,345.04910714285717,321.9,353.14285714285717,347.04910714285717,422.7,403.14285714285717,399.04910714285717,527.5,493.14285714285717,515.0491071428571,633.7,520.1428571428571,557.0491071428571,752.7,606.1428571428571,623.0491071428571,860.8,621.1428571428571,631.0491071428571,962.7,635.1428571428571,643.0491071428571,1083.1,635.1428571428571,643.0491071428571,1200.8,635.1428571428571,643.0491071428571,1301.6,635.1428571428571,643.0491071428571,1402.6,635.1428571428571,645.0491071428571,1507.8,603.1428571428571,641.0491071428571,1612.6,522.1428571428571,633.0491071428571,1734,519.1428571428571,630.0491071428571,1840.6,518.1428571428571,630.0491071428571,1942.1,518.1428571428571,629.0491071428571,2043,518.1428571428571,629.0491071428571,2147.8,518.1428571428571,629.0491071428571,2267.3,518.1428571428571,629.0491071428571,2368.7,518.1428571428571,629.0491071428571,2472.2,518.1428571428571,629.0491071428571,2576.9,518.1428571428571,629.0491071428571,2677.7,518.1428571428571,629.0491071428571,2782.5,518.1428571428571,629.0491071428571,2882.6,517.1428571428571,629.0491071428571,2998.7,517.1428571428571,629.0491071428571,3113.5,517.1428571428571,629.0491071428571,3216.5,517.1428571428571,629.0491071428571,3316.7,517.1428571428571,629.0491071428571,3417,517.1428571428571,629.0491071428571,3517.3,517.1428571428571,629.0491071428571,3623.1,517.1428571428571,629.0491071428571,3723.1,517.1428571428571,629.0491071428571,3828.4,517.1428571428571,629.0491071428571,3928.4,517.1428571428571,629.0491071428571,4049.1,517.1428571428571,629.0491071428571,4152.1,517.1428571428571,629.0491071428571,4253.5,517.1428571428571,629.0491071428571,4357.4,517.1428571428571,629.0491071428571,4462.2,517.1428571428571,629.0491071428571,4562.3,517.1428571428571,629.0491071428571,4662.6,517.1428571428571,629.0491071428571,4781.7,517.1428571428571,629.0491071428571,4882.7,517.1428571428571,629.0491071428571,4987]","[1397.9,1397.9,1000,0,397.9,""smooth"",""down"",""down"",""good_move"",4871.7,3473,3035.1,1398.7,437.9,""oops"",""down"",""up"",""bad_move"",7461.7,2589.4,2009.9,4872.4,579.5,""oops"",""right"",""up"",""bad_move"",10729.8,3267.8,2886.2,7462.1,381.5,""smooth"",""down"",""down"",""good_move"",16974.2,6244.1,2654.2,13899.2,420.8,""oops"",""down"",""up"",""bad_move"",19302.7,2328.1,1831.2,16974.6,496.9,""oops"",""down"",""left"",""bad_move"",22558.6,3255.1,2754.7,19303.5,500.4,""oops"",""down"",""right"",""good_move"",25091.4,2532.3,2112.5,22559.1,419.8,""smooth"",""down"",""down"",""good_move"",28710.3,3618.2,3149.3,25092.1,468.9,""oops"",""down"",""up"",""bad_move""]","",""
"2522","","<div style=""width:500px;"">
  <p>What determined the result of this run?</p>
  </div>","0","html-slider-response","40","541506","0.0-5.0-1.6","139","1","2025-07-23 06:29:21","1f75c3e559b7213887762d5229550c2b","41.56.199.189","Mozilla/5.0 (Windows NT 10.0; Win64; x64) AppleWebKit/537.36 (KHTML, like Gecko) Chrome/138.0.0.0 Safari/537.36","WebKit","Chrome","138.0.0.0","Windows","10.0","https://app.prolific.com/","en-ZA,en-GB;q=0.9,en-US;q=0.8,en;q=0.7","60292aabf20c7d2af65541a7","683db9eb0562dbf637994deb","6880812cba3a4b437ec8f068","2","1","60292aabf20c7d2af65541a7","2","1","2025-07-23T06:38:31.618Z","","","","","","","","","","","AttribQ","","50","","","","","","","","","","","","","","","","","","","","","","","","","","","","",""
"3526","","<div style=""width:500px;"">
  <p>How much control did you have over the ball?</p>
  </div>","1","html-slider-response","41","545034","0.0-5.0-2.6","139","1","2025-07-23 06:29:21","1f75c3e559b7213887762d5229550c2b","41.56.199.189","Mozilla/5.0 (Windows NT 10.0; Win64; x64) AppleWebKit/537.36 (KHTML, like Gecko) Chrome/138.0.0.0 Safari/537.36","WebKit","Chrome","138.0.0.0","Windows","10.0","https://app.prolific.com/","en-ZA,en-GB;q=0.9,en-US;q=0.8,en;q=0.7","60292aabf20c7d2af65541a7","683db9eb0562dbf637994deb","6880812cba3a4b437ec8f068","2","1","60292aabf20c7d2af65541a7","2","1","2025-07-23T06:38:35.146Z","","","","","","","","","","","ControlQ","","50","","","","","","","","","","","","","","","","","","","","","","","","","","","","",""
"10359","","<div style=""width:500px;"">
  <p>How would you describe your current emotional state?</p>
  </div>","100","html-slider-response","42","555394","0.0-5.0-3.6","139","1","2025-07-23 06:29:21","1f75c3e559b7213887762d5229550c2b","41.56.199.189","Mozilla/5.0 (Windows NT 10.0; Win64; x64) AppleWebKit/537.36 (KHTML, like Gecko) Chrome/138.0.0.0 Safari/537.36","WebKit","Chrome","138.0.0.0","Windows","10.0","https://app.prolific.com/","en-ZA,en-GB;q=0.9,en-US;q=0.8,en;q=0.7","60292aabf20c7d2af65541a7","683db9eb0562dbf637994deb","6880812cba3a4b437ec8f068","2","1","60292aabf20c7d2af65541a7","2","1","2025-07-23T06:38:45.506Z","","","","","","","","","","","StressQ","","50","","","","","","","","","","","","","","","","","","","","","","","","","","","","",""
"3070","","<div style=""width:500px;"">
  <p>What best describes how you currently feel?</p>
  </div>","100","html-slider-response","43","558466","0.0-5.0-4.6","139","1","2025-07-23 06:29:21","1f75c3e559b7213887762d5229550c2b","41.56.199.189","Mozilla/5.0 (Windows NT 10.0; Win64; x64) AppleWebKit/537.36 (KHTML, like Gecko) Chrome/138.0.0.0 Safari/537.36","WebKit","Chrome","138.0.0.0","Windows","10.0","https://app.prolific.com/","en-ZA,en-GB;q=0.9,en-US;q=0.8,en;q=0.7","60292aabf20c7d2af65541a7","683db9eb0562dbf637994deb","6880812cba3a4b437ec8f068","2","1","60292aabf20c7d2af65541a7","2","1","2025-07-23T06:38:48.578Z","","","","","","","","","","","MotivationQ","","50","","","","","","","","","","","","","","","","","","","","","","","","","","","","",""
"","","","","ctl-task-cpt","44","604089","0.0-5.0-0.7","139","1","2025-07-23 06:29:21","1f75c3e559b7213887762d5229550c2b","41.56.199.189","Mozilla/5.0 (Windows NT 10.0; Win64; x64) AppleWebKit/537.36 (KHTML, like Gecko) Chrome/138.0.0.0 Safari/537.36","WebKit","Chrome","138.0.0.0","Windows","10.0","https://app.prolific.com/","en-ZA,en-GB;q=0.9,en-US;q=0.8,en;q=0.7","60292aabf20c7d2af65541a7","683db9eb0562dbf637994deb","6880812cba3a4b437ec8f068","2","1","60292aabf20c7d2af65541a7","2","1","2025-07-23T06:39:34.201Z","","","","","","","","","","","","","","win-only","3","g1:SW,g2:NE","0.3","8","0","569571.4","2199.1","7200.8","42599.8","1","4","4","6","1","-1","-1","0","0","0","1648.6","3000","-2115","[""down"",""left""]","{""num_key_presses"":9,""num_perfect"":3,""num_errors"":0,""num_randdir"":6,""num_randdir_good_moves"":2,""num_whilered"":0,""num_whileblue"":0,""num_blue"":2,""num_good_moves"":5}","[355.14285714285717,341.04910714285717,0.3,355.14285714285717,341.04910714285717,103.9,355.14285714285717,341.04910714285717,207.6,355.14285714285717,341.04910714285717,307.6,355.14285714285717,341.04910714285717,417.8,355.14285714285717,341.04910714285717,521.3,355.14285714285717,341.04910714285717,626.2,310.14285714285717,397.04910714285717,727.4,225.14285714285714,492.04910714285717,837.7,198.14285714285714,521.0491071428571,942.2,80.14285714285714,599.0491071428571,1052.7,23.142857142857146,648.0491071428571,1155.7,23.142857142857146,649.0491071428571,1262.7,22.142857142857146,649.0491071428571,1367.4,36.142857142857146,646.0491071428571,1468.3,38.142857142857146,646.0491071428571,1580,41.142857142857146,644.0491071428571,1686.7,41.142857142857146,644.0491071428571,1797.8,41.142857142857146,644.0491071428571,1901.5,41.142857142857146,644.0491071428571,2001.8,96.14285714285714,629.0491071428571,2109,163.14285714285714,615.0491071428571,2213.4,179.14285714285714,609.0491071428571,2324.7,201.14285714285714,604.0491071428571,2428.1,214.14285714285714,600.0491071428571,2538.8,285.14285714285717,589.0491071428571,2659.2,352.14285714285717,570.0491071428571,2773.9,387.14285714285717,562.0491071428571,2879,396.14285714285717,559.0491071428571,2987.6,396.14285714285717,559.0491071428571,3091.8,396.14285714285717,559.0491071428571,3191.9,396.14285714285717,559.0491071428571,3293.5,396.14285714285717,559.0491071428571,3396.2,396.14285714285717,559.0491071428571,3497.7,396.14285714285717,559.0491071428571,3602.2,396.14285714285717,559.0491071428571,3724.9,396.14285714285717,559.0491071428571,3825.8,396.14285714285717,559.0491071428571,3941.8,396.14285714285717,559.0491071428571,4042,396.14285714285717,559.0491071428571,4148,396.14285714285717,559.0491071428571,4251.3,396.14285714285717,559.0491071428571,4351.4,396.14285714285717,559.0491071428571,4456.8,396.14285714285717,559.0491071428571,4556.8,396.14285714285717,559.0491071428571,4658,396.14285714285717,559.0491071428571,4761.9,396.14285714285717,559.0491071428571,4862,396.14285714285717,559.0491071428571,4966.7]","[1474.5,1474.5,1000,0,474.5,""oops"",""down"",""left"",""good_move"",4484.8,3009.4,2518.2,1475.4,491.2,""oops"",""down"",""right"",""bad_move"",7931,3445.7,3057.3,4485.3,388.4,""oops"",""down"",""left"",""good_move"",11481.4,3549.7,3028.1,7931.7,521.6,""oops"",""left"",""right"",""bad_move"",14906.3,3424.3,2932,11482,492.3,""smooth"",""down"",""down"",""good_move"",18079.2,3172,2754.5,14907.3,417.4,""oops"",""left"",""up"",""bad_move"",20645.4,2565.5,2016.2,18079.9,549.3,""smooth"",""down"",""down"",""good_move"",29586.9,8941.1,2607.9,26531.2,447.9,""smooth"",""down"",""down"",""good_move"",32311.7,2723.9,2269.9,29587.9,453.9,""oops"",""left"",""right"",""bad_move""]","",""
"3624","","<div style=""width:500px;"">
  <p>What determined the result of this run?</p>
  </div>","2","html-slider-response","45","607714","0.0-5.0-1.7","139","1","2025-07-23 06:29:21","1f75c3e559b7213887762d5229550c2b","41.56.199.189","Mozilla/5.0 (Windows NT 10.0; Win64; x64) AppleWebKit/537.36 (KHTML, like Gecko) Chrome/138.0.0.0 Safari/537.36","WebKit","Chrome","138.0.0.0","Windows","10.0","https://app.prolific.com/","en-ZA,en-GB;q=0.9,en-US;q=0.8,en;q=0.7","60292aabf20c7d2af65541a7","683db9eb0562dbf637994deb","6880812cba3a4b437ec8f068","2","1","60292aabf20c7d2af65541a7","2","1","2025-07-23T06:39:37.827Z","","","","","","","","","","","AttribQ","","50","","","","","","","","","","","","","","","","","","","","","","","","","","","","",""
"5221","","<div style=""width:500px;"">
  <p>How much control did you have over the ball?</p>
  </div>","0","html-slider-response","46","612937","0.0-5.0-2.7","139","1","2025-07-23 06:29:21","1f75c3e559b7213887762d5229550c2b","41.56.199.189","Mozilla/5.0 (Windows NT 10.0; Win64; x64) AppleWebKit/537.36 (KHTML, like Gecko) Chrome/138.0.0.0 Safari/537.36","WebKit","Chrome","138.0.0.0","Windows","10.0","https://app.prolific.com/","en-ZA,en-GB;q=0.9,en-US;q=0.8,en;q=0.7","60292aabf20c7d2af65541a7","683db9eb0562dbf637994deb","6880812cba3a4b437ec8f068","2","1","60292aabf20c7d2af65541a7","2","1","2025-07-23T06:39:43.050Z","","","","","","","","","","","ControlQ","","50","","","","","","","","","","","","","","","","","","","","","","","","","","","","",""
"3152","","<div style=""width:500px;"">
  <p>How would you describe your current emotional state?</p>
  </div>","78","html-slider-response","47","616091","0.0-5.0-3.7","139","1","2025-07-23 06:29:21","1f75c3e559b7213887762d5229550c2b","41.56.199.189","Mozilla/5.0 (Windows NT 10.0; Win64; x64) AppleWebKit/537.36 (KHTML, like Gecko) Chrome/138.0.0.0 Safari/537.36","WebKit","Chrome","138.0.0.0","Windows","10.0","https://app.prolific.com/","en-ZA,en-GB;q=0.9,en-US;q=0.8,en;q=0.7","60292aabf20c7d2af65541a7","683db9eb0562dbf637994deb","6880812cba3a4b437ec8f068","2","1","60292aabf20c7d2af65541a7","2","1","2025-07-23T06:39:46.203Z","","","","","","","","","","","StressQ","","50","","","","","","","","","","","","","","","","","","","","","","","","","","","","",""
"3565","","<div style=""width:500px;"">
  <p>What best describes how you currently feel?</p>
  </div>","100","html-slider-response","48","619659","0.0-5.0-4.7","139","1","2025-07-23 06:29:21","1f75c3e559b7213887762d5229550c2b","41.56.199.189","Mozilla/5.0 (Windows NT 10.0; Win64; x64) AppleWebKit/537.36 (KHTML, like Gecko) Chrome/138.0.0.0 Safari/537.36","WebKit","Chrome","138.0.0.0","Windows","10.0","https://app.prolific.com/","en-ZA,en-GB;q=0.9,en-US;q=0.8,en;q=0.7","60292aabf20c7d2af65541a7","683db9eb0562dbf637994deb","6880812cba3a4b437ec8f068","2","1","60292aabf20c7d2af65541a7","2","1","2025-07-23T06:39:49.771Z","","","","","","","","","","","MotivationQ","","50","","","","","","","","","","","","","","","","","","","","","","","","","","","","",""
"","","","","ctl-task-cpt","49","663450","0.0-5.0-0.8","139","1","2025-07-23 06:29:21","1f75c3e559b7213887762d5229550c2b","41.56.199.189","Mozilla/5.0 (Windows NT 10.0; Win64; x64) AppleWebKit/537.36 (KHTML, like Gecko) Chrome/138.0.0.0 Safari/537.36","WebKit","Chrome","138.0.0.0","Windows","10.0","https://app.prolific.com/","en-ZA,en-GB;q=0.9,en-US;q=0.8,en;q=0.7","60292aabf20c7d2af65541a7","683db9eb0562dbf637994deb","6880812cba3a4b437ec8f068","2","1","60292aabf20c7d2af65541a7","2","1","2025-07-23T06:40:33.562Z","","","","","","","","","","","","","","win-only","0","g1:NW,g2:SE","0.2","9","0","630763.9","2109","7112.1","40762.3","1","4","8","6","1","-1","-1","0","0","0","1247.9","3000","-2025","[""left"",""up""]","{""num_key_presses"":9,""num_perfect"":2,""num_errors"":0,""num_randdir"":7,""num_randdir_good_moves"":1,""num_whilered"":0,""num_whileblue"":0,""num_blue"":1,""num_good_moves"":3}","[339.14285714285717,350.04910714285717,0.6,339.14285714285717,350.04910714285717,107.6,339.14285714285717,350.04910714285717,207.9,339.14285714285717,350.04910714285717,315.5,339.14285714285717,350.04910714285717,431.2,339.14285714285717,365.04910714285717,532.3,335.14285714285717,404.04910714285717,644.6,230.14285714285714,373.04910714285717,762.9,153.14285714285714,278.04910714285717,874.8,109.14285714285714,207.04910714285714,977.2,40.142857142857146,88.04910714285714,1088.7,38.142857142857146,83.04910714285714,1192.1,38.142857142857146,83.04910714285714,1292.4,38.142857142857146,82.04910714285714,1397.6,53.142857142857146,113.04910714285714,1500.4,194.14285714285714,288.04910714285717,1606.5,230.14285714285714,399.04910714285717,1706.8,235.14285714285714,417.04910714285717,1808.2,235.14285714285714,417.04910714285717,1911.2,235.14285714285714,417.04910714285717,2011.3,235.14285714285714,417.04910714285717,2112.3,235.14285714285714,417.04910714285717,2230,236.14285714285714,418.04910714285717,2346.6,236.14285714285714,418.04910714285717,2459.6,236.14285714285714,418.04910714285717,2562.5,236.14285714285714,418.04910714285717,2665.2,236.14285714285714,418.04910714285717,2776.2,236.14285714285714,418.04910714285717,2883.6,236.14285714285714,418.04910714285717,2986.4,236.14285714285714,418.04910714285717,3106.7,236.14285714285714,418.04910714285717,3207.2,236.14285714285714,418.04910714285717,3323.4,236.14285714285714,418.04910714285717,3430.1,236.14285714285714,418.04910714285717,3541.7,236.14285714285714,418.04910714285717,3641.8,236.14285714285714,418.04910714285717,3743.4,236.14285714285714,418.04910714285717,3846.8,236.14285714285714,418.04910714285717,3947.2,236.14285714285714,418.04910714285717,4057.3,236.14285714285714,418.04910714285717,4162.5,236.14285714285714,418.04910714285717,4283.5,236.14285714285714,418.04910714285717,4383.9,236.14285714285714,418.04910714285717,4486.5,236.14285714285714,418.04910714285717,4588.2,236.14285714285714,418.04910714285717,4692.3,236.14285714285714,418.04910714285717,4792.3,236.14285714285714,418.04910714285717,4913]","[1474.3,1474.3,1000,0,474.3,""smooth"",""up"",""up"",""good_move"",8306.5,6831.7,2492.4,5304,510.1,""oops"",""up"",""up"",""good_move"",12102.7,3795.8,3158.9,8306.9,636.9,""oops"",""left"",""right"",""bad_move"",15239.7,3136.2,2631.9,12103.5,504.3,""oops"",""left"",""right"",""bad_move"",17754.7,2514.4,1976.1,15240.3,538.3,""smooth"",""left"",""left"",""good_move"",21421,3665.1,3292.5,17755.9,372.6,""oops"",""left"",""right"",""bad_move"",23930.9,2509.6,2145.1,21421.3,364.5,""oops"",""left"",""right"",""bad_move"",27420.5,3488.9,2954.1,23931.6,534.8,""oops"",""left"",""down"",""bad_move"",31204,3783.1,3220.4,27420.9,562.7,""oops"",""left"",""down"",""bad_move""]","",""
"3087","","<div style=""width:500px;"">
  <p>What determined the result of this run?</p>
  </div>","0","html-slider-response","50","666539","0.0-5.0-1.8","139","1","2025-07-23 06:29:21","1f75c3e559b7213887762d5229550c2b","41.56.199.189","Mozilla/5.0 (Windows NT 10.0; Win64; x64) AppleWebKit/537.36 (KHTML, like Gecko) Chrome/138.0.0.0 Safari/537.36","WebKit","Chrome","138.0.0.0","Windows","10.0","https://app.prolific.com/","en-ZA,en-GB;q=0.9,en-US;q=0.8,en;q=0.7","60292aabf20c7d2af65541a7","683db9eb0562dbf637994deb","6880812cba3a4b437ec8f068","2","1","60292aabf20c7d2af65541a7","2","1","2025-07-23T06:40:36.651Z","","","","","","","","","","","AttribQ","","50","","","","","","","","","","","","","","","","","","","","","","","","","","","","",""
"3486","","<div style=""width:500px;"">
  <p>How much control did you have over the ball?</p>
  </div>","0","html-slider-response","51","670027","0.0-5.0-2.8","139","1","2025-07-23 06:29:21","1f75c3e559b7213887762d5229550c2b","41.56.199.189","Mozilla/5.0 (Windows NT 10.0; Win64; x64) AppleWebKit/537.36 (KHTML, like Gecko) Chrome/138.0.0.0 Safari/537.36","WebKit","Chrome","138.0.0.0","Windows","10.0","https://app.prolific.com/","en-ZA,en-GB;q=0.9,en-US;q=0.8,en;q=0.7","60292aabf20c7d2af65541a7","683db9eb0562dbf637994deb","6880812cba3a4b437ec8f068","2","1","60292aabf20c7d2af65541a7","2","1","2025-07-23T06:40:40.139Z","","","","","","","","","","","ControlQ","","50","","","","","","","","","","","","","","","","","","","","","","","","","","","","",""
"2405","","<div style=""width:500px;"">
  <p>How would you describe your current emotional state?</p>
  </div>","79","html-slider-response","52","672434","0.0-5.0-3.8","139","1","2025-07-23 06:29:21","1f75c3e559b7213887762d5229550c2b","41.56.199.189","Mozilla/5.0 (Windows NT 10.0; Win64; x64) AppleWebKit/537.36 (KHTML, like Gecko) Chrome/138.0.0.0 Safari/537.36","WebKit","Chrome","138.0.0.0","Windows","10.0","https://app.prolific.com/","en-ZA,en-GB;q=0.9,en-US;q=0.8,en;q=0.7","60292aabf20c7d2af65541a7","683db9eb0562dbf637994deb","6880812cba3a4b437ec8f068","2","1","60292aabf20c7d2af65541a7","2","1","2025-07-23T06:40:42.547Z","","","","","","","","","","","StressQ","","50","","","","","","","","","","","","","","","","","","","","","","","","","","","","",""
"3071","","<div style=""width:500px;"">
  <p>What best describes how you currently feel?</p>
  </div>","100","html-slider-response","53","675506","0.0-5.0-4.8","139","1","2025-07-23 06:29:21","1f75c3e559b7213887762d5229550c2b","41.56.199.189","Mozilla/5.0 (Windows NT 10.0; Win64; x64) AppleWebKit/537.36 (KHTML, like Gecko) Chrome/138.0.0.0 Safari/537.36","WebKit","Chrome","138.0.0.0","Windows","10.0","https://app.prolific.com/","en-ZA,en-GB;q=0.9,en-US;q=0.8,en;q=0.7","60292aabf20c7d2af65541a7","683db9eb0562dbf637994deb","6880812cba3a4b437ec8f068","2","1","60292aabf20c7d2af65541a7","2","1","2025-07-23T06:40:45.619Z","","","","","","","","","","","MotivationQ","","50","","","","","","","","","","","","","","","","","","","","","","","","","","","","",""
"","","","","ctl-task-cpt","54","719300","0.0-5.0-0.9","139","1","2025-07-23 06:29:21","1f75c3e559b7213887762d5229550c2b","41.56.199.189","Mozilla/5.0 (Windows NT 10.0; Win64; x64) AppleWebKit/537.36 (KHTML, like Gecko) Chrome/138.0.0.0 Safari/537.36","WebKit","Chrome","138.0.0.0","Windows","10.0","https://app.prolific.com/","en-ZA,en-GB;q=0.9,en-US;q=0.8,en;q=0.7","60292aabf20c7d2af65541a7","683db9eb0562dbf637994deb","6880812cba3a4b437ec8f068","2","1","60292aabf20c7d2af65541a7","2","1","2025-07-23T06:41:29.412Z","","","","","","","","","","","","","","win-only","3","g1:SW,g2:NE","0.4","10","0","686611.9","1025.5","6035.2","40775.5","1","4","4","6","1","-1","-1","0","0","0","1684.3","3000","-1860","[""down"",""left""]","{""num_key_presses"":10,""num_perfect"":4,""num_errors"":0,""num_randdir"":6,""num_randdir_good_moves"":2,""num_whilered"":0,""num_whileblue"":0,""num_blue"":1,""num_good_moves"":5}","[351.14285714285717,346.04910714285717,0.2,351.14285714285717,346.04910714285717,102.1,351.14285714285717,346.04910714285717,207.3,351.14285714285717,346.04910714285717,317.2,351.14285714285717,346.04910714285717,420.6,351.14285714285717,346.04910714285717,521.5,320.14285714285717,392.04910714285717,626.7,177.14285714285714,505.04910714285717,727.8,122.14285714285714,565.0491071428571,829.6,50.142857142857146,614.0491071428571,940.1,-9.857142857142854,654.0491071428571,1047.1,-9.857142857142854,654.0491071428571,1150.7,-9.857142857142854,654.0491071428571,1255,-7.857142857142854,652.0491071428571,1368.3,15.142857142857146,631.0491071428571,1473.3,20.142857142857146,627.0491071428571,1576.7,20.142857142857146,627.0491071428571,1683.3,20.142857142857146,627.0491071428571,1783.4,20.142857142857146,627.0491071428571,1885.7,20.142857142857146,627.0491071428571,1986.8,21.142857142857146,627.0491071428571,2097.3,21.142857142857146,627.0491071428571,2200.2,22.142857142857146,628.0491071428571,2300.6,132.14285714285714,596.0491071428571,2407.9,303.14285714285717,504.04910714285717,2521.1,347.14285714285717,482.04910714285717,2626.6,434.14285714285717,454.04910714285717,2728.9,493.14285714285717,429.04910714285717,2838.1,495.14285714285717,428.04910714285717,2943.4,495.14285714285717,428.04910714285717,3046.8,495.14285714285717,428.04910714285717,3151.6,495.14285714285717,428.04910714285717,3252.6,495.14285714285717,428.04910714285717,3360.3,495.14285714285717,428.04910714285717,3473.2,495.14285714285717,428.04910714285717,3592.1,495.14285714285717,428.04910714285717,3696.1,495.14285714285717,428.04910714285717,3806.3,495.14285714285717,428.04910714285717,3922.4,495.14285714285717,428.04910714285717,4030.6,495.14285714285717,428.04910714285717,4141.4,495.14285714285717,428.04910714285717,4245.7,495.14285714285717,428.04910714285717,4350.8,495.14285714285717,428.04910714285717,4457.9,495.14285714285717,428.04910714285717,4561.6,495.14285714285717,428.04910714285717,4669.8,495.14285714285717,428.04910714285717,4774.5,495.14285714285717,428.04910714285717,4877.1,495.14285714285717,428.04910714285717,4981.6]","[1561.5,1561.5,1000,0,561.5,""smooth"",""down"",""down"",""good_move"",4761.3,3199.1,2645,1562.2,554.1,""smooth"",""down"",""down"",""good_move"",7939.7,3178.1,2750,4761.6,428.1,""oops"",""left"",""right"",""bad_move"",10625.8,2685.6,2128.9,7940.2,556.7,""smooth"",""right"",""right"",""bad_move"",13643.8,3017.6,2489.9,10626.2,527.7,""oops"",""left"",""right"",""bad_move"",16494.5,2850.3,2378.1,13644.2,472.2,""oops"",""left"",""up"",""bad_move"",23431.8,6936.6,3039.9,19952,439.9,""oops"",""left"",""left"",""good_move"",26655.9,3223.6,2814.8,23432.4,408.8,""oops"",""left"",""right"",""bad_move"",29218.2,2561.4,2113,26656.9,448.3,""smooth"",""left"",""left"",""good_move"",32439.6,3221.1,2827.3,29218.5,393.8,""oops"",""left"",""down"",""good_move""]","",""
"3476","","<div style=""width:500px;"">
  <p>What determined the result of this run?</p>
  </div>","0","html-slider-response","55","722778","0.0-5.0-1.9","139","1","2025-07-23 06:29:21","1f75c3e559b7213887762d5229550c2b","41.56.199.189","Mozilla/5.0 (Windows NT 10.0; Win64; x64) AppleWebKit/537.36 (KHTML, like Gecko) Chrome/138.0.0.0 Safari/537.36","WebKit","Chrome","138.0.0.0","Windows","10.0","https://app.prolific.com/","en-ZA,en-GB;q=0.9,en-US;q=0.8,en;q=0.7","60292aabf20c7d2af65541a7","683db9eb0562dbf637994deb","6880812cba3a4b437ec8f068","2","1","60292aabf20c7d2af65541a7","2","1","2025-07-23T06:41:32.890Z","","","","","","","","","","","AttribQ","","50","","","","","","","","","","","","","","","","","","","","","","","","","","","","",""
"3343","","<div style=""width:500px;"">
  <p>How much control did you have over the ball?</p>
  </div>","0","html-slider-response","56","726122","0.0-5.0-2.9","139","1","2025-07-23 06:29:21","1f75c3e559b7213887762d5229550c2b","41.56.199.189","Mozilla/5.0 (Windows NT 10.0; Win64; x64) AppleWebKit/537.36 (KHTML, like Gecko) Chrome/138.0.0.0 Safari/537.36","WebKit","Chrome","138.0.0.0","Windows","10.0","https://app.prolific.com/","en-ZA,en-GB;q=0.9,en-US;q=0.8,en;q=0.7","60292aabf20c7d2af65541a7","683db9eb0562dbf637994deb","6880812cba3a4b437ec8f068","2","1","60292aabf20c7d2af65541a7","2","1","2025-07-23T06:41:36.234Z","","","","","","","","","","","ControlQ","","50","","","","","","","","","","","","","","","","","","","","","","","","","","","","",""
"4550","","<div style=""width:500px;"">
  <p>How would you describe your current emotional state?</p>
  </div>","100","html-slider-response","57","730673","0.0-5.0-3.9","139","1","2025-07-23 06:29:21","1f75c3e559b7213887762d5229550c2b","41.56.199.189","Mozilla/5.0 (Windows NT 10.0; Win64; x64) AppleWebKit/537.36 (KHTML, like Gecko) Chrome/138.0.0.0 Safari/537.36","WebKit","Chrome","138.0.0.0","Windows","10.0","https://app.prolific.com/","en-ZA,en-GB;q=0.9,en-US;q=0.8,en;q=0.7","60292aabf20c7d2af65541a7","683db9eb0562dbf637994deb","6880812cba3a4b437ec8f068","2","1","60292aabf20c7d2af65541a7","2","1","2025-07-23T06:41:40.785Z","","","","","","","","","","","StressQ","","50","","","","","","","","","","","","","","","","","","","","","","","","","","","","",""
"3167","","<div style=""width:500px;"">
  <p>What best describes how you currently feel?</p>
  </div>","91","html-slider-response","58","733842","0.0-5.0-4.9","139","1","2025-07-23 06:29:21","1f75c3e559b7213887762d5229550c2b","41.56.199.189","Mozilla/5.0 (Windows NT 10.0; Win64; x64) AppleWebKit/537.36 (KHTML, like Gecko) Chrome/138.0.0.0 Safari/537.36","WebKit","Chrome","138.0.0.0","Windows","10.0","https://app.prolific.com/","en-ZA,en-GB;q=0.9,en-US;q=0.8,en;q=0.7","60292aabf20c7d2af65541a7","683db9eb0562dbf637994deb","6880812cba3a4b437ec8f068","2","1","60292aabf20c7d2af65541a7","2","1","2025-07-23T06:41:43.954Z","","","","","","","","","","","MotivationQ","","50","","","","","","","","","","","","","","","","","","","","","","","","","","","","",""
"","","","","ctl-task-cpt","59","763527","0.0-5.0-0.10","139","1","2025-07-23 06:29:21","1f75c3e559b7213887762d5229550c2b","41.56.199.189","Mozilla/5.0 (Windows NT 10.0; Win64; x64) AppleWebKit/537.36 (KHTML, like Gecko) Chrome/138.0.0.0 Safari/537.36","WebKit","Chrome","138.0.0.0","Windows","10.0","https://app.prolific.com/","en-ZA,en-GB;q=0.9,en-US;q=0.8,en;q=0.7","60292aabf20c7d2af65541a7","683db9eb0562dbf637994deb","6880812cba3a4b437ec8f068","2","1","60292aabf20c7d2af65541a7","2","1","2025-07-23T06:42:13.640Z","","","","","","","","","","","","","","win-only","1","g1:NE,g2:SW","0.5","11","0","744946.6","1524.2","6540.4","26665.7","1","4","8","6","1","1","1","1","0","0.007575757575757576","1170.2","3000","1350","[""up"",""right""]","{""num_key_presses"":6,""num_perfect"":4,""num_errors"":0,""num_randdir"":2,""num_randdir_good_moves"":1,""num_whilered"":0,""num_whileblue"":0,""num_blue"":1,""num_good_moves"":5}","[339.14285714285717,341.04910714285717,0.4,339.14285714285717,341.04910714285717,102.3,339.14285714285717,341.04910714285717,203.1,339.14285714285717,341.04910714285717,321.3,339.14285714285717,341.04910714285717,423.6,337.14285714285717,363.04910714285717,526.3,365.14285714285717,360.04910714285717,627.8,565.1428571428571,237.04910714285714,729.8,645.1428571428571,160.04910714285714,852.7,639.1428571428571,134.04910714285714,963.9,612.1428571428571,88.04910714285714,1071.6,611.1428571428571,88.04910714285714,1186.3,611.1428571428571,88.04910714285714,1287.8,605.1428571428571,89.04910714285714,1403.8,564.1428571428571,121.04910714285714,1507,496.14285714285717,176.04910714285714,1608,470.14285714285717,243.04910714285714,1711.5,451.14285714285717,338.04910714285717,1812.9,451.14285714285717,346.04910714285717,1931.3,455.14285714285717,365.04910714285717,2034.1,462.14285714285717,372.04910714285717,2137.1,462.14285714285717,372.04910714285717,2242.6,462.14285714285717,372.04910714285717,2368.9,462.14285714285717,372.04910714285717,2479.1,462.14285714285717,372.04910714285717,2581.7,462.14285714285717,372.04910714285717,2682.3,462.14285714285717,372.04910714285717,2786.2,462.14285714285717,372.04910714285717,2887.7,462.14285714285717,372.04910714285717,2987.8,462.14285714285717,372.04910714285717,3101.3,462.14285714285717,372.04910714285717,3204.9,462.14285714285717,372.04910714285717,3316.3,462.14285714285717,372.04910714285717,3432.8,462.14285714285717,372.04910714285717,3538.3,462.14285714285717,372.04910714285717,3639.1,462.14285714285717,372.04910714285717,3761.7,462.14285714285717,372.04910714285717,3897.4,462.14285714285717,372.04910714285717,4013.1,462.14285714285717,372.04910714285717,4117,462.14285714285717,372.04910714285717,4246.4,462.14285714285717,372.04910714285717,4346.6,462.14285714285717,372.04910714285717,4450.4,462.14285714285717,372.04910714285717,4553.5,462.14285714285717,372.04910714285717,4659.4,462.14285714285717,372.04910714285717,4760.5,462.14285714285717,372.04910714285717,4861.3,462.14285714285717,372.04910714285717,4961.4]","[4497.4,4497.4,1994.1,2007.8,495.5,""smooth"",""up"",""up"",""good_move"",7959.4,3461.4,2992.6,4498,468.8,""smooth"",""up"",""up"",""good_move"",11141,3181.1,2687.3,7959.9,493.8,""oops"",""right"",""right"",""good_move"",13875.3,2733.8,2200,11141.5,533.8,""oops"",""right"",""down"",""bad_move"",17007.1,3131.3,2683.4,13875.9,447.9,""smooth"",""right"",""right"",""good_move"",19978.7,2971.2,2564.8,17007.5,406.4,""smooth"",""up"",""up"",""good_move""]","",""
"4800","","<div style=""width:500px;"">
  <p>What determined the result of this run?</p>
  </div>","70","html-slider-response","60","768330","0.0-5.0-1.10","139","1","2025-07-23 06:29:21","1f75c3e559b7213887762d5229550c2b","41.56.199.189","Mozilla/5.0 (Windows NT 10.0; Win64; x64) AppleWebKit/537.36 (KHTML, like Gecko) Chrome/138.0.0.0 Safari/537.36","WebKit","Chrome","138.0.0.0","Windows","10.0","https://app.prolific.com/","en-ZA,en-GB;q=0.9,en-US;q=0.8,en;q=0.7","60292aabf20c7d2af65541a7","683db9eb0562dbf637994deb","6880812cba3a4b437ec8f068","2","1","60292aabf20c7d2af65541a7","2","1","2025-07-23T06:42:18.442Z","","","","","","","","","","","AttribQ","","50","","","","","","","","","","","","","","","","","","","","","","","","","","","","",""
"2943","","<div style=""width:500px;"">
  <p>How much control did you have over the ball?</p>
  </div>","74","html-slider-response","61","771275","0.0-5.0-2.10","139","1","2025-07-23 06:29:21","1f75c3e559b7213887762d5229550c2b","41.56.199.189","Mozilla/5.0 (Windows NT 10.0; Win64; x64) AppleWebKit/537.36 (KHTML, like Gecko) Chrome/138.0.0.0 Safari/537.36","WebKit","Chrome","138.0.0.0","Windows","10.0","https://app.prolific.com/","en-ZA,en-GB;q=0.9,en-US;q=0.8,en;q=0.7","60292aabf20c7d2af65541a7","683db9eb0562dbf637994deb","6880812cba3a4b437ec8f068","2","1","60292aabf20c7d2af65541a7","2","1","2025-07-23T06:42:21.387Z","","","","","","","","","","","ControlQ","","50","","","","","","","","","","","","","","","","","","","","","","","","","","","","",""
"3190","","<div style=""width:500px;"">
  <p>How would you describe your current emotional state?</p>
  </div>","54","html-slider-response","62","774467","0.0-5.0-3.10","139","1","2025-07-23 06:29:21","1f75c3e559b7213887762d5229550c2b","41.56.199.189","Mozilla/5.0 (Windows NT 10.0; Win64; x64) AppleWebKit/537.36 (KHTML, like Gecko) Chrome/138.0.0.0 Safari/537.36","WebKit","Chrome","138.0.0.0","Windows","10.0","https://app.prolific.com/","en-ZA,en-GB;q=0.9,en-US;q=0.8,en;q=0.7","60292aabf20c7d2af65541a7","683db9eb0562dbf637994deb","6880812cba3a4b437ec8f068","2","1","60292aabf20c7d2af65541a7","2","1","2025-07-23T06:42:24.579Z","","","","","","","","","","","StressQ","","50","","","","","","","","","","","","","","","","","","","","","","","","","","","","",""
"3261","","<div style=""width:500px;"">
  <p>What best describes how you currently feel?</p>
  </div>","99","html-slider-response","63","777729","0.0-5.0-4.10","139","1","2025-07-23 06:29:21","1f75c3e559b7213887762d5229550c2b","41.56.199.189","Mozilla/5.0 (Windows NT 10.0; Win64; x64) AppleWebKit/537.36 (KHTML, like Gecko) Chrome/138.0.0.0 Safari/537.36","WebKit","Chrome","138.0.0.0","Windows","10.0","https://app.prolific.com/","en-ZA,en-GB;q=0.9,en-US;q=0.8,en;q=0.7","60292aabf20c7d2af65541a7","683db9eb0562dbf637994deb","6880812cba3a4b437ec8f068","2","1","60292aabf20c7d2af65541a7","2","1","2025-07-23T06:42:27.842Z","","","","","","","","","","","MotivationQ","","50","","","","","","","","","","","","","","","","","","","","","","","","","","","","",""
"","","","","ctl-task-cpt","64","806095","0.0-5.0-0.11","139","1","2025-07-23 06:29:21","1f75c3e559b7213887762d5229550c2b","41.56.199.189","Mozilla/5.0 (Windows NT 10.0; Win64; x64) AppleWebKit/537.36 (KHTML, like Gecko) Chrome/138.0.0.0 Safari/537.36","WebKit","Chrome","138.0.0.0","Windows","10.0","https://app.prolific.com/","en-ZA,en-GB;q=0.9,en-US;q=0.8,en;q=0.7","60292aabf20c7d2af65541a7","683db9eb0562dbf637994deb","6880812cba3a4b437ec8f068","2","1","60292aabf20c7d2af65541a7","2","1","2025-07-23T06:42:56.207Z","","","","","","","","","","","","","","win-only","1","g1:NE,g2:SW","0.6","12","0","788833.6","1841.7","6849.4","25340.8","1","4","4","6","1","1","1","2","1","0.015151515151515152","1321.3","3000","1370","[""up"",""right""]","{""num_key_presses"":6,""num_perfect"":3,""num_errors"":0,""num_randdir"":3,""num_randdir_good_moves"":2,""num_whilered"":0,""num_whileblue"":0,""num_blue"":1,""num_good_moves"":5}","[349.14285714285717,348.04910714285717,0.4,349.14285714285717,348.04910714285717,100.1,349.14285714285717,348.04910714285717,204.4,349.14285714285717,348.04910714285717,305.4,349.14285714285717,348.04910714285717,409.2,340.14285714285717,365.04910714285717,518.3,310.14285714285717,422.04910714285717,629,405.14285714285717,364.04910714285717,730.2,665.1428571428571,103.04910714285714,1038.7,636.1428571428571,28.049107142857146,1164.1,636.1428571428571,26.049107142857146,1274.4,636.1428571428571,26.049107142857146,1374.7,636.1428571428571,26.049107142857146,1495.4,636.1428571428571,26.049107142857146,1605,627.1428571428571,49.049107142857146,1706.6,571.1428571428571,112.04910714285714,1809.3,484.14285714285717,182.04910714285714,1927,438.14285714285717,231.04910714285714,2029.7,428.14285714285717,247.04910714285714,2143.7,428.14285714285717,247.04910714285714,2251.3,428.14285714285717,247.04910714285714,2352.6,428.14285714285717,247.04910714285714,2455.1,426.14285714285717,252.04910714285714,2574.9,424.14285714285717,257.04910714285717,2683.9,422.14285714285717,261.04910714285717,2794.9,422.14285714285717,263.04910714285717,2900.3,422.14285714285717,263.04910714285717,3009.2,422.14285714285717,263.04910714285717,3110.6,422.14285714285717,263.04910714285717,3217.2,422.14285714285717,263.04910714285717,3321.6,422.14285714285717,263.04910714285717,3444.2,422.14285714285717,263.04910714285717,3548.9,421.14285714285717,265.04910714285717,3649.4,421.14285714285717,265.04910714285717,3760.6,421.14285714285717,265.04910714285717,3869.4,421.14285714285717,265.04910714285717,3970.4,420.14285714285717,265.04910714285717,4072.1,420.14285714285717,265.04910714285717,4175.6,420.14285714285717,265.04910714285717,4293.1,420.14285714285717,265.04910714285717,4393.2,420.14285714285717,265.04910714285717,4494.1,420.14285714285717,265.04910714285717,4620,420.14285714285717,265.04910714285717,4742.5,420.14285714285717,265.04910714285717,4852.5,420.14285714285717,265.04910714285717,4955.3]","[1542,1542,1000,0,542,""oops"",""up"",""up"",""good_move"",4108.2,2565.7,2115.3,1542.6,450.3,""smooth"",""up"",""up"",""good_move"",6993.3,2884.3,2474.2,4109.1,410,""smooth"",""right"",""right"",""good_move"",9913.3,2919.6,2456.5,6993.9,463,""oops"",""right"",""down"",""bad_move"",16067.9,6153.9,2023.8,13525.2,518.9,""oops"",""right"",""up"",""good_move"",18338.8,2270,1750.1,16068.8,519.9,""smooth"",""right"",""right"",""good_move""]","",""
"4563","","<div style=""width:500px;"">
  <p>What determined the result of this run?</p>
  </div>","59","html-slider-response","65","810659","0.0-5.0-1.11","139","1","2025-07-23 06:29:21","1f75c3e559b7213887762d5229550c2b","41.56.199.189","Mozilla/5.0 (Windows NT 10.0; Win64; x64) AppleWebKit/537.36 (KHTML, like Gecko) Chrome/138.0.0.0 Safari/537.36","WebKit","Chrome","138.0.0.0","Windows","10.0","https://app.prolific.com/","en-ZA,en-GB;q=0.9,en-US;q=0.8,en;q=0.7","60292aabf20c7d2af65541a7","683db9eb0562dbf637994deb","6880812cba3a4b437ec8f068","2","1","60292aabf20c7d2af65541a7","2","1","2025-07-23T06:43:00.771Z","","","","","","","","","","","AttribQ","","50","","","","","","","","","","","","","","","","","","","","","","","","","","","","",""
"5413","","<div style=""width:500px;"">
  <p>How much control did you have over the ball?</p>
  </div>","74","html-slider-response","66","816074","0.0-5.0-2.11","139","1","2025-07-23 06:29:21","1f75c3e559b7213887762d5229550c2b","41.56.199.189","Mozilla/5.0 (Windows NT 10.0; Win64; x64) AppleWebKit/537.36 (KHTML, like Gecko) Chrome/138.0.0.0 Safari/537.36","WebKit","Chrome","138.0.0.0","Windows","10.0","https://app.prolific.com/","en-ZA,en-GB;q=0.9,en-US;q=0.8,en;q=0.7","60292aabf20c7d2af65541a7","683db9eb0562dbf637994deb","6880812cba3a4b437ec8f068","2","1","60292aabf20c7d2af65541a7","2","1","2025-07-23T06:43:06.187Z","","","","","","","","","","","ControlQ","","50","","","","","","","","","","","","","","","","","","","","","","","","","","","","",""
"2582","","<div style=""width:500px;"">
  <p>How would you describe your current emotional state?</p>
  </div>","54","html-slider-response","67","818658","0.0-5.0-3.11","139","1","2025-07-23 06:29:21","1f75c3e559b7213887762d5229550c2b","41.56.199.189","Mozilla/5.0 (Windows NT 10.0; Win64; x64) AppleWebKit/537.36 (KHTML, like Gecko) Chrome/138.0.0.0 Safari/537.36","WebKit","Chrome","138.0.0.0","Windows","10.0","https://app.prolific.com/","en-ZA,en-GB;q=0.9,en-US;q=0.8,en;q=0.7","60292aabf20c7d2af65541a7","683db9eb0562dbf637994deb","6880812cba3a4b437ec8f068","2","1","60292aabf20c7d2af65541a7","2","1","2025-07-23T06:43:08.770Z","","","","","","","","","","","StressQ","","50","","","","","","","","","","","","","","","","","","","","","","","","","","","","",""
"3671","","<div style=""width:500px;"">
  <p>What best describes how you currently feel?</p>
  </div>","99","html-slider-response","68","822330","0.0-5.0-4.11","139","1","2025-07-23 06:29:21","1f75c3e559b7213887762d5229550c2b","41.56.199.189","Mozilla/5.0 (Windows NT 10.0; Win64; x64) AppleWebKit/537.36 (KHTML, like Gecko) Chrome/138.0.0.0 Safari/537.36","WebKit","Chrome","138.0.0.0","Windows","10.0","https://app.prolific.com/","en-ZA,en-GB;q=0.9,en-US;q=0.8,en;q=0.7","60292aabf20c7d2af65541a7","683db9eb0562dbf637994deb","6880812cba3a4b437ec8f068","2","1","60292aabf20c7d2af65541a7","2","1","2025-07-23T06:43:12.442Z","","","","","","","","","","","MotivationQ","","50","","","","","","","","","","","","","","","","","","","","","","","","","","","","",""
"","","","","ctl-task-cpt","69","845409","0.0-5.0-0.12","139","1","2025-07-23 06:29:21","1f75c3e559b7213887762d5229550c2b","41.56.199.189","Mozilla/5.0 (Windows NT 10.0; Win64; x64) AppleWebKit/537.36 (KHTML, like Gecko) Chrome/138.0.0.0 Safari/537.36","WebKit","Chrome","138.0.0.0","Windows","10.0","https://app.prolific.com/","en-ZA,en-GB;q=0.9,en-US;q=0.8,en;q=0.7","60292aabf20c7d2af65541a7","683db9eb0562dbf637994deb","6880812cba3a4b437ec8f068","2","1","60292aabf20c7d2af65541a7","2","1","2025-07-23T06:43:35.521Z","","","","","","","","","","","","","","win-only","1","g1:NE,g2:SW","0.7","13","0","833435.1","1245.3","6246.6","20041.4","1","4","8","6","1","1","1","3","2","0.022727272727272728","1187.1","3000","1755","[""up"",""right""]","{""num_key_presses"":4,""num_perfect"":3,""num_errors"":0,""num_randdir"":1,""num_randdir_good_moves"":1,""num_whilered"":0,""num_whileblue"":0,""num_blue"":1,""num_good_moves"":4}","[341.14285714285717,346.04910714285717,0.4,341.14285714285717,346.04910714285717,101.2,341.14285714285717,346.04910714285717,216.9,341.14285714285717,346.04910714285717,316.9,341.14285714285717,346.04910714285717,421.9,341.14285714285717,346.04910714285717,526.6,342.14285714285717,346.04910714285717,627.2,510.14285714285717,256.04910714285717,733.1,557.1428571428571,173.04910714285714,839.4,582.1428571428571,125.04910714285714,947.5,612.1428571428571,73.04910714285714,1051.7,616.1428571428571,63.049107142857146,1156.5,616.1428571428571,63.049107142857146,1262.9,616.1428571428571,63.049107142857146,1377,615.1428571428571,90.04910714285714,1477.8,558.1428571428571,169.04910714285714,1586.8,509.14285714285717,233.04910714285714,1700.8,477.14285714285717,280.04910714285717,1811.4,461.14285714285717,303.04910714285717,1931.5,457.14285714285717,307.04910714285717,2047,452.14285714285717,312.04910714285717,2171.4,451.14285714285717,314.04910714285717,2283.4,449.14285714285717,317.04910714285717,2405,449.14285714285717,317.04910714285717,2510.6,449.14285714285717,317.04910714285717,2632.6,449.14285714285717,317.04910714285717,2734.3,449.14285714285717,317.04910714285717,2839.4,449.14285714285717,317.04910714285717,2944,449.14285714285717,317.04910714285717,3070.9,447.14285714285717,318.04910714285717,3175.9,446.14285714285717,318.04910714285717,3299.4,446.14285714285717,318.04910714285717,3412.7,446.14285714285717,318.04910714285717,3533.7,446.14285714285717,318.04910714285717,3649.1,446.14285714285717,318.04910714285717,3756.7,446.14285714285717,318.04910714285717,3861.7,446.14285714285717,318.04910714285717,3964.5,446.14285714285717,318.04910714285717,4066.3,446.14285714285717,318.04910714285717,4175.9,446.14285714285717,318.04910714285717,4298.5,446.14285714285717,318.04910714285717,4402,446.14285714285717,318.04910714285717,4505.4,446.14285714285717,318.04910714285717,4609.3,446.14285714285717,318.04910714285717,4715.2,446.14285714285717,318.04910714285717,4826.2,446.14285714285717,318.04910714285717,4926.8]","[1516.7,1516.7,1000,0,516.7,""smooth"",""up"",""up"",""good_move"",3934.4,2417.1,1696,1517.3,721.1,""oops"",""up"",""right"",""good_move"",10037.2,6101.4,2220.9,7354.7,461.6,""smooth"",""up"",""up"",""good_move"",13617.6,3579.8,2952.7,10037.8,627.1,""smooth"",""right"",""right"",""good_move""]","",""
"8608","","<div style=""width:500px;"">
  <p>What determined the result of this run?</p>
  </div>","100","html-slider-response","70","854019","0.0-5.0-1.12","139","1","2025-07-23 06:29:21","1f75c3e559b7213887762d5229550c2b","41.56.199.189","Mozilla/5.0 (Windows NT 10.0; Win64; x64) AppleWebKit/537.36 (KHTML, like Gecko) Chrome/138.0.0.0 Safari/537.36","WebKit","Chrome","138.0.0.0","Windows","10.0","https://app.prolific.com/","en-ZA,en-GB;q=0.9,en-US;q=0.8,en;q=0.7","60292aabf20c7d2af65541a7","683db9eb0562dbf637994deb","6880812cba3a4b437ec8f068","2","1","60292aabf20c7d2af65541a7","2","1","2025-07-23T06:43:44.131Z","","","","","","","","","","","AttribQ","","50","","","","","","","","","","","","","","","","","","","","","","","","","","","","",""
"3286","","<div style=""width:500px;"">
  <p>How much control did you have over the ball?</p>
  </div>","98","html-slider-response","71","857306","0.0-5.0-2.12","139","1","2025-07-23 06:29:21","1f75c3e559b7213887762d5229550c2b","41.56.199.189","Mozilla/5.0 (Windows NT 10.0; Win64; x64) AppleWebKit/537.36 (KHTML, like Gecko) Chrome/138.0.0.0 Safari/537.36","WebKit","Chrome","138.0.0.0","Windows","10.0","https://app.prolific.com/","en-ZA,en-GB;q=0.9,en-US;q=0.8,en;q=0.7","60292aabf20c7d2af65541a7","683db9eb0562dbf637994deb","6880812cba3a4b437ec8f068","2","1","60292aabf20c7d2af65541a7","2","1","2025-07-23T06:43:47.419Z","","","","","","","","","","","ControlQ","","50","","","","","","","","","","","","","","","","","","","","","","","","","","","","",""
"4007","","<div style=""width:500px;"">
  <p>How would you describe your current emotional state?</p>
  </div>","52","html-slider-response","72","861315","0.0-5.0-3.12","139","1","2025-07-23 06:29:21","1f75c3e559b7213887762d5229550c2b","41.56.199.189","Mozilla/5.0 (Windows NT 10.0; Win64; x64) AppleWebKit/537.36 (KHTML, like Gecko) Chrome/138.0.0.0 Safari/537.36","WebKit","Chrome","138.0.0.0","Windows","10.0","https://app.prolific.com/","en-ZA,en-GB;q=0.9,en-US;q=0.8,en;q=0.7","60292aabf20c7d2af65541a7","683db9eb0562dbf637994deb","6880812cba3a4b437ec8f068","2","1","60292aabf20c7d2af65541a7","2","1","2025-07-23T06:43:51.427Z","","","","","","","","","","","StressQ","","50","","","","","","","","","","","","","","","","","","","","","","","","","","","","",""
"3301","","<div style=""width:500px;"">
  <p>What best describes how you currently feel?</p>
  </div>","100","html-slider-response","73","864618","0.0-5.0-4.12","139","1","2025-07-23 06:29:21","1f75c3e559b7213887762d5229550c2b","41.56.199.189","Mozilla/5.0 (Windows NT 10.0; Win64; x64) AppleWebKit/537.36 (KHTML, like Gecko) Chrome/138.0.0.0 Safari/537.36","WebKit","Chrome","138.0.0.0","Windows","10.0","https://app.prolific.com/","en-ZA,en-GB;q=0.9,en-US;q=0.8,en;q=0.7","60292aabf20c7d2af65541a7","683db9eb0562dbf637994deb","6880812cba3a4b437ec8f068","2","1","60292aabf20c7d2af65541a7","2","1","2025-07-23T06:43:54.731Z","","","","","","","","","","","MotivationQ","","50","","","","","","","","","","","","","","","","","","","","","","","","","","","","",""
"","","","","ctl-task-cpt","74","894015","0.0-5.0-0.13","139","1","2025-07-23 06:29:21","1f75c3e559b7213887762d5229550c2b","41.56.199.189","Mozilla/5.0 (Windows NT 10.0; Win64; x64) AppleWebKit/537.36 (KHTML, like Gecko) Chrome/138.0.0.0 Safari/537.36","WebKit","Chrome","138.0.0.0","Windows","10.0","https://app.prolific.com/","en-ZA,en-GB;q=0.9,en-US;q=0.8,en;q=0.7","60292aabf20c7d2af65541a7","683db9eb0562dbf637994deb","6880812cba3a4b437ec8f068","2","1","60292aabf20c7d2af65541a7","2","1","2025-07-23T06:44:24.127Z","","","","","","","","","","","","","","win-only","2","g1:SE,g2:NW","0.8","14","0","875724","1946.9","6948.3","26363.9","1","4","4","6","1","1","1","4","3","0.030303030303030304","1206.9","3000","1380","[""down"",""right""]","{""num_key_presses"":6,""num_perfect"":4,""num_errors"":0,""num_randdir"":2,""num_randdir_good_moves"":1,""num_whilered"":0,""num_whileblue"":0,""num_blue"":1,""num_good_moves"":5}","[345.14285714285717,348.04910714285717,0.6,345.14285714285717,348.04910714285717,128.7,345.14285714285717,348.04910714285717,234.8,345.14285714285717,348.04910714285717,338.5,345.14285714285717,348.04910714285717,442.4,345.14285714285717,350.04910714285717,544.9,333.14285714285717,372.04910714285717,650.9,382.14285714285717,445.04910714285717,752.7,553.1428571428571,650.0491071428571,863.4,572.1428571428571,668.0491071428571,966,592.1428571428571,660.0491071428571,1088.8,607.1428571428571,640.0491071428571,1190.9,607.1428571428571,640.0491071428571,1294.6,607.1428571428571,640.0491071428571,1399.4,604.1428571428571,639.0491071428571,1525.1,596.1428571428571,642.0491071428571,1625.7,594.1428571428571,643.0491071428571,1738.1,565.1428571428571,607.0491071428571,1864.9,540.1428571428571,558.0491071428571,1969.5,572.1428571428571,517.0491071428571,2071.3,618.1428571428571,484.04910714285717,2175.7,698.1428571428571,458.04910714285717,2302.8,723.1428571428571,450.04910714285717,2411.3,723.1428571428571,450.04910714285717,2523.2,737.1428571428571,453.04910714285717,2623.2,737.1428571428571,453.04910714285717,2730.7,737.1428571428571,453.04910714285717,2843,737.1428571428571,453.04910714285717,2944.9,737.1428571428571,453.04910714285717,3048.8,737.1428571428571,453.04910714285717,3151.4,737.1428571428571,453.04910714285717,3270,737.1428571428571,453.04910714285717,3370.3,737.1428571428571,453.04910714285717,3471.9,737.1428571428571,453.04910714285717,3573.9,737.1428571428571,453.04910714285717,3674.4,737.1428571428571,453.04910714285717,3774.9,737.1428571428571,453.04910714285717,3892.2,737.1428571428571,453.04910714285717,3993.9,737.1428571428571,453.04910714285717,4108.5,737.1428571428571,453.04910714285717,4212.6,737.1428571428571,453.04910714285717,4332.6,737.1428571428571,453.04910714285717,4452,737.1428571428571,453.04910714285717,4552.7,737.1428571428571,453.04910714285717,4656,737.1428571428571,453.04910714285717,4757.7,737.1428571428571,453.04910714285717,4863,737.1428571428571,453.04910714285717,4977.8]","[1663.9,1663.9,1000,0,663.9,""smooth"",""down"",""down"",""good_move"",4817.5,3152.6,2689.4,1664.9,463.2,""oops"",""down"",""right"",""good_move"",10574.4,5756.4,1980.7,8122.8,470.9,""smooth"",""down"",""down"",""good_move"",13137.7,2562.8,1982.9,10574.9,579.9,""oops"",""right"",""left"",""bad_move"",16474.4,3335.6,2836.4,13138.9,499.2,""smooth"",""right"",""right"",""good_move"",19228.8,2753.4,2257.4,16475.4,496,""smooth"",""right"",""right"",""good_move""]","",""
"2913","","<div style=""width:500px;"">
  <p>What determined the result of this run?</p>
  </div>","93","html-slider-response","75","896930","0.0-5.0-1.13","139","1","2025-07-23 06:29:21","1f75c3e559b7213887762d5229550c2b","41.56.199.189","Mozilla/5.0 (Windows NT 10.0; Win64; x64) AppleWebKit/537.36 (KHTML, like Gecko) Chrome/138.0.0.0 Safari/537.36","WebKit","Chrome","138.0.0.0","Windows","10.0","https://app.prolific.com/","en-ZA,en-GB;q=0.9,en-US;q=0.8,en;q=0.7","60292aabf20c7d2af65541a7","683db9eb0562dbf637994deb","6880812cba3a4b437ec8f068","2","1","60292aabf20c7d2af65541a7","2","1","2025-07-23T06:44:27.042Z","","","","","","","","","","","AttribQ","","50","","","","","","","","","","","","","","","","","","","","","","","","","","","","",""
"2903","","<div style=""width:500px;"">
  <p>How much control did you have over the ball?</p>
  </div>","80","html-slider-response","76","899834","0.0-5.0-2.13","139","1","2025-07-23 06:29:21","1f75c3e559b7213887762d5229550c2b","41.56.199.189","Mozilla/5.0 (Windows NT 10.0; Win64; x64) AppleWebKit/537.36 (KHTML, like Gecko) Chrome/138.0.0.0 Safari/537.36","WebKit","Chrome","138.0.0.0","Windows","10.0","https://app.prolific.com/","en-ZA,en-GB;q=0.9,en-US;q=0.8,en;q=0.7","60292aabf20c7d2af65541a7","683db9eb0562dbf637994deb","6880812cba3a4b437ec8f068","2","1","60292aabf20c7d2af65541a7","2","1","2025-07-23T06:44:29.947Z","","","","","","","","","","","ControlQ","","50","","","","","","","","","","","","","","","","","","","","","","","","","","","","",""
"2662","","<div style=""width:500px;"">
  <p>How would you describe your current emotional state?</p>
  </div>","53","html-slider-response","77","902499","0.0-5.0-3.13","139","1","2025-07-23 06:29:21","1f75c3e559b7213887762d5229550c2b","41.56.199.189","Mozilla/5.0 (Windows NT 10.0; Win64; x64) AppleWebKit/537.36 (KHTML, like Gecko) Chrome/138.0.0.0 Safari/537.36","WebKit","Chrome","138.0.0.0","Windows","10.0","https://app.prolific.com/","en-ZA,en-GB;q=0.9,en-US;q=0.8,en;q=0.7","60292aabf20c7d2af65541a7","683db9eb0562dbf637994deb","6880812cba3a4b437ec8f068","2","1","60292aabf20c7d2af65541a7","2","1","2025-07-23T06:44:32.611Z","","","","","","","","","","","StressQ","","50","","","","","","","","","","","","","","","","","","","","","","","","","","","","",""
"2493","","<div style=""width:500px;"">
  <p>What best describes how you currently feel?</p>
