"rt","response_timestamp","stimulus","response","trial_type","trial_index","time_elapsed","internal_node_id","run_id","condition","recorded_at","source_code_version","ip","user_agent","device","browser","browser_version","platform","platform_version","referer","accept_language","PROLIFIC_PID","STUDY_ID","SESSION_ID","WEEK","BATCH","prolific_id","week","batch","realtime","success","responses","item_order","radio_event_ids","radio_event_times","key_event_times","mouse_event_times","straightlining","zigzagging","honeypot","eventType","view_history","slider_start","which_type","canvas_config","goals_layout","control_level","trial_number","tutorial_trial_number","trial_start_time","phase1_start_time","phase2_start_time","phase3_start_time","goal_1_value","goal_1_distance","goal_2_value","goal_2_distance","goal_selected","outcome","outcome_total","participant_final_score","participant_initial_score","participant_final_score_prop","goal_choice_rt","allocated_time","allocated_time_remaining","goal_direction","counts","mouse_movements","key_presses","question_order","question_id"
"38563","1753302779196","<p style='font-size:40px;line-height:1.25'><strong>Welcome to the experiment!</strong></p><p style='font-size:1.1em;line-height:1.25'>Thank you for participanting in our experiment again! You will be asked to play the Dysfunctional Ball Game again. We will briefly recap the rules before we start.</p><p style='font-size:1.1em;line-height:1.25'>Press <strong>Next</strong> to continue.</p>","0","custom-html-button-response","0","38569","0.0-0.0","235","1","2025-07-23 20:32:18","1f75c3e559b7213887762d5229550c2b","209.203.23.138","Mozilla/5.0 (Windows NT 10.0; Win64; x64) AppleWebKit/537.36 (KHTML, like Gecko) Chrome/138.0.0.0 Safari/537.36","WebKit","Chrome","138.0.0.0","Windows","10.0","https://app.prolific.com/","en-GB,en-US;q=0.9,en;q=0.8","67215aa0a8e88c6751efc410","683dba2a8a9dda3513610c04","688146c834769c3b48c91954","3","0","67215aa0a8e88c6751efc410","3","0","2025-07-23T20:32:59.199Z","","","","","","","","","","","","","","","","","","","","","","","","","","","","","","","","","","","","","","","","","",""
"28614","","","","fullscreen","1","68199","0.0-1.0","235","1","2025-07-23 20:32:18","1f75c3e559b7213887762d5229550c2b","209.203.23.138","Mozilla/5.0 (Windows NT 10.0; Win64; x64) AppleWebKit/537.36 (KHTML, like Gecko) Chrome/138.0.0.0 Safari/537.36","WebKit","Chrome","138.0.0.0","Windows","10.0","https://app.prolific.com/","en-GB,en-US;q=0.9,en;q=0.8","67215aa0a8e88c6751efc410","683dba2a8a9dda3513610c04","688146c834769c3b48c91954","3","0","67215aa0a8e88c6751efc410","3","0","","true","","","","","","","","","","","","","","","","","","","","","","","","","","","","","","","","","","","","","","","","",""
"10293","1753302819126","<p style='font-size:1.1em;line-height:1.25'>In the following, we will ask you a few questions relating to your feelings in the last 24 hours.<br></p><p style='font-size:1.1em;line-height:1.25'>Press the <strong>Next</strong> button to continue.</p>","0","custom-html-button-response","2","78498","0.0-2.0-0.0","235","1","2025-07-23 20:32:18","1f75c3e559b7213887762d5229550c2b","209.203.23.138","Mozilla/5.0 (Windows NT 10.0; Win64; x64) AppleWebKit/537.36 (KHTML, like Gecko) Chrome/138.0.0.0 Safari/537.36","WebKit","Chrome","138.0.0.0","Windows","10.0","https://app.prolific.com/","en-GB,en-US;q=0.9,en;q=0.8","67215aa0a8e88c6751efc410","683dba2a8a9dda3513610c04","688146c834769c3b48c91954","3","0","67215aa0a8e88c6751efc410","3","0","2025-07-23T20:33:39.128Z","","","","","","","","","","","","","","","","","","","","","","","","","","","","","","","","","","","","","","","","","",""
"75707.5","","","","survey-template","3","154220","0.0-2.0-1.0","235","1","2025-07-23 20:32:18","1f75c3e559b7213887762d5229550c2b","209.203.23.138","Mozilla/5.0 (Windows NT 10.0; Win64; x64) AppleWebKit/537.36 (KHTML, like Gecko) Chrome/138.0.0.0 Safari/537.36","WebKit","Chrome","138.0.0.0","Windows","10.0","https://app.prolific.com/","en-GB,en-US;q=0.9,en;q=0.8","67215aa0a8e88c6751efc410","683dba2a8a9dda3513610c04","688146c834769c3b48c91954","3","0","67215aa0a8e88c6751efc410","3","0","2025-07-23T20:34:54.851Z","","{""Q01"":""0"",""Q02"":""0"",""Q03"":""0"",""Q04"":""0"",""Q05"":""0"",""Q06"":""0"",""Q07"":""0"",""Q08"":""0"",""Q09"":""0"",""Q10"":""0"",""Q11"":""1"",""Q12"":""0"",""Q13"":""5"",""Q14"":""1"",""Q15"":""0"",""Q16"":""0"",""Q17"":""0"",""Q18"":""0"",""Q19"":""0"",""Q20"":""0"",""Q21"":""0"",""Q22"":""0""}","[0,1,2,3,4,5,6,7,8,9,10,11,12,13,14,15,16,17,18,19,20,21]","[""Q01"",""Q01"",""Q02"",""Q03"",""Q04"",""Q05"",""Q06"",""Q07"",""Q08"",""Q09"",""Q10"",""Q11"",""Q12"",""Q13"",""Q14"",""Q15"",""Q16"",""Q17"",""Q18"",""Q19"",""Q20"",""Q21"",""Q22""]","[4734.899999991059,5099,6507.199999988079,7699.5999999940395,9341.09999999404,10515.89999999106,11823.09999999404,13339.09999999404,14715.09999999404,20540.5,21839.29999999702,25981.5,30389.69999998808,32680.19999998808,41187.59999999404,45405.09999999404,47405.19999998808,48987.79999999702,50155,54879.59999999404,57205.59999999404,68620.89999999106,70345.09999999404]","[]","[0.29999999701976776,4734.899999991059,5099,6507.199999988079,7699.5999999940395,9341.09999999404,10515.89999999106,11823.09999999404,13339.09999999404,14715.09999999404,20540.5,21839.29999999702,25981.5,29330.39999999106,30389.69999998808,32680.19999998808,41187.59999999404,45405.09999999404,47405.19999998808,48987.79999999702,50155,54879.59999999404,57205.59999999404,68620.89999999106,70345.09999999404,75695]","0.8636363636363636","0.19047619047619047","0","drsp","","","","","","","","","","","","","","","","","","","","","","","","","","","","","","",""
"9110.29999999702","","","","survey-template","4","163335","0.0-2.0-2.0","235","1","2025-07-23 20:32:18","1f75c3e559b7213887762d5229550c2b","209.203.23.138","Mozilla/5.0 (Windows NT 10.0; Win64; x64) AppleWebKit/537.36 (KHTML, like Gecko) Chrome/138.0.0.0 Safari/537.36","WebKit","Chrome","138.0.0.0","Windows","10.0","https://app.prolific.com/","en-GB,en-US;q=0.9,en;q=0.8","67215aa0a8e88c6751efc410","683dba2a8a9dda3513610c04","688146c834769c3b48c91954","3","0","67215aa0a8e88c6751efc410","3","0","2025-07-23T20:35:03.965Z","","{""Q01"":""0"",""Q02"":""5"",""Q03"":""0""}","[0,1,2]","[""Q01"",""Q02"",""Q03""]","[4259.699999988079,5692.699999988079,7716]","[]","[2698.7999999970198,4259.699999988079,5692.699999988079,7716,9106.699999988079]","1","0","0","stress","","","","","","","","","","","","","","","","","","","","","","","","","","","","","","",""
"22645","","","","instructions","5","185982","0.0-3.0-0.0","235","1","2025-07-23 20:32:18","1f75c3e559b7213887762d5229550c2b","209.203.23.138","Mozilla/5.0 (Windows NT 10.0; Win64; x64) AppleWebKit/537.36 (KHTML, like Gecko) Chrome/138.0.0.0 Safari/537.36","WebKit","Chrome","138.0.0.0","Windows","10.0","https://app.prolific.com/","en-GB,en-US;q=0.9,en;q=0.8","67215aa0a8e88c6751efc410","683dba2a8a9dda3513610c04","688146c834769c3b48c91954","3","0","67215aa0a8e88c6751efc410","3","0","","","","","","","","","","","","","[{""page_index"":0,""viewing_time"":22644}]","","","","","","","","","","","","","","","","","","","","","","","","","","","","","",""
"6070","","<p>Before you start with this game please answer the following three questions yourself. </p>
  <p>Through this game, we measure several aspects of your cognitive performance, such as reaction times, multi-tasking capabilities </p>
  <p>and the ability to assess the situation you are in.</p>
  <p></p>
  <p><b>How good do you usually are in such tasks?</b></p>","90","html-slider-response","6","192057","0.0-4.0-0.0","235","1","2025-07-23 20:32:18","1f75c3e559b7213887762d5229550c2b","209.203.23.138","Mozilla/5.0 (Windows NT 10.0; Win64; x64) AppleWebKit/537.36 (KHTML, like Gecko) Chrome/138.0.0.0 Safari/537.36","WebKit","Chrome","138.0.0.0","Windows","10.0","https://app.prolific.com/","en-GB,en-US;q=0.9,en;q=0.8","67215aa0a8e88c6751efc410","683dba2a8a9dda3513610c04","688146c834769c3b48c91954","3","0","67215aa0a8e88c6751efc410","3","0","2025-07-23T20:35:32.687Z","","","","","","","","","","","PreSkillQ","","50","","","","","","","","","","","","","","","","","","","","","","","","","","","","",""
"4714","","<div style=""width:500px;"">
  <p>How well do you think you will perform in this task compared to other participants?</p>
  </div>","87","html-slider-response","7","196773","0.0-4.0-1.0","235","1","2025-07-23 20:32:18","1f75c3e559b7213887762d5229550c2b","209.203.23.138","Mozilla/5.0 (Windows NT 10.0; Win64; x64) AppleWebKit/537.36 (KHTML, like Gecko) Chrome/138.0.0.0 Safari/537.36","WebKit","Chrome","138.0.0.0","Windows","10.0","https://app.prolific.com/","en-GB,en-US;q=0.9,en;q=0.8","67215aa0a8e88c6751efc410","683dba2a8a9dda3513610c04","688146c834769c3b48c91954","3","0","67215aa0a8e88c6751efc410","3","0","2025-07-23T20:35:37.404Z","","","","","","","","","","","PrePerfQ","","50","","","","","","","","","","","","","","","","","","","","","","","","","","","","",""
"9071","","<div style=""width:500px;"">
  <p>What best describes how you currently feel?</p>
  </div>","33","html-slider-response","8","205847","0.0-4.0-2.0","235","1","2025-07-23 20:32:18","1f75c3e559b7213887762d5229550c2b","209.203.23.138","Mozilla/5.0 (Windows NT 10.0; Win64; x64) AppleWebKit/537.36 (KHTML, like Gecko) Chrome/138.0.0.0 Safari/537.36","WebKit","Chrome","138.0.0.0","Windows","10.0","https://app.prolific.com/","en-GB,en-US;q=0.9,en;q=0.8","67215aa0a8e88c6751efc410","683dba2a8a9dda3513610c04","688146c834769c3b48c91954","3","0","67215aa0a8e88c6751efc410","3","0","2025-07-23T20:35:46.478Z","","","","","","","","","","","PreMotivationQ","","50","","","","","","","","","","","","","","","","","","","","","","","","","","","","",""
"","","","","ctl-task-cpt","9","233753","0.0-5.0-0.0","235","1","2025-07-23 20:32:18","1f75c3e559b7213887762d5229550c2b","209.203.23.138","Mozilla/5.0 (Windows NT 10.0; Win64; x64) AppleWebKit/537.36 (KHTML, like Gecko) Chrome/138.0.0.0 Safari/537.36","WebKit","Chrome","138.0.0.0","Windows","10.0","https://app.prolific.com/","en-GB,en-US;q=0.9,en;q=0.8","67215aa0a8e88c6751efc410","683dba2a8a9dda3513610c04","688146c834769c3b48c91954","3","0","67215aa0a8e88c6751efc410","3","0","2025-07-23T20:36:14.383Z","","","","","","","","","","","","","","win-only","2","g1:SE,g2:NW","1","1","0","208656.8","1617.8","6635.2","24894.1","1","4","8","6","2","8","8","8","0","0.06060606060606061","1539.6","3000","1115","[""left"",""up""]","{""num_key_presses"":6,""num_perfect"":6,""num_errors"":0,""num_randdir"":0,""num_randdir_good_moves"":0,""num_whilered"":0,""num_whileblue"":0,""num_blue"":1,""num_good_moves"":6}","[294.22232142857143,301.12857142857143,1.5,294.22232142857143,301.12857142857143,104.3,294.22232142857143,301.12857142857143,213.4,294.22232142857143,301.12857142857143,351.8,294.22232142857143,301.12857142857143,454.1,294.22232142857143,301.12857142857143,554.1,294.22232142857143,301.12857142857143,654.2,294.22232142857143,301.12857142857143,760.7,217.22232142857143,216.12857142857143,861.7,119.22232142857143,110.12857142857143,981.4,119.22232142857143,110.12857142857143,1095.5,119.22232142857143,110.12857142857143,1196.4,62.222321428571426,65.12857142857143,1305.6,59.222321428571426,65.12857142857143,1405.8,59.222321428571426,65.12857142857143,1511.4,59.222321428571426,65.12857142857143,1615.6,59.222321428571426,65.12857142857143,1719,59.222321428571426,65.12857142857143,1819.2,59.222321428571426,65.12857142857143,1920.9,59.222321428571426,65.12857142857143,2035.3,59.222321428571426,65.12857142857143,2139.1,59.222321428571426,65.12857142857143,2242.6,59.222321428571426,65.12857142857143,2348.8,59.222321428571426,65.12857142857143,2451.1,59.222321428571426,65.12857142857143,2560.9,59.222321428571426,65.12857142857143,2661,59.222321428571426,65.12857142857143,2763.1,59.222321428571426,65.12857142857143,2863.5,59.222321428571426,65.12857142857143,2964.7,59.222321428571426,65.12857142857143,3071.2,59.222321428571426,65.12857142857143,3171.2,59.222321428571426,65.12857142857143,3275.2,59.222321428571426,65.12857142857143,3380.2,59.222321428571426,65.12857142857143,3489.3,59.222321428571426,65.12857142857143,3594.9,59.222321428571426,65.12857142857143,3699.1,59.222321428571426,65.12857142857143,3805.7,59.222321428571426,65.12857142857143,3914,59.222321428571426,65.12857142857143,4017.6,59.222321428571426,65.12857142857143,4121.2,59.222321428571426,65.12857142857143,4226.6,59.222321428571426,65.12857142857143,4333.7,59.222321428571426,65.12857142857143,4433.9,59.222321428571426,65.12857142857143,4534.2,59.222321428571426,65.12857142857143,4639.4,59.222321428571426,65.12857142857143,4739.4,59.222321428571426,65.12857142857143,4839.4,59.222321428571426,65.12857142857143,4947.2]","[1448.9,1448.9,1000,0,448.9,""smooth"",""left"",""left"",""good_move"",3845.9,2395,2034.4,1451.2,360.4,""smooth"",""left"",""left"",""good_move"",5854.8,2004.5,1590.7,3850.3,413.8,""smooth"",""left"",""left"",""good_move"",9313.8,3452.9,2922.4,5861.1,530.3,""smooth"",""up"",""up"",""good_move"",15553.8,6237.9,2584.9,12529.8,439.1,""smooth"",""up"",""up"",""good_move"",18137.3,2582.3,2105.8,15555.1,476.4,""smooth"",""up"",""up"",""good_move""]","",""
"5253","","<div style=""width:500px;"">
  <p>What determined the result of this run?</p>
  </div>","100","html-slider-response","10","239009","0.0-5.0-1.0","235","1","2025-07-23 20:32:18","1f75c3e559b7213887762d5229550c2b","209.203.23.138","Mozilla/5.0 (Windows NT 10.0; Win64; x64) AppleWebKit/537.36 (KHTML, like Gecko) Chrome/138.0.0.0 Safari/537.36","WebKit","Chrome","138.0.0.0","Windows","10.0","https://app.prolific.com/","en-GB,en-US;q=0.9,en;q=0.8","67215aa0a8e88c6751efc410","683dba2a8a9dda3513610c04","688146c834769c3b48c91954","3","0","67215aa0a8e88c6751efc410","3","0","2025-07-23T20:36:19.639Z","","","","","","","","","","","AttribQ","","50","","","","","","","","","","","","","","","","","","","","","","","","","","","","",""
"4707","","<div style=""width:500px;"">
  <p>How much control did you have over the ball?</p>
  </div>","99","html-slider-response","11","243721","0.0-5.0-2.0","235","1","2025-07-23 20:32:18","1f75c3e559b7213887762d5229550c2b","209.203.23.138","Mozilla/5.0 (Windows NT 10.0; Win64; x64) AppleWebKit/537.36 (KHTML, like Gecko) Chrome/138.0.0.0 Safari/537.36","WebKit","Chrome","138.0.0.0","Windows","10.0","https://app.prolific.com/","en-GB,en-US;q=0.9,en;q=0.8","67215aa0a8e88c6751efc410","683dba2a8a9dda3513610c04","688146c834769c3b48c91954","3","0","67215aa0a8e88c6751efc410","3","0","2025-07-23T20:36:24.352Z","","","","","","","","","","","ControlQ","","50","","","","","","","","","","","","","","","","","","","","","","","","","","","","",""
"5980","","<div style=""width:500px;"">
  <p>How would you describe your current emotional state?</p>
  </div>","32","html-slider-response","12","249704","0.0-5.0-3.0","235","1","2025-07-23 20:32:18","1f75c3e559b7213887762d5229550c2b","209.203.23.138","Mozilla/5.0 (Windows NT 10.0; Win64; x64) AppleWebKit/537.36 (KHTML, like Gecko) Chrome/138.0.0.0 Safari/537.36","WebKit","Chrome","138.0.0.0","Windows","10.0","https://app.prolific.com/","en-GB,en-US;q=0.9,en;q=0.8","67215aa0a8e88c6751efc410","683dba2a8a9dda3513610c04","688146c834769c3b48c91954","3","0","67215aa0a8e88c6751efc410","3","0","2025-07-23T20:36:30.334Z","","","","","","","","","","","StressQ","","50","","","","","","","","","","","","","","","","","","","","","","","","","","","","",""
"6701","","<div style=""width:500px;"">
  <p>What best describes how you currently feel?</p>
  </div>","40","html-slider-response","13","256412","0.0-5.0-4.0","235","1","2025-07-23 20:32:18","1f75c3e559b7213887762d5229550c2b","209.203.23.138","Mozilla/5.0 (Windows NT 10.0; Win64; x64) AppleWebKit/537.36 (KHTML, like Gecko) Chrome/138.0.0.0 Safari/537.36","WebKit","Chrome","138.0.0.0","Windows","10.0","https://app.prolific.com/","en-GB,en-US;q=0.9,en;q=0.8","67215aa0a8e88c6751efc410","683dba2a8a9dda3513610c04","688146c834769c3b48c91954","3","0","67215aa0a8e88c6751efc410","3","0","2025-07-23T20:36:37.042Z","","","","","","","","","","","MotivationQ","","50","","","","","","","","","","","","","","","","","","","","","","","","","","","","",""
"","","","","ctl-task-cpt","14","302504","0.0-5.0-0.1","235","1","2025-07-23 20:32:18","1f75c3e559b7213887762d5229550c2b","209.203.23.138","Mozilla/5.0 (Windows NT 10.0; Win64; x64) AppleWebKit/537.36 (KHTML, like Gecko) Chrome/138.0.0.0 Safari/537.36","WebKit","Chrome","138.0.0.0","Windows","10.0","https://app.prolific.com/","en-GB,en-US;q=0.9,en;q=0.8","67215aa0a8e88c6751efc410","683dba2a8a9dda3513610c04","688146c834769c3b48c91954","3","0","67215aa0a8e88c6751efc410","3","0","2025-07-23T20:37:23.135Z","","","","","","","","","","","","","","win-only","3","g1:SW,g2:NE","0.9","2","0","259219.5","1475.2","6487.8","43068.6","1","4","4","6","2","4","4","12","8","0.09090909090909091","1383.7","3000","815","[""up"",""right""]","{""num_key_presses"":8,""num_perfect"":7,""num_errors"":0,""num_randdir"":1,""num_randdir_good_moves"":0,""num_whilered"":0,""num_whileblue"":0,""num_blue"":4,""num_good_moves"":7}","[301.22232142857143,294.12857142857143,0.1,301.22232142857143,294.12857142857143,104.3,301.22232142857143,294.12857142857143,208.1,301.22232142857143,294.12857142857143,314.7,301.22232142857143,294.12857142857143,416.3,301.22232142857143,294.12857142857143,524.9,301.22232142857143,294.12857142857143,629.4,301.22232142857143,294.12857142857143,730.4,397.22232142857143,157.12857142857143,834,485.22232142857143,59.128571428571426,936.1,497.22232142857143,48.128571428571426,1037.7,518.2223214285714,37.128571428571426,1138,519.2223214285714,37.128571428571426,1247.5,519.2223214285714,37.128571428571426,1357.5,519.2223214285714,37.128571428571426,1465,519.2223214285714,37.128571428571426,1565.7,519.2223214285714,37.128571428571426,1666.4,519.2223214285714,37.128571428571426,1772,519.2223214285714,37.128571428571426,1872.6,519.2223214285714,37.128571428571426,1974.9,519.2223214285714,37.128571428571426,2075.5,519.2223214285714,37.128571428571426,2178.4,519.2223214285714,37.128571428571426,2280.8,519.2223214285714,37.128571428571426,2386.9,519.2223214285714,37.128571428571426,2499.2,519.2223214285714,37.128571428571426,2604.9,519.2223214285714,37.128571428571426,2706.5,519.2223214285714,37.128571428571426,2811.4,519.2223214285714,37.128571428571426,2913.2,519.2223214285714,37.128571428571426,3015.5,519.2223214285714,37.128571428571426,3123.8,519.2223214285714,37.128571428571426,3225,519.2223214285714,37.128571428571426,3327,519.2223214285714,37.128571428571426,3442.4,519.2223214285714,37.128571428571426,3544.7,519.2223214285714,37.128571428571426,3653.4,519.2223214285714,37.128571428571426,3753.8,519.2223214285714,37.128571428571426,3854.5,519.2223214285714,37.128571428571426,3957.6,519.2223214285714,37.128571428571426,4066.6,519.2223214285714,37.128571428571426,4173.3,519.2223214285714,37.128571428571426,4276.3,519.2223214285714,37.128571428571426,4377.9,519.2223214285714,37.128571428571426,4481.6,519.2223214285714,37.128571428571426,4586.6,519.2223214285714,37.128571428571426,4686.6,519.2223214285714,37.128571428571426,4793.4,519.2223214285714,37.128571428571426,4898.9]","[4684.4,4684.3,2271.3,2004.2,408.9,""smooth"",""up"",""up"",""good_move"",7533,2847.1,2455.1,4686,392,""smooth"",""up"",""up"",""good_move"",11242.2,3707.2,3367.9,7535,339.3,""smooth"",""up"",""up"",""good_move"",17941.7,6697.7,2309.7,15179.9,452.1,""oops"",""right"",""left"",""bad_move"",21015.1,3071.9,2571.1,17943.2,500.8,""smooth"",""right"",""right"",""good_move"",23331.5,2304.4,1894.7,21027.1,409.7,""smooth"",""right"",""right"",""good_move"",33206.2,9872.9,2410.4,30412.8,383,""smooth"",""right"",""right"",""good_move"",36432.4,3225.1,2895.1,33207.3,330,""smooth"",""right"",""right"",""good_move""]","",""
"5377","","<div style=""width:500px;"">
  <p>What determined the result of this run?</p>
  </div>","100","html-slider-response","15","307886","0.0-5.0-1.1","235","1","2025-07-23 20:32:18","1f75c3e559b7213887762d5229550c2b","209.203.23.138","Mozilla/5.0 (Windows NT 10.0; Win64; x64) AppleWebKit/537.36 (KHTML, like Gecko) Chrome/138.0.0.0 Safari/537.36","WebKit","Chrome","138.0.0.0","Windows","10.0","https://app.prolific.com/","en-GB,en-US;q=0.9,en;q=0.8","67215aa0a8e88c6751efc410","683dba2a8a9dda3513610c04","688146c834769c3b48c91954","3","0","67215aa0a8e88c6751efc410","3","0","2025-07-23T20:37:28.517Z","","","","","","","","","","","AttribQ","","50","","","","","","","","","","","","","","","","","","","","","","","","","","","","",""
"4160","","<div style=""width:500px;"">
  <p>How much control did you have over the ball?</p>
  </div>","97","html-slider-response","16","312050","0.0-5.0-2.1","235","1","2025-07-23 20:32:18","1f75c3e559b7213887762d5229550c2b","209.203.23.138","Mozilla/5.0 (Windows NT 10.0; Win64; x64) AppleWebKit/537.36 (KHTML, like Gecko) Chrome/138.0.0.0 Safari/537.36","WebKit","Chrome","138.0.0.0","Windows","10.0","https://app.prolific.com/","en-GB,en-US;q=0.9,en;q=0.8","67215aa0a8e88c6751efc410","683dba2a8a9dda3513610c04","688146c834769c3b48c91954","3","0","67215aa0a8e88c6751efc410","3","0","2025-07-23T20:37:32.680Z","","","","","","","","","","","ControlQ","","50","","","","","","","","","","","","","","","","","","","","","","","","","","","","",""
"4144","","<div style=""width:500px;"">
  <p>How would you describe your current emotional state?</p>
  </div>","32","html-slider-response","17","316197","0.0-5.0-3.1","235","1","2025-07-23 20:32:18","1f75c3e559b7213887762d5229550c2b","209.203.23.138","Mozilla/5.0 (Windows NT 10.0; Win64; x64) AppleWebKit/537.36 (KHTML, like Gecko) Chrome/138.0.0.0 Safari/537.36","WebKit","Chrome","138.0.0.0","Windows","10.0","https://app.prolific.com/","en-GB,en-US;q=0.9,en;q=0.8","67215aa0a8e88c6751efc410","683dba2a8a9dda3513610c04","688146c834769c3b48c91954","3","0","67215aa0a8e88c6751efc410","3","0","2025-07-23T20:37:36.827Z","","","","","","","","","","","StressQ","","50","","","","","","","","","","","","","","","","","","","","","","","","","","","","",""
"4847","","<div style=""width:500px;"">
  <p>What best describes how you currently feel?</p>
  </div>","34","html-slider-response","18","321046","0.0-5.0-4.1","235","1","2025-07-23 20:32:18","1f75c3e559b7213887762d5229550c2b","209.203.23.138","Mozilla/5.0 (Windows NT 10.0; Win64; x64) AppleWebKit/537.36 (KHTML, like Gecko) Chrome/138.0.0.0 Safari/537.36","WebKit","Chrome","138.0.0.0","Windows","10.0","https://app.prolific.com/","en-GB,en-US;q=0.9,en;q=0.8","67215aa0a8e88c6751efc410","683dba2a8a9dda3513610c04","688146c834769c3b48c91954","3","0","67215aa0a8e88c6751efc410","3","0","2025-07-23T20:37:41.676Z","","","","","","","","","","","MotivationQ","","50","","","","","","","","","","","","","","","","","","","","","","","","","","","","",""
"","","","","ctl-task-cpt","19","358016","0.0-5.0-0.2","235","1","2025-07-23 20:32:18","1f75c3e559b7213887762d5229550c2b","209.203.23.138","Mozilla/5.0 (Windows NT 10.0; Win64; x64) AppleWebKit/537.36 (KHTML, like Gecko) Chrome/138.0.0.0 Safari/537.36","WebKit","Chrome","138.0.0.0","Windows","10.0","https://app.prolific.com/","en-GB,en-US;q=0.9,en;q=0.8","67215aa0a8e88c6751efc410","683dba2a8a9dda3513610c04","688146c834769c3b48c91954","3","0","67215aa0a8e88c6751efc410","3","0","2025-07-23T20:38:18.647Z","","","","","","","","","","","","","","win-only","0","g1:NW,g2:SE","0.8","3","0","323856","1130.4","6132.8","33956","1","4","4","6","2","4","4","16","12","0.12121212121212122","1363.1","3000","875","[""down"",""right""]","{""num_key_presses"":8,""num_perfect"":7,""num_errors"":0,""num_randdir"":1,""num_randdir_good_moves"":0,""num_whilered"":0,""num_whileblue"":0,""num_blue"":2,""num_good_moves"":7}","[290.22232142857143,294.12857142857143,2.9,290.22232142857143,294.12857142857143,105.4,290.22232142857143,294.12857142857143,220.3,290.22232142857143,294.12857142857143,321.6,290.22232142857143,294.12857142857143,427.9,290.22232142857143,294.12857142857143,531.6,290.22232142857143,294.12857142857143,632.6,336.22232142857143,331.12857142857143,732.9,538.2223214285714,491.12857142857143,850.3,555.2223214285714,527.1285714285714,954.7,558.2223214285714,534.1285714285714,1055.3,560.2223214285714,540.1285714285714,1162,560.2223214285714,540.1285714285714,1292.4,560.2223214285714,540.1285714285714,1393.5,560.2223214285714,540.1285714285714,1493.9,560.2223214285714,540.1285714285714,1597,560.2223214285714,540.1285714285714,1703.4,560.2223214285714,540.1285714285714,1811.8,560.2223214285714,540.1285714285714,1919.9,560.2223214285714,540.1285714285714,2032.3,560.2223214285714,540.1285714285714,2135.4,560.2223214285714,540.1285714285714,2236.4,560.2223214285714,540.1285714285714,2337.4,560.2223214285714,540.1285714285714,2442.9,560.2223214285714,540.1285714285714,2548.2,560.2223214285714,540.1285714285714,2649.3,560.2223214285714,540.1285714285714,2753.5,560.2223214285714,540.1285714285714,2855.1,560.2223214285714,540.1285714285714,2965,560.2223214285714,540.1285714285714,3067,560.2223214285714,540.1285714285714,3169.2,560.2223214285714,540.1285714285714,3269.4,560.2223214285714,540.1285714285714,3369.9,560.2223214285714,540.1285714285714,3471.5,560.2223214285714,540.1285714285714,3579.2,560.2223214285714,540.1285714285714,3682.4,560.2223214285714,540.1285714285714,3786,560.2223214285714,540.1285714285714,3887.4,560.2223214285714,540.1285714285714,3987.8,560.2223214285714,540.1285714285714,4099.5,560.2223214285714,540.1285714285714,4203.5,560.2223214285714,540.1285714285714,4305.3,560.2223214285714,540.1285714285714,4409.5,560.2223214285714,540.1285714285714,4516.1,560.2223214285714,540.1285714285714,4624.2,560.2223214285714,540.1285714285714,4732.2,560.2223214285714,540.1285714285714,4834.1,560.2223214285714,540.1285714285714,4935.9]","[1423.4,1423.4,1000,0,423.4,""smooth"",""right"",""right"",""good_move"",4734.3,3307.2,2950.3,1427.1,356.9,""smooth"",""right"",""right"",""good_move"",7617.3,2876.3,2460.1,4741,416.2,""smooth"",""down"",""down"",""good_move"",9912.7,2288.8,1918.1,7623.9,370.7,""oops"",""down"",""up"",""bad_move"",15932.2,6015.8,2317,13280.8,334.4,""smooth"",""down"",""down"",""good_move"",18933.3,2999.7,2634.7,15933.6,365,""smooth"",""down"",""down"",""good_move"",25146.5,6207.5,2257.7,22572,316.9,""smooth"",""right"",""right"",""good_move"",27682.7,2535,2011.2,25147.8,523.7,""smooth"",""down"",""down"",""good_move""]","",""
"7795","","<div style=""width:500px;"">
  <p>What determined the result of this run?</p>
  </div>","100","html-slider-response","20","365814","0.0-5.0-1.2","235","1","2025-07-23 20:32:18","1f75c3e559b7213887762d5229550c2b","209.203.23.138","Mozilla/5.0 (Windows NT 10.0; Win64; x64) AppleWebKit/537.36 (KHTML, like Gecko) Chrome/138.0.0.0 Safari/537.36","WebKit","Chrome","138.0.0.0","Windows","10.0","https://app.prolific.com/","en-GB,en-US;q=0.9,en;q=0.8","67215aa0a8e88c6751efc410","683dba2a8a9dda3513610c04","688146c834769c3b48c91954","3","0","67215aa0a8e88c6751efc410","3","0","2025-07-23T20:38:26.445Z","","","","","","","","","","","AttribQ","","50","","","","","","","","","","","","","","","","","","","","","","","","","","","","",""
"3833","","<div style=""width:500px;"">
  <p>How much control did you have over the ball?</p>
  </div>","93","html-slider-response","21","369651","0.0-5.0-2.2","235","1","2025-07-23 20:32:18","1f75c3e559b7213887762d5229550c2b","209.203.23.138","Mozilla/5.0 (Windows NT 10.0; Win64; x64) AppleWebKit/537.36 (KHTML, like Gecko) Chrome/138.0.0.0 Safari/537.36","WebKit","Chrome","138.0.0.0","Windows","10.0","https://app.prolific.com/","en-GB,en-US;q=0.9,en;q=0.8","67215aa0a8e88c6751efc410","683dba2a8a9dda3513610c04","688146c834769c3b48c91954","3","0","67215aa0a8e88c6751efc410","3","0","2025-07-23T20:38:30.281Z","","","","","","","","","","","ControlQ","","50","","","","","","","","","","","","","","","","","","","","","","","","","","","","",""
"3920","","<div style=""width:500px;"">
  <p>How would you describe your current emotional state?</p>
  </div>","30","html-slider-response","22","373573","0.0-5.0-3.2","235","1","2025-07-23 20:32:18","1f75c3e559b7213887762d5229550c2b","209.203.23.138","Mozilla/5.0 (Windows NT 10.0; Win64; x64) AppleWebKit/537.36 (KHTML, like Gecko) Chrome/138.0.0.0 Safari/537.36","WebKit","Chrome","138.0.0.0","Windows","10.0","https://app.prolific.com/","en-GB,en-US;q=0.9,en;q=0.8","67215aa0a8e88c6751efc410","683dba2a8a9dda3513610c04","688146c834769c3b48c91954","3","0","67215aa0a8e88c6751efc410","3","0","2025-07-23T20:38:34.203Z","","","","","","","","","","","StressQ","","50","","","","","","","","","","","","","","","","","","","","","","","","","","","","",""
"5573","","<div style=""width:500px;"">
  <p>What best describes how you currently feel?</p>
  </div>","38","html-slider-response","23","379149","0.0-5.0-4.2","235","1","2025-07-23 20:32:18","1f75c3e559b7213887762d5229550c2b","209.203.23.138","Mozilla/5.0 (Windows NT 10.0; Win64; x64) AppleWebKit/537.36 (KHTML, like Gecko) Chrome/138.0.0.0 Safari/537.36","WebKit","Chrome","138.0.0.0","Windows","10.0","https://app.prolific.com/","en-GB,en-US;q=0.9,en;q=0.8","67215aa0a8e88c6751efc410","683dba2a8a9dda3513610c04","688146c834769c3b48c91954","3","0","67215aa0a8e88c6751efc410","3","0","2025-07-23T20:38:39.779Z","","","","","","","","","","","MotivationQ","","50","","","","","","","","","","","","","","","","","","","","","","","","","","","","",""
"","","","","ctl-task-cpt","24","433225","0.0-5.0-0.3","235","1","2025-07-23 20:32:18","1f75c3e559b7213887762d5229550c2b","209.203.23.138","Mozilla/5.0 (Windows NT 10.0; Win64; x64) AppleWebKit/537.36 (KHTML, like Gecko) Chrome/138.0.0.0 Safari/537.36","WebKit","Chrome","138.0.0.0","Windows","10.0","https://app.prolific.com/","en-GB,en-US;q=0.9,en;q=0.8","67215aa0a8e88c6751efc410","683dba2a8a9dda3513610c04","688146c834769c3b48c91954","3","0","67215aa0a8e88c6751efc410","3","0","2025-07-23T20:39:33.855Z","","","","","","","","","","","","","","win-only","3","g1:SW,g2:NE","0.7","4","0","381958.8","1461.3","6480.6","51049.7","1","4","8","6","2","-8","-8","8","16","0.06060606060606061","1290.7","3000","-1875","[""up"",""right""]","{""num_key_presses"":12,""num_perfect"":8,""num_errors"":0,""num_randdir"":4,""num_randdir_good_moves"":0,""num_whilered"":0,""num_whileblue"":0,""num_blue"":2,""num_good_moves"":8}","[298.22232142857143,300.12857142857143,2,298.22232142857143,300.12857142857143,111.9,298.22232142857143,300.12857142857143,220.2,298.22232142857143,300.12857142857143,326.7,298.22232142857143,300.12857142857143,436.5,345.22232142857143,231.12857142857143,543,510.22232142857143,33.128571428571426,649.1,524.2223214285714,23.128571428571426,757.7,541.2223214285714,14.128571428571426,867,542.2223214285714,16.128571428571426,982.5,529.2223214285714,40.128571428571426,1091.4,529.2223214285714,40.128571428571426,1197.7,529.2223214285714,40.128571428571426,1310.7,529.2223214285714,40.128571428571426,1410.9,529.2223214285714,40.128571428571426,1511.4,529.2223214285714,40.128571428571426,1612.1,529.2223214285714,40.128571428571426,1712.6,529.2223214285714,40.128571428571426,1816.9,529.2223214285714,40.128571428571426,1923.2,529.2223214285714,40.128571428571426,2029.1,529.2223214285714,40.128571428571426,2130.1,529.2223214285714,40.128571428571426,2234.5,529.2223214285714,40.128571428571426,2337.1,529.2223214285714,40.128571428571426,2438,529.2223214285714,40.128571428571426,2543.3,529.2223214285714,40.128571428571426,2653.9,529.2223214285714,40.128571428571426,2762.2,529.2223214285714,40.128571428571426,2869.7,529.2223214285714,40.128571428571426,2979.2,529.2223214285714,40.128571428571426,3086.2,529.2223214285714,40.128571428571426,3186.2,529.2223214285714,40.128571428571426,3288,529.2223214285714,40.128571428571426,3389.6,529.2223214285714,40.128571428571426,3496,529.2223214285714,40.128571428571426,3607.3,529.2223214285714,40.128571428571426,3712.7,529.2223214285714,40.128571428571426,3812.7,529.2223214285714,40.128571428571426,3918.3,529.2223214285714,40.128571428571426,4021.2,529.2223214285714,40.128571428571426,4123.1,529.2223214285714,40.128571428571426,4232.8,529.2223214285714,40.128571428571426,4342,529.2223214285714,40.128571428571426,4450.9,529.2223214285714,40.128571428571426,4566.5,529.2223214285714,40.128571428571426,4668,529.2223214285714,40.128571428571426,4775.5,529.2223214285714,40.128571428571426,4880,529.2223214285714,40.128571428571426,4984.4]","[1397,1396.9,1000,0.1,396.9,""smooth"",""up"",""up"",""good_move"",4230.7,2831.7,2486.9,1399,344.8,""smooth"",""up"",""up"",""good_move"",7470.2,3234.4,2851,4235.8,383.5,""oops"",""up"",""down"",""bad_move"",10877.5,3401.8,3042.6,7475.7,359.2,""smooth"",""up"",""up"",""good_move"",17356.6,6475.3,2069,14858.2,429.4,""smooth"",""up"",""up"",""good_move"",24027.2,6668.4,2542.5,21102.4,382.3,""oops"",""right"",""down"",""bad_move"",27491.9,3463.6,3010.2,24028.3,453.5,""oops"",""right"",""down"",""bad_move"",29767.7,2273.8,1784.7,27494,489.1,""smooth"",""right"",""right"",""good_move"",32773,3000.8,2624.4,29772.2,376.4,""smooth"",""right"",""right"",""good_move"",36317.8,3542.1,3164.7,32775.7,377.4,""smooth"",""right"",""right"",""good_move"",38876.9,2556.9,2222,36320,334.9,""smooth"",""up"",""up"",""good_move"",41411.2,2532.6,2283.3,38878.7,249.2,""oops"",""up"",""left"",""bad_move""]","",""
"3744","","<div style=""width:500px;"">
  <p>What determined the result of this run?</p>
  </div>","87","html-slider-response","25","436973","0.0-5.0-1.3","235","1","2025-07-23 20:32:18","1f75c3e559b7213887762d5229550c2b","209.203.23.138","Mozilla/5.0 (Windows NT 10.0; Win64; x64) AppleWebKit/537.36 (KHTML, like Gecko) Chrome/138.0.0.0 Safari/537.36","WebKit","Chrome","138.0.0.0","Windows","10.0","https://app.prolific.com/","en-GB,en-US;q=0.9,en;q=0.8","67215aa0a8e88c6751efc410","683dba2a8a9dda3513610c04","688146c834769c3b48c91954","3","0","67215aa0a8e88c6751efc410","3","0","2025-07-23T20:39:37.603Z","","","","","","","","","","","AttribQ","","50","","","","","","","","","","","","","","","","","","","","","","","","","","","","",""
"7271","","<div style=""width:500px;"">
  <p>How much control did you have over the ball?</p>
  </div>","59","html-slider-response","26","444246","0.0-5.0-2.3","235","1","2025-07-23 20:32:18","1f75c3e559b7213887762d5229550c2b","209.203.23.138","Mozilla/5.0 (Windows NT 10.0; Win64; x64) AppleWebKit/537.36 (KHTML, like Gecko) Chrome/138.0.0.0 Safari/537.36","WebKit","Chrome","138.0.0.0","Windows","10.0","https://app.prolific.com/","en-GB,en-US;q=0.9,en;q=0.8","67215aa0a8e88c6751efc410","683dba2a8a9dda3513610c04","688146c834769c3b48c91954","3","0","67215aa0a8e88c6751efc410","3","0","2025-07-23T20:39:44.876Z","","","","","","","","","","","ControlQ","","50","","","","","","","","","","","","","","","","","","","","","","","","","","","","",""
"6831","","<div style=""width:500px;"">
  <p>How would you describe your current emotional state?</p>
  </div>","42","html-slider-response","27","451080","0.0-5.0-3.3","235","1","2025-07-23 20:32:18","1f75c3e559b7213887762d5229550c2b","209.203.23.138","Mozilla/5.0 (Windows NT 10.0; Win64; x64) AppleWebKit/537.36 (KHTML, like Gecko) Chrome/138.0.0.0 Safari/537.36","WebKit","Chrome","138.0.0.0","Windows","10.0","https://app.prolific.com/","en-GB,en-US;q=0.9,en;q=0.8","67215aa0a8e88c6751efc410","683dba2a8a9dda3513610c04","688146c834769c3b48c91954","3","0","67215aa0a8e88c6751efc410","3","0","2025-07-23T20:39:51.710Z","","","","","","","","","","","StressQ","","50","","","","","","","","","","","","","","","","","","","","","","","","","","","","",""
"4186","","<div style=""width:500px;"">
  <p>What best describes how you currently feel?</p>
  </div>","41","html-slider-response","28","455272","0.0-5.0-4.3","235","1","2025-07-23 20:32:18","1f75c3e559b7213887762d5229550c2b","209.203.23.138","Mozilla/5.0 (Windows NT 10.0; Win64; x64) AppleWebKit/537.36 (KHTML, like Gecko) Chrome/138.0.0.0 Safari/537.36","WebKit","Chrome","138.0.0.0","Windows","10.0","https://app.prolific.com/","en-GB,en-US;q=0.9,en;q=0.8","67215aa0a8e88c6751efc410","683dba2a8a9dda3513610c04","688146c834769c3b48c91954","3","0","67215aa0a8e88c6751efc410","3","0","2025-07-23T20:39:55.903Z","","","","","","","","","","","MotivationQ","","50","","","","","","","","","","","","","","","","","","","","","","","","","","","","",""
"","","","","ctl-task-cpt","29","490883","0.0-5.0-0.4","235","1","2025-07-23 20:32:18","1f75c3e559b7213887762d5229550c2b","209.203.23.138","Mozilla/5.0 (Windows NT 10.0; Win64; x64) AppleWebKit/537.36 (KHTML, like Gecko) Chrome/138.0.0.0 Safari/537.36","WebKit","Chrome","138.0.0.0","Windows","10.0","https://app.prolific.com/","en-GB,en-US;q=0.9,en;q=0.8","67215aa0a8e88c6751efc410","683dba2a8a9dda3513610c04","688146c834769c3b48c91954","3","0","67215aa0a8e88c6751efc410","3","0","2025-07-23T20:40:31.513Z","","","","","","","","","","","","","","win-only","0","g1:NW,g2:SE","0.6","5","0","458084.8","2339.4","7356","32579.8","1","4","8","6","2","8","8","16","8","0.12121212121212122","1231.9","3000","1460","[""down"",""right""]","{""num_key_presses"":8,""num_perfect"":5,""num_errors"":0,""num_randdir"":3,""num_randdir_good_moves"":2,""num_whilered"":0,""num_whileblue"":0,""num_blue"":1,""num_good_moves"":7}","[293.22232142857143,296.12857142857143,1.2,293.22232142857143,296.12857142857143,109.9,293.22232142857143,296.12857142857143,215.5,293.22232142857143,296.12857142857143,315.8,293.22232142857143,296.12857142857143,425.2,293.22232142857143,296.12857142857143,533.9,307.22232142857143,303.12857142857143,640.2,489.22232142857143,444.12857142857143,740.5,552.2223214285714,512.1285714285714,852.2,555.2223214285714,539.1285714285714,962.9,554.2223214285714,541.1285714285714,1064.6,554.2223214285714,541.1285714285714,1183,554.2223214285714,541.1285714285714,1290.8,554.2223214285714,541.1285714285714,1391.2,554.2223214285714,541.1285714285714,1494.9,554.2223214285714,541.1285714285714,1605.6,554.2223214285714,541.1285714285714,1706.9,554.2223214285714,541.1285714285714,1811.2,554.2223214285714,541.1285714285714,1920.9,554.2223214285714,541.1285714285714,2035.2,554.2223214285714,541.1285714285714,2137.6,554.2223214285714,541.1285714285714,2251,554.2223214285714,541.1285714285714,2352.4,554.2223214285714,541.1285714285714,2464.7,554.2223214285714,541.1285714285714,2572.9,554.2223214285714,541.1285714285714,2676.5,554.2223214285714,541.1285714285714,2780.3,554.2223214285714,541.1285714285714,2884.9,554.2223214285714,541.1285714285714,2992.2,554.2223214285714,541.1285714285714,3100.2,554.2223214285714,541.1285714285714,3211.4,554.2223214285714,541.1285714285714,3313.6,554.2223214285714,541.1285714285714,3415.2,554.2223214285714,541.1285714285714,3521.5,554.2223214285714,541.1285714285714,3636.2,554.2223214285714,541.1285714285714,3746.5,554.2223214285714,541.1285714285714,3846.6,554.2223214285714,541.1285714285714,3959.4,554.2223214285714,541.1285714285714,4065.8,554.2223214285714,541.1285714285714,4176.4,554.2223214285714,541.1285714285714,4281.9,554.2223214285714,541.1285714285714,4390.6,554.2223214285714,541.1285714285714,4502.8,554.2223214285714,541.1285714285714,4613.4,554.2223214285714,541.1285714285714,4721.6,554.2223214285714,541.1285714285714,4836.2,554.2223214285714,541.1285714285714,4936.5]","[1430.6,1430.6,1000,0,430.6,""smooth"",""right"",""right"",""good_move"",4068.4,2635.2,2233.2,1433.2,402,""oops"",""right"",""up"",""bad_move"",7249.3,3176.4,2794.7,4072.9,381.7,""oops"",""right"",""right"",""good_move"",9408.6,2155.8,1487.4,7252.8,668.4,""oops"",""right"",""down"",""good_move"",12047.1,2632.2,2212.7,9414.9,419.5,""smooth"",""right"",""right"",""good_move"",18981.8,6931.9,3281.5,15315.2,385.1,""smooth"",""down"",""down"",""good_move"",21757,2774,2429.4,18983.2,344.4,""smooth"",""down"",""down"",""good_move"",25042,3277.1,2885,21765,392.1,""smooth"",""down"",""down"",""good_move""]","",""
"5426","","<div style=""width:500px;"">
  <p>What determined the result of this run?</p>
  </div>","93","html-slider-response","30","496317","0.0-5.0-1.4","235","1","2025-07-23 20:32:18","1f75c3e559b7213887762d5229550c2b","209.203.23.138","Mozilla/5.0 (Windows NT 10.0; Win64; x64) AppleWebKit/537.36 (KHTML, like Gecko) Chrome/138.0.0.0 Safari/537.36","WebKit","Chrome","138.0.0.0","Windows","10.0","https://app.prolific.com/","en-GB,en-US;q=0.9,en;q=0.8","67215aa0a8e88c6751efc410","683dba2a8a9dda3513610c04","688146c834769c3b48c91954","3","0","67215aa0a8e88c6751efc410","3","0","2025-07-23T20:40:36.948Z","","","","","","","","","","","AttribQ","","50","","","","","","","","","","","","","","","","","","","","","","","","","","","","",""
"4032","","<div style=""width:500px;"">
  <p>How much control did you have over the ball?</p>
  </div>","73","html-slider-response","31","500355","0.0-5.0-2.4","235","1","2025-07-23 20:32:18","1f75c3e559b7213887762d5229550c2b","209.203.23.138","Mozilla/5.0 (Windows NT 10.0; Win64; x64) AppleWebKit/537.36 (KHTML, like Gecko) Chrome/138.0.0.0 Safari/537.36","WebKit","Chrome","138.0.0.0","Windows","10.0","https://app.prolific.com/","en-GB,en-US;q=0.9,en;q=0.8","67215aa0a8e88c6751efc410","683dba2a8a9dda3513610c04","688146c834769c3b48c91954","3","0","67215aa0a8e88c6751efc410","3","0","2025-07-23T20:40:40.985Z","","","","","","","","","","","ControlQ","","50","","","","","","","","","","","","","","","","","","","","","","","","","","","","",""
"17335","","<div style=""width:500px;"">
  <p>How would you describe your current emotional state?</p>
  </div>","40","html-slider-response","32","517694","0.0-5.0-3.4","235","1","2025-07-23 20:32:18","1f75c3e559b7213887762d5229550c2b","209.203.23.138","Mozilla/5.0 (Windows NT 10.0; Win64; x64) AppleWebKit/537.36 (KHTML, like Gecko) Chrome/138.0.0.0 Safari/537.36","WebKit","Chrome","138.0.0.0","Windows","10.0","https://app.prolific.com/","en-GB,en-US;q=0.9,en;q=0.8","67215aa0a8e88c6751efc410","683dba2a8a9dda3513610c04","688146c834769c3b48c91954","3","0","67215aa0a8e88c6751efc410","3","0","2025-07-23T20:40:58.325Z","","","","","","","","","","","StressQ","","50","","","","","","","","","","","","","","","","","","","","","","","","","","","","",""
"4448","","<div style=""width:500px;"">
  <p>What best describes how you currently feel?</p>
  </div>","39","html-slider-response","33","522147","0.0-5.0-4.4","235","1","2025-07-23 20:32:18","1f75c3e559b7213887762d5229550c2b","209.203.23.138","Mozilla/5.0 (Windows NT 10.0; Win64; x64) AppleWebKit/537.36 (KHTML, like Gecko) Chrome/138.0.0.0 Safari/537.36","WebKit","Chrome","138.0.0.0","Windows","10.0","https://app.prolific.com/","en-GB,en-US;q=0.9,en;q=0.8","67215aa0a8e88c6751efc410","683dba2a8a9dda3513610c04","688146c834769c3b48c91954","3","0","67215aa0a8e88c6751efc410","3","0","2025-07-23T20:41:02.777Z","","","","","","","","","","","MotivationQ","","50","","","","","","","","","","","","","","","","","","","","","","","","","","","","",""
"","","","","ctl-task-cpt","34","602061","0.0-5.0-0.5","235","1","2025-07-23 20:32:18","1f75c3e559b7213887762d5229550c2b","209.203.23.138","Mozilla/5.0 (Windows NT 10.0; Win64; x64) AppleWebKit/537.36 (KHTML, like Gecko) Chrome/138.0.0.0 Safari/537.36","WebKit","Chrome","138.0.0.0","Windows","10.0","https://app.prolific.com/","en-GB,en-US;q=0.9,en;q=0.8","67215aa0a8e88c6751efc410","683dba2a8a9dda3513610c04","688146c834769c3b48c91954","3","0","67215aa0a8e88c6751efc410","3","0","2025-07-23T20:42:22.691Z","","","","","","","","","","","","","","win-only","0","g1:NW,g2:SE","0.5","6","0","524955.7","1264.7","6266.6","76883","1","4","4","6","2","4","4","20","16","0.15151515151515152","1528.4","3000","195","[""down"",""right""]","{""num_key_presses"":16,""num_perfect"":9,""num_errors"":0,""num_randdir"":7,""num_randdir_good_moves"":2,""num_whilered"":0,""num_whileblue"":0,""num_blue"":7,""num_good_moves"":11}","[295.22232142857143,294.12857142857143,7.1,295.22232142857143,294.12857142857143,105.4,295.22232142857143,294.12857142857143,208.4,295.22232142857143,294.12857142857143,331.6,295.22232142857143,294.12857142857143,436.6,295.22232142857143,294.12857142857143,546,295.22232142857143,294.12857142857143,650.1,460.22232142857143,415.12857142857143,759.9,480.22232142857143,453.12857142857143,867.8,501.22232142857143,480.12857142857143,968.3,509.22232142857143,501.12857142857143,1081,509.22232142857143,502.12857142857143,1181.7,509.22232142857143,502.12857142857143,1282.6,509.22232142857143,502.12857142857143,1397.8,509.22232142857143,502.12857142857143,1511.3,509.22232142857143,502.12857142857143,1618.3,509.22232142857143,502.12857142857143,1732,509.22232142857143,502.12857142857143,1839.4,509.22232142857143,502.12857142857143,1952.3,509.22232142857143,502.12857142857143,2067,509.22232142857143,502.12857142857143,2180.5,509.22232142857143,502.12857142857143,2282.5,509.22232142857143,502.12857142857143,2385.8,509.22232142857143,502.12857142857143,2498.1,509.22232142857143,502.12857142857143,2606.2,509.22232142857143,502.12857142857143,2709.7,509.22232142857143,502.12857142857143,2815.5,509.22232142857143,502.12857142857143,2923,509.22232142857143,502.12857142857143,3032.3,509.22232142857143,502.12857142857143,3150.1,509.22232142857143,502.12857142857143,3256.9,509.22232142857143,502.12857142857143,3367,509.22232142857143,502.12857142857143,3473.6,509.22232142857143,502.12857142857143,3579.2,509.22232142857143,502.12857142857143,3688.9,509.22232142857143,502.12857142857143,3790.9,509.22232142857143,502.12857142857143,3896.4,509.22232142857143,502.12857142857143,3997.9,509.22232142857143,502.12857142857143,4104.3,509.22232142857143,502.12857142857143,4210.2,509.22232142857143,502.12857142857143,4318.7,509.22232142857143,502.12857142857143,4420.3,509.22232142857143,502.12857142857143,4530.9,509.22232142857143,502.12857142857143,4634.3,509.22232142857143,502.12857142857143,4743.8,509.22232142857143,502.12857142857143,4850,509.22232142857143,502.12857142857143,4955.8]","[1356.7,1356.7,1000,0,356.7,""oops"",""down"",""up"",""bad_move"",4374.3,3008.4,2622,1365.9,386.4,""oops"",""down"",""left"",""bad_move"",7329,2944.6,2539.1,4384.5,405.5,""smooth"",""down"",""down"",""good_move"",10067,2734.9,2352.9,7332.1,382,""smooth"",""down"",""down"",""good_move"",13022.6,2949.4,2566,10073.2,383.4,""smooth"",""down"",""down"",""good_move"",15473.3,2444.3,2091.1,13029.2,353,""smooth"",""down"",""down"",""good_move"",22531.4,7054.3,3152.1,18844.1,535.2,""oops"",""right"",""left"",""bad_move"",25316.9,2784.3,1877.1,22532.8,907.1,""oops"",""right"",""up"",""bad_move"",31996.4,6677.3,2503,29079.2,414.2,""oops"",""right"",""down"",""good_move"",39133,7136,3062.1,35684.2,386.7,""smooth"",""right"",""right"",""good_move"",42142.7,2997.3,2616.6,39145.4,380.7,""smooth"",""right"",""right"",""good_move"",44798.4,2653.8,2307.2,42144.6,346.6,""smooth"",""right"",""right"",""good_move"",50877.2,6076.3,2190,48303,384.2,""oops"",""right"",""up"",""bad_move"",57469.7,6591.2,2770.4,54255.3,444.1,""smooth"",""right"",""right"",""good_move"",60318.7,2847.5,2475.9,57471.3,371.5,""oops"",""right"",""down"",""good_move"",70407.4,10086.6,2532.2,67478.6,396.7,""smooth"",""right"",""right"",""good_move""]","",""
"3289","","<div style=""width:500px;"">
  <p>What determined the result of this run?</p>
  </div>","85","html-slider-response","35","605353","0.0-5.0-1.5","235","1","2025-07-23 20:32:18","1f75c3e559b7213887762d5229550c2b","209.203.23.138","Mozilla/5.0 (Windows NT 10.0; Win64; x64) AppleWebKit/537.36 (KHTML, like Gecko) Chrome/138.0.0.0 Safari/537.36","WebKit","Chrome","138.0.0.0","Windows","10.0","https://app.prolific.com/","en-GB,en-US;q=0.9,en;q=0.8","67215aa0a8e88c6751efc410","683dba2a8a9dda3513610c04","688146c834769c3b48c91954","3","0","67215aa0a8e88c6751efc410","3","0","2025-07-23T20:42:25.983Z","","","","","","","","","","","AttribQ","","50","","","","","","","","","","","","","","","","","","","","","","","","","","","","",""
"3572","","<div style=""width:500px;"">
  <p>How much control did you have over the ball?</p>
  </div>","66","html-slider-response","36","608930","0.0-5.0-2.5","235","1","2025-07-23 20:32:18","1f75c3e559b7213887762d5229550c2b","209.203.23.138","Mozilla/5.0 (Windows NT 10.0; Win64; x64) AppleWebKit/537.36 (KHTML, like Gecko) Chrome/138.0.0.0 Safari/537.36","WebKit","Chrome","138.0.0.0","Windows","10.0","https://app.prolific.com/","en-GB,en-US;q=0.9,en;q=0.8","67215aa0a8e88c6751efc410","683dba2a8a9dda3513610c04","688146c834769c3b48c91954","3","0","67215aa0a8e88c6751efc410","3","0","2025-07-23T20:42:29.560Z","","","","","","","","","","","ControlQ","","50","","","","","","","","","","","","","","","","","","","","","","","","","","","","",""
"3115","","<div style=""width:500px;"">
  <p>How would you describe your current emotional state?</p>
  </div>","42","html-slider-response","37","612048","0.0-5.0-3.5","235","1","2025-07-23 20:32:18","1f75c3e559b7213887762d5229550c2b","209.203.23.138","Mozilla/5.0 (Windows NT 10.0; Win64; x64) AppleWebKit/537.36 (KHTML, like Gecko) Chrome/138.0.0.0 Safari/537.36","WebKit","Chrome","138.0.0.0","Windows","10.0","https://app.prolific.com/","en-GB,en-US;q=0.9,en;q=0.8","67215aa0a8e88c6751efc410","683dba2a8a9dda3513610c04","688146c834769c3b48c91954","3","0","67215aa0a8e88c6751efc410","3","0","2025-07-23T20:42:32.678Z","","","","","","","","","","","StressQ","","50","","","","","","","","","","","","","","","","","","","","","","","","","","","","",""
"3013","","<div style=""width:500px;"">
  <p>What best describes how you currently feel?</p>
  </div>","42","html-slider-response","38","615064","0.0-5.0-4.5","235","1","2025-07-23 20:32:18","1f75c3e559b7213887762d5229550c2b","209.203.23.138","Mozilla/5.0 (Windows NT 10.0; Win64; x64) AppleWebKit/537.36 (KHTML, like Gecko) Chrome/138.0.0.0 Safari/537.36","WebKit","Chrome","138.0.0.0","Windows","10.0","https://app.prolific.com/","en-GB,en-US;q=0.9,en;q=0.8","67215aa0a8e88c6751efc410","683dba2a8a9dda3513610c04","688146c834769c3b48c91954","3","0","67215aa0a8e88c6751efc410","3","0","2025-07-23T20:42:35.694Z","","","","","","","","","","","MotivationQ","","50","","","","","","","","","","","","","","","","","","","","","","","","","","","","",""
"","","","","ctl-task-cpt","39","655260","0.0-5.0-0.6","235","1","2025-07-23 20:32:18","1f75c3e559b7213887762d5229550c2b","209.203.23.138","Mozilla/5.0 (Windows NT 10.0; Win64; x64) AppleWebKit/537.36 (KHTML, like Gecko) Chrome/138.0.0.0 Safari/537.36","WebKit","Chrome","138.0.0.0","Windows","10.0","https://app.prolific.com/","en-GB,en-US;q=0.9,en;q=0.8","67215aa0a8e88c6751efc410","683dba2a8a9dda3513610c04","688146c834769c3b48c91954","3","0","67215aa0a8e88c6751efc410","3","0","2025-07-23T20:43:15.890Z","","","","","","","","","","","","","","win-only","0","g1:NW,g2:SE","0.4","7","0","617872.5","1125.8","6141.7","37171.2","1","4","4","6","2","4","4","24","20","0.18181818181818182","1284.7","3000","1295","[""down"",""right""]","{""num_key_presses"":10,""num_perfect"":4,""num_errors"":0,""num_randdir"":6,""num_randdir_good_moves"":4,""num_whilered"":0,""num_whileblue"":0,""num_blue"":1,""num_good_moves"":8}","[298.22232142857143,303.12857142857143,0.9,298.22232142857143,303.12857142857143,101.5,298.22232142857143,303.12857142857143,205.6,298.22232142857143,303.12857142857143,316.1,298.22232142857143,303.12857142857143,418.9,298.22232142857143,303.12857142857143,528.7,355.22232142857143,340.12857142857143,641.5,480.22232142857143,491.12857142857143,764.4,495.22232142857143,516.1285714285714,873.6,499.22232142857143,520.1285714285714,977.1,537.2223214285714,535.1285714285714,1087.2,539.2223214285714,535.1285714285714,1209.5,539.2223214285714,535.1285714285714,1322.4,539.2223214285714,535.1285714285714,1423.8,539.2223214285714,535.1285714285714,1535.6,539.2223214285714,535.1285714285714,1643.9,539.2223214285714,535.1285714285714,1748.9,539.2223214285714,535.1285714285714,1854.3,539.2223214285714,535.1285714285714,1958.9,539.2223214285714,535.1285714285714,2067.7,539.2223214285714,535.1285714285714,2171.9,539.2223214285714,535.1285714285714,2277,539.2223214285714,535.1285714285714,2388.4,539.2223214285714,535.1285714285714,2492.4,539.2223214285714,535.1285714285714,2604.5,539.2223214285714,535.1285714285714,2708.4,539.2223214285714,535.1285714285714,2816.4,539.2223214285714,535.1285714285714,2924.9,539.2223214285714,535.1285714285714,3033.4,539.2223214285714,535.1285714285714,3145,539.2223214285714,535.1285714285714,3247.5,539.2223214285714,535.1285714285714,3355.8,539.2223214285714,535.1285714285714,3457.2,539.2223214285714,535.1285714285714,3557.3,539.2223214285714,535.1285714285714,3674.1,539.2223214285714,535.1285714285714,3783.7,539.2223214285714,535.1285714285714,3899,539.2223214285714,535.1285714285714,4012.8,539.2223214285714,535.1285714285714,4119.6,539.2223214285714,535.1285714285714,4226.6,539.2223214285714,535.1285714285714,4327,539.2223214285714,535.1285714285714,4431.5,539.2223214285714,535.1285714285714,4536.9,539.2223214285714,535.1285714285714,4651.8,539.2223214285714,535.1285714285714,4755.4,539.2223214285714,535.1285714285714,4855.8,539.2223214285714,535.1285714285714,4956.3]","[1386,1386,1000,0,386,""smooth"",""down"",""down"",""good_move"",4017.9,2630.6,2217.5,1387.3,413.1,""smooth"",""down"",""down"",""good_move"",6527.5,2507.7,2153.3,4019.8,354.4,""oops"",""down"",""right"",""good_move"",9680.6,3149.4,2744.8,6531.2,404.6,""oops"",""down"",""right"",""good_move"",12656.6,2974.2,2482.1,9682.5,492,""oops"",""down"",""up"",""bad_move"",15549.7,2889.4,2517.9,12660.3,371.5,""smooth"",""down"",""down"",""good_move"",18501.7,2950.3,2596.2,15551.4,354.1,""oops"",""down"",""up"",""bad_move"",21758.7,3255.2,2893.1,18503.6,362,""smooth"",""down"",""down"",""good_move"",28265.1,6501.6,3357.2,24538.3,369.6,""oops"",""down"",""down"",""good_move"",30787.4,2521.1,2058.7,28266.3,462.4,""oops"",""right"",""right"",""good_move""]","",""
"3915","","<div style=""width:500px;"">
  <p>What determined the result of this run?</p>
  </div>","81","html-slider-response","40","659178","0.0-5.0-1.6","235","1","2025-07-23 20:32:18","1f75c3e559b7213887762d5229550c2b","209.203.23.138","Mozilla/5.0 (Windows NT 10.0; Win64; x64) AppleWebKit/537.36 (KHTML, like Gecko) Chrome/138.0.0.0 Safari/537.36","WebKit","Chrome","138.0.0.0","Windows","10.0","https://app.prolific.com/","en-GB,en-US;q=0.9,en;q=0.8","67215aa0a8e88c6751efc410","683dba2a8a9dda3513610c04","688146c834769c3b48c91954","3","0","67215aa0a8e88c6751efc410","3","0","2025-07-23T20:43:19.808Z","","","","","","","","","","","AttribQ","","50","","","","","","","","","","","","","","","","","","","","","","","","","","","","",""
"2898","","<div style=""width:500px;"">
  <p>How much control did you have over the ball?</p>
  </div>","67","html-slider-response","41","662079","0.0-5.0-2.6","235","1","2025-07-23 20:32:18","1f75c3e559b7213887762d5229550c2b","209.203.23.138","Mozilla/5.0 (Windows NT 10.0; Win64; x64) AppleWebKit/537.36 (KHTML, like Gecko) Chrome/138.0.0.0 Safari/537.36","WebKit","Chrome","138.0.0.0","Windows","10.0","https://app.prolific.com/","en-GB,en-US;q=0.9,en;q=0.8","67215aa0a8e88c6751efc410","683dba2a8a9dda3513610c04","688146c834769c3b48c91954","3","0","67215aa0a8e88c6751efc410","3","0","2025-07-23T20:43:22.710Z","","","","","","","","","","","ControlQ","","50","","","","","","","","","","","","","","","","","","","","","","","","","","","","",""
"3872","","<div style=""width:500px;"">
  <p>How would you describe your current emotional state?</p>
  </div>","46","html-slider-response","42","665956","0.0-5.0-3.6","235","1","2025-07-23 20:32:18","1f75c3e559b7213887762d5229550c2b","209.203.23.138","Mozilla/5.0 (Windows NT 10.0; Win64; x64) AppleWebKit/537.36 (KHTML, like Gecko) Chrome/138.0.0.0 Safari/537.36","WebKit","Chrome","138.0.0.0","Windows","10.0","https://app.prolific.com/","en-GB,en-US;q=0.9,en;q=0.8","67215aa0a8e88c6751efc410","683dba2a8a9dda3513610c04","688146c834769c3b48c91954","3","0","67215aa0a8e88c6751efc410","3","0","2025-07-23T20:43:26.587Z","","","","","","","","","","","StressQ","","50","","","","","","","","","","","","","","","","","","","","","","","","","","","","",""
"4113","","<div style=""width:500px;"">
  <p>What best describes how you currently feel?</p>
  </div>","45","html-slider-response","43","670072","0.0-5.0-4.6","235","1","2025-07-23 20:32:18","1f75c3e559b7213887762d5229550c2b","209.203.23.138","Mozilla/5.0 (Windows NT 10.0; Win64; x64) AppleWebKit/537.36 (KHTML, like Gecko) Chrome/138.0.0.0 Safari/537.36","WebKit","Chrome","138.0.0.0","Windows","10.0","https://app.prolific.com/","en-GB,en-US;q=0.9,en;q=0.8","67215aa0a8e88c6751efc410","683dba2a8a9dda3513610c04","688146c834769c3b48c91954","3","0","67215aa0a8e88c6751efc410","3","0","2025-07-23T20:43:30.702Z","","","","","","","","","","","MotivationQ","","50","","","","","","","","","","","","","","","","","","","","","","","","","","","","",""
"","","","","ctl-task-cpt","44","759002","0.0-5.0-0.7","235","1","2025-07-23 20:32:18","1f75c3e559b7213887762d5229550c2b","209.203.23.138","Mozilla/5.0 (Windows NT 10.0; Win64; x64) AppleWebKit/537.36 (KHTML, like Gecko) Chrome/138.0.0.0 Safari/537.36","WebKit","Chrome","138.0.0.0","Windows","10.0","https://app.prolific.com/","en-GB,en-US;q=0.9,en;q=0.8","67215aa0a8e88c6751efc410","683dba2a8a9dda3513610c04","688146c834769c3b48c91954","3","0","67215aa0a8e88c6751efc410","3","0","2025-07-23T20:44:59.632Z","","","","","","","","","","","","","","win-only","1","g1:NE,g2:SW","0.3","8","0","672880.8","1029.8","6041.2","85901.9","1","4","8","6","2","-8","-9","15","24","0.11363636363636363","1149.4","3000","-1220","[""down"",""left""]","{""num_key_presses"":22,""num_perfect"":6,""num_errors"":1,""num_randdir"":15,""num_randdir_good_moves"":6,""num_whilered"":0,""num_whileblue"":1,""num_blue"":5,""num_good_moves"":12}","[301.22232142857143,299.12857142857143,1.8,301.22232142857143,299.12857142857143,116,301.22232142857143,299.12857142857143,224.4,301.22232142857143,299.12857142857143,325.3,301.22232142857143,299.12857142857143,433.6,301.22232142857143,299.12857142857143,537,249.22232142857143,336.12857142857143,652,72.22232142857143,500.12857142857143,771.4,37.222321428571426,514.1285714285714,872.5,37.222321428571426,514.1285714285714,979.8,37.222321428571426,514.1285714285714,1088.7,37.222321428571426,514.1285714285714,1199,37.222321428571426,514.1285714285714,1302.2,37.222321428571426,514.1285714285714,1409,37.222321428571426,514.1285714285714,1510.7,37.222321428571426,514.1285714285714,1614.5,65.22232142857143,550.1285714285714,1717.6,131.22232142857143,683.1285714285714,1823.5,129.22232142857143,683.1285714285714,1928.4,129.22232142857143,683.1285714285714,2037.4,129.22232142857143,683.1285714285714,2150.1,129.22232142857143,683.1285714285714,2254.6,129.22232142857143,683.1285714285714,2361.1,129.22232142857143,683.1285714285714,2468.1,129.22232142857143,683.1285714285714,2575.2,174.22232142857143,603.1285714285714,2677.4,190.22232142857143,581.1285714285714,2782.8,190.22232142857143,581.1285714285714,2890.3,190.22232142857143,581.1285714285714,2998.1,190.22232142857143,581.1285714285714,3100.6,190.22232142857143,581.1285714285714,3209,190.22232142857143,581.1285714285714,3309.1,190.22232142857143,581.1285714285714,3416.5,190.22232142857143,581.1285714285714,3527.2,190.22232142857143,581.1285714285714,3634.9,190.22232142857143,581.1285714285714,3741,190.22232142857143,581.1285714285714,3850.8,190.22232142857143,581.1285714285714,3957.1,190.22232142857143,581.1285714285714,4057.4,190.22232142857143,581.1285714285714,4167.9,190.22232142857143,581.1285714285714,4269.2,190.22232142857143,581.1285714285714,4373.1,190.22232142857143,581.1285714285714,4478.1,190.22232142857143,581.1285714285714,4582.7,190.22232142857143,581.1285714285714,4688.5,190.22232142857143,581.1285714285714,4789.4,190.22232142857143,581.1285714285714,4893.6]","[3677.6,3677.6,1311.6,2020,346,""oops"",""down"",""up"",""bad_move"",10031.9,6352.6,2357.8,7337,337.1,""oops"",""down"",""left"",""good_move"",16620.1,6586.8,2672.9,13561.6,385.6,""oops"",""down"",""up"",""bad_move"",19762.6,3140.7,2378.5,16621.9,762.2,""oops"",""down"",""left"",""good_move"",22726.2,2954.2,2529.5,19772.1,424.6,""smooth"",""down"",""down"",""good_move"",25720,2980.2,2595,22739.8,385.2,""oops"",""down"",""up"",""bad_move"",28553.5,2831.6,2279,25721.9,552.6,""oops"",""down"",""right"",""bad_move"",31681.1,3125.2,2797.5,28556,327.6,""oops"",""down"",""left"",""good_move"",34578.4,2889.8,2502.2,31688.6,387.7,""smooth"",""down"",""down"",""good_move"",38078,3497.6,3190.4,34580.4,307.2,""smooth"",""down"",""down"",""good_move"",44173.2,6082.7,2212,41506.3,454.9,""oops"",""down"",""right"",""bad_move"",47285.4,3104.5,2745.4,44180.9,359.1,""smooth"",""down"",""down"",""good_move"",49618.9,2331.8,1975.3,47287.2,356.4,""oops"",""down"",""down"",""good_move"",52861.3,3234.6,2893.2,49626.7,341.4,""smooth"",""down"",""down"",""good_move"",54897.3,2034.4,1687.6,52863.1,346.6,""while_blue"",""left"",""right"",""bad_move"",58238.4,3337.8,2950.4,54900.6,387.4,""oops"",""left"",""right"",""bad_move"",60905.6,2666,2277.9,58239.6,388.1,""oops"",""left"",""up"",""bad_move"",64661.7,3754.2,3352.3,60907.6,401.8,""oops"",""left"",""up"",""bad_move"",67970.6,3301.9,2920.7,64668.7,381.2,""oops"",""left"",""left"",""good_move"",70783.3,2810.6,2497.5,67972.7,313.1,""smooth"",""left"",""left"",""good_move"",73685.3,2899.8,2361.8,70785.7,537.8,""oops"",""left"",""left"",""good_move"",76945.3,3254.8,2942.6,73690.6,312.1,""oops"",""left"",""up"",""bad_move""]","",""
"3757","","<div style=""width:500px;"">
  <p>What determined the result of this run?</p>
  </div>","80","html-slider-response","45","762762","0.0-5.0-1.7","235","1","2025-07-23 20:32:18","1f75c3e559b7213887762d5229550c2b","209.203.23.138","Mozilla/5.0 (Windows NT 10.0; Win64; x64) AppleWebKit/537.36 (KHTML, like Gecko) Chrome/138.0.0.0 Safari/537.36","WebKit","Chrome","138.0.0.0","Windows","10.0","https://app.prolific.com/","en-GB,en-US;q=0.9,en;q=0.8","67215aa0a8e88c6751efc410","683dba2a8a9dda3513610c04","688146c834769c3b48c91954","3","0","67215aa0a8e88c6751efc410","3","0","2025-07-23T20:45:03.392Z","","","","","","","","","","","AttribQ","","50","","","","","","","","","","","","","","","","","","","","","","","","","","","","",""
"3438","","<div style=""width:500px;"">
  <p>How much control did you have over the ball?</p>
  </div>","54","html-slider-response","46","766203","0.0-5.0-2.7","235","1","2025-07-23 20:32:18","1f75c3e559b7213887762d5229550c2b","209.203.23.138","Mozilla/5.0 (Windows NT 10.0; Win64; x64) AppleWebKit/537.36 (KHTML, like Gecko) Chrome/138.0.0.0 Safari/537.36","WebKit","Chrome","138.0.0.0","Windows","10.0","https://app.prolific.com/","en-GB,en-US;q=0.9,en;q=0.8","67215aa0a8e88c6751efc410","683dba2a8a9dda3513610c04","688146c834769c3b48c91954","3","0","67215aa0a8e88c6751efc410","3","0","2025-07-23T20:45:06.834Z","","","","","","","","","","","ControlQ","","50","","","","","","","","","","","","","","","","","","","","","","","","","","","","",""
"2969","","<div style=""width:500px;"">
  <p>How would you describe your current emotional state?</p>
  </div>","57","html-slider-response","47","769176","0.0-5.0-3.7","235","1","2025-07-23 20:32:18","1f75c3e559b7213887762d5229550c2b","209.203.23.138","Mozilla/5.0 (Windows NT 10.0; Win64; x64) AppleWebKit/537.36 (KHTML, like Gecko) Chrome/138.0.0.0 Safari/537.36","WebKit","Chrome","138.0.0.0","Windows","10.0","https://app.prolific.com/","en-GB,en-US;q=0.9,en;q=0.8","67215aa0a8e88c6751efc410","683dba2a8a9dda3513610c04","688146c834769c3b48c91954","3","0","67215aa0a8e88c6751efc410","3","0","2025-07-23T20:45:09.806Z","","","","","","","","","","","StressQ","","50","","","","","","","","","","","","","","","","","","","","","","","","","","","","",""
"4612","","<div style=""width:500px;"">
  <p>What best describes how you currently feel?</p>
  </div>","57","html-slider-response","48","773790","0.0-5.0-4.7","235","1","2025-07-23 20:32:18","1f75c3e559b7213887762d5229550c2b","209.203.23.138","Mozilla/5.0 (Windows NT 10.0; Win64; x64) AppleWebKit/537.36 (KHTML, like Gecko) Chrome/138.0.0.0 Safari/537.36","WebKit","Chrome","138.0.0.0","Windows","10.0","https://app.prolific.com/","en-GB,en-US;q=0.9,en;q=0.8","67215aa0a8e88c6751efc410","683dba2a8a9dda3513610c04","688146c834769c3b48c91954","3","0","67215aa0a8e88c6751efc410","3","0","2025-07-23T20:45:14.420Z","","","","","","","","","","","MotivationQ","","50","","","","","","","","","","","","","","","","","","","","","","","","","","","","",""
"","","","","ctl-task-cpt","49","851954","0.0-5.0-0.8","235","1","2025-07-23 20:32:18","1f75c3e559b7213887762d5229550c2b","209.203.23.138","Mozilla/5.0 (Windows NT 10.0; Win64; x64) AppleWebKit/537.36 (KHTML, like Gecko) Chrome/138.0.0.0 Safari/537.36","WebKit","Chrome","138.0.0.0","Windows","10.0","https://app.prolific.com/","en-GB,en-US;q=0.9,en;q=0.8","67215aa0a8e88c6751efc410","683dba2a8a9dda3513610c04","688146c834769c3b48c91954","3","0","67215aa0a8e88c6751efc410","3","0","2025-07-23T20:46:32.585Z","","","","","","","","","","","","","","win-only","0","g1:NW,g2:SE","0.2","9","0","776600","1176.1","6187.1","75136.3","1","4","8","6","1","-1","-1","14","15","0.10606060606060606","1319.1","3000","-820","[""left"",""up""]","{""num_key_presses"":19,""num_perfect"":4,""num_errors"":0,""num_randdir"":15,""num_randdir_good_moves"":3,""num_whilered"":0,""num_whileblue"":0,""num_blue"":3,""num_good_moves"":7}","[292.22232142857143,299.12857142857143,14.5,292.22232142857143,299.12857142857143,107.3,292.22232142857143,299.12857142857143,215,292.22232142857143,299.12857142857143,332.4,292.22232142857143,299.12857142857143,436.3,166.22232142857143,210.12857142857143,546.9,78.22232142857143,100.12857142857143,666.6,76.22232142857143,98.12857142857143,781,76.22232142857143,97.12857142857143,894.7,76.22232142857143,95.12857142857143,1012.2,75.22232142857143,92.12857142857143,1114.7,75.22232142857143,92.12857142857143,1215.5,75.22232142857143,92.12857142857143,1321.7,75.22232142857143,92.12857142857143,1422,75.22232142857143,92.12857142857143,1538.2,75.22232142857143,92.12857142857143,1647.4,75.22232142857143,92.12857142857143,1748.5,75.22232142857143,92.12857142857143,1855.6,75.22232142857143,92.12857142857143,1970.1,75.22232142857143,92.12857142857143,2080.9,75.22232142857143,92.12857142857143,2195.9,75.22232142857143,92.12857142857143,2298.9,75.22232142857143,92.12857142857143,2409.2,75.22232142857143,92.12857142857143,2516.1,75.22232142857143,92.12857142857143,2619.4,75.22232142857143,92.12857142857143,2719.9,75.22232142857143,92.12857142857143,2830.9,75.22232142857143,92.12857142857143,2946.1,75.22232142857143,92.12857142857143,3050.1,75.22232142857143,92.12857142857143,3155.4,75.22232142857143,92.12857142857143,3263.6,75.22232142857143,92.12857142857143,3370.7,75.22232142857143,92.12857142857143,3481.9,75.22232142857143,92.12857142857143,3587.3,75.22232142857143,92.12857142857143,3697.9,75.22232142857143,92.12857142857143,3805.5,75.22232142857143,92.12857142857143,3914.9,75.22232142857143,92.12857142857143,4022.2,75.22232142857143,92.12857142857143,4129.4,75.22232142857143,92.12857142857143,4232.9,75.22232142857143,92.12857142857143,4347.8,75.22232142857143,92.12857142857143,4456.1,75.22232142857143,92.12857142857143,4560.7,75.22232142857143,92.12857142857143,4672.4,75.22232142857143,92.12857142857143,4784.7,75.22232142857143,92.12857142857143,4920.1]","[1549.2,1549.3,1000,0,549.3,""oops"",""up"",""down"",""bad_move"",4556,3005,2571,1551,434,""oops"",""up"",""down"",""bad_move"",8294.2,3736.4,3385.7,4557.8,350.7,""oops"",""up"",""right"",""bad_move"",11033.4,2734.3,2124.5,8299.1,609.8,""oops"",""left"",""left"",""good_move"",14035,2999.6,2668.3,11035.4,331.3,""smooth"",""left"",""left"",""good_move"",17206,3169,2785.9,14037,383.1,""oops"",""left"",""left"",""good_move"",20573,3363,2426.8,17210,936.2,""oops"",""up"",""right"",""bad_move"",23716.6,3141.3,2800.8,20575.3,340.5,""smooth"",""up"",""up"",""good_move"",26654.9,2936.6,2538.7,23718.3,397.9,""oops"",""up"",""right"",""bad_move"",30253.9,3592.5,3219.1,26661.4,373.4,""oops"",""up"",""right"",""bad_move"",36283.6,6026.7,2241.1,33599,443.5,""oops"",""up"",""down"",""bad_move"",42848.6,6563.3,2855.6,39647.2,345.8,""smooth"",""up"",""up"",""good_move"",49581.7,6732,2254.2,46907.3,420.2,""oops"",""up"",""right"",""bad_move"",53280.7,3697.5,2815.2,49583.3,882.2,""oops"",""up"",""right"",""bad_move"",55951.9,2669.2,1738.3,53282.7,930.9,""oops"",""up"",""down"",""bad_move"",58636.6,2682.1,2273.9,55954.6,408.1,""smooth"",""up"",""up"",""good_move"",61455.7,2807.6,2472.2,58648.1,335.4,""oops"",""up"",""up"",""good_move"",64053,2587,1370.2,61466,1216.8,""oops"",""up"",""down"",""bad_move"",66455.7,2400.7,1921.6,64055,479.1,""oops"",""up"",""down"",""bad_move""]","",""
"5362","","<div style=""width:500px;"">
  <p>What determined the result of this run?</p>
  </div>","52","html-slider-response","50","857321","0.0-5.0-1.8","235","1","2025-07-23 20:32:18","1f75c3e559b7213887762d5229550c2b","209.203.23.138","Mozilla/5.0 (Windows NT 10.0; Win64; x64) AppleWebKit/537.36 (KHTML, like Gecko) Chrome/138.0.0.0 Safari/537.36","WebKit","Chrome","138.0.0.0","Windows","10.0","https://app.prolific.com/","en-GB,en-US;q=0.9,en;q=0.8","67215aa0a8e88c6751efc410","683dba2a8a9dda3513610c04","688146c834769c3b48c91954","3","0","67215aa0a8e88c6751efc410","3","0","2025-07-23T20:46:37.951Z","","","","","","","","","","","AttribQ","","50","","","","","","","","","","","","","","","","","","","","","","","","","","","","",""
"3607","","<div style=""width:500px;"">
  <p>How much control did you have over the ball?</p>
  </div>","11","html-slider-response","51","860932","0.0-5.0-2.8","235","1","2025-07-23 20:32:18","1f75c3e559b7213887762d5229550c2b","209.203.23.138","Mozilla/5.0 (Windows NT 10.0; Win64; x64) AppleWebKit/537.36 (KHTML, like Gecko) Chrome/138.0.0.0 Safari/537.36","WebKit","Chrome","138.0.0.0","Windows","10.0","https://app.prolific.com/","en-GB,en-US;q=0.9,en;q=0.8","67215aa0a8e88c6751efc410","683dba2a8a9dda3513610c04","688146c834769c3b48c91954","3","0","67215aa0a8e88c6751efc410","3","0","2025-07-23T20:46:41.562Z","","","","","","","","","","","ControlQ","","50","","","","","","","","","","","","","","","","","","","","","","","","","","","","",""
"3075","","<div style=""width:500px;"">
  <p>How would you describe your current emotional state?</p>
  </div>","71","html-slider-response","52","864012","0.0-5.0-3.8","235","1","2025-07-23 20:32:18","1f75c3e559b7213887762d5229550c2b","209.203.23.138","Mozilla/5.0 (Windows NT 10.0; Win64; x64) AppleWebKit/537.36 (KHTML, like Gecko) Chrome/138.0.0.0 Safari/537.36","WebKit","Chrome","138.0.0.0","Windows","10.0","https://app.prolific.com/","en-GB,en-US;q=0.9,en;q=0.8","67215aa0a8e88c6751efc410","683dba2a8a9dda3513610c04","688146c834769c3b48c91954","3","0","67215aa0a8e88c6751efc410","3","0","2025-07-23T20:46:44.642Z","","","","","","","","","","","StressQ","","50","","","","","","","","","","","","","","","","","","","","","","","","","","","","",""
"2956","","<div style=""width:500px;"">
  <p>What best describes how you currently feel?</p>
  </div>","55","html-slider-response","53","866970","0.0-5.0-4.8","235","1","2025-07-23 20:32:18","1f75c3e559b7213887762d5229550c2b","209.203.23.138","Mozilla/5.0 (Windows NT 10.0; Win64; x64) AppleWebKit/537.36 (KHTML, like Gecko) Chrome/138.0.0.0 Safari/537.36","WebKit","Chrome","138.0.0.0","Windows","10.0","https://app.prolific.com/","en-GB,en-US;q=0.9,en;q=0.8","67215aa0a8e88c6751efc410","683dba2a8a9dda3513610c04","688146c834769c3b48c91954","3","0","67215aa0a8e88c6751efc410","3","0","2025-07-23T20:46:47.600Z","","","","","","","","","","","MotivationQ","","50","","","","","","","","","","","","","","","","","","","","","","","","","","","","",""
"","","","","ctl-task-cpt","54","963065","0.0-5.0-0.9","235","1","2025-07-23 20:32:18","1f75c3e559b7213887762d5229550c2b","209.203.23.138","Mozilla/5.0 (Windows NT 10.0; Win64; x64) AppleWebKit/537.36 (KHTML, like Gecko) Chrome/138.0.0.0 Safari/537.36","WebKit","Chrome","138.0.0.0","Windows","10.0","https://app.prolific.com/","en-GB,en-US;q=0.9,en;q=0.8","67215aa0a8e88c6751efc410","683dba2a8a9dda3513610c04","688146c834769c3b48c91954","3","0","67215aa0a8e88c6751efc410","3","0","2025-07-23T20:48:23.695Z","","","","","","","","","","","","","","win-only","1","g1:NE,g2:SW","0.4","10","0","869780.4","1792.9","6794.5","93059","1","4","4","6","2","4","4","18","14","0.13636363636363635","1302.9","3000","290","[""down"",""left""]","{""num_key_presses"":18,""num_perfect"":8,""num_errors"":0,""num_randdir"":10,""num_randdir_good_moves"":4,""num_whilered"":0,""num_whileblue"":0,""num_blue"":9,""num_good_moves"":12}","[296.22232142857143,296.12857142857143,1,296.22232142857143,296.12857142857143,100.1,296.22232142857143,296.12857142857143,213,296.22232142857143,296.12857142857143,320,296.22232142857143,296.12857142857143,425.9,296.22232142857143,296.12857142857143,533.8,241.22232142857143,353.12857142857143,648.6,160.22232142857143,452.12857142857143,759.9,111.22232142857143,510.12857142857143,885.9,86.22232142857143,518.1285714285714,998.4,79.22232142857143,500.12857142857143,1100.8,79.22232142857143,500.12857142857143,1228.8,79.22232142857143,500.12857142857143,1330.2,79.22232142857143,500.12857142857143,1432.9,79.22232142857143,500.12857142857143,1533.5,79.22232142857143,500.12857142857143,1646.1,64.22232142857143,503.12857142857143,1751.7,-129.77767857142857,540.1285714285714,1873.8,-129.77767857142857,540.1285714285714,1991.8,-129.77767857142857,540.1285714285714,2096.3,-129.77767857142857,540.1285714285714,2224,-129.77767857142857,540.1285714285714,2339.6,-129.77767857142857,540.1285714285714,2449.1,-129.77767857142857,540.1285714285714,2559.5,-129.77767857142857,540.1285714285714,2664.2,-129.77767857142857,540.1285714285714,2770.2,-129.77767857142857,540.1285714285714,2889.6,-129.77767857142857,540.1285714285714,3007.7,-129.77767857142857,540.1285714285714,3109.8,-129.77767857142857,540.1285714285714,3215.1,-129.77767857142857,540.1285714285714,3331.2,-129.77767857142857,540.1285714285714,3432.5,-129.77767857142857,540.1285714285714,3534.1,-129.77767857142857,540.1285714285714,3637,-129.77767857142857,540.1285714285714,3740.7,-129.77767857142857,540.1285714285714,3854.4,-129.77767857142857,540.1285714285714,3958.3,-129.77767857142857,540.1285714285714,4060.1,-129.77767857142857,540.1285714285714,4168.1,-129.77767857142857,540.1285714285714,4283.9,-129.77767857142857,540.1285714285714,4403.8,-129.77767857142857,540.1285714285714,4517.3,-129.77767857142857,540.1285714285714,4620.9,-129.77767857142857,540.1285714285714,4727.5,-129.77767857142857,540.1285714285714,4830,-129.77767857142857,540.1285714285714,4944]","[4325.6,4325.6,1911.3,2023.4,390.9,""smooth"",""down"",""down"",""good_move"",7285.6,2958.3,2601.6,4327.3,356.7,""oops"",""down"",""right"",""bad_move"",14082.3,6791.1,2619.8,11005.9,456.6,""smooth"",""down"",""down"",""good_move"",20437.3,6353.1,2823.7,17211.5,402.2,""oops"",""down"",""right"",""bad_move"",23228.3,2789.6,2324.5,20438.7,465.1,""oops"",""down"",""up"",""bad_move"",30108.7,6868.7,3110,26531,467.7,""oops"",""down"",""left"",""good_move"",32925.2,2814.4,2307.6,30110.9,506.8,""smooth"",""down"",""down"",""good_move"",35522.6,2595.8,2021.9,32926.8,573.9,""smooth"",""down"",""down"",""good_move"",42661.7,7137,2772.5,39470.3,418.9,""oops"",""left"",""right"",""bad_move"",45015.9,2351.6,1755.5,42664.4,596.1,""oops"",""left"",""up"",""bad_move"",53249.1,8224.5,3542.6,49266.3,440.2,""smooth"",""left"",""left"",""good_move"",64010,10754.4,2703.4,60847.7,458.9,""oops"",""left"",""up"",""bad_move"",67481.1,3469.1,2882.9,64012,586.2,""oops"",""left"",""left"",""good_move"",70245.6,2763,1993.8,67482.6,769.2,""smooth"",""left"",""left"",""good_move"",76757.5,6501.4,2541.7,73769.5,446.3,""smooth"",""left"",""left"",""good_move"",80369.8,3609.6,2549.3,76760.2,1060.3,""oops"",""left"",""down"",""good_move"",82877.3,2505.3,2065.5,80372,439.8,""oops"",""left"",""left"",""good_move"",85961.5,3068.8,2752.8,82892.7,316,""smooth"",""down"",""down"",""good_move""]","",""
"4556","","<div style=""width:500px;"">
  <p>What determined the result of this run?</p>
  </div>","77","html-slider-response","55","967623","0.0-5.0-1.9","235","1","2025-07-23 20:32:18","1f75c3e559b7213887762d5229550c2b","209.203.23.138","Mozilla/5.0 (Windows NT 10.0; Win64; x64) AppleWebKit/537.36 (KHTML, like Gecko) Chrome/138.0.0.0 Safari/537.36","WebKit","Chrome","138.0.0.0","Windows","10.0","https://app.prolific.com/","en-GB,en-US;q=0.9,en;q=0.8","67215aa0a8e88c6751efc410","683dba2a8a9dda3513610c04","688146c834769c3b48c91954","3","0","67215aa0a8e88c6751efc410","3","0","2025-07-23T20:48:28.253Z","","","","","","","","","","","AttribQ","","50","","","","","","","","","","","","","","","","","","","","","","","","","","","","",""
"3196","","<div style=""width:500px;"">
  <p>How much control did you have over the ball?</p>
  </div>","55","html-slider-response","56","970823","0.0-5.0-2.9","235","1","2025-07-23 20:32:18","1f75c3e559b7213887762d5229550c2b","209.203.23.138","Mozilla/5.0 (Windows NT 10.0; Win64; x64) AppleWebKit/537.36 (KHTML, like Gecko) Chrome/138.0.0.0 Safari/537.36","WebKit","Chrome","138.0.0.0","Windows","10.0","https://app.prolific.com/","en-GB,en-US;q=0.9,en;q=0.8","67215aa0a8e88c6751efc410","683dba2a8a9dda3513610c04","688146c834769c3b48c91954","3","0","67215aa0a8e88c6751efc410","3","0","2025-07-23T20:48:31.453Z","","","","","","","","","","","ControlQ","","50","","","","","","","","","","","","","","","","","","","","","","","","","","","","",""
"3539","","<div style=""width:500px;"">
  <p>How would you describe your current emotional state?</p>
  </div>","67","html-slider-response","57","974364","0.0-5.0-3.9","235","1","2025-07-23 20:32:18","1f75c3e559b7213887762d5229550c2b","209.203.23.138","Mozilla/5.0 (Windows NT 10.0; Win64; x64) AppleWebKit/537.36 (KHTML, like Gecko) Chrome/138.0.0.0 Safari/537.36","WebKit","Chrome","138.0.0.0","Windows","10.0","https://app.prolific.com/","en-GB,en-US;q=0.9,en;q=0.8","67215aa0a8e88c6751efc410","683dba2a8a9dda3513610c04","688146c834769c3b48c91954","3","0","67215aa0a8e88c6751efc410","3","0","2025-07-23T20:48:34.995Z","","","","","","","","","","","StressQ","","50","","","","","","","","","","","","","","","","","","","","","","","","","","","","",""
"6962","","<div style=""width:500px;"">
  <p>What best describes how you currently feel?</p>
  </div>","60","html-slider-response","58","981329","0.0-5.0-4.9","235","1","2025-07-23 20:32:18","1f75c3e559b7213887762d5229550c2b","209.203.23.138","Mozilla/5.0 (Windows NT 10.0; Win64; x64) AppleWebKit/537.36 (KHTML, like Gecko) Chrome/138.0.0.0 Safari/537.36","WebKit","Chrome","138.0.0.0","Windows","10.0","https://app.prolific.com/","en-GB,en-US;q=0.9,en;q=0.8","67215aa0a8e88c6751efc410","683dba2a8a9dda3513610c04","688146c834769c3b48c91954","3","0","67215aa0a8e88c6751efc410","3","0","2025-07-23T20:48:41.960Z","","","","","","","","","","","MotivationQ","","50","","","","","","","","","","","","","","","","","","","","","","","","","","","","",""
"","","","","ctl-task-cpt","59","1050958","0.0-5.0-0.10","235","1","2025-07-23 20:32:18","1f75c3e559b7213887762d5229550c2b","209.203.23.138","Mozilla/5.0 (Windows NT 10.0; Win64; x64) AppleWebKit/537.36 (KHTML, like Gecko) Chrome/138.0.0.0 Safari/537.36","WebKit","Chrome","138.0.0.0","Windows","10.0","https://app.prolific.com/","en-GB,en-US;q=0.9,en;q=0.8","67215aa0a8e88c6751efc410","683dba2a8a9dda3513610c04","688146c834769c3b48c91954","3","0","67215aa0a8e88c6751efc410","3","0","2025-07-23T20:49:51.588Z","","","","","","","","","","","","","","win-only","3","g1:SW,g2:NE","0.5","11","0","984137.2","1048.3","6069.2","66595.4","1","4","8","6","2","8","7","25","18","0.1893939393939394","1389.6","3000","1385","[""up"",""right""]","{""num_key_presses"":16,""num_perfect"":7,""num_errors"":1,""num_randdir"":8,""num_randdir_good_moves"":4,""num_whilered"":0,""num_whileblue"":1,""num_blue"":3,""num_good_moves"":11}","[294.22232142857143,296.12857142857143,1,294.22232142857143,296.12857142857143,111.1,294.22232142857143,296.12857142857143,215.1,294.22232142857143,296.12857142857143,325.4,294.22232142857143,296.12857142857143,428.1,294.22232142857143,296.12857142857143,538.6,294.22232142857143,296.12857142857143,650.9,420.22232142857143,95.12857142857143,760.3,457.22232142857143,50.128571428571426,875,458.22232142857143,49.128571428571426,991.7,544.2223214285714,59.128571428571426,1095.1,553.2223214285714,60.128571428571426,1195.8,553.2223214285714,60.128571428571426,1297.2,553.2223214285714,60.128571428571426,1408.7,553.2223214285714,60.128571428571426,1517.1,553.2223214285714,60.128571428571426,1625.7,553.2223214285714,60.128571428571426,1734,553.2223214285714,60.128571428571426,1835.7,553.2223214285714,60.128571428571426,1945.7,553.2223214285714,60.128571428571426,2069.2,553.2223214285714,60.128571428571426,2176.9,553.2223214285714,60.128571428571426,2284.9,553.2223214285714,60.128571428571426,2396.7,553.2223214285714,60.128571428571426,2507.5,553.2223214285714,60.128571428571426,2610.8,553.2223214285714,60.128571428571426,2716.7,553.2223214285714,60.128571428571426,2847.9,553.2223214285714,60.128571428571426,2963.7,553.2223214285714,60.128571428571426,3065.4,553.2223214285714,60.128571428571426,3174.3,553.2223214285714,60.128571428571426,3280.3,553.2223214285714,60.128571428571426,3384,553.2223214285714,60.128571428571426,3484.9,553.2223214285714,60.128571428571426,3589.4,553.2223214285714,60.128571428571426,3712.4,553.2223214285714,60.128571428571426,3813.6,553.2223214285714,60.128571428571426,3921.3,553.2223214285714,60.128571428571426,4025.2,553.2223214285714,60.128571428571426,4138.4,553.2223214285714,60.128571428571426,4241.1,553.2223214285714,60.128571428571426,4347.1,553.2223214285714,60.128571428571426,4452.1,553.2223214285714,60.128571428571426,4561.2,553.2223214285714,60.128571428571426,4663.9,553.2223214285714,60.128571428571426,4768.8,553.2223214285714,60.128571428571426,4873.8,553.2223214285714,60.128571428571426,4979.1]","[1402.8,1402.8,1000,0,402.8,""smooth"",""up"",""up"",""good_move"",5219.2,3815.1,2407.4,1404.2,1407.7,""smooth"",""up"",""up"",""good_move"",12910.3,7686.7,3306.8,9249.8,353.7,""oops"",""right"",""up"",""good_move"",16307.7,3395.7,1892,12912.1,1503.6,""smooth"",""right"",""right"",""good_move"",20428.2,4118.5,3626.8,16309.7,491.7,""oops"",""right"",""left"",""bad_move"",24670.6,4240.4,2331.1,20430.2,1909.3,""smooth"",""right"",""right"",""good_move"",27687.1,3014.1,2490.6,24673,523.5,""oops"",""right"",""right"",""good_move"",30255,2566,1972.2,27689.1,593.7,""oops"",""right"",""left"",""bad_move"",34708.7,4451.8,2983.6,30256.9,1468.2,""smooth"",""right"",""right"",""good_move"",37778.1,3059.6,2682.5,34718.5,377.1,""oops"",""right"",""down"",""bad_move"",40467.4,2687.4,2329.9,37780,357.5,""oops"",""right"",""right"",""good_move"",43671,3201.8,2874.1,40469.2,327.7,""while_blue"",""up"",""down"",""bad_move"",50118.2,6445.2,2667.6,47082,368.6,""oops"",""up"",""left"",""bad_move"",53123.3,3003.5,2310.9,50119.8,692.6,""smooth"",""up"",""up"",""good_move"",56354.7,3225.9,2525.4,53128.8,700.5,""oops"",""right"",""up"",""good_move"",60102.3,3745.6,2345.5,56356.7,1400.1,""smooth"",""right"",""right"",""good_move""]","",""
"3699","","<div style=""width:500px;"">
  <p>What determined the result of this run?</p>
  </div>","78","html-slider-response","60","1054661","0.0-5.0-1.10","235","1","2025-07-23 20:32:18","1f75c3e559b7213887762d5229550c2b","209.203.23.138","Mozilla/5.0 (Windows NT 10.0; Win64; x64) AppleWebKit/537.36 (KHTML, like Gecko) Chrome/138.0.0.0 Safari/537.36","WebKit","Chrome","138.0.0.0","Windows","10.0","https://app.prolific.com/","en-GB,en-US;q=0.9,en;q=0.8","67215aa0a8e88c6751efc410","683dba2a8a9dda3513610c04","688146c834769c3b48c91954","3","0","67215aa0a8e88c6751efc410","3","0","2025-07-23T20:49:55.291Z","","","","","","","","","","","AttribQ","","50","","","","","","","","","","","","","","","","","","","","","","","","","","","","",""
"6415","","<div style=""width:500px;"">
  <p>How much control did you have over the ball?</p>
  </div>","60","html-slider-response","61","1061079","0.0-5.0-2.10","235","1","2025-07-23 20:32:18","1f75c3e559b7213887762d5229550c2b","209.203.23.138","Mozilla/5.0 (Windows NT 10.0; Win64; x64) AppleWebKit/537.36 (KHTML, like Gecko) Chrome/138.0.0.0 Safari/537.36","WebKit","Chrome","138.0.0.0","Windows","10.0","https://app.prolific.com/","en-GB,en-US;q=0.9,en;q=0.8","67215aa0a8e88c6751efc410","683dba2a8a9dda3513610c04","688146c834769c3b48c91954","3","0","67215aa0a8e88c6751efc410","3","0","2025-07-23T20:50:01.709Z","","","","","","","","","","","ControlQ","","50","","","","","","","","","","","","","","","","","","","","","","","","","","","","",""
"3576","","<div style=""width:500px;"">
  <p>How would you describe your current emotional state?</p>
  </div>","70","html-slider-response","62","1064658","0.0-5.0-3.10","235","1","2025-07-23 20:32:18","1f75c3e559b7213887762d5229550c2b","209.203.23.138","Mozilla/5.0 (Windows NT 10.0; Win64; x64) AppleWebKit/537.36 (KHTML, like Gecko) Chrome/138.0.0.0 Safari/537.36","WebKit","Chrome","138.0.0.0","Windows","10.0","https://app.prolific.com/","en-GB,en-US;q=0.9,en;q=0.8","67215aa0a8e88c6751efc410","683dba2a8a9dda3513610c04","688146c834769c3b48c91954","3","0","67215aa0a8e88c6751efc410","3","0","2025-07-23T20:50:05.289Z","","","","","","","","","","","StressQ","","50","","","","","","","","","","","","","","","","","","","","","","","","","","","","",""
"3298","","<div style=""width:500px;"">
  <p>What best describes how you currently feel?</p>
  </div>","56","html-slider-response","63","1067960","0.0-5.0-4.10","235","1","2025-07-23 20:32:18","1f75c3e559b7213887762d5229550c2b","209.203.23.138","Mozilla/5.0 (Windows NT 10.0; Win64; x64) AppleWebKit/537.36 (KHTML, like Gecko) Chrome/138.0.0.0 Safari/537.36","WebKit","Chrome","138.0.0.0","Windows","10.0","https://app.prolific.com/","en-GB,en-US;q=0.9,en;q=0.8","67215aa0a8e88c6751efc410","683dba2a8a9dda3513610c04","688146c834769c3b48c91954","3","0","67215aa0a8e88c6751efc410","3","0","2025-07-23T20:50:08.590Z","","","","","","","","","","","MotivationQ","","50","","","","","","","","","","","","","","","","","","","","","","","","","","","","",""
"","","","","ctl-task-cpt","64","1157834","0.0-5.0-0.11","235","1","2025-07-23 20:32:18","1f75c3e559b7213887762d5229550c2b","209.203.23.138","Mozilla/5.0 (Windows NT 10.0; Win64; x64) AppleWebKit/537.36 (KHTML, like Gecko) Chrome/138.0.0.0 Safari/537.36","WebKit","Chrome","138.0.0.0","Windows","10.0","https://app.prolific.com/","en-GB,en-US;q=0.9,en;q=0.8","67215aa0a8e88c6751efc410","683dba2a8a9dda3513610c04","688146c834769c3b48c91954","3","0","67215aa0a8e88c6751efc410","3","0","2025-07-23T20:51:38.464Z","","","","","","","","","","","","","","win-only","1","g1:NE,g2:SW","0.6","12","0","1070770.8","2208.4","7227.5","86840.9","1","4","4","6","2","4","4","29","25","0.2196969696969697","1264.1","3000","700","[""down"",""left""]","{""num_key_presses"":18,""num_perfect"":10,""num_errors"":0,""num_randdir"":8,""num_randdir_good_moves"":2,""num_whilered"":0,""num_whileblue"":0,""num_blue"":5,""num_good_moves"":12}","[295.22232142857143,298.12857142857143,1.3,295.22232142857143,298.12857142857143,114.2,295.22232142857143,298.12857142857143,214.8,295.22232142857143,298.12857142857143,320.9,295.22232142857143,298.12857142857143,426.4,300.22232142857143,288.12857142857143,549.1,416.22232142857143,125.12857142857143,662.2,217.22232142857143,304.12857142857143,774.1,52.222321428571426,499.12857142857143,885.9,50.222321428571426,500.12857142857143,1001.1,50.222321428571426,500.12857142857143,1107.4,50.222321428571426,500.12857142857143,1212.9,50.222321428571426,500.12857142857143,1316,50.222321428571426,500.12857142857143,1431.2,50.222321428571426,500.12857142857143,1544.2,50.222321428571426,500.12857142857143,1652.9,50.222321428571426,500.12857142857143,1767.9,50.222321428571426,500.12857142857143,1880.6,50.222321428571426,500.12857142857143,1993.8,50.222321428571426,500.12857142857143,2103.6,50.222321428571426,500.12857142857143,2204,50.222321428571426,500.12857142857143,2310,50.222321428571426,500.12857142857143,2414.6,50.222321428571426,500.12857142857143,2523,50.222321428571426,500.12857142857143,2632.7,50.222321428571426,500.12857142857143,2737.1,50.222321428571426,500.12857142857143,2837.2,50.222321428571426,500.12857142857143,2941.4,50.222321428571426,500.12857142857143,3052.8,50.222321428571426,500.12857142857143,3161.2,50.222321428571426,500.12857142857143,3274.9,50.222321428571426,500.12857142857143,3386.2,50.222321428571426,500.12857142857143,3499.3,50.222321428571426,500.12857142857143,3604.6,50.222321428571426,500.12857142857143,3723.9,50.222321428571426,500.12857142857143,3839.6,50.222321428571426,500.12857142857143,3949.8,50.222321428571426,500.12857142857143,4070.3,50.222321428571426,500.12857142857143,4187.3,50.222321428571426,500.12857142857143,4296.2,50.222321428571426,500.12857142857143,4409.5,50.222321428571426,500.12857142857143,4509.9,50.222321428571426,500.12857142857143,4621.5,50.222321428571426,500.12857142857143,4735.3,50.222321428571426,500.12857142857143,4836.1,50.222321428571426,500.12857142857143,4951.3]","[1420.4,1420.5,1000,0,420.5,""oops"",""down"",""up"",""bad_move"",5255,3832.4,2048.2,1422.6,1784.2,""smooth"",""left"",""left"",""good_move"",9429.1,4172.5,2184.3,5256.7,1988.1,""oops"",""left"",""right"",""bad_move"",12473.1,3041.7,1973.6,9431.4,1068.2,""smooth"",""left"",""left"",""good_move"",18513.2,6038.1,1509.4,16540.6,463.2,""smooth"",""left"",""left"",""good_move"",22607.3,4090.1,3690.4,18517.2,399.7,""smooth"",""left"",""left"",""good_move"",26624.7,4011.6,2969.6,22613.1,1042,""smooth"",""down"",""down"",""good_move"",33161.7,6528.6,3038.7,29541.2,582.3,""oops"",""down"",""down"",""good_move"",36441.4,3278,2810.9,33163.4,467.1,""oops"",""down"",""right"",""bad_move"",40003.5,3557.5,3120.1,36446,437.4,""smooth"",""down"",""down"",""good_move"",42908,2902.8,2337.9,40005.2,564.9,""oops"",""down"",""up"",""bad_move"",46544.1,3633.4,3274.2,42910.7,359.2,""oops"",""down"",""right"",""bad_move"",53141.2,6593.3,2786,49893.6,461.6,""smooth"",""down"",""down"",""good_move"",60292.4,7148.8,2793.1,57005,494.3,""oops"",""down"",""left"",""good_move"",69362,9066.8,3243.9,65496.6,621.5,""oops"",""down"",""right"",""bad_move"",73130.7,3767.7,3263.6,69363.1,504,""smooth"",""down"",""down"",""good_move"",75881.4,2746.7,2284.7,73134.7,462,""smooth"",""left"",""left"",""good_move"",79280.6,3395.1,3012.6,75885.5,382.5,""smooth"",""left"",""left"",""good_move""]","",""
"2963","","<div style=""width:500px;"">
  <p>What determined the result of this run?</p>
  </div>","78","html-slider-response","65","1160802","0.0-5.0-1.11","235","1","2025-07-23 20:32:18","1f75c3e559b7213887762d5229550c2b","209.203.23.138","Mozilla/5.0 (Windows NT 10.0; Win64; x64) AppleWebKit/537.36 (KHTML, like Gecko) Chrome/138.0.0.0 Safari/537.36","WebKit","Chrome","138.0.0.0","Windows","10.0","https://app.prolific.com/","en-GB,en-US;q=0.9,en;q=0.8","67215aa0a8e88c6751efc410","683dba2a8a9dda3513610c04","688146c834769c3b48c91954","3","0","67215aa0a8e88c6751efc410","3","0","2025-07-23T20:51:41.432Z","","","","","","","","","","","AttribQ","","50","","","","","","","","","","","","","","","","","","","","","","","","","","","","",""
"4747","","<div style=""width:500px;"">
  <p>How much control did you have over the ball?</p>
  </div>","56","html-slider-response","66","1165554","0.0-5.0-2.11","235","1","2025-07-23 20:32:18","1f75c3e559b7213887762d5229550c2b","209.203.23.138","Mozilla/5.0 (Windows NT 10.0; Win64; x64) AppleWebKit/537.36 (KHTML, like Gecko) Chrome/138.0.0.0 Safari/537.36","WebKit","Chrome","138.0.0.0","Windows","10.0","https://app.prolific.com/","en-GB,en-US;q=0.9,en;q=0.8","67215aa0a8e88c6751efc410","683dba2a8a9dda3513610c04","688146c834769c3b48c91954","3","0","67215aa0a8e88c6751efc410","3","0","2025-07-23T20:51:46.184Z","","","","","","","","","","","ControlQ","","50","","","","","","","","","","","","","","","","","","","","","","","","","","","","",""
"4350","","<div style=""width:500px;"">
  <p>How would you describe your current emotional state?</p>
  </div>","69","html-slider-response","67","1169905","0.0-5.0-3.11","235","1","2025-07-23 20:32:18","1f75c3e559b7213887762d5229550c2b","209.203.23.138","Mozilla/5.0 (Windows NT 10.0; Win64; x64) AppleWebKit/537.36 (KHTML, like Gecko) Chrome/138.0.0.0 Safari/537.36","WebKit","Chrome","138.0.0.0","Windows","10.0","https://app.prolific.com/","en-GB,en-US;q=0.9,en;q=0.8","67215aa0a8e88c6751efc410","683dba2a8a9dda3513610c04","688146c834769c3b48c91954","3","0","67215aa0a8e88c6751efc410","3","0","2025-07-23T20:51:50.536Z","","","","","","","","","","","StressQ","","50","","","","","","","","","","","","","","","","","","","","","","","","","","","","",""
"2820","","<div style=""width:500px;"">
  <p>What best describes how you currently feel?</p>
  </div>","62","html-slider-response","68","1172728","0.0-5.0-4.11","235","1","2025-07-23 20:32:18","1f75c3e559b7213887762d5229550c2b","209.203.23.138","Mozilla/5.0 (Windows NT 10.0; Win64; x64) AppleWebKit/537.36 (KHTML, like Gecko) Chrome/138.0.0.0 Safari/537.36","WebKit","Chrome","138.0.0.0","Windows","10.0","https://app.prolific.com/","en-GB,en-US;q=0.9,en;q=0.8","67215aa0a8e88c6751efc410","683dba2a8a9dda3513610c04","688146c834769c3b48c91954","3","0","67215aa0a8e88c6751efc410","3","0","2025-07-23T20:51:53.358Z","","","","","","","","","","","MotivationQ","","50","","","","","","","","","","","","","","","","","","","","","","","","","","","","",""
"","","","","ctl-task-cpt","69","1211850","0.0-5.0-0.12","235","1","2025-07-23 20:32:18","1f75c3e559b7213887762d5229550c2b","209.203.23.138","Mozilla/5.0 (Windows NT 10.0; Win64; x64) AppleWebKit/537.36 (KHTML, like Gecko) Chrome/138.0.0.0 Safari/537.36","WebKit","Chrome","138.0.0.0","Windows","10.0","https://app.prolific.com/","en-GB,en-US;q=0.9,en;q=0.8","67215aa0a8e88c6751efc410","683dba2a8a9dda3513610c04","688146c834769c3b48c91954","3","0","67215aa0a8e88c6751efc410","3","0","2025-07-23T20:52:32.480Z","","","","","","","","","","","","","","win-only","3","g1:SW,g2:NE","0.7","13","0","1175536.2","1480.7","6505.9","36078","1","4","8","6","2","8","8","37","29","0.2803030303030303","1217.6","3000","2340","[""up"",""right""]","{""num_key_presses"":6,""num_perfect"":5,""num_errors"":0,""num_randdir"":1,""num_randdir_good_moves"":1,""num_whilered"":0,""num_whileblue"":0,""num_blue"":2,""num_good_moves"":6}","[297.22232142857143,296.12857142857143,1.7,297.22232142857143,296.12857142857143,117,297.22232142857143,296.12857142857143,239.8,297.22232142857143,296.12857142857143,352.7,297.22232142857143,296.12857142857143,461.2,408.22232142857143,195.12857142857143,589.8,633.2223214285714,-15.871428571428574,717,606.2223214285714,1.1285714285714263,838.3,549.2223214285714,34.128571428571426,973.3,543.2223214285714,37.128571428571426,1081.9,543.2223214285714,37.128571428571426,1196.6,543.2223214285714,37.128571428571426,1306.9,543.2223214285714,37.128571428571426,1419.8,543.2223214285714,37.128571428571426,1540.5,543.2223214285714,37.128571428571426,1646,543.2223214285714,37.128571428571426,1747.4,543.2223214285714,37.128571428571426,1850.6,543.2223214285714,37.128571428571426,1956.7,543.2223214285714,37.128571428571426,2068.7,543.2223214285714,37.128571428571426,2179.3,543.2223214285714,37.128571428571426,2286.3,543.2223214285714,37.128571428571426,2400.6,543.2223214285714,37.128571428571426,2523.4,543.2223214285714,37.128571428571426,2643.4,543.2223214285714,37.128571428571426,2757.5,543.2223214285714,37.128571428571426,2879.8,543.2223214285714,37.128571428571426,2985.3,543.2223214285714,37.128571428571426,3097.5,543.2223214285714,37.128571428571426,3200,543.2223214285714,37.128571428571426,3306.6,543.2223214285714,37.128571428571426,3406.8,543.2223214285714,37.128571428571426,3511.3,543.2223214285714,37.128571428571426,3612.6,543.2223214285714,37.128571428571426,3716.7,543.2223214285714,37.128571428571426,3826.6,543.2223214285714,37.128571428571426,3930,543.2223214285714,37.128571428571426,4032.4,543.2223214285714,37.128571428571426,4142.9,543.2223214285714,37.128571428571426,4246.7,543.2223214285714,37.128571428571426,4349.9,543.2223214285714,37.128571428571426,4456.1,543.2223214285714,37.128571428571426,4559.7,543.2223214285714,37.128571428571426,4665,543.2223214285714,37.128571428571426,4768.5,543.2223214285714,37.128571428571426,4868.8,543.2223214285714,37.128571428571426,4969.7]","[1664.8,1664.8,1000,0,664.8,""smooth"",""up"",""up"",""good_move"",7882,6207.3,2216.1,1674.8,3991.1,""smooth"",""up"",""up"",""good_move"",11547.5,3664.2,2338.9,7883.3,1325.3,""smooth"",""up"",""up"",""good_move"",22231.8,10675,2901.4,18973,357.4,""oops"",""right"",""right"",""good_move"",25612.6,3370.6,2870.5,22242,500.1,""smooth"",""right"",""right"",""good_move"",29271.7,3656.6,3151.8,25615.2,504.7,""smooth"",""right"",""right"",""good_move""]","",""
"7917","","<div style=""width:500px;"">
  <p>What determined the result of this run?</p>
  </div>","81","html-slider-response","70","1219770","0.0-5.0-1.12","235","1","2025-07-23 20:32:18","1f75c3e559b7213887762d5229550c2b","209.203.23.138","Mozilla/5.0 (Windows NT 10.0; Win64; x64) AppleWebKit/537.36 (KHTML, like Gecko) Chrome/138.0.0.0 Safari/537.36","WebKit","Chrome","138.0.0.0","Windows","10.0","https://app.prolific.com/","en-GB,en-US;q=0.9,en;q=0.8","67215aa0a8e88c6751efc410","683dba2a8a9dda3513610c04","688146c834769c3b48c91954","3","0","67215aa0a8e88c6751efc410","3","0","2025-07-23T20:52:40.400Z","","","","","","","","","","","AttribQ","","50","","","","","","","","","","","","","","","","","","","","","","","","","","","","",""
"5357","","<div style=""width:500px;"">
  <p>How much control did you have over the ball?</p>
  </div>","67","html-slider-response","71","1225133","0.0-5.0-2.12","235","1","2025-07-23 20:32:18","1f75c3e559b7213887762d5229550c2b","209.203.23.138","Mozilla/5.0 (Windows NT 10.0; Win64; x64) AppleWebKit/537.36 (KHTML, like Gecko) Chrome/138.0.0.0 Safari/537.36","WebKit","Chrome","138.0.0.0","Windows","10.0","https://app.prolific.com/","en-GB,en-US;q=0.9,en;q=0.8","67215aa0a8e88c6751efc410","683dba2a8a9dda3513610c04","688146c834769c3b48c91954","3","0","67215aa0a8e88c6751efc410","3","0","2025-07-23T20:52:45.764Z","","","","","","","","","","","ControlQ","","50","","","","","","","","","","","","","","","","","","","","","","","","","","","","",""
"4303","","<div style=""width:500px;"">
  <p>How would you describe your current emotional state?</p>
  </div>","62","html-slider-response","72","1229442","0.0-5.0-3.12","235","1","2025-07-23 20:32:18","1f75c3e559b7213887762d5229550c2b","209.203.23.138","Mozilla/5.0 (Windows NT 10.0; Win64; x64) AppleWebKit/537.36 (KHTML, like Gecko) Chrome/138.0.0.0 Safari/537.36","WebKit","Chrome","138.0.0.0","Windows","10.0","https://app.prolific.com/","en-GB,en-US;q=0.9,en;q=0.8","67215aa0a8e88c6751efc410","683dba2a8a9dda3513610c04","688146c834769c3b48c91954","3","0","67215aa0a8e88c6751efc410","3","0","2025-07-23T20:52:50.072Z","","","","","","","","","","","StressQ","","50","","","","","","","","","","","","","","","","","","","","","","","","","","","","",""
"3989","","<div style=""width:500px;"">
  <p>What best describes how you currently feel?</p>
