"rt","response_timestamp","stimulus","response","trial_type","trial_index","time_elapsed","internal_node_id","run_id","condition","recorded_at","source_code_version","ip","user_agent","device","browser","browser_version","platform","platform_version","referer","accept_language","PROLIFIC_PID","STUDY_ID","SESSION_ID","WEEK","BATCH","prolific_id","week","batch","realtime","success","responses","item_order","radio_event_ids","radio_event_times","key_event_times","mouse_event_times","straightlining","zigzagging","honeypot","eventType","view_history","slider_start","which_type","canvas_config","goals_layout","control_level","trial_number","tutorial_trial_number","trial_start_time","phase1_start_time","phase2_start_time","phase3_start_time","goal_1_value","goal_1_distance","goal_2_value","goal_2_distance","goal_selected","outcome","outcome_total","participant_final_score","participant_initial_score","participant_final_score_prop","goal_choice_rt","allocated_time","allocated_time_remaining","goal_direction","counts","mouse_movements","key_presses","question_order","question_id"
"1479","1754299251910","<p style='font-size:40px;line-height:1.25'><strong>Welcome to the experiment!</strong></p><p style='font-size:1.1em;line-height:1.25'>Thank you for participanting in our experiment again! You will be asked to play the Dysfunctional Ball Game again. We will briefly recap the rules before we start.</p><p style='font-size:1.1em;line-height:1.25'>Press <strong>Next</strong> to continue.</p>","0","custom-html-button-response","0","1505","0.0-0.0","313","1","2025-08-04 09:20:54","1f75c3e559b7213887762d5229550c2b","178.212.218.13","Mozilla/5.0 (Windows NT 10.0; Win64; x64; rv:141.0) Gecko/20100101 Firefox/141.0","","Firefox","141.0","Windows","10.0","https://app.prolific.com/","pl,en-US;q=0.7,en;q=0.3","5c2b339a85602a00012ffedd","6877631c9844ddd5501205fc","68907af1a5c04427307fdd4e","3","1","5c2b339a85602a00012ffedd","3","1","2025-08-04T09:20:51.911Z","","","","","","","","","","","","","","","","","","","","","","","","","","","","","","","","","","","","","","","","","",""
"6497","","","","fullscreen","1","9005","0.0-1.0","313","1","2025-08-04 09:20:54","1f75c3e559b7213887762d5229550c2b","178.212.218.13","Mozilla/5.0 (Windows NT 10.0; Win64; x64; rv:141.0) Gecko/20100101 Firefox/141.0","","Firefox","141.0","Windows","10.0","https://app.prolific.com/","pl,en-US;q=0.7,en;q=0.3","5c2b339a85602a00012ffedd","6877631c9844ddd5501205fc","68907af1a5c04427307fdd4e","3","1","5c2b339a85602a00012ffedd","3","1","","true","","","","","","","","","","","","","","","","","","","","","","","","","","","","","","","","","","","","","","","","",""
"2268","1754299261680","<p style='font-size:1.1em;line-height:1.25'>In the following, we will ask you a few questions relating to your feelings in the last 24 hours.<br></p><p style='font-size:1.1em;line-height:1.25'>Press the <strong>Next</strong> button to continue.</p>","0","custom-html-button-response","2","11274","0.0-2.0-0.0","313","1","2025-08-04 09:20:54","1f75c3e559b7213887762d5229550c2b","178.212.218.13","Mozilla/5.0 (Windows NT 10.0; Win64; x64; rv:141.0) Gecko/20100101 Firefox/141.0","","Firefox","141.0","Windows","10.0","https://app.prolific.com/","pl,en-US;q=0.7,en;q=0.3","5c2b339a85602a00012ffedd","6877631c9844ddd5501205fc","68907af1a5c04427307fdd4e","3","1","5c2b339a85602a00012ffedd","3","1","2025-08-04T09:21:01.680Z","","","","","","","","","","","","","","","","","","","","","","","","","","","","","","","","","","","","","","","","","",""
"122711","","","","survey-template","3","133991","0.0-2.0-1.0","313","1","2025-08-04 09:20:54","1f75c3e559b7213887762d5229550c2b","178.212.218.13","Mozilla/5.0 (Windows NT 10.0; Win64; x64; rv:141.0) Gecko/20100101 Firefox/141.0","","Firefox","141.0","Windows","10.0","https://app.prolific.com/","pl,en-US;q=0.7,en;q=0.3","5c2b339a85602a00012ffedd","6877631c9844ddd5501205fc","68907af1a5c04427307fdd4e","3","1","5c2b339a85602a00012ffedd","3","1","2025-08-04T09:23:04.397Z","","{""Q01"":""1"",""Q02"":""1"",""Q03"":""1"",""Q04"":""1"",""Q05"":""1"",""Q06"":""1"",""Q07"":""1"",""Q08"":""1"",""Q09"":""1"",""Q10"":""2"",""Q11"":""2"",""Q12"":""4"",""Q13"":""5"",""Q14"":""4"",""Q15"":""4"",""Q16"":""1"",""Q17"":""1"",""Q18"":""1"",""Q19"":""1"",""Q20"":""1"",""Q21"":""1"",""Q22"":""1""}","[0,1,2,3,4,5,6,7,8,9,10,11,12,13,14,15,16,17,18,19,20,21]","[""Q01"",""Q02"",""Q03"",""Q04"",""Q05"",""Q06"",""Q07"",""Q08"",""Q09"",""Q10"",""Q11"",""Q12"",""Q13"",""Q14"",""Q15"",""Q16"",""Q17"",""Q18"",""Q19"",""Q20"",""Q21"",""Q22""]","[4871,6437,9371,10654,11283,12577,13767,14617,16036,92788,93309,96017,97385,99212,103930,106095,107271,107997,115385,117451,119945,121850]","[]","[0,3791,4131,4871,6437,9371,10654,11283,12577,13767,14617,16036,91171,92788,93309,96017,97385,99212,103930,106095,107271,107997,115385,117451,119945,121850,122710]","0.7272727272727273","0.14285714285714285","0","drsp","","","","","","","","","","","","","","","","","","","","","","","","","","","","","","",""
"5444","","","","survey-template","4","139439","0.0-2.0-2.0","313","1","2025-08-04 09:20:54","1f75c3e559b7213887762d5229550c2b","178.212.218.13","Mozilla/5.0 (Windows NT 10.0; Win64; x64; rv:141.0) Gecko/20100101 Firefox/141.0","","Firefox","141.0","Windows","10.0","https://app.prolific.com/","pl,en-US;q=0.7,en;q=0.3","5c2b339a85602a00012ffedd","6877631c9844ddd5501205fc","68907af1a5c04427307fdd4e","3","1","5c2b339a85602a00012ffedd","3","1","2025-08-04T09:23:09.845Z","","{""Q01"":""1"",""Q02"":""4"",""Q03"":""1""}","[0,1,2]","[""Q01"",""Q02"",""Q03""]","[2176,2939,3558]","[]","[2176,2939,3558,5444]","1","0","0","stress","","","","","","","","","","","","","","","","","","","","","","","","","","","","","","",""
"3473","","","","instructions","5","142912","0.0-3.0-0.0","313","1","2025-08-04 09:20:54","1f75c3e559b7213887762d5229550c2b","178.212.218.13","Mozilla/5.0 (Windows NT 10.0; Win64; x64; rv:141.0) Gecko/20100101 Firefox/141.0","","Firefox","141.0","Windows","10.0","https://app.prolific.com/","pl,en-US;q=0.7,en;q=0.3","5c2b339a85602a00012ffedd","6877631c9844ddd5501205fc","68907af1a5c04427307fdd4e","3","1","5c2b339a85602a00012ffedd","3","1","","","","","","","","","","","","","[{""page_index"":0,""viewing_time"":3473}]","","","","","","","","","","","","","","","","","","","","","","","","","","","","","",""
"2335","","<p>Before you start with this game please answer the following three questions yourself. </p>
  <p>Through this game, we measure several aspects of your cognitive performance, such as reaction times, multi-tasking capabilities </p>
  <p>and the ability to assess the situation you are in.</p>
  <p></p>
  <p><b>How good do you usually are in such tasks?</b></p>","39","html-slider-response","6","145249","0.0-4.0-0.0","313","1","2025-08-04 09:20:54","1f75c3e559b7213887762d5229550c2b","178.212.218.13","Mozilla/5.0 (Windows NT 10.0; Win64; x64; rv:141.0) Gecko/20100101 Firefox/141.0","","Firefox","141.0","Windows","10.0","https://app.prolific.com/","pl,en-US;q=0.7,en;q=0.3","5c2b339a85602a00012ffedd","6877631c9844ddd5501205fc","68907af1a5c04427307fdd4e","3","1","5c2b339a85602a00012ffedd","3","1","2025-08-04T09:23:15.655Z","","","","","","","","","","","PreSkillQ","","50","","","","","","","","","","","","","","","","","","","","","","","","","","","","",""
"1739","","<div style=""width:500px;"">
  <p>How well do you think you will perform in this task compared to other participants?</p>
  </div>","27","html-slider-response","7","146989","0.0-4.0-1.0","313","1","2025-08-04 09:20:54","1f75c3e559b7213887762d5229550c2b","178.212.218.13","Mozilla/5.0 (Windows NT 10.0; Win64; x64; rv:141.0) Gecko/20100101 Firefox/141.0","","Firefox","141.0","Windows","10.0","https://app.prolific.com/","pl,en-US;q=0.7,en;q=0.3","5c2b339a85602a00012ffedd","6877631c9844ddd5501205fc","68907af1a5c04427307fdd4e","3","1","5c2b339a85602a00012ffedd","3","1","2025-08-04T09:23:17.395Z","","","","","","","","","","","PrePerfQ","","50","","","","","","","","","","","","","","","","","","","","","","","","","","","","",""
"2812","","<div style=""width:500px;"">
  <p>What best describes how you currently feel?</p>
  </div>","18","html-slider-response","8","149802","0.0-4.0-2.0","313","1","2025-08-04 09:20:54","1f75c3e559b7213887762d5229550c2b","178.212.218.13","Mozilla/5.0 (Windows NT 10.0; Win64; x64; rv:141.0) Gecko/20100101 Firefox/141.0","","Firefox","141.0","Windows","10.0","https://app.prolific.com/","pl,en-US;q=0.7,en;q=0.3","5c2b339a85602a00012ffedd","6877631c9844ddd5501205fc","68907af1a5c04427307fdd4e","3","1","5c2b339a85602a00012ffedd","3","1","2025-08-04T09:23:20.208Z","","","","","","","","","","","PreMotivationQ","","50","","","","","","","","","","","","","","","","","","","","","","","","","","","","",""
"","","","","ctl-task-cpt","9","171226","0.0-5.0-0.0","313","1","2025-08-04 09:20:54","1f75c3e559b7213887762d5229550c2b","178.212.218.13","Mozilla/5.0 (Windows NT 10.0; Win64; x64; rv:141.0) Gecko/20100101 Firefox/141.0","","Firefox","141.0","Windows","10.0","https://app.prolific.com/","pl,en-US;q=0.7,en;q=0.3","5c2b339a85602a00012ffedd","6877631c9844ddd5501205fc","68907af1a5c04427307fdd4e","3","1","5c2b339a85602a00012ffedd","3","1","2025-08-04T09:23:41.632Z","","","","","","","","","","","","","","win-only","3","g1:SW,g2:NE","1","1","0","152339","2761","7762","18419","1","4","8","6","1","1","1","1","0","0.007575757575757576","1441","3000","1695","[""down"",""left""]","{""num_key_presses"":4,""num_perfect"":4,""num_errors"":0,""num_randdir"":0,""num_randdir_good_moves"":0,""num_whilered"":0,""num_whileblue"":0,""num_blue"":0,""num_good_moves"":4}","[562.4285714285714,549.1285683768136,0,562.4285714285714,549.1285683768136,106,562.4285714285714,549.1285683768136,208,562.4285714285714,549.1285683768136,313,562.4285714285714,549.1285683768136,417,555.4285714285714,551.1285683768136,519,547.4285714285714,552.1285683768136,620,506.42857142857144,597.1285683768136,722,415.42857142857144,720.1285683768136,828,311.42857142857144,841.1285683768136,928,253.42857142857144,886.1285683768136,1030,209.42857142857144,918.1285683768136,1133,139.42857142857144,953.1285683768136,1237,120.42857142857143,965.1285683768136,1338,120.42857142857143,965.1285683768136,1440,120.42857142857143,965.1285683768136,1544,259.42857142857144,1018.1285683768136,1647,1834.4285714285713,907.1285683768136,1749,1834.4285714285713,843.1285683768136,1850,1834.4285714285713,843.1285683768136,1953,1834.4285714285713,843.1285683768136,2054,1834.4285714285713,843.1285683768136,2155,1834.4285714285713,843.1285683768136,2258,1834.4285714285713,843.1285683768136,2359,1834.4285714285713,843.1285683768136,2461,1834.4285714285713,843.1285683768136,2564,1834.4285714285713,843.1285683768136,2665,1834.4285714285713,843.1285683768136,2767,1834.4285714285713,843.1285683768136,2868,1834.4285714285713,843.1285683768136,2970,1834.4285714285713,843.1285683768136,3072,1834.4285714285713,843.1285683768136,3175,1834.4285714285713,843.1285683768136,3276,1834.4285714285713,843.1285683768136,3380,1834.4285714285713,843.1285683768136,3482,1834.4285714285713,843.1285683768136,3585,1834.4285714285713,843.1285683768136,3686,1834.4285714285713,843.1285683768136,3788,1834.4285714285713,843.1285683768136,3890,1834.4285714285713,843.1285683768136,3992,1834.4285714285713,843.1285683768136,4092,1834.4285714285713,843.1285683768136,4193,1834.4285714285713,843.1285683768136,4294,1834.4285714285713,843.1285683768136,4397,1834.4285714285713,843.1285683768136,4498,1834.4285714285713,843.1285683768136,4600,1834.4285714285713,843.1285683768136,4702,1834.4285714285713,843.1285683768136,4805,1834.4285714285713,843.1285683768136,4906]","[1460,1460,1000,0,460,""smooth"",""left"",""left"",""good_move"",4513,3053,2676.7,1460,376.3,""smooth"",""left"",""left"",""good_move"",7621,3108,2690.4,4513,417.6,""smooth"",""down"",""down"",""good_move"",10557,2936,2590.7,7621,345.3,""smooth"",""down"",""down"",""good_move""]","",""
"4374","","<div style=""width:500px;"">
  <p>What determined the result of this run?</p>
  </div>","100","html-slider-response","10","175603","0.0-5.0-1.0","313","1","2025-08-04 09:20:54","1f75c3e559b7213887762d5229550c2b","178.212.218.13","Mozilla/5.0 (Windows NT 10.0; Win64; x64; rv:141.0) Gecko/20100101 Firefox/141.0","","Firefox","141.0","Windows","10.0","https://app.prolific.com/","pl,en-US;q=0.7,en;q=0.3","5c2b339a85602a00012ffedd","6877631c9844ddd5501205fc","68907af1a5c04427307fdd4e","3","1","5c2b339a85602a00012ffedd","3","1","2025-08-04T09:23:46.009Z","","","","","","","","","","","AttribQ","","50","","","","","","","","","","","","","","","","","","","","","","","","","","","","",""
"1945","","<div style=""width:500px;"">
  <p>How much control did you have over the ball?</p>
  </div>","100","html-slider-response","11","177548","0.0-5.0-2.0","313","1","2025-08-04 09:20:54","1f75c3e559b7213887762d5229550c2b","178.212.218.13","Mozilla/5.0 (Windows NT 10.0; Win64; x64; rv:141.0) Gecko/20100101 Firefox/141.0","","Firefox","141.0","Windows","10.0","https://app.prolific.com/","pl,en-US;q=0.7,en;q=0.3","5c2b339a85602a00012ffedd","6877631c9844ddd5501205fc","68907af1a5c04427307fdd4e","3","1","5c2b339a85602a00012ffedd","3","1","2025-08-04T09:23:47.954Z","","","","","","","","","","","ControlQ","","50","","","","","","","","","","","","","","","","","","","","","","","","","","","","",""
"5770","","<div style=""width:500px;"">
  <p>How would you describe your current emotional state?</p>
  </div>","28","html-slider-response","12","183319","0.0-5.0-3.0","313","1","2025-08-04 09:20:54","1f75c3e559b7213887762d5229550c2b","178.212.218.13","Mozilla/5.0 (Windows NT 10.0; Win64; x64; rv:141.0) Gecko/20100101 Firefox/141.0","","Firefox","141.0","Windows","10.0","https://app.prolific.com/","pl,en-US;q=0.7,en;q=0.3","5c2b339a85602a00012ffedd","6877631c9844ddd5501205fc","68907af1a5c04427307fdd4e","3","1","5c2b339a85602a00012ffedd","3","1","2025-08-04T09:23:53.725Z","","","","","","","","","","","StressQ","","50","","","","","","","","","","","","","","","","","","","","","","","","","","","","",""
"2577","","<div style=""width:500px;"">
  <p>What best describes how you currently feel?</p>
  </div>","37","html-slider-response","13","185898","0.0-5.0-4.0","313","1","2025-08-04 09:20:54","1f75c3e559b7213887762d5229550c2b","178.212.218.13","Mozilla/5.0 (Windows NT 10.0; Win64; x64; rv:141.0) Gecko/20100101 Firefox/141.0","","Firefox","141.0","Windows","10.0","https://app.prolific.com/","pl,en-US;q=0.7,en;q=0.3","5c2b339a85602a00012ffedd","6877631c9844ddd5501205fc","68907af1a5c04427307fdd4e","3","1","5c2b339a85602a00012ffedd","3","1","2025-08-04T09:23:56.304Z","","","","","","","","","","","MotivationQ","","50","","","","","","","","","","","","","","","","","","","","","","","","","","","","",""
"","","","","ctl-task-cpt","14","213495","0.0-5.0-0.1","313","1","2025-08-04 09:20:54","1f75c3e559b7213887762d5229550c2b","178.212.218.13","Mozilla/5.0 (Windows NT 10.0; Win64; x64; rv:141.0) Gecko/20100101 Firefox/141.0","","Firefox","141.0","Windows","10.0","https://app.prolific.com/","pl,en-US;q=0.7,en;q=0.3","5c2b339a85602a00012ffedd","6877631c9844ddd5501205fc","68907af1a5c04427307fdd4e","3","1","5c2b339a85602a00012ffedd","3","1","2025-08-04T09:24:23.901Z","","","","","","","","","","","","","","win-only","1","g1:NE,g2:SW","0.9","2","0","188433","861","5862","24595","1","4","4","6","1","1","1","2","1","0.015151515151515152","1337","3000","1080","[""up"",""right""]","{""num_key_presses"":6,""num_perfect"":5,""num_errors"":0,""num_randdir"":1,""num_randdir_good_moves"":0,""num_whilered"":0,""num_whileblue"":0,""num_blue"":1,""num_good_moves"":5}","[552.4285714285714,559.1285683768136,0,552.4285714285714,559.1285683768136,105,552.4285714285714,559.1285683768136,205,552.4285714285714,559.1285683768136,309,552.4285714285714,559.1285683768136,411,552.4285714285714,559.1285683768136,513,552.4285714285714,559.1285683768136,613,345.42857142857144,842.1285683768136,716,307.42857142857144,911.1285683768136,820,573.4285714285714,793.1285683768136,922,1201.4285714285713,230.12856837681363,1026,1159.4285714285713,212.12856837681363,1126,1050.4285714285713,161.12856837681363,1226,1040.4285714285713,85.12856837681362,1328,1040.4285714285713,84.12856837681362,1431,1043.4285714285713,92.12856837681362,1531,1150.4285714285713,320.12856837681363,1634,1140.4285714285713,334.12856837681363,1737,1140.4285714285713,334.12856837681363,1839,1616.4285714285713,248.12856837681363,1941,1679.4285714285713,225.12856837681363,2042,1679.4285714285713,225.12856837681363,2142,1679.4285714285713,225.12856837681363,2242,1679.4285714285713,225.12856837681363,2345,1679.4285714285713,225.12856837681363,2446,1679.4285714285713,225.12856837681363,2549,1679.4285714285713,225.12856837681363,2650,1679.4285714285713,225.12856837681363,2752,1679.4285714285713,225.12856837681363,2855,1679.4285714285713,225.12856837681363,2956,1679.4285714285713,225.12856837681363,3056,1679.4285714285713,225.12856837681363,3160,1679.4285714285713,225.12856837681363,3265,1679.4285714285713,225.12856837681363,3368,1679.4285714285713,225.12856837681363,3472,1679.4285714285713,225.12856837681363,3573,1679.4285714285713,225.12856837681363,3676,1679.4285714285713,225.12856837681363,3777,1679.4285714285713,225.12856837681363,3879,1679.4285714285713,225.12856837681363,3979,1679.4285714285713,225.12856837681363,4080,1679.4285714285713,225.12856837681363,4182,1679.4285714285713,225.12856837681363,4286,1679.4285714285713,225.12856837681363,4390,1679.4285714285713,225.12856837681363,4491,1679.4285714285713,225.12856837681363,4592,1679.4285714285713,225.12856837681363,4695,1679.4285714285713,225.12856837681363,4797,1679.4285714285713,225.12856837681363,4899]","[1366,1366,1000,0,366,""smooth"",""up"",""up"",""good_move"",4619,3253,2877.4,1366,375.6,""smooth"",""up"",""up"",""good_move"",10620,6001,2244.1,7949,426.9,""oops"",""right"",""down"",""bad_move"",13369,2749,2379,10620,370,""smooth"",""right"",""right"",""good_move"",16214,2845,2441.7,13369,403.3,""smooth"",""right"",""right"",""good_move"",18630,2416,2027.1,16214,388.9,""smooth"",""up"",""up"",""good_move""]","",""
"3509","","<div style=""width:500px;"">
  <p>What determined the result of this run?</p>
  </div>","63","html-slider-response","15","217005","0.0-5.0-1.1","313","1","2025-08-04 09:20:54","1f75c3e559b7213887762d5229550c2b","178.212.218.13","Mozilla/5.0 (Windows NT 10.0; Win64; x64; rv:141.0) Gecko/20100101 Firefox/141.0","","Firefox","141.0","Windows","10.0","https://app.prolific.com/","pl,en-US;q=0.7,en;q=0.3","5c2b339a85602a00012ffedd","6877631c9844ddd5501205fc","68907af1a5c04427307fdd4e","3","1","5c2b339a85602a00012ffedd","3","1","2025-08-04T09:24:27.412Z","","","","","","","","","","","AttribQ","","50","","","","","","","","","","","","","","","","","","","","","","","","","","","","",""
"1486","","<div style=""width:500px;"">
  <p>How much control did you have over the ball?</p>
  </div>","63","html-slider-response","16","218492","0.0-5.0-2.1","313","1","2025-08-04 09:20:54","1f75c3e559b7213887762d5229550c2b","178.212.218.13","Mozilla/5.0 (Windows NT 10.0; Win64; x64; rv:141.0) Gecko/20100101 Firefox/141.0","","Firefox","141.0","Windows","10.0","https://app.prolific.com/","pl,en-US;q=0.7,en;q=0.3","5c2b339a85602a00012ffedd","6877631c9844ddd5501205fc","68907af1a5c04427307fdd4e","3","1","5c2b339a85602a00012ffedd","3","1","2025-08-04T09:24:28.898Z","","","","","","","","","","","ControlQ","","50","","","","","","","","","","","","","","","","","","","","","","","","","","","","",""
"1566","","<div style=""width:500px;"">
  <p>How would you describe your current emotional state?</p>
  </div>","36","html-slider-response","17","220060","0.0-5.0-3.1","313","1","2025-08-04 09:20:54","1f75c3e559b7213887762d5229550c2b","178.212.218.13","Mozilla/5.0 (Windows NT 10.0; Win64; x64; rv:141.0) Gecko/20100101 Firefox/141.0","","Firefox","141.0","Windows","10.0","https://app.prolific.com/","pl,en-US;q=0.7,en;q=0.3","5c2b339a85602a00012ffedd","6877631c9844ddd5501205fc","68907af1a5c04427307fdd4e","3","1","5c2b339a85602a00012ffedd","3","1","2025-08-04T09:24:30.467Z","","","","","","","","","","","StressQ","","50","","","","","","","","","","","","","","","","","","","","","","","","","","","","",""
"1525","","<div style=""width:500px;"">
  <p>What best describes how you currently feel?</p>
  </div>","35","html-slider-response","18","221587","0.0-5.0-4.1","313","1","2025-08-04 09:20:54","1f75c3e559b7213887762d5229550c2b","178.212.218.13","Mozilla/5.0 (Windows NT 10.0; Win64; x64; rv:141.0) Gecko/20100101 Firefox/141.0","","Firefox","141.0","Windows","10.0","https://app.prolific.com/","pl,en-US;q=0.7,en;q=0.3","5c2b339a85602a00012ffedd","6877631c9844ddd5501205fc","68907af1a5c04427307fdd4e","3","1","5c2b339a85602a00012ffedd","3","1","2025-08-04T09:24:31.993Z","","","","","","","","","","","MotivationQ","","50","","","","","","","","","","","","","","","","","","","","","","","","","","","","",""
"","","","","ctl-task-cpt","19","247705","0.0-5.0-0.2","313","1","2025-08-04 09:20:54","1f75c3e559b7213887762d5229550c2b","178.212.218.13","Mozilla/5.0 (Windows NT 10.0; Win64; x64; rv:141.0) Gecko/20100101 Firefox/141.0","","Firefox","141.0","Windows","10.0","https://app.prolific.com/","pl,en-US;q=0.7,en;q=0.3","5c2b339a85602a00012ffedd","6877631c9844ddd5501205fc","68907af1a5c04427307fdd4e","3","1","5c2b339a85602a00012ffedd","3","1","2025-08-04T09:24:58.111Z","","","","","","","","","","","","","","win-only","3","g1:SW,g2:NE","0.8","3","0","224121","1037","6043","23117","1","4","4","6","1","1","1","3","2","0.022727272727272728","1388","3000","1780","[""down"",""left""]","{""num_key_presses"":4,""num_perfect"":4,""num_errors"":0,""num_randdir"":0,""num_randdir_good_moves"":0,""num_whilered"":0,""num_whileblue"":0,""num_blue"":2,""num_good_moves"":4}","[558.4285714285714,559.1285683768136,0,558.4285714285714,559.1285683768136,101,558.4285714285714,559.1285683768136,201,558.4285714285714,559.1285683768136,302,558.4285714285714,559.1285683768136,404,558.4285714285714,559.1285683768136,506,558.4285714285714,559.1285683768136,606,558.4285714285714,559.1285683768136,708,392.42857142857144,846.1285683768136,811,268.42857142857144,1022.1285683768136,914,46.42857142857143,1189.1285683768135,1017,49.42857142857143,1163.1285683768135,1118,105.42857142857143,1103.1285683768135,1220,117.42857142857143,1046.1285683768135,1323,113.42857142857143,1028.1285683768135,1428,113.42857142857143,1028.1285683768135,1531,113.42857142857143,1028.1285683768135,1633,113.42857142857143,1028.1285683768135,1735,30.42857142857143,1013.1285683768136,1835,-166.57142857142856,955.1285683768136,1936,-167.57142857142856,939.1285683768136,2038,-166.57142857142856,827.1285683768136,2140,-371.57142857142856,688.1285683768136,2240,-416.57142857142856,628.1285683768136,2423,-416.57142857142856,628.1285683768136,2525,-416.57142857142856,628.1285683768136,2629,-416.57142857142856,628.1285683768136,2733,-416.57142857142856,628.1285683768136,2834,-416.57142857142856,628.1285683768136,2936,-416.57142857142856,628.1285683768136,3038,-416.57142857142856,628.1285683768136,3140,-416.57142857142856,628.1285683768136,3242,-416.57142857142856,628.1285683768136,3344,-416.57142857142856,628.1285683768136,3444,-416.57142857142856,628.1285683768136,3547,-416.57142857142856,628.1285683768136,3648,-416.57142857142856,628.1285683768136,3751,-416.57142857142856,628.1285683768136,3853,-416.57142857142856,628.1285683768136,3954,-416.57142857142856,628.1285683768136,4056,-416.57142857142856,628.1285683768136,4157,-416.57142857142856,628.1285683768136,4258,-416.57142857142856,628.1285683768136,4360,-416.57142857142856,628.1285683768136,4462,-416.57142857142856,628.1285683768136,4566,-416.57142857142856,628.1285683768136,4670,-416.57142857142856,628.1285683768136,4772,-416.57142857142856,628.1285683768136,4873,-416.57142857142856,628.1285683768136,4976]","[8751,8751,2452.6,5939,359.4,""smooth"",""left"",""left"",""good_move"",11176,2425,2037.8,8751,387.2,""smooth"",""left"",""left"",""good_move"",14086,2910,2559,11176,351,""smooth"",""down"",""down"",""good_move"",16971,2885,2489.4,14086,396.6,""smooth"",""down"",""down"",""good_move""]","",""
"2877","","<div style=""width:500px;"">
  <p>What determined the result of this run?</p>
  </div>","72","html-slider-response","20","250583","0.0-5.0-1.2","313","1","2025-08-04 09:20:54","1f75c3e559b7213887762d5229550c2b","178.212.218.13","Mozilla/5.0 (Windows NT 10.0; Win64; x64; rv:141.0) Gecko/20100101 Firefox/141.0","","Firefox","141.0","Windows","10.0","https://app.prolific.com/","pl,en-US;q=0.7,en;q=0.3","5c2b339a85602a00012ffedd","6877631c9844ddd5501205fc","68907af1a5c04427307fdd4e","3","1","5c2b339a85602a00012ffedd","3","1","2025-08-04T09:25:00.989Z","","","","","","","","","","","AttribQ","","50","","","","","","","","","","","","","","","","","","","","","","","","","","","","",""
"2889","","<div style=""width:500px;"">
  <p>How much control did you have over the ball?</p>
  </div>","67","html-slider-response","21","253474","0.0-5.0-2.2","313","1","2025-08-04 09:20:54","1f75c3e559b7213887762d5229550c2b","178.212.218.13","Mozilla/5.0 (Windows NT 10.0; Win64; x64; rv:141.0) Gecko/20100101 Firefox/141.0","","Firefox","141.0","Windows","10.0","https://app.prolific.com/","pl,en-US;q=0.7,en;q=0.3","5c2b339a85602a00012ffedd","6877631c9844ddd5501205fc","68907af1a5c04427307fdd4e","3","1","5c2b339a85602a00012ffedd","3","1","2025-08-04T09:25:03.880Z","","","","","","","","","","","ControlQ","","50","","","","","","","","","","","","","","","","","","","","","","","","","","","","",""
"1901","","<div style=""width:500px;"">
  <p>How would you describe your current emotional state?</p>
  </div>","43","html-slider-response","22","255376","0.0-5.0-3.2","313","1","2025-08-04 09:20:54","1f75c3e559b7213887762d5229550c2b","178.212.218.13","Mozilla/5.0 (Windows NT 10.0; Win64; x64; rv:141.0) Gecko/20100101 Firefox/141.0","","Firefox","141.0","Windows","10.0","https://app.prolific.com/","pl,en-US;q=0.7,en;q=0.3","5c2b339a85602a00012ffedd","6877631c9844ddd5501205fc","68907af1a5c04427307fdd4e","3","1","5c2b339a85602a00012ffedd","3","1","2025-08-04T09:25:05.782Z","","","","","","","","","","","StressQ","","50","","","","","","","","","","","","","","","","","","","","","","","","","","","","",""
"2479","","<div style=""width:500px;"">
  <p>What best describes how you currently feel?</p>
  </div>","56","html-slider-response","23","257857","0.0-5.0-4.2","313","1","2025-08-04 09:20:54","1f75c3e559b7213887762d5229550c2b","178.212.218.13","Mozilla/5.0 (Windows NT 10.0; Win64; x64; rv:141.0) Gecko/20100101 Firefox/141.0","","Firefox","141.0","Windows","10.0","https://app.prolific.com/","pl,en-US;q=0.7,en;q=0.3","5c2b339a85602a00012ffedd","6877631c9844ddd5501205fc","68907af1a5c04427307fdd4e","3","1","5c2b339a85602a00012ffedd","3","1","2025-08-04T09:25:08.263Z","","","","","","","","","","","MotivationQ","","50","","","","","","","","","","","","","","","","","","","","","","","","","","","","",""
"","","","","ctl-task-cpt","24","280011","0.0-5.0-0.3","313","1","2025-08-04 09:20:54","1f75c3e559b7213887762d5229550c2b","178.212.218.13","Mozilla/5.0 (Windows NT 10.0; Win64; x64; rv:141.0) Gecko/20100101 Firefox/141.0","","Firefox","141.0","Windows","10.0","https://app.prolific.com/","pl,en-US;q=0.7,en;q=0.3","5c2b339a85602a00012ffedd","6877631c9844ddd5501205fc","68907af1a5c04427307fdd4e","3","1","5c2b339a85602a00012ffedd","3","1","2025-08-04T09:25:30.417Z","","","","","","","","","","","","","","win-only","3","g1:SW,g2:NE","0.7","4","0","260392","811","5816","19151","1","4","8","6","1","1","1","4","3","0.030303030303030304","1007","3000","1710","[""down"",""left""]","{""num_key_presses"":4,""num_perfect"":4,""num_errors"":0,""num_randdir"":0,""num_randdir_good_moves"":0,""num_whilered"":0,""num_whileblue"":0,""num_blue"":1,""num_good_moves"":4}","[556.4285714285714,559.1285683768136,0,556.4285714285714,559.1285683768136,101,556.4285714285714,559.1285683768136,205,556.4285714285714,559.1285683768136,306,556.4285714285714,559.1285683768136,409,556.4285714285714,559.1285683768136,511,509.42857142857144,593.1285683768136,613,266.42857142857144,856.1285683768136,715,238.42857142857144,876.1285683768136,818,118.42857142857143,963.1285683768136,923,118.42857142857143,961.1285683768136,1025,118.42857142857143,961.1285683768136,1128,118.42857142857143,961.1285683768136,1228,298.42857142857144,880.1285683768136,1333,779.4285714285714,716.1285683768136,1438,779.4285714285714,716.1285683768136,1538,779.4285714285714,716.1285683768136,1640,779.4285714285714,716.1285683768136,1742,779.4285714285714,716.1285683768136,1843,779.4285714285714,716.1285683768136,1945,779.4285714285714,716.1285683768136,2049,779.4285714285714,716.1285683768136,2155,779.4285714285714,716.1285683768136,2256,779.4285714285714,716.1285683768136,2358,779.4285714285714,716.1285683768136,2460,779.4285714285714,716.1285683768136,2563,779.4285714285714,716.1285683768136,2663,779.4285714285714,716.1285683768136,2766,779.4285714285714,716.1285683768136,2868,779.4285714285714,716.1285683768136,2970,779.4285714285714,716.1285683768136,3074,779.4285714285714,716.1285683768136,3175,779.4285714285714,716.1285683768136,3278,779.4285714285714,716.1285683768136,3380,779.4285714285714,716.1285683768136,3484,779.4285714285714,716.1285683768136,3587,779.4285714285714,716.1285683768136,3689,779.4285714285714,716.1285683768136,3792,779.4285714285714,716.1285683768136,3896,779.4285714285714,716.1285683768136,4000,779.4285714285714,716.1285683768136,4100,779.4285714285714,716.1285683768136,4203,779.4285714285714,716.1285683768136,4305,779.4285714285714,716.1285683768136,4406,779.4285714285714,716.1285683768136,4508,779.4285714285714,716.1285683768136,4609,779.4285714285714,716.1285683768136,4712,779.4285714285714,716.1285683768136,4813,779.4285714285714,716.1285683768136,4916]","[1464,1464,1000,0,464,""smooth"",""left"",""left"",""good_move"",4275,2810,2455.1,1465,354.9,""smooth"",""left"",""left"",""good_move"",7128,2853,2427.6,4275,425.4,""smooth"",""down"",""down"",""good_move"",13228,6100,2151,10678,399,""smooth"",""down"",""down"",""good_move""]","",""
"2763","","<div style=""width:500px;"">
  <p>What determined the result of this run?</p>
  </div>","58","html-slider-response","25","282774","0.0-5.0-1.3","313","1","2025-08-04 09:20:54","1f75c3e559b7213887762d5229550c2b","178.212.218.13","Mozilla/5.0 (Windows NT 10.0; Win64; x64; rv:141.0) Gecko/20100101 Firefox/141.0","","Firefox","141.0","Windows","10.0","https://app.prolific.com/","pl,en-US;q=0.7,en;q=0.3","5c2b339a85602a00012ffedd","6877631c9844ddd5501205fc","68907af1a5c04427307fdd4e","3","1","5c2b339a85602a00012ffedd","3","1","2025-08-04T09:25:33.180Z","","","","","","","","","","","AttribQ","","50","","","","","","","","","","","","","","","","","","","","","","","","","","","","",""
"1806","","<div style=""width:500px;"">
  <p>How much control did you have over the ball?</p>
  </div>","65","html-slider-response","26","284582","0.0-5.0-2.3","313","1","2025-08-04 09:20:54","1f75c3e559b7213887762d5229550c2b","178.212.218.13","Mozilla/5.0 (Windows NT 10.0; Win64; x64; rv:141.0) Gecko/20100101 Firefox/141.0","","Firefox","141.0","Windows","10.0","https://app.prolific.com/","pl,en-US;q=0.7,en;q=0.3","5c2b339a85602a00012ffedd","6877631c9844ddd5501205fc","68907af1a5c04427307fdd4e","3","1","5c2b339a85602a00012ffedd","3","1","2025-08-04T09:25:34.988Z","","","","","","","","","","","ControlQ","","50","","","","","","","","","","","","","","","","","","","","","","","","","","","","",""
"2414","","<div style=""width:500px;"">
  <p>How would you describe your current emotional state?</p>
  </div>","32","html-slider-response","27","286998","0.0-5.0-3.3","313","1","2025-08-04 09:20:54","1f75c3e559b7213887762d5229550c2b","178.212.218.13","Mozilla/5.0 (Windows NT 10.0; Win64; x64; rv:141.0) Gecko/20100101 Firefox/141.0","","Firefox","141.0","Windows","10.0","https://app.prolific.com/","pl,en-US;q=0.7,en;q=0.3","5c2b339a85602a00012ffedd","6877631c9844ddd5501205fc","68907af1a5c04427307fdd4e","3","1","5c2b339a85602a00012ffedd","3","1","2025-08-04T09:25:37.404Z","","","","","","","","","","","StressQ","","50","","","","","","","","","","","","","","","","","","","","","","","","","","","","",""
"2239","","<div style=""width:500px;"">
  <p>What best describes how you currently feel?</p>
  </div>","36","html-slider-response","28","289239","0.0-5.0-4.3","313","1","2025-08-04 09:20:54","1f75c3e559b7213887762d5229550c2b","178.212.218.13","Mozilla/5.0 (Windows NT 10.0; Win64; x64; rv:141.0) Gecko/20100101 Firefox/141.0","","Firefox","141.0","Windows","10.0","https://app.prolific.com/","pl,en-US;q=0.7,en;q=0.3","5c2b339a85602a00012ffedd","6877631c9844ddd5501205fc","68907af1a5c04427307fdd4e","3","1","5c2b339a85602a00012ffedd","3","1","2025-08-04T09:25:39.645Z","","","","","","","","","","","MotivationQ","","50","","","","","","","","","","","","","","","","","","","","","","","","","","","","",""
"","","","","ctl-task-cpt","29","337372","0.0-5.0-0.4","313","1","2025-08-04 09:20:54","1f75c3e559b7213887762d5229550c2b","178.212.218.13","Mozilla/5.0 (Windows NT 10.0; Win64; x64; rv:141.0) Gecko/20100101 Firefox/141.0","","Firefox","141.0","Windows","10.0","https://app.prolific.com/","pl,en-US;q=0.7,en;q=0.3","5c2b339a85602a00012ffedd","6877631c9844ddd5501205fc","68907af1a5c04427307fdd4e","3","1","5c2b339a85602a00012ffedd","3","1","2025-08-04T09:26:27.778Z","","","","","","","","","","","","","","win-only","1","g1:NE,g2:SW","0.6","5","0","291774","906","5911","45130","1","4","4","6","1","1","1","5","4","0.03787878787878788","1420","3000","275","[""up"",""right""]","{""num_key_presses"":8,""num_perfect"":4,""num_errors"":0,""num_randdir"":4,""num_randdir_good_moves"":2,""num_whilered"":0,""num_whileblue"":0,""num_blue"":5,""num_good_moves"":6}","[567.4285714285714,557.1285683768136,0,567.4285714285714,557.1285683768136,104,567.4285714285714,557.1285683768136,208,567.4285714285714,557.1285683768136,308,567.4285714285714,557.1285683768136,408,567.4285714285714,557.1285683768136,510,515.4285714285714,655.1285683768136,612,496.42857142857144,715.1285683768136,712,495.42857142857144,724.1285683768136,814,611.4285714285714,642.1285683768136,917,812.4285714285714,441.12856837681363,1021,895.4285714285714,268.12856837681363,1124,969.4285714285714,153.12856837681363,1224,1030.4285714285713,111.12856837681362,1326,1053.4285714285713,98.12856837681362,1430,1053.4285714285713,97.12856837681362,1532,1053.4285714285713,97.12856837681362,1632,1287.4285714285713,289.12856837681363,1735,1673.4285714285713,475.12856837681363,1835,1674.4285714285713,474.12856837681363,1938,1674.4285714285713,474.12856837681363,2038,1674.4285714285713,474.12856837681363,2139,1674.4285714285713,474.12856837681363,2241,1674.4285714285713,474.12856837681363,2343,1674.4285714285713,474.12856837681363,2445,1674.4285714285713,474.12856837681363,2547,1674.4285714285713,474.12856837681363,2648,1674.4285714285713,474.12856837681363,2750,1674.4285714285713,474.12856837681363,2853,1674.4285714285713,474.12856837681363,2954,1674.4285714285713,474.12856837681363,3056,1674.4285714285713,474.12856837681363,3157,1674.4285714285713,474.12856837681363,3260,1674.4285714285713,474.12856837681363,3362,1674.4285714285713,474.12856837681363,3463,1674.4285714285713,474.12856837681363,3565,1674.4285714285713,474.12856837681363,3667,1674.4285714285713,474.12856837681363,3769,1674.4285714285713,474.12856837681363,3871,1674.4285714285713,474.12856837681363,3974,1674.4285714285713,474.12856837681363,4079,1674.4285714285713,474.12856837681363,4181,1674.4285714285713,474.12856837681363,4283,1674.4285714285713,474.12856837681363,4385,1674.4285714285713,474.12856837681363,4487,1674.4285714285713,474.12856837681363,4589,1674.4285714285713,474.12856837681363,4691,1674.4285714285713,474.12856837681363,4793,1674.4285714285713,474.12856837681363,4895,1674.4285714285713,474.12856837681363,4998]","[1479,1479,1000,0,479,""oops"",""up"",""right"",""good_move"",11568,10089,2056.2,9105,406.8,""oops"",""up"",""down"",""bad_move"",14805,3236,2784.3,11569,451.7,""smooth"",""up"",""up"",""good_move"",17097,2291,1857,14806,434,""oops"",""up"",""left"",""bad_move"",20369,3272,2906.4,17097,365.6,""smooth"",""up"",""up"",""good_move"",29418,9048,2097.5,26943,377.5,""smooth"",""up"",""up"",""good_move"",32249,2831,2391.6,29418,439.4,""smooth"",""right"",""right"",""good_move"",39116,6866,2972.4,35778,365.6,""oops"",""right"",""right"",""good_move""]","",""
"1804","","<div style=""width:500px;"">
  <p>What determined the result of this run?</p>
  </div>","39","html-slider-response","30","339179","0.0-5.0-1.4","313","1","2025-08-04 09:20:54","1f75c3e559b7213887762d5229550c2b","178.212.218.13","Mozilla/5.0 (Windows NT 10.0; Win64; x64; rv:141.0) Gecko/20100101 Firefox/141.0","","Firefox","141.0","Windows","10.0","https://app.prolific.com/","pl,en-US;q=0.7,en;q=0.3","5c2b339a85602a00012ffedd","6877631c9844ddd5501205fc","68907af1a5c04427307fdd4e","3","1","5c2b339a85602a00012ffedd","3","1","2025-08-04T09:26:29.585Z","","","","","","","","","","","AttribQ","","50","","","","","","","","","","","","","","","","","","","","","","","","","","","","",""
"1483","","<div style=""width:500px;"">
  <p>How much control did you have over the ball?</p>
  </div>","39","html-slider-response","31","340663","0.0-5.0-2.4","313","1","2025-08-04 09:20:54","1f75c3e559b7213887762d5229550c2b","178.212.218.13","Mozilla/5.0 (Windows NT 10.0; Win64; x64; rv:141.0) Gecko/20100101 Firefox/141.0","","Firefox","141.0","Windows","10.0","https://app.prolific.com/","pl,en-US;q=0.7,en;q=0.3","5c2b339a85602a00012ffedd","6877631c9844ddd5501205fc","68907af1a5c04427307fdd4e","3","1","5c2b339a85602a00012ffedd","3","1","2025-08-04T09:26:31.069Z","","","","","","","","","","","ControlQ","","50","","","","","","","","","","","","","","","","","","","","","","","","","","","","",""
"2310","","<div style=""width:500px;"">
  <p>How would you describe your current emotional state?</p>
  </div>","60","html-slider-response","32","342976","0.0-5.0-3.4","313","1","2025-08-04 09:20:54","1f75c3e559b7213887762d5229550c2b","178.212.218.13","Mozilla/5.0 (Windows NT 10.0; Win64; x64; rv:141.0) Gecko/20100101 Firefox/141.0","","Firefox","141.0","Windows","10.0","https://app.prolific.com/","pl,en-US;q=0.7,en;q=0.3","5c2b339a85602a00012ffedd","6877631c9844ddd5501205fc","68907af1a5c04427307fdd4e","3","1","5c2b339a85602a00012ffedd","3","1","2025-08-04T09:26:33.382Z","","","","","","","","","","","StressQ","","50","","","","","","","","","","","","","","","","","","","","","","","","","","","","",""
"2526","","<div style=""width:500px;"">
  <p>What best describes how you currently feel?</p>
  </div>","57","html-slider-response","33","345501","0.0-5.0-4.4","313","1","2025-08-04 09:20:54","1f75c3e559b7213887762d5229550c2b","178.212.218.13","Mozilla/5.0 (Windows NT 10.0; Win64; x64; rv:141.0) Gecko/20100101 Firefox/141.0","","Firefox","141.0","Windows","10.0","https://app.prolific.com/","pl,en-US;q=0.7,en;q=0.3","5c2b339a85602a00012ffedd","6877631c9844ddd5501205fc","68907af1a5c04427307fdd4e","3","1","5c2b339a85602a00012ffedd","3","1","2025-08-04T09:26:35.907Z","","","","","","","","","","","MotivationQ","","50","","","","","","","","","","","","","","","","","","","","","","","","","","","","",""
"","","","","ctl-task-cpt","34","367143","0.0-5.0-0.5","313","1","2025-08-04 09:20:54","1f75c3e559b7213887762d5229550c2b","178.212.218.13","Mozilla/5.0 (Windows NT 10.0; Win64; x64; rv:141.0) Gecko/20100101 Firefox/141.0","","Firefox","141.0","Windows","10.0","https://app.prolific.com/","pl,en-US;q=0.7,en;q=0.3","5c2b339a85602a00012ffedd","6877631c9844ddd5501205fc","68907af1a5c04427307fdd4e","3","1","5c2b339a85602a00012ffedd","3","1","2025-08-04T09:26:57.549Z","","","","","","","","","","","","","","win-only","0","g1:NW,g2:SE","0.5","6","0","348037","731","5734","18638","1","4","8","6","1","1","1","6","5","0.045454545454545456","1794","3000","1605","[""left"",""up""]","{""num_key_presses"":4,""num_perfect"":4,""num_errors"":0,""num_randdir"":0,""num_randdir_good_moves"":0,""num_whilered"":0,""num_whileblue"":0,""num_blue"":1,""num_good_moves"":4}","[565.4285714285714,552.1285683768136,0,565.4285714285714,552.1285683768136,100,565.4285714285714,552.1285683768136,203,565.4285714285714,552.1285683768136,304,565.4285714285714,552.1285683768136,405,565.4285714285714,552.1285683768136,508,565.4285714285714,552.1285683768136,609,565.4285714285714,552.1285683768136,711,565.4285714285714,552.1285683768136,813,561.4285714285714,547.1285683768136,913,244.42857142857144,260.12856837681363,1013,178.42857142857144,172.12856837681363,1115,167.42857142857144,159.12856837681363,1217,164.42857142857144,156.12856837681363,1319,156.42857142857144,153.12856837681363,1422,137.42857142857144,144.12856837681363,1523,134.42857142857144,141.12856837681363,1625,134.42857142857144,141.12856837681363,1727,133.42857142857144,141.12856837681363,1829,133.42857142857144,141.12856837681363,1934,133.42857142857144,141.12856837681363,2040,133.42857142857144,141.12856837681363,2142,133.42857142857144,141.12856837681363,2242,133.42857142857144,141.12856837681363,2346,133.42857142857144,141.12856837681363,2448,-12.57142857142857,113.12856837681362,2550,-239.57142857142856,166.12856837681363,2653,-268.57142857142856,175.12856837681363,2755,-268.57142857142856,175.12856837681363,2856,-268.57142857142856,175.12856837681363,2957,-268.57142857142856,175.12856837681363,3060,-268.57142857142856,175.12856837681363,3165,-268.57142857142856,175.12856837681363,3270,-268.57142857142856,175.12856837681363,3372,-268.57142857142856,175.12856837681363,3474,-268.57142857142856,175.12856837681363,3576,-268.57142857142856,175.12856837681363,3678,-268.57142857142856,175.12856837681363,3779,-268.57142857142856,175.12856837681363,3882,-268.57142857142856,175.12856837681363,3983,-268.57142857142856,175.12856837681363,4087,-268.57142857142856,175.12856837681363,4188,-268.57142857142856,175.12856837681363,4289,-268.57142857142856,175.12856837681363,4393,-268.57142857142856,175.12856837681363,4496,-268.57142857142856,175.12856837681363,4599,-268.57142857142856,175.12856837681363,4701,-268.57142857142856,175.12856837681363,4806,-268.57142857142856,175.12856837681363,4907]","[5282,5282,2781.9,2006,494.1,""smooth"",""up"",""up"",""good_move"",7506,2224,1765.7,5282,458.3,""smooth"",""up"",""up"",""good_move"",10153,2647,2232.4,7506,414.6,""smooth"",""left"",""left"",""good_move"",12800,2647,2243.2,10153,403.8,""smooth"",""left"",""left"",""good_move""]","",""
"2537","","<div style=""width:500px;"">
  <p>What determined the result of this run?</p>
  </div>","58","html-slider-response","35","369681","0.0-5.0-1.5","313","1","2025-08-04 09:20:54","1f75c3e559b7213887762d5229550c2b","178.212.218.13","Mozilla/5.0 (Windows NT 10.0; Win64; x64; rv:141.0) Gecko/20100101 Firefox/141.0","","Firefox","141.0","Windows","10.0","https://app.prolific.com/","pl,en-US;q=0.7,en;q=0.3","5c2b339a85602a00012ffedd","6877631c9844ddd5501205fc","68907af1a5c04427307fdd4e","3","1","5c2b339a85602a00012ffedd","3","1","2025-08-04T09:27:00.087Z","","","","","","","","","","","AttribQ","","50","","","","","","","","","","","","","","","","","","","","","","","","","","","","",""
"1033","","<div style=""width:500px;"">
  <p>How much control did you have over the ball?</p>
  </div>","60","html-slider-response","36","370715","0.0-5.0-2.5","313","1","2025-08-04 09:20:54","1f75c3e559b7213887762d5229550c2b","178.212.218.13","Mozilla/5.0 (Windows NT 10.0; Win64; x64; rv:141.0) Gecko/20100101 Firefox/141.0","","Firefox","141.0","Windows","10.0","https://app.prolific.com/","pl,en-US;q=0.7,en;q=0.3","5c2b339a85602a00012ffedd","6877631c9844ddd5501205fc","68907af1a5c04427307fdd4e","3","1","5c2b339a85602a00012ffedd","3","1","2025-08-04T09:27:01.121Z","","","","","","","","","","","ControlQ","","50","","","","","","","","","","","","","","","","","","","","","","","","","","","","",""
"2319","","<div style=""width:500px;"">
  <p>How would you describe your current emotional state?</p>
  </div>","41","html-slider-response","37","373034","0.0-5.0-3.5","313","1","2025-08-04 09:20:54","1f75c3e559b7213887762d5229550c2b","178.212.218.13","Mozilla/5.0 (Windows NT 10.0; Win64; x64; rv:141.0) Gecko/20100101 Firefox/141.0","","Firefox","141.0","Windows","10.0","https://app.prolific.com/","pl,en-US;q=0.7,en;q=0.3","5c2b339a85602a00012ffedd","6877631c9844ddd5501205fc","68907af1a5c04427307fdd4e","3","1","5c2b339a85602a00012ffedd","3","1","2025-08-04T09:27:03.440Z","","","","","","","","","","","StressQ","","50","","","","","","","","","","","","","","","","","","","","","","","","","","","","",""
"2172","","<div style=""width:500px;"">
  <p>What best describes how you currently feel?</p>
  </div>","42","html-slider-response","38","375208","0.0-5.0-4.5","313","1","2025-08-04 09:20:54","1f75c3e559b7213887762d5229550c2b","178.212.218.13","Mozilla/5.0 (Windows NT 10.0; Win64; x64; rv:141.0) Gecko/20100101 Firefox/141.0","","Firefox","141.0","Windows","10.0","https://app.prolific.com/","pl,en-US;q=0.7,en;q=0.3","5c2b339a85602a00012ffedd","6877631c9844ddd5501205fc","68907af1a5c04427307fdd4e","3","1","5c2b339a85602a00012ffedd","3","1","2025-08-04T09:27:05.614Z","","","","","","","","","","","MotivationQ","","50","","","","","","","","","","","","","","","","","","","","","","","","","","","","",""
"","","","","ctl-task-cpt","39","403921","0.0-5.0-0.6","313","1","2025-08-04 09:20:54","1f75c3e559b7213887762d5229550c2b","178.212.218.13","Mozilla/5.0 (Windows NT 10.0; Win64; x64; rv:141.0) Gecko/20100101 Firefox/141.0","","Firefox","141.0","Windows","10.0","https://app.prolific.com/","pl,en-US;q=0.7,en;q=0.3","5c2b339a85602a00012ffedd","6877631c9844ddd5501205fc","68907af1a5c04427307fdd4e","3","1","5c2b339a85602a00012ffedd","3","1","2025-08-04T09:27:34.328Z","","","","","","","","","","","","","","win-only","3","g1:SW,g2:NE","0.4","7","0","377744","790","5796","25710","1","4","8","6","1","-1","-1","5","6","0.03787878787878788","1025","3000","-2500","[""down"",""left""]","{""num_key_presses"":5,""num_perfect"":2,""num_errors"":0,""num_randdir"":3,""num_randdir_good_moves"":1,""num_whilered"":0,""num_whileblue"":0,""num_blue"":1,""num_good_moves"":3}","[552.4285714285714,545.1285683768136,1,552.4285714285714,545.1285683768136,107,552.4285714285714,545.1285683768136,210,552.4285714285714,545.1285683768136,314,552.4285714285714,545.1285683768136,416,552.4285714285714,546.1285683768136,520,363.42857142857144,853.1285683768136,620,264.42857142857144,966.1285683768136,724,107.42857142857143,1044.1285683768135,828,99.42857142857143,998.1285683768136,929,96.42857142857143,985.1285683768136,1030,96.42857142857143,985.1285683768136,1132,95.42857142857143,985.1285683768136,1233,-102.57142857142857,926.1285683768136,1333,-275.57142857142856,839.1285683768136,1436,-311.57142857142856,834.1285683768136,1537,-311.57142857142856,834.1285683768136,1637,-311.57142857142856,834.1285683768136,1740,-311.57142857142856,834.1285683768136,1840,-311.57142857142856,834.1285683768136,1942,-311.57142857142856,834.1285683768136,2044,-311.57142857142856,834.1285683768136,2149,-311.57142857142856,834.1285683768136,2252,-311.57142857142856,834.1285683768136,2354,-311.57142857142856,834.1285683768136,2456,-311.57142857142856,834.1285683768136,2557,-311.57142857142856,834.1285683768136,2662,-311.57142857142856,834.1285683768136,2764,-311.57142857142856,834.1285683768136,2867,-311.57142857142856,834.1285683768136,2970,-311.57142857142856,834.1285683768136,3073,-311.57142857142856,834.1285683768136,3175,-311.57142857142856,834.1285683768136,3280,-311.57142857142856,834.1285683768136,3382,-311.57142857142856,834.1285683768136,3483,-311.57142857142856,834.1285683768136,3587,-311.57142857142856,834.1285683768136,3691,-311.57142857142856,834.1285683768136,3796,-311.57142857142856,834.1285683768136,3898,-311.57142857142856,834.1285683768136,3999,-311.57142857142856,834.1285683768136,4102,-311.57142857142856,834.1285683768136,4202,-311.57142857142856,834.1285683768136,4305,-311.57142857142856,834.1285683768136,4406,-311.57142857142856,834.1285683768136,4508,-311.57142857142856,834.1285683768136,4610,-311.57142857142856,834.1285683768136,4712,-311.57142857142856,834.1285683768136,4815,-311.57142857142856,834.1285683768136,4916]","[1498,1498,1000,0,498,""oops"",""left"",""up"",""bad_move"",8936,7438,2902.4,4547,1486.6,""oops"",""left"",""down"",""good_move"",12022,3085,2746.8,8937,338.2,""smooth"",""left"",""left"",""good_move"",14431,2409,2008.9,12022,400.1,""oops"",""left"",""right"",""bad_move"",17413,2982,2365.9,14431,616.1,""smooth"",""left"",""left"",""good_move""]","",""
"12473","","<div style=""width:500px;"">
  <p>What determined the result of this run?</p>
  </div>","22","html-slider-response","40","416397","0.0-5.0-1.6","313","1","2025-08-04 09:20:54","1f75c3e559b7213887762d5229550c2b","178.212.218.13","Mozilla/5.0 (Windows NT 10.0; Win64; x64; rv:141.0) Gecko/20100101 Firefox/141.0","","Firefox","141.0","Windows","10.0","https://app.prolific.com/","pl,en-US;q=0.7,en;q=0.3","5c2b339a85602a00012ffedd","6877631c9844ddd5501205fc","68907af1a5c04427307fdd4e","3","1","5c2b339a85602a00012ffedd","3","1","2025-08-04T09:27:46.804Z","","","","","","","","","","","AttribQ","","50","","","","","","","","","","","","","","","","","","","","","","","","","","","","",""
"1783","","<div style=""width:500px;"">
  <p>How much control did you have over the ball?</p>
  </div>","13","html-slider-response","41","418183","0.0-5.0-2.6","313","1","2025-08-04 09:20:54","1f75c3e559b7213887762d5229550c2b","178.212.218.13","Mozilla/5.0 (Windows NT 10.0; Win64; x64; rv:141.0) Gecko/20100101 Firefox/141.0","","Firefox","141.0","Windows","10.0","https://app.prolific.com/","pl,en-US;q=0.7,en;q=0.3","5c2b339a85602a00012ffedd","6877631c9844ddd5501205fc","68907af1a5c04427307fdd4e","3","1","5c2b339a85602a00012ffedd","3","1","2025-08-04T09:27:48.589Z","","","","","","","","","","","ControlQ","","50","","","","","","","","","","","","","","","","","","","","","","","","","","","","",""
"2350","","<div style=""width:500px;"">
  <p>How would you describe your current emotional state?</p>
  </div>","59","html-slider-response","42","420535","0.0-5.0-3.6","313","1","2025-08-04 09:20:54","1f75c3e559b7213887762d5229550c2b","178.212.218.13","Mozilla/5.0 (Windows NT 10.0; Win64; x64; rv:141.0) Gecko/20100101 Firefox/141.0","","Firefox","141.0","Windows","10.0","https://app.prolific.com/","pl,en-US;q=0.7,en;q=0.3","5c2b339a85602a00012ffedd","6877631c9844ddd5501205fc","68907af1a5c04427307fdd4e","3","1","5c2b339a85602a00012ffedd","3","1","2025-08-04T09:27:50.941Z","","","","","","","","","","","StressQ","","50","","","","","","","","","","","","","","","","","","","","","","","","","","","","",""
"5330","","<div style=""width:500px;"">
  <p>What best describes how you currently feel?</p>
  </div>","42","html-slider-response","43","425867","0.0-5.0-4.6","313","1","2025-08-04 09:20:54","1f75c3e559b7213887762d5229550c2b","178.212.218.13","Mozilla/5.0 (Windows NT 10.0; Win64; x64; rv:141.0) Gecko/20100101 Firefox/141.0","","Firefox","141.0","Windows","10.0","https://app.prolific.com/","pl,en-US;q=0.7,en;q=0.3","5c2b339a85602a00012ffedd","6877631c9844ddd5501205fc","68907af1a5c04427307fdd4e","3","1","5c2b339a85602a00012ffedd","3","1","2025-08-04T09:27:56.273Z","","","","","","","","","","","MotivationQ","","50","","","","","","","","","","","","","","","","","","","","","","","","","","","","",""
"","","","","ctl-task-cpt","44","445615","0.0-5.0-0.7","313","1","2025-08-04 09:20:54","1f75c3e559b7213887762d5229550c2b","178.212.218.13","Mozilla/5.0 (Windows NT 10.0; Win64; x64; rv:141.0) Gecko/20100101 Firefox/141.0","","Firefox","141.0","Windows","10.0","https://app.prolific.com/","pl,en-US;q=0.7,en;q=0.3","5c2b339a85602a00012ffedd","6877631c9844ddd5501205fc","68907af1a5c04427307fdd4e","3","1","5c2b339a85602a00012ffedd","3","1","2025-08-04T09:28:16.021Z","","","","","","","","","","","","","","win-only","1","g1:NE,g2:SW","0.3","8","0","428401","841","5847","16746","1","4","4","6","1","1","1","6","5","0.045454545454545456","1012","3000","1335","[""up"",""right""]","{""num_key_presses"":4,""num_perfect"":2,""num_errors"":0,""num_randdir"":2,""num_randdir_good_moves"":2,""num_whilered"":0,""num_whileblue"":0,""num_blue"":0,""num_good_moves"":4}","[552.4285714285714,558.1285683768136,0,552.4285714285714,557.1285683768136,104,552.4285714285714,557.1285683768136,204,552.4285714285714,557.1285683768136,305,552.4285714285714,557.1285683768136,407,552.4285714285714,557.1285683768136,509,553.4285714285714,557.1285683768136,612,917.4285714285714,332.12856837681363,712,1016.4285714285714,215.12856837681363,814,1052.4285714285713,122.12856837681362,916,1039.4285714285713,113.12856837681362,1018,1039.4285714285713,111.12856837681362,1119,1039.4285714285713,111.12856837681362,1220,1039.4285714285713,111.12856837681362,1322,1039.4285714285713,111.12856837681362,1422,1039.4285714285713,111.12856837681362,1525,1039.4285714285713,111.12856837681362,1626,1039.4285714285713,111.12856837681362,1728,1039.4285714285713,111.12856837681362,1831,1039.4285714285713,112.12856837681362,1932,1039.4285714285713,112.12856837681362,2034,1039.4285714285713,112.12856837681362,2136,1039.4285714285713,112.12856837681362,2236,1039.4285714285713,112.12856837681362,2338,1039.4285714285713,112.12856837681362,2441,1039.4285714285713,112.12856837681362,2542,1039.4285714285713,112.12856837681362,2644,1039.4285714285713,112.12856837681362,2747,1039.4285714285713,112.12856837681362,2851,1039.4285714285713,112.12856837681362,2952,1039.4285714285713,112.12856837681362,3054,1039.4285714285713,112.12856837681362,3157,1039.4285714285713,112.12856837681362,3258,1039.4285714285713,112.12856837681362,3362,1039.4285714285713,112.12856837681362,3464,1039.4285714285713,112.12856837681362,3568,1039.4285714285713,112.12856837681362,3670,1039.4285714285713,112.12856837681362,3772,1039.4285714285713,112.12856837681362,3874,1039.4285714285713,112.12856837681362,3977,1039.4285714285713,112.12856837681362,4078,1039.4285714285713,112.12856837681362,4183,1039.4285714285713,112.12856837681362,4287,1039.4285714285713,112.12856837681362,4389,1039.4285714285713,112.12856837681362,4490,1039.4285714285713,112.12856837681362,4592,1039.4285714285713,112.12856837681362,4694,1039.4285714285713,112.12856837681362,4796,1039.4285714285713,112.12856837681362,4897,1039.4285714285713,112.12856837681362,5000]","[1535,1535,1000,0,535,""oops"",""up"",""up"",""good_move"",4445,2910,2450.5,1535,459.5,""smooth"",""up"",""up"",""good_move"",7575,3130,2622,4445,508,""smooth"",""right"",""right"",""good_move"",10794,3219,2704.6,7575,514.4,""oops"",""right"",""right"",""good_move""]","",""
"2702","","<div style=""width:500px;"">
  <p>What determined the result of this run?</p>
  </div>","71","html-slider-response","45","448318","0.0-5.0-1.7","313","1","2025-08-04 09:20:54","1f75c3e559b7213887762d5229550c2b","178.212.218.13","Mozilla/5.0 (Windows NT 10.0; Win64; x64; rv:141.0) Gecko/20100101 Firefox/141.0","","Firefox","141.0","Windows","10.0","https://app.prolific.com/","pl,en-US;q=0.7,en;q=0.3","5c2b339a85602a00012ffedd","6877631c9844ddd5501205fc","68907af1a5c04427307fdd4e","3","1","5c2b339a85602a00012ffedd","3","1","2025-08-04T09:28:18.724Z","","","","","","","","","","","AttribQ","","50","","","","","","","","","","","","","","","","","","","","","","","","","","","","",""
"1141","","<div style=""width:500px;"">
  <p>How much control did you have over the ball?</p>
  </div>","66","html-slider-response","46","449460","0.0-5.0-2.7","313","1","2025-08-04 09:20:54","1f75c3e559b7213887762d5229550c2b","178.212.218.13","Mozilla/5.0 (Windows NT 10.0; Win64; x64; rv:141.0) Gecko/20100101 Firefox/141.0","","Firefox","141.0","Windows","10.0","https://app.prolific.com/","pl,en-US;q=0.7,en;q=0.3","5c2b339a85602a00012ffedd","6877631c9844ddd5501205fc","68907af1a5c04427307fdd4e","3","1","5c2b339a85602a00012ffedd","3","1","2025-08-04T09:28:19.866Z","","","","","","","","","","","ControlQ","","50","","","","","","","","","","","","","","","","","","","","","","","","","","","","",""
"2224","","<div style=""width:500px;"">
  <p>How would you describe your current emotional state?</p>
  </div>","45","html-slider-response","47","451685","0.0-5.0-3.7","313","1","2025-08-04 09:20:54","1f75c3e559b7213887762d5229550c2b","178.212.218.13","Mozilla/5.0 (Windows NT 10.0; Win64; x64; rv:141.0) Gecko/20100101 Firefox/141.0","","Firefox","141.0","Windows","10.0","https://app.prolific.com/","pl,en-US;q=0.7,en;q=0.3","5c2b339a85602a00012ffedd","6877631c9844ddd5501205fc","68907af1a5c04427307fdd4e","3","1","5c2b339a85602a00012ffedd","3","1","2025-08-04T09:28:22.091Z","","","","","","","","","","","StressQ","","50","","","","","","","","","","","","","","","","","","","","","","","","","","","","",""
"2022","","<div style=""width:500px;"">
  <p>What best describes how you currently feel?</p>
  </div>","57","html-slider-response","48","453708","0.0-5.0-4.7","313","1","2025-08-04 09:20:54","1f75c3e559b7213887762d5229550c2b","178.212.218.13","Mozilla/5.0 (Windows NT 10.0; Win64; x64; rv:141.0) Gecko/20100101 Firefox/141.0","","Firefox","141.0","Windows","10.0","https://app.prolific.com/","pl,en-US;q=0.7,en;q=0.3","5c2b339a85602a00012ffedd","6877631c9844ddd5501205fc","68907af1a5c04427307fdd4e","3","1","5c2b339a85602a00012ffedd","3","1","2025-08-04T09:28:24.114Z","","","","","","","","","","","MotivationQ","","50","","","","","","","","","","","","","","","","","","","","","","","","","","","","",""
"","","","","ctl-task-cpt","49","488340","0.0-5.0-0.8","313","1","2025-08-04 09:20:54","1f75c3e559b7213887762d5229550c2b","178.212.218.13","Mozilla/5.0 (Windows NT 10.0; Win64; x64; rv:141.0) Gecko/20100101 Firefox/141.0","","Firefox","141.0","Windows","10.0","https://app.prolific.com/","pl,en-US;q=0.7,en;q=0.3","5c2b339a85602a00012ffedd","6877631c9844ddd5501205fc","68907af1a5c04427307fdd4e","3","1","5c2b339a85602a00012ffedd","3","1","2025-08-04T09:28:58.746Z","","","","","","","","","","","","","","win-only","1","g1:NE,g2:SW","0.2","9","0","456244","702","5703","31628","1","4","4","6","1","-1","-1","5","6","0.03787878787878788","1017","3000","-2490","[""up"",""right""]","{""num_key_presses"":7,""num_perfect"":2,""num_errors"":0,""num_randdir"":5,""num_randdir_good_moves"":0,""num_whilered"":0,""num_whileblue"":0,""num_blue"":1,""num_good_moves"":2}","[549.4285714285714,545.1285683768136,0,549.4285714285714,545.1285683768136,104,549.4285714285714,545.1285683768136,207,549.4285714285714,545.1285683768136,311,549.4285714285714,545.1285683768136,414,549.4285714285714,545.1285683768136,515,625.4285714285714,503.12856837681363,620,1035.4285714285713,175.12856837681363,724,1078.4285714285713,93.12856837681362,828,1067.4285714285713,82.12856837681362,929,1060.4285714285713,79.12856837681362,1034,1060.4285714285713,79.12856837681362,1138,1060.4285714285713,79.12856837681362,1238,1060.4285714285713,79.12856837681362,1340,1060.4285714285713,79.12856837681362,1441,1060.4285714285713,79.12856837681362,1543,1060.4285714285713,79.12856837681362,1645,1060.4285714285713,79.12856837681362,1748,1060.4285714285713,79.12856837681362,1849,1060.4285714285713,79.12856837681362,1951,1060.4285714285713,79.12856837681362,2053,1060.4285714285713,79.12856837681362,2154,1060.4285714285713,79.12856837681362,2255,1060.4285714285713,79.12856837681362,2359,1060.4285714285713,79.12856837681362,2462,1060.4285714285713,79.12856837681362,2565,1060.4285714285713,79.12856837681362,2667,1060.4285714285713,79.12856837681362,2767,1060.4285714285713,79.12856837681362,2869,1060.4285714285713,79.12856837681362,2972,1060.4285714285713,79.12856837681362,3072,1060.4285714285713,79.12856837681362,3174,1060.4285714285713,79.12856837681362,3275,1060.4285714285713,79.12856837681362,3377,1060.4285714285713,79.12856837681362,3479,1060.4285714285713,79.12856837681362,3581,1060.4285714285713,79.12856837681362,3683,1060.4285714285713,79.12856837681362,3787,1060.4285714285713,79.12856837681362,3889,1060.4285714285713,79.12856837681362,3989,1060.4285714285713,79.12856837681362,4094,1060.4285714285713,79.12856837681362,4197,1060.4285714285713,79.12856837681362,4299,1060.4285714285713,79.12856837681362,4400,1060.4285714285713,79.12856837681362,4503,1060.4285714285713,79.12856837681362,4604,1060.4285714285713,79.12856837681362,4707,1060.4285714285713,79.12856837681362,4809,1060.4285714285713,79.12856837681362,4910]","[1429,1429,1000,0,429,""smooth"",""up"",""up"",""good_move"",4128,2699,2351.6,1429,347.4,""oops"",""up"",""down"",""bad_move"",6844,2716,2272.5,4128,443.5,""oops"",""up"",""down"",""bad_move"",10047,3203,2802.6,6844,400.4,""oops"",""up"",""down"",""bad_move"",15912,5864,2256.1,13296,359.9,""smooth"",""up"",""up"",""good_move"",18992,3080,2679.6,15912,400.4,""oops"",""up"",""left"",""bad_move"",22638,3646,3170.6,18992,475.4,""oops"",""up"",""down"",""bad_move""]","",""
"2073","","<div style=""width:500px;"">
  <p>What determined the result of this run?</p>
  </div>","0","html-slider-response","50","490416","0.0-5.0-1.8","313","1","2025-08-04 09:20:54","1f75c3e559b7213887762d5229550c2b","178.212.218.13","Mozilla/5.0 (Windows NT 10.0; Win64; x64; rv:141.0) Gecko/20100101 Firefox/141.0","","Firefox","141.0","Windows","10.0","https://app.prolific.com/","pl,en-US;q=0.7,en;q=0.3","5c2b339a85602a00012ffedd","6877631c9844ddd5501205fc","68907af1a5c04427307fdd4e","3","1","5c2b339a85602a00012ffedd","3","1","2025-08-04T09:29:00.823Z","","","","","","","","","","","AttribQ","","50","","","","","","","","","","","","","","","","","","","","","","","","","","","","",""
"1782","","<div style=""width:500px;"">
  <p>How much control did you have over the ball?</p>
  </div>","0","html-slider-response","51","492200","0.0-5.0-2.8","313","1","2025-08-04 09:20:54","1f75c3e559b7213887762d5229550c2b","178.212.218.13","Mozilla/5.0 (Windows NT 10.0; Win64; x64; rv:141.0) Gecko/20100101 Firefox/141.0","","Firefox","141.0","Windows","10.0","https://app.prolific.com/","pl,en-US;q=0.7,en;q=0.3","5c2b339a85602a00012ffedd","6877631c9844ddd5501205fc","68907af1a5c04427307fdd4e","3","1","5c2b339a85602a00012ffedd","3","1","2025-08-04T09:29:02.606Z","","","","","","","","","","","ControlQ","","50","","","","","","","","","","","","","","","","","","","","","","","","","","","","",""
"2432","","<div style=""width:500px;"">
  <p>How would you describe your current emotional state?</p>
  </div>","77","html-slider-response","52","494632","0.0-5.0-3.8","313","1","2025-08-04 09:20:54","1f75c3e559b7213887762d5229550c2b","178.212.218.13","Mozilla/5.0 (Windows NT 10.0; Win64; x64; rv:141.0) Gecko/20100101 Firefox/141.0","","Firefox","141.0","Windows","10.0","https://app.prolific.com/","pl,en-US;q=0.7,en;q=0.3","5c2b339a85602a00012ffedd","6877631c9844ddd5501205fc","68907af1a5c04427307fdd4e","3","1","5c2b339a85602a00012ffedd","3","1","2025-08-04T09:29:05.038Z","","","","","","","","","","","StressQ","","50","","","","","","","","","","","","","","","","","","","","","","","","","","","","",""
"1996","","<div style=""width:500px;"">
  <p>What best describes how you currently feel?</p>
  </div>","22","html-slider-response","53","496630","0.0-5.0-4.8","313","1","2025-08-04 09:20:54","1f75c3e559b7213887762d5229550c2b","178.212.218.13","Mozilla/5.0 (Windows NT 10.0; Win64; x64; rv:141.0) Gecko/20100101 Firefox/141.0","","Firefox","141.0","Windows","10.0","https://app.prolific.com/","pl,en-US;q=0.7,en;q=0.3","5c2b339a85602a00012ffedd","6877631c9844ddd5501205fc","68907af1a5c04427307fdd4e","3","1","5c2b339a85602a00012ffedd","3","1","2025-08-04T09:29:07.036Z","","","","","","","","","","","MotivationQ","","50","","","","","","","","","","","","","","","","","","","","","","","","","","","","",""
"","","","","ctl-task-cpt","54","533331","0.0-5.0-0.9","313","1","2025-08-04 09:20:54","1f75c3e559b7213887762d5229550c2b","178.212.218.13","Mozilla/5.0 (Windows NT 10.0; Win64; x64; rv:141.0) Gecko/20100101 Firefox/141.0","","Firefox","141.0","Windows","10.0","https://app.prolific.com/","pl,en-US;q=0.7,en;q=0.3","5c2b339a85602a00012ffedd","6877631c9844ddd5501205fc","68907af1a5c04427307fdd4e","3","1","5c2b339a85602a00012ffedd","3","1","2025-08-04T09:29:43.737Z","","","","","","","","","","","","","","win-only","2","g1:SE,g2:NW","0.4","10","0","499166","2965","7969","33697","1","4","8","6","1","-1","-1","4","5","0.030303030303030304","1791","3000","-2500","[""down"",""right""]","{""num_key_presses"":8,""num_perfect"":4,""num_errors"":0,""num_randdir"":4,""num_randdir_good_moves"":1,""num_whilered"":0,""num_whileblue"":0,""num_blue"":0,""num_good_moves"":5}","[552.4285714285714,564.1285683768136,0,552.4285714285714,564.1285683768136,103,552.4285714285714,564.1285683768136,205,552.4285714285714,564.1285683768136,306,552.4285714285714,564.1285683768136,409,548.4285714285714,590.1285683768136,510,546.4285714285714,625.1285683768136,611,546.4285714285714,642.1285683768136,713,548.4285714285714,667.1285683768136,813,550.4285714285714,679.1285683768136,914,555.4285714285714,695.1285683768136,1017,570.4285714285714,752.1285683768136,1122,617.4285714285714,834.1285683768136,1227,706.4285714285714,894.1285683768136,1331,799.4285714285714,945.1285683768136,1434,872.4285714285714,978.1285683768136,1539,988.4285714285714,1002.1285683768136,1643,1031.4285714285713,1004.1285683768136,1745,1031.4285714285713,1004.1285683768136,1851,1031.4285714285713,1004.1285683768136,1954,1031.4285714285713,1004.1285683768136,2057,1031.4285714285713,1004.1285683768136,2159,1031.4285714285713,1004.1285683768136,2260,1031.4285714285713,1004.1285683768136,2362,1031.4285714285713,1004.1285683768136,2466,1031.4285714285713,1004.1285683768136,2567,1031.4285714285713,1004.1285683768136,2670,1031.4285714285713,1004.1285683768136,2772,1031.4285714285713,1004.1285683768136,2873,1031.4285714285713,1004.1285683768136,2976,1031.4285714285713,1004.1285683768136,3076,1031.4285714285713,1004.1285683768136,3182,1031.4285714285713,1004.1285683768136,3284,1031.4285714285713,1004.1285683768136,3386,1031.4285714285713,1004.1285683768136,3487,1031.4285714285713,1004.1285683768136,3590,1031.4285714285713,1004.1285683768136,3694,1031.4285714285713,1004.1285683768136,3796,1031.4285714285713,1004.1285683768136,3898,1031.4285714285713,1004.1285683768136,4000,1031.4285714285713,1004.1285683768136,4101,1031.4285714285713,1004.1285683768136,4203,1031.4285714285713,1004.1285683768136,4306,1089.4285714285713,870.1285683768136,4406,1488.4285714285713,251.12856837681363,4511,1532.4285714285713,182.12856837681363,4613,1532.4285714285713,182.12856837681363,4714,1532.4285714285713,182.12856837681363,4817,1532.4285714285713,182.12856837681363,4919]","[1499,1499,1000,0,499,""oops"",""down"",""left"",""bad_move"",4965,3466,2911.2,1499,554.8,""oops"",""down"",""left"",""bad_move"",8221,3256,2882.4,4965,373.6,""oops"",""down"",""right"",""good_move"",11948,3726,3350.3,8222,375.7,""oops"",""down"",""left"",""bad_move"",14225,2277,1780.4,11948,496.6,""smooth"",""down"",""down"",""good_move"",16936,2711,2301.6,14225,409.4,""smooth"",""down"",""down"",""good_move"",20437,3501,3094.1,16936,406.9,""smooth"",""right"",""right"",""good_move"",23041,2604,2185.1,20437,418.9,""smooth"",""right"",""right"",""good_move""]","",""
"4445","","<div style=""width:500px;"">
  <p>What determined the result of this run?</p>
  </div>","0","html-slider-response","55","537778","0.0-5.0-1.9","313","1","2025-08-04 09:20:54","1f75c3e559b7213887762d5229550c2b","178.212.218.13","Mozilla/5.0 (Windows NT 10.0; Win64; x64; rv:141.0) Gecko/20100101 Firefox/141.0","","Firefox","141.0","Windows","10.0","https://app.prolific.com/","pl,en-US;q=0.7,en;q=0.3","5c2b339a85602a00012ffedd","6877631c9844ddd5501205fc","68907af1a5c04427307fdd4e","3","1","5c2b339a85602a00012ffedd","3","1","2025-08-04T09:29:48.184Z","","","","","","","","","","","AttribQ","","50","","","","","","","","","","","","","","","","","","","","","","","","","","","","",""
"2116","","<div style=""width:500px;"">
  <p>How much control did you have over the ball?</p>
  </div>","0","html-slider-response","56","539894","0.0-5.0-2.9","313","1","2025-08-04 09:20:54","1f75c3e559b7213887762d5229550c2b","178.212.218.13","Mozilla/5.0 (Windows NT 10.0; Win64; x64; rv:141.0) Gecko/20100101 Firefox/141.0","","Firefox","141.0","Windows","10.0","https://app.prolific.com/","pl,en-US;q=0.7,en;q=0.3","5c2b339a85602a00012ffedd","6877631c9844ddd5501205fc","68907af1a5c04427307fdd4e","3","1","5c2b339a85602a00012ffedd","3","1","2025-08-04T09:29:50.301Z","","","","","","","","","","","ControlQ","","50","","","","","","","","","","","","","","","","","","","","","","","","","","","","",""
"2013","","<div style=""width:500px;"">
  <p>How would you describe your current emotional state?</p>
  </div>","77","html-slider-response","57","541908","0.0-5.0-3.9","313","1","2025-08-04 09:20:54","1f75c3e559b7213887762d5229550c2b","178.212.218.13","Mozilla/5.0 (Windows NT 10.0; Win64; x64; rv:141.0) Gecko/20100101 Firefox/141.0","","Firefox","141.0","Windows","10.0","https://app.prolific.com/","pl,en-US;q=0.7,en;q=0.3","5c2b339a85602a00012ffedd","6877631c9844ddd5501205fc","68907af1a5c04427307fdd4e","3","1","5c2b339a85602a00012ffedd","3","1","2025-08-04T09:29:52.315Z","","","","","","","","","","","StressQ","","50","","","","","","","","","","","","","","","","","","","","","","","","","","","","",""
"1822","","<div style=""width:500px;"">
  <p>What best describes how you currently feel?</p>
  </div>","33","html-slider-response","58","543733","0.0-5.0-4.9","313","1","2025-08-04 09:20:54","1f75c3e559b7213887762d5229550c2b","178.212.218.13","Mozilla/5.0 (Windows NT 10.0; Win64; x64; rv:141.0) Gecko/20100101 Firefox/141.0","","Firefox","141.0","Windows","10.0","https://app.prolific.com/","pl,en-US;q=0.7,en;q=0.3","5c2b339a85602a00012ffedd","6877631c9844ddd5501205fc","68907af1a5c04427307fdd4e","3","1","5c2b339a85602a00012ffedd","3","1","2025-08-04T09:29:54.139Z","","","","","","","","","","","MotivationQ","","50","","","","","","","","","","","","","","","","","","","","","","","","","","","","",""
"","","","","ctl-task-cpt","59","571907","0.0-5.0-0.10","313","1","2025-08-04 09:20:54","1f75c3e559b7213887762d5229550c2b","178.212.218.13","Mozilla/5.0 (Windows NT 10.0; Win64; x64; rv:141.0) Gecko/20100101 Firefox/141.0","","Firefox","141.0","Windows","10.0","https://app.prolific.com/","pl,en-US;q=0.7,en;q=0.3","5c2b339a85602a00012ffedd","6877631c9844ddd5501205fc","68907af1a5c04427307fdd4e","3","1","5c2b339a85602a00012ffedd","3","1","2025-08-04T09:30:22.313Z","","","","","","","","","","","","","","win-only","2","g1:SE,g2:NW","0.5","11","0","546270","628","5629","25168","1","4","4","6","1","1","1","5","4","0.03787878787878788","1193","3000","980","[""down"",""right""]","{""num_key_presses"":6,""num_perfect"":3,""num_errors"":0,""num_randdir"":3,""num_randdir_good_moves"":2,""num_whilered"":0,""num_whileblue"":0,""num_blue"":1,""num_good_moves"":5}","[556.4285714285714,559.1285683768136,0,556.4285714285714,559.1285683768136,105,556.4285714285714,559.1285683768136,207,556.4285714285714,559.1285683768136,312,556.4285714285714,559.1285683768136,414,556.4285714285714,559.1285683768136,515,556.4285714285714,559.1285683768136,617,556.4285714285714,559.1285683768136,719,559.4285714285714,559.1285683768136,821,894.4285714285714,976.1285683768136,924,950.4285714285714,1014.1285683768136,1025,958.4285714285714,1014.1285683768136,1127,974.4285714285714,1013.1285683768136,1227,974.4285714285714,1013.1285683768136,1327,974.4285714285714,1013.1285683768136,1429,974.4285714285714,1013.1285683768136,1530,974.4285714285714,1013.1285683768136,1632,974.4285714285714,1013.1285683768136,1736,974.4285714285714,1013.1285683768136,1837,974.4285714285714,1013.1285683768136,1939,974.4285714285714,1013.1285683768136,2041,974.4285714285714,1013.1285683768136,2147,974.4285714285714,1013.1285683768136,2248,974.4285714285714,1013.1285683768136,2351,974.4285714285714,1013.1285683768136,2453,974.4285714285714,1013.1285683768136,2555,974.4285714285714,1013.1285683768136,2657,974.4285714285714,1013.1285683768136,2759,974.4285714285714,1013.1285683768136,2862,974.4285714285714,1013.1285683768136,2963,1016.4285714285714,955.1285683768136,3064,1339.4285714285713,644.1285683768136,3166,1381.4285714285713,600.1285683768136,3266,1381.4285714285713,600.1285683768136,3368,1381.4285714285713,600.1285683768136,3470,1381.4285714285713,600.1285683768136,3571,1381.4285714285713,600.1285683768136,3674,1381.4285714285713,600.1285683768136,3775,1381.4285714285713,600.1285683768136,3877,1381.4285714285713,600.1285683768136,3979,1381.4285714285713,600.1285683768136,4081,1381.4285714285713,600.1285683768136,4185,1381.4285714285713,600.1285683768136,4288,1381.4285714285713,600.1285683768136,4391,1381.4285714285713,600.1285683768136,4491,1381.4285714285713,600.1285683768136,4592,1381.4285714285713,600.1285683768136,4695,1381.4285714285713,600.1285683768136,4796,1381.4285714285713,600.1285683768136,4899]","[4536,4536,2115,2006,415,""oops"",""right"",""down"",""good_move"",8052,3516,3079.5,4536,436.5,""oops"",""right"",""up"",""bad_move"",11400,3348,2957.7,8052,390.3,""smooth"",""right"",""right"",""good_move"",14248,2848,2421,11400,427,""oops"",""right"",""down"",""good_move"",16539,2291,1873.1,14248,417.9,""smooth"",""right"",""right"",""good_move"",19437,2898,2535.1,16539,362.9,""smooth"",""down"",""down"",""good_move""]","",""
"23031","","<div style=""width:500px;"">
  <p>What determined the result of this run?</p>
  </div>","73","html-slider-response","60","594940","0.0-5.0-1.10","313","1","2025-08-04 09:20:54","1f75c3e559b7213887762d5229550c2b","178.212.218.13","Mozilla/5.0 (Windows NT 10.0; Win64; x64; rv:141.0) Gecko/20100101 Firefox/141.0","","Firefox","141.0","Windows","10.0","https://app.prolific.com/","pl,en-US;q=0.7,en;q=0.3","5c2b339a85602a00012ffedd","6877631c9844ddd5501205fc","68907af1a5c04427307fdd4e","3","1","5c2b339a85602a00012ffedd","3","1","2025-08-04T09:30:45.346Z","","","","","","","","","","","AttribQ","","50","","","","","","","","","","","","","","","","","","","","","","","","","","","","",""
"1232","","<div style=""width:500px;"">
  <p>How much control did you have over the ball?</p>
  </div>","73","html-slider-response","61","596173","0.0-5.0-2.10","313","1","2025-08-04 09:20:54","1f75c3e559b7213887762d5229550c2b","178.212.218.13","Mozilla/5.0 (Windows NT 10.0; Win64; x64; rv:141.0) Gecko/20100101 Firefox/141.0","","Firefox","141.0","Windows","10.0","https://app.prolific.com/","pl,en-US;q=0.7,en;q=0.3","5c2b339a85602a00012ffedd","6877631c9844ddd5501205fc","68907af1a5c04427307fdd4e","3","1","5c2b339a85602a00012ffedd","3","1","2025-08-04T09:30:46.579Z","","","","","","","","","","","ControlQ","","50","","","","","","","","","","","","","","","","","","","","","","","","","","","","",""
"1612","","<div style=""width:500px;"">
  <p>How would you describe your current emotional state?</p>
  </div>","29","html-slider-response","62","597785","0.0-5.0-3.10","313","1","2025-08-04 09:20:54","1f75c3e559b7213887762d5229550c2b","178.212.218.13","Mozilla/5.0 (Windows NT 10.0; Win64; x64; rv:141.0) Gecko/20100101 Firefox/141.0","","Firefox","141.0","Windows","10.0","https://app.prolific.com/","pl,en-US;q=0.7,en;q=0.3","5c2b339a85602a00012ffedd","6877631c9844ddd5501205fc","68907af1a5c04427307fdd4e","3","1","5c2b339a85602a00012ffedd","3","1","2025-08-04T09:30:48.191Z","","","","","","","","","","","StressQ","","50","","","","","","","","","","","","","","","","","","","","","","","","","","","","",""
"1164","","<div style=""width:500px;"">
  <p>What best describes how you currently feel?</p>
  </div>","60","html-slider-response","63","598950","0.0-5.0-4.10","313","1","2025-08-04 09:20:54","1f75c3e559b7213887762d5229550c2b","178.212.218.13","Mozilla/5.0 (Windows NT 10.0; Win64; x64; rv:141.0) Gecko/20100101 Firefox/141.0","","Firefox","141.0","Windows","10.0","https://app.prolific.com/","pl,en-US;q=0.7,en;q=0.3","5c2b339a85602a00012ffedd","6877631c9844ddd5501205fc","68907af1a5c04427307fdd4e","3","1","5c2b339a85602a00012ffedd","3","1","2025-08-04T09:30:49.356Z","","","","","","","","","","","MotivationQ","","50","","","","","","","","","","","","","","","","","","","","","","","","","","","","",""
"","","","","ctl-task-cpt","64","630937","0.0-5.0-0.11","313","1","2025-08-04 09:20:54","1f75c3e559b7213887762d5229550c2b","178.212.218.13","Mozilla/5.0 (Windows NT 10.0; Win64; x64; rv:141.0) Gecko/20100101 Firefox/141.0","","Firefox","141.0","Windows","10.0","https://app.prolific.com/","pl,en-US;q=0.7,en;q=0.3","5c2b339a85602a00012ffedd","6877631c9844ddd5501205fc","68907af1a5c04427307fdd4e","3","1","5c2b339a85602a00012ffedd","3","1","2025-08-04T09:31:21.343Z","","","","","","","","","","","","","","win-only","1","g1:NE,g2:SW","0.6","12","0","601485","624","5626","28984","1","4","8","6","1","1","1","6","5","0.045454545454545456","1063","3000","650","[""up"",""right""]","{""num_key_presses"":6,""num_perfect"":3,""num_errors"":0,""num_randdir"":3,""num_randdir_good_moves"":2,""num_whilered"":0,""num_whileblue"":0,""num_blue"":2,""num_good_moves"":5}","[546.4285714285714,555.1285683768136,0,546.4285714285714,555.1285683768136,103,546.4285714285714,555.1285683768136,206,546.4285714285714,555.1285683768136,306,546.4285714285714,555.1285683768136,410,546.4285714285714,555.1285683768136,512,546.4285714285714,555.1285683768136,614,640.4285714285714,504.12856837681363,720,1033.4285714285713,180.12856837681363,822,1035.4285714285713,162.12856837681363,926,1023.4285714285714,104.12856837681362,1026,1023.4285714285714,98.12856837681362,1126,1023.4285714285714,98.12856837681362,1226,1023.4285714285714,98.12856837681362,1327,1023.4285714285714,98.12856837681362,1428,1023.4285714285714,98.12856837681362,1529,1023.4285714285714,98.12856837681362,1634,1023.4285714285714,98.12856837681362,1736,1023.4285714285714,98.12856837681362,1837,1023.4285714285714,98.12856837681362,1939,1023.4285714285714,98.12856837681362,2043,1023.4285714285714,98.12856837681362,2145,1023.4285714285714,98.12856837681362,2247,1023.4285714285714,98.12856837681362,2352,1023.4285714285714,98.12856837681362,2455,1023.4285714285714,98.12856837681362,2559,1023.4285714285714,98.12856837681362,2661,1023.4285714285714,98.12856837681362,2763,1023.4285714285714,98.12856837681362,2865,1023.4285714285714,98.12856837681362,2967,1023.4285714285714,98.12856837681362,3071,1023.4285714285714,98.12856837681362,3173,1023.4285714285714,98.12856837681362,3277,1023.4285714285714,98.12856837681362,3379,1023.4285714285714,98.12856837681362,3482,1023.4285714285714,98.12856837681362,3583,1023.4285714285714,98.12856837681362,3685,1023.4285714285714,98.12856837681362,3787,1023.4285714285714,98.12856837681362,3891,1023.4285714285714,98.12856837681362,3993,1023.4285714285714,98.12856837681362,4096,1023.4285714285714,98.12856837681362,4198,1023.4285714285714,98.12856837681362,4301,1023.4285714285714,98.12856837681362,4404,1023.4285714285714,98.12856837681362,4505,1023.4285714285714,98.12856837681362,4605,1023.4285714285714,98.12856837681362,4707,1023.4285714285714,98.12856837681362,4809,1023.4285714285714,98.12856837681362,4911]","[5251,5251,2872.6,2007,371.4,""oops"",""up"",""up"",""good_move"",11293,6042,2273.6,8627,392.4,""oops"",""up"",""left"",""bad_move"",14975,3682,2696.5,11293,985.5,""oops"",""right"",""up"",""good_move"",17377,2402,2034.4,14975,367.6,""smooth"",""right"",""right"",""good_move"",20886,3508,3139,17378,369,""smooth"",""right"",""right"",""good_move"",23258,2372,1905.9,20886,466.1,""smooth"",""right"",""right"",""good_move""]","",""
"2901","","<div style=""width:500px;"">
  <p>What determined the result of this run?</p>
  </div>","52","html-slider-response","65","633839","0.0-5.0-1.11","313","1","2025-08-04 09:20:54","1f75c3e559b7213887762d5229550c2b","178.212.218.13","Mozilla/5.0 (Windows NT 10.0; Win64; x64; rv:141.0) Gecko/20100101 Firefox/141.0","","Firefox","141.0","Windows","10.0","https://app.prolific.com/","pl,en-US;q=0.7,en;q=0.3","5c2b339a85602a00012ffedd","6877631c9844ddd5501205fc","68907af1a5c04427307fdd4e","3","1","5c2b339a85602a00012ffedd","3","1","2025-08-04T09:31:24.245Z","","","","","","","","","","","AttribQ","","50","","","","","","","","","","","","","","","","","","","","","","","","","","","","",""
"1380","","<div style=""width:500px;"">
  <p>How much control did you have over the ball?</p>
  </div>","58","html-slider-response","66","635222","0.0-5.0-2.11","313","1","2025-08-04 09:20:54","1f75c3e559b7213887762d5229550c2b","178.212.218.13","Mozilla/5.0 (Windows NT 10.0; Win64; x64; rv:141.0) Gecko/20100101 Firefox/141.0","","Firefox","141.0","Windows","10.0","https://app.prolific.com/","pl,en-US;q=0.7,en;q=0.3","5c2b339a85602a00012ffedd","6877631c9844ddd5501205fc","68907af1a5c04427307fdd4e","3","1","5c2b339a85602a00012ffedd","3","1","2025-08-04T09:31:25.628Z","","","","","","","","","","","ControlQ","","50","","","","","","","","","","","","","","","","","","","","","","","","","","","","",""
"1292","","<div style=""width:500px;"">
  <p>How would you describe your current emotional state?</p>
  </div>","53","html-slider-response","67","636514","0.0-5.0-3.11","313","1","2025-08-04 09:20:54","1f75c3e559b7213887762d5229550c2b","178.212.218.13","Mozilla/5.0 (Windows NT 10.0; Win64; x64; rv:141.0) Gecko/20100101 Firefox/141.0","","Firefox","141.0","Windows","10.0","https://app.prolific.com/","pl,en-US;q=0.7,en;q=0.3","5c2b339a85602a00012ffedd","6877631c9844ddd5501205fc","68907af1a5c04427307fdd4e","3","1","5c2b339a85602a00012ffedd","3","1","2025-08-04T09:31:26.920Z","","","","","","","","","","","StressQ","","50","","","","","","","","","","","","","","","","","","","","","","","","","","","","",""
"945","","<div style=""width:500px;"">
  <p>What best describes how you currently feel?</p>
  </div>","56","html-slider-response","68","637461","0.0-5.0-4.11","313","1","2025-08-04 09:20:54","1f75c3e559b7213887762d5229550c2b","178.212.218.13","Mozilla/5.0 (Windows NT 10.0; Win64; x64; rv:141.0) Gecko/20100101 Firefox/141.0","","Firefox","141.0","Windows","10.0","https://app.prolific.com/","pl,en-US;q=0.7,en;q=0.3","5c2b339a85602a00012ffedd","6877631c9844ddd5501205fc","68907af1a5c04427307fdd4e","3","1","5c2b339a85602a00012ffedd","3","1","2025-08-04T09:31:27.867Z","","","","","","","","","","","MotivationQ","","50","","","","","","","","","","","","","","","","","","","","","","","","","","","","",""
"","","","","ctl-task-cpt","69","666113","0.0-5.0-0.12","313","1","2025-08-04 09:20:54","1f75c3e559b7213887762d5229550c2b","178.212.218.13","Mozilla/5.0 (Windows NT 10.0; Win64; x64; rv:141.0) Gecko/20100101 Firefox/141.0","","Firefox","141.0","Windows","10.0","https://app.prolific.com/","pl,en-US;q=0.7,en;q=0.3","5c2b339a85602a00012ffedd","6877631c9844ddd5501205fc","68907af1a5c04427307fdd4e","3","1","5c2b339a85602a00012ffedd","3","1","2025-08-04T09:31:56.519Z","","","","","","","","","","","","","","win-only","2","g1:SE,g2:NW","0.7","13","0","639996","637","5640","25649","1","4","8","6","1","1","1","7","6","0.05303030303030303","1780","3000","800","[""down"",""right""]","{""num_key_presses"":6,""num_perfect"":4,""num_errors"":0,""num_randdir"":2,""num_randdir_good_moves"":1,""num_whilered"":0,""num_whileblue"":0,""num_blue"":1,""num_good_moves"":5}","[553.4285714285714,565.1285683768136,1,553.4285714285714,565.1285683768136,101,553.4285714285714,566.1285683768136,202,554.4285714285714,598.1285683768136,305,554.4285714285714,598.1285683768136,408,554.4285714285714,598.1285683768136,509,757.4285714285714,778.1285683768136,609,1266.4285714285713,1278.1285683768135,709,1231.4285714285713,1228.1285683768135,813,1147.4285714285713,1154.1285683768135,915,1065.4285714285713,1073.1285683768135,1019,994.4285714285714,925.1285683768136,1123,994.4285714285714,925.1285683768136,1225,994.4285714285714,925.1285683768136,1327,994.4285714285714,925.1285683768136,1429,994.4285714285714,925.1285683768136,1532,994.4285714285714,925.1285683768136,1634,993.4285714285714,951.1285683768136,1739,993.4285714285714,954.1285683768136,1840,993.4285714285714,954.1285683768136,1940,993.4285714285714,954.1285683768136,2041,993.4285714285714,954.1285683768136,2144,1254.4285714285713,807.1285683768136,2249,1513.4285714285713,651.1285683768136,2352,1532.4285714285713,651.1285683768136,2454,1532.4285714285713,651.1285683768136,2556,1532.4285714285713,651.1285683768136,2658,1532.4285714285713,651.1285683768136,2762,1532.4285714285713,651.1285683768136,2866,1532.4285714285713,651.1285683768136,2970,1532.4285714285713,651.1285683768136,3074,1532.4285714285713,651.1285683768136,3181,1532.4285714285713,651.1285683768136,3283,1532.4285714285713,651.1285683768136,3385,1532.4285714285713,651.1285683768136,3489,1532.4285714285713,651.1285683768136,3591,1532.4285714285713,651.1285683768136,3693,1532.4285714285713,651.1285683768136,3795,1532.4285714285713,651.1285683768136,3897,1532.4285714285713,651.1285683768136,3998,1532.4285714285713,651.1285683768136,4100,1532.4285714285713,651.1285683768136,4202,1532.4285714285713,651.1285683768136,4304,1532.4285714285713,651.1285683768136,4406,1532.4285714285713,651.1285683768136,4508,1532.4285714285713,651.1285683768136,4609,1532.4285714285713,651.1285683768136,4711,1532.4285714285713,651.1285683768136,4813,1532.4285714285713,651.1285683768136,4917]","[1583,1583,1000,0,583,""oops"",""down"",""down"",""good_move"",8691,7108,2597.7,5701,392.3,""oops"",""right"",""left"",""bad_move"",11343,2652,2117.1,8691,534.9,""smooth"",""right"",""right"",""good_move"",14397,3054,2657.3,11343,396.7,""smooth"",""right"",""right"",""good_move"",17099,2702,2310.8,14397,391.2,""smooth"",""right"",""right"",""good_move"",19905,2806,2421.8,17099,384.2,""smooth"",""down"",""down"",""good_move""]","",""
"2879","","<div style=""width:500px;"">
  <p>What determined the result of this run?</p>
  </div>","72","html-slider-response","70","668996","0.0-5.0-1.12","313","1","2025-08-04 09:20:54","1f75c3e559b7213887762d5229550c2b","178.212.218.13","Mozilla/5.0 (Windows NT 10.0; Win64; x64; rv:141.0) Gecko/20100101 Firefox/141.0","","Firefox","141.0","Windows","10.0","https://app.prolific.com/","pl,en-US;q=0.7,en;q=0.3","5c2b339a85602a00012ffedd","6877631c9844ddd5501205fc","68907af1a5c04427307fdd4e","3","1","5c2b339a85602a00012ffedd","3","1","2025-08-04T09:31:59.402Z","","","","","","","","","","","AttribQ","","50","","","","","","","","","","","","","","","","","","","","","","","","","","","","",""
"1256","","<div style=""width:500px;"">
  <p>How much control did you have over the ball?</p>
  </div>","64","html-slider-response","71","670253","0.0-5.0-2.12","313","1","2025-08-04 09:20:54","1f75c3e559b7213887762d5229550c2b","178.212.218.13","Mozilla/5.0 (Windows NT 10.0; Win64; x64; rv:141.0) Gecko/20100101 Firefox/141.0","","Firefox","141.0","Windows","10.0","https://app.prolific.com/","pl,en-US;q=0.7,en;q=0.3","5c2b339a85602a00012ffedd","6877631c9844ddd5501205fc","68907af1a5c04427307fdd4e","3","1","5c2b339a85602a00012ffedd","3","1","2025-08-04T09:32:00.659Z","","","","","","","","","","","ControlQ","","50","","","","","","","","","","","","","","","","","","","","","","","","","","","","",""
"1967","","<div style=""width:500px;"">
  <p>How would you describe your current emotional state?</p>
  </div>","40","html-slider-response","72","672222","0.0-5.0-3.12","313","1","2025-08-04 09:20:54","1f75c3e559b7213887762d5229550c2b","178.212.218.13","Mozilla/5.0 (Windows NT 10.0; Win64; x64; rv:141.0) Gecko/20100101 Firefox/141.0","","Firefox","141.0","Windows","10.0","https://app.prolific.com/","pl,en-US;q=0.7,en;q=0.3","5c2b339a85602a00012ffedd","6877631c9844ddd5501205fc","68907af1a5c04427307fdd4e","3","1","5c2b339a85602a00012ffedd","3","1","2025-08-04T09:32:02.628Z","","","","","","","","","","","StressQ","","50","","","","","","","","","","","","","","","","","","","","","","","","","","","","",""
"2117","","<div style=""width:500px;"">
  <p>What best describes how you currently feel?</p>
  </div>","65","html-slider-response","73","674339","0.0-5.0-4.12","313","1","2025-08-04 09:20:54","1f75c3e559b7213887762d5229550c2b","178.212.218.13","Mozilla/5.0 (Windows NT 10.0; Win64; x64; rv:141.0) Gecko/20100101 Firefox/141.0","","Firefox","141.0","Windows","10.0","https://app.prolific.com/","pl,en-US;q=0.7,en;q=0.3","5c2b339a85602a00012ffedd","6877631c9844ddd5501205fc","68907af1a5c04427307fdd4e","3","1","5c2b339a85602a00012ffedd","3","1","2025-08-04T09:32:04.745Z","","","","","","","","","","","MotivationQ","","50","","","","","","","","","","","","","","","","","","","","","","","","","","","","",""
"","","","","ctl-task-cpt","74","693120","0.0-5.0-0.13","313","1","2025-08-04 09:20:54","1f75c3e559b7213887762d5229550c2b","178.212.218.13","Mozilla/5.0 (Windows NT 10.0; Win64; x64; rv:141.0) Gecko/20100101 Firefox/141.0","","Firefox","141.0","Windows","10.0","https://app.prolific.com/","pl,en-US;q=0.7,en;q=0.3","5c2b339a85602a00012ffedd","6877631c9844ddd5501205fc","68907af1a5c04427307fdd4e","3","1","5c2b339a85602a00012ffedd","3","1","2025-08-04T09:32:23.526Z","","","","","","","","","","","","","","win-only","0","g1:NW,g2:SE","0.8","14","0","676875","978","5981","15779","1","4","4","6","1","1","1","8","7","0.06060606060606061","1196","3000","1730","[""left"",""up""]","{""num_key_presses"":4,""num_perfect"":2,""num_errors"":0,""num_randdir"":2,""num_randdir_good_moves"":2,""num_whilered"":0,""num_whileblue"":0,""num_blue"":0,""num_good_moves"":4}","[559.4285714285714,544.1285683768136,0,559.4285714285714,544.1285683768136,100,559.4285714285714,544.1285683768136,203,559.4285714285714,544.1285683768136,304,559.4285714285714,544.1285683768136,408,559.4285714285714,544.1285683768136,509,559.4285714285714,544.1285683768136,610,559.4285714285714,544.1285683768136,712,559.4285714285714,544.1285683768136,813,396.42857142857144,418.12856837681363,916,105.42857142857143,175.12856837681363,1017,73.42857142857143,124.12856837681362,1121,72.42857142857143,121.12856837681362,1224,72.42857142857143,121.12856837681362,1327,72.42857142857143,121.12856837681362,1431,-4.571428571428569,149.12856837681363,1535,-548.5714285714286,367.12856837681363,1639,-549.5714285714286,367.12856837681363,1741,-549.5714285714286,367.12856837681363,1844,-549.5714285714286,367.12856837681363,1945,-549.5714285714286,367.12856837681363,2047,-549.5714285714286,367.12856837681363,2148,-549.5714285714286,367.12856837681363,2249,-549.5714285714286,367.12856837681363,2349,-549.5714285714286,367.12856837681363,2451,-549.5714285714286,367.12856837681363,2553,-549.5714285714286,367.12856837681363,2655,-549.5714285714286,367.12856837681363,2758,-549.5714285714286,367.12856837681363,2861,-549.5714285714286,367.12856837681363,2962,-549.5714285714286,367.12856837681363,3064,-549.5714285714286,367.12856837681363,3169,-549.5714285714286,367.12856837681363,3271,-549.5714285714286,367.12856837681363,3374,-549.5714285714286,367.12856837681363,3476,-549.5714285714286,367.12856837681363,3576,-549.5714285714286,367.12856837681363,3677,-549.5714285714286,367.12856837681363,3780,-549.5714285714286,367.12856837681363,3949,-549.5714285714286,367.12856837681363,4052,-549.5714285714286,367.12856837681363,4153,-549.5714285714286,367.12856837681363,4253,-549.5714285714286,367.12856837681363,4354,-549.5714285714286,367.12856837681363,4455,-549.5714285714286,367.12856837681363,4559,-549.5714285714286,367.12856837681363,4661,-549.5714285714286,367.12856837681363,4763,-549.5714285714286,367.12856837681363,4865,-549.5714285714286,367.12856837681363,4967]","[1410,1410,1000,0,410,""smooth"",""up"",""up"",""good_move"",4122,2712,2343.9,1410,368.1,""oops"",""up"",""up"",""good_move"",6627,2505,2152,4122,353,""oops"",""left"",""left"",""good_move"",9693,3066,2650.9,6627,415.1,""smooth"",""left"",""left"",""good_move""]","",""
"1738","","<div style=""width:500px;"">
  <p>What determined the result of this run?</p>
  </div>","68","html-slider-response","75","694861","0.0-5.0-1.13","313","1","2025-08-04 09:20:54","1f75c3e559b7213887762d5229550c2b","178.212.218.13","Mozilla/5.0 (Windows NT 10.0; Win64; x64; rv:141.0) Gecko/20100101 Firefox/141.0","","Firefox","141.0","Windows","10.0","https://app.prolific.com/","pl,en-US;q=0.7,en;q=0.3","5c2b339a85602a00012ffedd","6877631c9844ddd5501205fc","68907af1a5c04427307fdd4e","3","1","5c2b339a85602a00012ffedd","3","1","2025-08-04T09:32:25.267Z","","","","","","","","","","","AttribQ","","50","","","","","","","","","","","","","","","","","","","","","","","","","","","","",""
"978","","<div style=""width:500px;"">
  <p>How much control did you have over the ball?</p>
  </div>","62","html-slider-response","76","695838","0.0-5.0-2.13","313","1","2025-08-04 09:20:54","1f75c3e559b7213887762d5229550c2b","178.212.218.13","Mozilla/5.0 (Windows NT 10.0; Win64; x64; rv:141.0) Gecko/20100101 Firefox/141.0","","Firefox","141.0","Windows","10.0","https://app.prolific.com/","pl,en-US;q=0.7,en;q=0.3","5c2b339a85602a00012ffedd","6877631c9844ddd5501205fc","68907af1a5c04427307fdd4e","3","1","5c2b339a85602a00012ffedd","3","1","2025-08-04T09:32:26.245Z","","","","","","","","","","","ControlQ","","50","","","","","","","","","","","","","","","","","","","","","","","","","","","","",""
"1848","","<div style=""width:500px;"">
  <p>How would you describe your current emotional state?</p>
  </div>","36","html-slider-response","77","697688","0.0-5.0-3.13","313","1","2025-08-04 09:20:54","1f75c3e559b7213887762d5229550c2b","178.212.218.13","Mozilla/5.0 (Windows NT 10.0; Win64; x64; rv:141.0) Gecko/20100101 Firefox/141.0","","Firefox","141.0","Windows","10.0","https://app.prolific.com/","pl,en-US;q=0.7,en;q=0.3","5c2b339a85602a00012ffedd","6877631c9844ddd5501205fc","68907af1a5c04427307fdd4e","3","1","5c2b339a85602a00012ffedd","3","1","2025-08-04T09:32:28.094Z","","","","","","","","","","","StressQ","","50","","","","","","","","","","","","","","","","","","","","","","","","","","","","",""
"995","","<div style=""width:500px;"">
  <p>What best describes how you currently feel?</p>
  </div>","64","html-slider-response","78","698685","0.0-5.0-4.13","313","1","2025-08-04 09:20:54","1f75c3e559b7213887762d5229550c2b","178.212.218.13","Mozilla/5.0 (Windows NT 10.0; Win64; x64; rv:141.0) Gecko/20100101 Firefox/141.0","","Firefox","141.0","Windows","10.0","https://app.prolific.com/","pl,en-US;q=0.7,en;q=0.3","5c2b339a85602a00012ffedd","6877631c9844ddd5501205fc","68907af1a5c04427307fdd4e","3","1","5c2b339a85602a00012ffedd","3","1","2025-08-04T09:32:29.091Z","","","","","","","","","","","MotivationQ","","50","","","","","","","","","","","","","","","","","","","","","","","","","","","","",""
"","","","","ctl-task-cpt","79","718038","0.0-5.0-0.14","313","1","2025-08-04 09:20:54","1f75c3e559b7213887762d5229550c2b","178.212.218.13","Mozilla/5.0 (Windows NT 10.0; Win64; x64; rv:141.0) Gecko/20100101 Firefox/141.0","","Firefox","141.0","Windows","10.0","https://app.prolific.com/","pl,en-US;q=0.7,en;q=0.3","5c2b339a85602a00012ffedd","6877631c9844ddd5501205fc","68907af1a5c04427307fdd4e","3","1","5c2b339a85602a00012ffedd","3","1","2025-08-04T09:32:48.444Z","","","","","","","","","","","","","","win-only","1","g1:NE,g2:SW","0.9","15","0","701221","810","5815","16350","1","4","4","6","1","1","1","9","8","0.06818181818181818","1687","3000","1645","[""up"",""right""]","{""num_key_presses"":4,""num_perfect"":4,""num_errors"":0,""num_randdir"":0,""num_randdir_good_moves"":0,""num_whilered"":0,""num_whileblue"":0,""num_blue"":0,""num_good_moves"":4}","[550.4285714285714,544.1285683768136,0,550.4285714285714,544.1285683768136,105,550.4285714285714,544.1285683768136,205,550.4285714285714,544.1285683768136,307,550.4285714285714,544.1285683768136,410,550.4285714285714,544.1285683768136,511,550.4285714285714,544.1285683768136,613,550.4285714285714,544.1285683768136,716,550.4285714285714,544.1285683768136,817,550.4285714285714,544.1285683768136,920,583.4285714285714,508.12856837681363,1021,875.4285714285714,204.12856837681363,1124,973.4285714285714,61.12856837681362,1229,975.4285714285714,56.12856837681362,1332,911.4285714285714,73.12856837681362,1436,887.4285714285714,109.12856837681362,1539,949.4285714285714,76.12856837681362,1643,952.4285714285714,71.12856837681362,1744,952.4285714285714,71.12856837681362,1847,952.4285714285714,71.12856837681362,1947,952.4285714285714,71.12856837681362,2047,1298.4285714285713,215.12856837681363,2153,1625.4285714285713,280.12856837681363,2257,1834.4285714285713,347.12856837681363,2358,1834.4285714285713,453.12856837681363,2462,1834.4285714285713,453.12856837681363,2565,1834.4285714285713,453.12856837681363,2668,1834.4285714285713,453.12856837681363,2771,1834.4285714285713,453.12856837681363,2874,1834.4285714285713,453.12856837681363,2976,1834.4285714285713,453.12856837681363,3076,1834.4285714285713,453.12856837681363,3176,1834.4285714285713,453.12856837681363,3278,1834.4285714285713,453.12856837681363,3381,1834.4285714285713,453.12856837681363,3482,1834.4285714285713,453.12856837681363,3584,1834.4285714285713,453.12856837681363,3686,1834.4285714285713,453.12856837681363,3788,1834.4285714285713,453.12856837681363,3890,1834.4285714285713,453.12856837681363,3992,1834.4285714285713,453.12856837681363,4095,1834.4285714285713,453.12856837681363,4197,1834.4285714285713,453.12856837681363,4298,1834.4285714285713,453.12856837681363,4400,1834.4285714285713,453.12856837681363,4501,1834.4285714285713,453.12856837681363,4604,1834.4285714285713,453.12856837681363,4706,1834.4285714285713,453.12856837681363,4809,1834.4285714285713,453.12856837681363,4911]","[1442,1442,1000,0,442,""smooth"",""up"",""up"",""good_move"",4826,3383,2968,1443,415,""smooth"",""right"",""right"",""good_move"",7312,2486,2118.4,4826,367.6,""smooth"",""right"",""right"",""good_move"",10428,3116,2692.3,7312,423.7,""smooth"",""up"",""up"",""good_move""]","",""
"2472","","<div style=""width:500px;"">
  <p>What determined the result of this run?</p>
  </div>","70","html-slider-response","80","720512","0.0-5.0-1.14","313","1","2025-08-04 09:20:54","1f75c3e559b7213887762d5229550c2b","178.212.218.13","Mozilla/5.0 (Windows NT 10.0; Win64; x64; rv:141.0) Gecko/20100101 Firefox/141.0","","Firefox","141.0","Windows","10.0","https://app.prolific.com/","pl,en-US;q=0.7,en;q=0.3","5c2b339a85602a00012ffedd","6877631c9844ddd5501205fc","68907af1a5c04427307fdd4e","3","1","5c2b339a85602a00012ffedd","3","1","2025-08-04T09:32:50.918Z","","","","","","","","","","","AttribQ","","50","","","","","","","","","","","","","","","","","","","","","","","","","","","","",""
"2118","","<div style=""width:500px;"">
  <p>How much control did you have over the ball?</p>
  </div>","74","html-slider-response","81","722631","0.0-5.0-2.14","313","1","2025-08-04 09:20:54","1f75c3e559b7213887762d5229550c2b","178.212.218.13","Mozilla/5.0 (Windows NT 10.0; Win64; x64; rv:141.0) Gecko/20100101 Firefox/141.0","","Firefox","141.0","Windows","10.0","https://app.prolific.com/","pl,en-US;q=0.7,en;q=0.3","5c2b339a85602a00012ffedd","6877631c9844ddd5501205fc","68907af1a5c04427307fdd4e","3","1","5c2b339a85602a00012ffedd","3","1","2025-08-04T09:32:53.037Z","","","","","","","","","","","ControlQ","","50","","","","","","","","","","","","","","","","","","","","","","","","","","","","",""
"2205","","<div style=""width:500px;"">
  <p>How would you describe your current emotional state?</p>
