"rt","response_timestamp","stimulus","response","trial_type","trial_index","time_elapsed","internal_node_id","run_id","condition","recorded_at","source_code_version","ip","user_agent","device","browser","browser_version","platform","platform_version","referer","accept_language","PROLIFIC_PID","STUDY_ID","SESSION_ID","WEEK","BATCH","prolific_id","week","batch","realtime","success","responses","item_order","radio_event_ids","radio_event_times","key_event_times","mouse_event_times","straightlining","zigzagging","honeypot","eventType","view_history","slider_start","which_type","canvas_config","goals_layout","control_level","trial_number","tutorial_trial_number","trial_start_time","phase1_start_time","phase2_start_time","phase3_start_time","goal_1_value","goal_1_distance","goal_2_value","goal_2_distance","goal_selected","outcome","outcome_total","participant_final_score","participant_initial_score","participant_final_score_prop","goal_choice_rt","allocated_time","allocated_time_remaining","goal_direction","counts","mouse_movements","key_presses","question_order","question_id"
"7485","1753258082782","<p style='font-size:40px;line-height:1.25'><strong>Welcome to the experiment!</strong></p><p style='font-size:1.1em;line-height:1.25'>Thank you for participanting in our experiment again! You will be asked to play the Dysfunctional Ball Game again. We will briefly recap the rules before we start.</p><p style='font-size:1.1em;line-height:1.25'>Press <strong>Next</strong> to continue.</p>","0","custom-html-button-response","0","7518","0.0-0.0","191","1","2025-07-23 08:07:50","1f75c3e559b7213887762d5229550c2b","105.245.240.112","Mozilla/5.0 (Windows NT 10.0; Win64; x64) AppleWebKit/537.36 (KHTML, like Gecko) Chrome/138.0.0.0 Safari/537.36","WebKit","Chrome","138.0.0.0","Windows","10.0","https://app.prolific.com/","en-US,en;q=0.9,xh;q=0.8","665f239f78bd39782ef04172","683dba2a8a9dda3513610c04","688097768eb855e7826ed11e","3","0","665f239f78bd39782ef04172","3","0","2025-07-23T08:08:02.785Z","","","","","","","","","","","","","","","","","","","","","","","","","","","","","","","","","","","","","","","","","",""
"2354","","","","fullscreen","1","10880","0.0-1.0","191","1","2025-07-23 08:07:50","1f75c3e559b7213887762d5229550c2b","105.245.240.112","Mozilla/5.0 (Windows NT 10.0; Win64; x64) AppleWebKit/537.36 (KHTML, like Gecko) Chrome/138.0.0.0 Safari/537.36","WebKit","Chrome","138.0.0.0","Windows","10.0","https://app.prolific.com/","en-US,en;q=0.9,xh;q=0.8","665f239f78bd39782ef04172","683dba2a8a9dda3513610c04","688097768eb855e7826ed11e","3","0","665f239f78bd39782ef04172","3","0","","true","","","","","","","","","","","","","","","","","","","","","","","","","","","","","","","","","","","","","","","","",""
"5521","1753258091670","<p style='font-size:1.1em;line-height:1.25'>In the following, we will ask you a few questions relating to your feelings in the last 24 hours.<br></p><p style='font-size:1.1em;line-height:1.25'>Press the <strong>Next</strong> button to continue.</p>","0","custom-html-button-response","2","16405","0.0-2.0-0.0","191","1","2025-07-23 08:07:50","1f75c3e559b7213887762d5229550c2b","105.245.240.112","Mozilla/5.0 (Windows NT 10.0; Win64; x64) AppleWebKit/537.36 (KHTML, like Gecko) Chrome/138.0.0.0 Safari/537.36","WebKit","Chrome","138.0.0.0","Windows","10.0","https://app.prolific.com/","en-US,en;q=0.9,xh;q=0.8","665f239f78bd39782ef04172","683dba2a8a9dda3513610c04","688097768eb855e7826ed11e","3","0","665f239f78bd39782ef04172","3","0","2025-07-23T08:08:11.672Z","","","","","","","","","","","","","","","","","","","","","","","","","","","","","","","","","","","","","","","","","",""
"90901.89999999851","","","","survey-template","3","108513","0.0-2.0-1.0","191","1","2025-07-23 08:07:50","1f75c3e559b7213887762d5229550c2b","105.245.240.112","Mozilla/5.0 (Windows NT 10.0; Win64; x64) AppleWebKit/537.36 (KHTML, like Gecko) Chrome/138.0.0.0 Safari/537.36","WebKit","Chrome","138.0.0.0","Windows","10.0","https://app.prolific.com/","en-US,en;q=0.9,xh;q=0.8","665f239f78bd39782ef04172","683dba2a8a9dda3513610c04","688097768eb855e7826ed11e","3","0","665f239f78bd39782ef04172","3","0","2025-07-23T08:09:43.781Z","","{""Q01"":""1"",""Q02"":""1"",""Q03"":""1"",""Q04"":""2"",""Q05"":""1"",""Q06"":""1"",""Q07"":""1"",""Q08"":""0"",""Q09"":""3"",""Q10"":""3"",""Q11"":""2"",""Q12"":""0"",""Q13"":""5"",""Q14"":""3"",""Q15"":""0"",""Q16"":""3"",""Q17"":""4"",""Q18"":""1"",""Q19"":""1"",""Q20"":""1"",""Q21"":""1"",""Q22"":""1""}","[0,1,2,3,4,5,6,7,8,9,10,11,12,13,14,15,16,17,18,19,20,21]","[""Q01"",""Q02"",""Q03"",""Q04"",""Q05"",""Q06"",""Q07"",""Q08"",""Q09"",""Q10"",""Q11"",""Q12"",""Q13"",""Q14"",""Q15"",""Q16"",""Q17"",""Q18"",""Q19"",""Q20"",""Q22"",""Q21"",""Q21""]","[11008.89999999851,13045.699999999255,15583.5,17805.89999999851,20511.599999997765,21874.39999999851,24708.199999999255,26855.099999997765,30642.79999999702,32713,36254.89999999851,41731.199999999255,45839.89999999851,50074.29999999702,53344.89999999851,57131.599999997765,61467.29999999702,63258.29999999702,67671.69999999925,71350.89999999851,77717.19999999925,89160.29999999702,89166.79999999702]","[]","[1.0999999977648258,11008.89999999851,13045.699999999255,15583.5,17805.89999999851,20511.599999997765,21874.39999999851,24708.199999999255,26855.099999997765,30642.79999999702,32713,36254.89999999851,41731.199999999255,44563.099999997765,45839.89999999851,50074.29999999702,53344.89999999851,57131.599999997765,58843.199999999255,61467.29999999702,63258.29999999702,67671.69999999925,71350.89999999851,74491.59999999776,77717.19999999925,80219.39999999851,89160.29999999702,89166.79999999702,90891.69999999925]","0.5","0.2857142857142857","0","drsp","","","","","","","","","","","","","","","","","","","","","","","","","","","","","","",""
"22261","","","","survey-template","4","130780","0.0-2.0-2.0","191","1","2025-07-23 08:07:50","1f75c3e559b7213887762d5229550c2b","105.245.240.112","Mozilla/5.0 (Windows NT 10.0; Win64; x64) AppleWebKit/537.36 (KHTML, like Gecko) Chrome/138.0.0.0 Safari/537.36","WebKit","Chrome","138.0.0.0","Windows","10.0","https://app.prolific.com/","en-US,en;q=0.9,xh;q=0.8","665f239f78bd39782ef04172","683dba2a8a9dda3513610c04","688097768eb855e7826ed11e","3","0","665f239f78bd39782ef04172","3","0","2025-07-23T08:10:06.047Z","","{""Q01"":""3"",""Q02"":""4"",""Q03"":""1""}","[0,1,2]","[""Q01"",""Q02"",""Q03""]","[12163.60000000149,16017,20714.5]","[]","[7742,8935.60000000149,12163.60000000149,16017,19327.400000002235,20714.5,22259.400000002235]","0.6666666666666666","0","0","stress","","","","","","","","","","","","","","","","","","","","","","","","","","","","","","",""
"38882","","","","instructions","5","169664","0.0-3.0-0.0","191","1","2025-07-23 08:07:50","1f75c3e559b7213887762d5229550c2b","105.245.240.112","Mozilla/5.0 (Windows NT 10.0; Win64; x64) AppleWebKit/537.36 (KHTML, like Gecko) Chrome/138.0.0.0 Safari/537.36","WebKit","Chrome","138.0.0.0","Windows","10.0","https://app.prolific.com/","en-US,en;q=0.9,xh;q=0.8","665f239f78bd39782ef04172","683dba2a8a9dda3513610c04","688097768eb855e7826ed11e","3","0","665f239f78bd39782ef04172","3","0","","","","","","","","","","","","","[{""page_index"":0,""viewing_time"":38881}]","","","","","","","","","","","","","","","","","","","","","","","","","","","","","",""
"5093","","<p>Before you start with this game please answer the following three questions yourself. </p>
  <p>Through this game, we measure several aspects of your cognitive performance, such as reaction times, multi-tasking capabilities </p>
  <p>and the ability to assess the situation you are in.</p>
  <p></p>
  <p><b>How good do you usually are in such tasks?</b></p>","83","html-slider-response","6","174766","0.0-4.0-0.0","191","1","2025-07-23 08:07:50","1f75c3e559b7213887762d5229550c2b","105.245.240.112","Mozilla/5.0 (Windows NT 10.0; Win64; x64) AppleWebKit/537.36 (KHTML, like Gecko) Chrome/138.0.0.0 Safari/537.36","WebKit","Chrome","138.0.0.0","Windows","10.0","https://app.prolific.com/","en-US,en;q=0.9,xh;q=0.8","665f239f78bd39782ef04172","683dba2a8a9dda3513610c04","688097768eb855e7826ed11e","3","0","665f239f78bd39782ef04172","3","0","2025-07-23T08:10:50.033Z","","","","","","","","","","","PreSkillQ","","50","","","","","","","","","","","","","","","","","","","","","","","","","","","","",""
"4830","","<div style=""width:500px;"">
  <p>How well do you think you will perform in this task compared to other participants?</p>
  </div>","91","html-slider-response","7","179598","0.0-4.0-1.0","191","1","2025-07-23 08:07:50","1f75c3e559b7213887762d5229550c2b","105.245.240.112","Mozilla/5.0 (Windows NT 10.0; Win64; x64) AppleWebKit/537.36 (KHTML, like Gecko) Chrome/138.0.0.0 Safari/537.36","WebKit","Chrome","138.0.0.0","Windows","10.0","https://app.prolific.com/","en-US,en;q=0.9,xh;q=0.8","665f239f78bd39782ef04172","683dba2a8a9dda3513610c04","688097768eb855e7826ed11e","3","0","665f239f78bd39782ef04172","3","0","2025-07-23T08:10:54.866Z","","","","","","","","","","","PrePerfQ","","50","","","","","","","","","","","","","","","","","","","","","","","","","","","","",""
"3495","","<div style=""width:500px;"">
  <p>What best describes how you currently feel?</p>
  </div>","100","html-slider-response","8","183096","0.0-4.0-2.0","191","1","2025-07-23 08:07:50","1f75c3e559b7213887762d5229550c2b","105.245.240.112","Mozilla/5.0 (Windows NT 10.0; Win64; x64) AppleWebKit/537.36 (KHTML, like Gecko) Chrome/138.0.0.0 Safari/537.36","WebKit","Chrome","138.0.0.0","Windows","10.0","https://app.prolific.com/","en-US,en;q=0.9,xh;q=0.8","665f239f78bd39782ef04172","683dba2a8a9dda3513610c04","688097768eb855e7826ed11e","3","0","665f239f78bd39782ef04172","3","0","2025-07-23T08:10:58.363Z","","","","","","","","","","","PreMotivationQ","","50","","","","","","","","","","","","","","","","","","","","","","","","","","","","",""
"","","","","ctl-task-cpt","9","217672","0.0-5.0-0.0","191","1","2025-07-23 08:07:50","1f75c3e559b7213887762d5229550c2b","105.245.240.112","Mozilla/5.0 (Windows NT 10.0; Win64; x64) AppleWebKit/537.36 (KHTML, like Gecko) Chrome/138.0.0.0 Safari/537.36","WebKit","Chrome","138.0.0.0","Windows","10.0","https://app.prolific.com/","en-US,en;q=0.9,xh;q=0.8","665f239f78bd39782ef04172","683dba2a8a9dda3513610c04","688097768eb855e7826ed11e","3","0","665f239f78bd39782ef04172","3","0","2025-07-23T08:11:32.940Z","","","","","","","","","","","","","","win-only","1","g1:NE,g2:SW","1","1","0","188629.7","2035.1","7037.7","31532.8","1","4","4","6","2","4","4","4","0","0.030303030303030304","1370.7","3000","715","[""down"",""left""]","{""num_key_presses"":6,""num_perfect"":6,""num_errors"":0,""num_randdir"":0,""num_randdir_good_moves"":0,""num_whilered"":0,""num_whileblue"":0,""num_blue"":2,""num_good_moves"":6}","[294.22232142857143,301.12857142857143,1.3,294.22232142857143,301.12857142857143,102,294.22232142857143,301.12857142857143,219.6,294.22232142857143,301.12857142857143,319.7,294.22232142857143,301.12857142857143,421.3,294.22232142857143,301.12857142857143,528.6,294.22232142857143,301.12857142857143,634.9,160.22232142857143,465.12857142857143,738.1,72.22232142857143,569.1285714285714,841.7,68.22232142857143,575.1285714285714,944.6,75.22232142857143,567.1285714285714,1051.6,74.22232142857143,547.1285714285714,1163.7,74.22232142857143,545.1285714285714,1267.4,74.22232142857143,545.1285714285714,1367.8,74.22232142857143,545.1285714285714,1473.4,74.22232142857143,545.1285714285714,1601.3,74.22232142857143,545.1285714285714,1701.3,74.22232142857143,545.1285714285714,1801.7,74.22232142857143,545.1285714285714,1903.9,74.22232142857143,545.1285714285714,2016.4,74.22232142857143,545.1285714285714,2123.4,74.22232142857143,545.1285714285714,2223.7,74.22232142857143,545.1285714285714,2325.9,74.22232142857143,545.1285714285714,2431.9,74.22232142857143,545.1285714285714,2544.3,74.22232142857143,545.1285714285714,2648.1,74.22232142857143,545.1285714285714,2749.6,74.22232142857143,545.1285714285714,2853.7,74.22232142857143,545.1285714285714,2963.8,74.22232142857143,545.1285714285714,3068.9,74.22232142857143,545.1285714285714,3173.6,74.22232142857143,545.1285714285714,3273.7,74.22232142857143,545.1285714285714,3382.2,74.22232142857143,545.1285714285714,3493.6,74.22232142857143,545.1285714285714,3594.2,74.22232142857143,545.1285714285714,3698.6,74.22232142857143,545.1285714285714,3799.5,74.22232142857143,545.1285714285714,3900.8,74.22232142857143,545.1285714285714,4013.5,74.22232142857143,545.1285714285714,4119.3,74.22232142857143,545.1285714285714,4223.4,74.22232142857143,545.1285714285714,4323.4,74.22232142857143,545.1285714285714,4423.8,74.22232142857143,545.1285714285714,4523.8,74.22232142857143,545.1285714285714,4632,74.22232142857143,545.1285714285714,4732.9,74.22232142857143,545.1285714285714,4844.2,74.22232142857143,545.1285714285714,4950.1]","[5286.2,5286.2,2722.2,2011,553,""smooth"",""down"",""down"",""good_move"",8918.8,3630.9,2772.4,5287.9,858.5,""smooth"",""down"",""down"",""good_move"",11707.7,2786.6,2276.1,8921.2,510.4,""smooth"",""down"",""down"",""good_move"",14684.7,2974.9,2500.8,11710.1,473.8,""smooth"",""left"",""left"",""good_move"",17604.2,2918.3,2244.8,14685.9,673.5,""smooth"",""left"",""left"",""good_move"",24338.9,6731.7,2779,21000.9,559.1,""smooth"",""left"",""left"",""good_move""]","",""
"9233","","<div style=""width:500px;"">
  <p>What determined the result of this run?</p>
  </div>","100","html-slider-response","10","226909","0.0-5.0-1.0","191","1","2025-07-23 08:07:50","1f75c3e559b7213887762d5229550c2b","105.245.240.112","Mozilla/5.0 (Windows NT 10.0; Win64; x64) AppleWebKit/537.36 (KHTML, like Gecko) Chrome/138.0.0.0 Safari/537.36","WebKit","Chrome","138.0.0.0","Windows","10.0","https://app.prolific.com/","en-US,en;q=0.9,xh;q=0.8","665f239f78bd39782ef04172","683dba2a8a9dda3513610c04","688097768eb855e7826ed11e","3","0","665f239f78bd39782ef04172","3","0","2025-07-23T08:11:42.176Z","","","","","","","","","","","AttribQ","","50","","","","","","","","","","","","","","","","","","","","","","","","","","","","",""
"5914","","<div style=""width:500px;"">
  <p>How much control did you have over the ball?</p>
  </div>","100","html-slider-response","11","232826","0.0-5.0-2.0","191","1","2025-07-23 08:07:50","1f75c3e559b7213887762d5229550c2b","105.245.240.112","Mozilla/5.0 (Windows NT 10.0; Win64; x64) AppleWebKit/537.36 (KHTML, like Gecko) Chrome/138.0.0.0 Safari/537.36","WebKit","Chrome","138.0.0.0","Windows","10.0","https://app.prolific.com/","en-US,en;q=0.9,xh;q=0.8","665f239f78bd39782ef04172","683dba2a8a9dda3513610c04","688097768eb855e7826ed11e","3","0","665f239f78bd39782ef04172","3","0","2025-07-23T08:11:48.093Z","","","","","","","","","","","ControlQ","","50","","","","","","","","","","","","","","","","","","","","","","","","","","","","",""
"6449","","<div style=""width:500px;"">
  <p>How would you describe your current emotional state?</p>
  </div>","0","html-slider-response","12","239277","0.0-5.0-3.0","191","1","2025-07-23 08:07:50","1f75c3e559b7213887762d5229550c2b","105.245.240.112","Mozilla/5.0 (Windows NT 10.0; Win64; x64) AppleWebKit/537.36 (KHTML, like Gecko) Chrome/138.0.0.0 Safari/537.36","WebKit","Chrome","138.0.0.0","Windows","10.0","https://app.prolific.com/","en-US,en;q=0.9,xh;q=0.8","665f239f78bd39782ef04172","683dba2a8a9dda3513610c04","688097768eb855e7826ed11e","3","0","665f239f78bd39782ef04172","3","0","2025-07-23T08:11:54.544Z","","","","","","","","","","","StressQ","","50","","","","","","","","","","","","","","","","","","","","","","","","","","","","",""
"6038","","<div style=""width:500px;"">
  <p>What best describes how you currently feel?</p>
  </div>","92","html-slider-response","13","245317","0.0-5.0-4.0","191","1","2025-07-23 08:07:50","1f75c3e559b7213887762d5229550c2b","105.245.240.112","Mozilla/5.0 (Windows NT 10.0; Win64; x64) AppleWebKit/537.36 (KHTML, like Gecko) Chrome/138.0.0.0 Safari/537.36","WebKit","Chrome","138.0.0.0","Windows","10.0","https://app.prolific.com/","en-US,en;q=0.9,xh;q=0.8","665f239f78bd39782ef04172","683dba2a8a9dda3513610c04","688097768eb855e7826ed11e","3","0","665f239f78bd39782ef04172","3","0","2025-07-23T08:12:00.584Z","","","","","","","","","","","MotivationQ","","50","","","","","","","","","","","","","","","","","","","","","","","","","","","","",""
"","","","","ctl-task-cpt","14","351456","0.0-5.0-0.1","191","1","2025-07-23 08:07:50","1f75c3e559b7213887762d5229550c2b","105.245.240.112","Mozilla/5.0 (Windows NT 10.0; Win64; x64) AppleWebKit/537.36 (KHTML, like Gecko) Chrome/138.0.0.0 Safari/537.36","WebKit","Chrome","138.0.0.0","Windows","10.0","https://app.prolific.com/","en-US,en;q=0.9,xh;q=0.8","665f239f78bd39782ef04172","683dba2a8a9dda3513610c04","688097768eb855e7826ed11e","3","0","665f239f78bd39782ef04172","3","0","2025-07-23T08:13:46.724Z","","","","","","","","","","","","","","win-only","1","g1:NE,g2:SW","0.9","2","0","250818.9","63544.6","68557.7","103118","1","4","8","6","2","8","8","12","4","0.09090909090909091","1345.2","3000","45","[""down"",""left""]","{""num_key_presses"":10,""num_perfect"":9,""num_errors"":0,""num_randdir"":1,""num_randdir_good_moves"":0,""num_whilered"":0,""num_whileblue"":0,""num_blue"":2,""num_good_moves"":8}","[295.22232142857143,294.12857142857143,2.1,295.22232142857143,294.12857142857143,105.6,295.22232142857143,294.12857142857143,208.7,295.22232142857143,294.12857142857143,313.4,295.22232142857143,294.12857142857143,413.9,295.22232142857143,294.12857142857143,521.3,87.22232142857143,457.12857142857143,622.5,61.222321428571426,476.12857142857143,728.4,52.222321428571426,482.12857142857143,829.8,36.222321428571426,511.12857142857143,932.7,33.222321428571426,528.1285714285714,1048,34.222321428571426,538.1285714285714,1150.6,34.222321428571426,538.1285714285714,1256.9,34.222321428571426,538.1285714285714,1357.4,34.222321428571426,538.1285714285714,1458,34.222321428571426,538.1285714285714,1568.2,34.222321428571426,538.1285714285714,1674.7,34.222321428571426,538.1285714285714,1779.1,34.222321428571426,538.1285714285714,1885.8,34.222321428571426,538.1285714285714,1995.6,34.222321428571426,538.1285714285714,2101.2,-121.77767857142857,539.1285714285714,2208.2,-163.77767857142857,535.1285714285714,2309.9,-168.77767857142857,538.1285714285714,2411.3,-168.77767857142857,538.1285714285714,2513,-168.77767857142857,538.1285714285714,2615.4,-168.77767857142857,538.1285714285714,2720.1,-168.77767857142857,538.1285714285714,2824.9,-168.77767857142857,538.1285714285714,2928.9,-168.77767857142857,538.1285714285714,3032.6,-168.77767857142857,538.1285714285714,3135.7,-168.77767857142857,538.1285714285714,3236.1,-168.77767857142857,538.1285714285714,3343.4,-168.77767857142857,538.1285714285714,3444.6,-168.77767857142857,538.1285714285714,3555.5,-168.77767857142857,538.1285714285714,3659.3,-168.77767857142857,538.1285714285714,3761.9,-168.77767857142857,538.1285714285714,3863.1,-168.77767857142857,538.1285714285714,3966.1,-168.77767857142857,538.1285714285714,4066.1,-168.77767857142857,538.1285714285714,4166.4,-168.77767857142857,538.1285714285714,4271.9,-168.77767857142857,538.1285714285714,4378.4,-168.77767857142857,538.1285714285714,4486,-168.77767857142857,538.1285714285714,4592,-168.77767857142857,538.1285714285714,4700.6,-168.77767857142857,538.1285714285714,4805.7,-168.77767857142857,538.1285714285714,4910.6]","[1641,1641,1000,0,641,""smooth"",""down"",""down"",""good_move"",4068.1,2423,2014.3,1645.2,408.7,""smooth"",""down"",""down"",""good_move"",6466.1,2396.7,2049.5,4069.4,347.2,""smooth"",""down"",""down"",""good_move"",9354.3,2887.1,2445,6467.2,442.1,""smooth"",""left"",""left"",""good_move"",12614,3258.1,2816.5,9355.9,441.6,""oops"",""left"",""right"",""bad_move"",18550.1,5934.5,2264.7,15873.5,412,""smooth"",""right"",""right"",""bad_move"",21899.7,3345,2886.4,18554.7,458.6,""smooth"",""left"",""left"",""good_move"",28735.3,6833.5,3064.8,25212.1,458.4,""smooth"",""left"",""left"",""good_move"",31456,2719.4,2153.5,28736.6,565.9,""smooth"",""left"",""left"",""good_move"",34426.9,2967.7,2611.5,31459.3,356.2,""smooth"",""left"",""left"",""good_move""]","",""
"10462","","<div style=""width:500px;"">
  <p>What determined the result of this run?</p>
  </div>","100","html-slider-response","15","361923","0.0-5.0-1.1","191","1","2025-07-23 08:07:50","1f75c3e559b7213887762d5229550c2b","105.245.240.112","Mozilla/5.0 (Windows NT 10.0; Win64; x64) AppleWebKit/537.36 (KHTML, like Gecko) Chrome/138.0.0.0 Safari/537.36","WebKit","Chrome","138.0.0.0","Windows","10.0","https://app.prolific.com/","en-US,en;q=0.9,xh;q=0.8","665f239f78bd39782ef04172","683dba2a8a9dda3513610c04","688097768eb855e7826ed11e","3","0","665f239f78bd39782ef04172","3","0","2025-07-23T08:13:57.191Z","","","","","","","","","","","AttribQ","","50","","","","","","","","","","","","","","","","","","","","","","","","","","","","",""
"4548","","<div style=""width:500px;"">
  <p>How much control did you have over the ball?</p>
  </div>","78","html-slider-response","16","366474","0.0-5.0-2.1","191","1","2025-07-23 08:07:50","1f75c3e559b7213887762d5229550c2b","105.245.240.112","Mozilla/5.0 (Windows NT 10.0; Win64; x64) AppleWebKit/537.36 (KHTML, like Gecko) Chrome/138.0.0.0 Safari/537.36","WebKit","Chrome","138.0.0.0","Windows","10.0","https://app.prolific.com/","en-US,en;q=0.9,xh;q=0.8","665f239f78bd39782ef04172","683dba2a8a9dda3513610c04","688097768eb855e7826ed11e","3","0","665f239f78bd39782ef04172","3","0","2025-07-23T08:14:01.742Z","","","","","","","","","","","ControlQ","","50","","","","","","","","","","","","","","","","","","","","","","","","","","","","",""
"3905","","<div style=""width:500px;"">
  <p>How would you describe your current emotional state?</p>
  </div>","0","html-slider-response","17","370383","0.0-5.0-3.1","191","1","2025-07-23 08:07:50","1f75c3e559b7213887762d5229550c2b","105.245.240.112","Mozilla/5.0 (Windows NT 10.0; Win64; x64) AppleWebKit/537.36 (KHTML, like Gecko) Chrome/138.0.0.0 Safari/537.36","WebKit","Chrome","138.0.0.0","Windows","10.0","https://app.prolific.com/","en-US,en;q=0.9,xh;q=0.8","665f239f78bd39782ef04172","683dba2a8a9dda3513610c04","688097768eb855e7826ed11e","3","0","665f239f78bd39782ef04172","3","0","2025-07-23T08:14:05.650Z","","","","","","","","","","","StressQ","","50","","","","","","","","","","","","","","","","","","","","","","","","","","","","",""
"3548","","<div style=""width:500px;"">
  <p>What best describes how you currently feel?</p>
  </div>","89","html-slider-response","18","373933","0.0-5.0-4.1","191","1","2025-07-23 08:07:50","1f75c3e559b7213887762d5229550c2b","105.245.240.112","Mozilla/5.0 (Windows NT 10.0; Win64; x64) AppleWebKit/537.36 (KHTML, like Gecko) Chrome/138.0.0.0 Safari/537.36","WebKit","Chrome","138.0.0.0","Windows","10.0","https://app.prolific.com/","en-US,en;q=0.9,xh;q=0.8","665f239f78bd39782ef04172","683dba2a8a9dda3513610c04","688097768eb855e7826ed11e","3","0","665f239f78bd39782ef04172","3","0","2025-07-23T08:14:09.200Z","","","","","","","","","","","MotivationQ","","50","","","","","","","","","","","","","","","","","","","","","","","","","","","","",""
"","","","","ctl-task-cpt","19","412669","0.0-5.0-0.2","191","1","2025-07-23 08:07:50","1f75c3e559b7213887762d5229550c2b","105.245.240.112","Mozilla/5.0 (Windows NT 10.0; Win64; x64) AppleWebKit/537.36 (KHTML, like Gecko) Chrome/138.0.0.0 Safari/537.36","WebKit","Chrome","138.0.0.0","Windows","10.0","https://app.prolific.com/","en-US,en;q=0.9,xh;q=0.8","665f239f78bd39782ef04172","683dba2a8a9dda3513610c04","688097768eb855e7826ed11e","3","0","665f239f78bd39782ef04172","3","0","2025-07-23T08:14:47.936Z","","","","","","","","","","","","","","win-only","0","g1:NW,g2:SE","0.8","3","0","379437.1","1543.2","6550.7","35698.5","1","4","8","6","2","8","8","20","12","0.15151515151515152","1378","3000","555","[""down"",""right""]","{""num_key_presses"":8,""num_perfect"":6,""num_errors"":0,""num_randdir"":2,""num_randdir_good_moves"":1,""num_whilered"":0,""num_whileblue"":0,""num_blue"":2,""num_good_moves"":7}","[296.22232142857143,293.12857142857143,12.6,296.22232142857143,293.12857142857143,102.4,296.22232142857143,293.12857142857143,203.8,296.22232142857143,293.12857142857143,307.2,296.22232142857143,293.12857142857143,407.3,296.22232142857143,293.12857142857143,510.7,330.22232142857143,317.12857142857143,618,429.22232142857143,425.12857142857143,728.7,471.22232142857143,495.12857142857143,831.1,496.22232142857143,523.1285714285714,935.9,546.2223214285714,530.1285714285714,1041.3,564.2223214285714,534.1285714285714,1142.3,575.2223214285714,535.1285714285714,1245,575.2223214285714,535.1285714285714,1358.8,575.2223214285714,535.1285714285714,1459.4,575.2223214285714,535.1285714285714,1565.8,575.2223214285714,535.1285714285714,1672.4,575.2223214285714,535.1285714285714,1782,575.2223214285714,535.1285714285714,1886.1,575.2223214285714,535.1285714285714,1996.6,575.2223214285714,535.1285714285714,2098.4,575.2223214285714,535.1285714285714,2203,575.2223214285714,535.1285714285714,2309.4,575.2223214285714,535.1285714285714,2415.9,575.2223214285714,535.1285714285714,2518.1,575.2223214285714,535.1285714285714,2623.7,575.2223214285714,535.1285714285714,2728.3,575.2223214285714,535.1285714285714,2834.3,575.2223214285714,535.1285714285714,2941.2,575.2223214285714,535.1285714285714,3042.8,575.2223214285714,535.1285714285714,3143.7,575.2223214285714,535.1285714285714,3257.8,575.2223214285714,535.1285714285714,3357.9,575.2223214285714,535.1285714285714,3460.6,575.2223214285714,535.1285714285714,3562.9,575.2223214285714,535.1285714285714,3678.3,575.2223214285714,535.1285714285714,3778.6,575.2223214285714,535.1285714285714,3879,575.2223214285714,535.1285714285714,3986.2,575.2223214285714,535.1285714285714,4092.4,575.2223214285714,535.1285714285714,4194.5,575.2223214285714,535.1285714285714,4299.1,575.2223214285714,535.1285714285714,4409.7,575.2223214285714,535.1285714285714,4509.8,575.2223214285714,535.1285714285714,4613.9,575.2223214285714,535.1285714285714,4717.9,575.2223214285714,535.1285714285714,4819.2,575.2223214285714,535.1285714285714,4931.3]","[1524.2,1524.2,1000,0,524.2,""smooth"",""down"",""down"",""good_move"",4540.6,3015.3,2539.1,1525.3,476.2,""oops"",""down"",""up"",""bad_move"",7345.3,2803.4,2301.8,4542,501.6,""smooth"",""right"",""right"",""good_move"",10478.9,3131.3,2710.9,7347.6,420.4,""smooth"",""right"",""right"",""good_move"",17124,6643.9,2763.6,13917.9,442.5,""smooth"",""right"",""right"",""good_move"",20123.8,2999.3,2600.2,17124.5,399.1,""oops"",""down"",""down"",""good_move"",26347.2,6222,2267.6,23647.6,432,""smooth"",""down"",""down"",""good_move"",29020.2,2672.4,2171.1,26347.9,501.2,""smooth"",""down"",""down"",""good_move""]","",""
"16150","","<div style=""width:500px;"">
  <p>What determined the result of this run?</p>
  </div>","100","html-slider-response","20","428825","0.0-5.0-1.2","191","1","2025-07-23 08:07:50","1f75c3e559b7213887762d5229550c2b","105.245.240.112","Mozilla/5.0 (Windows NT 10.0; Win64; x64) AppleWebKit/537.36 (KHTML, like Gecko) Chrome/138.0.0.0 Safari/537.36","WebKit","Chrome","138.0.0.0","Windows","10.0","https://app.prolific.com/","en-US,en;q=0.9,xh;q=0.8","665f239f78bd39782ef04172","683dba2a8a9dda3513610c04","688097768eb855e7826ed11e","3","0","665f239f78bd39782ef04172","3","0","2025-07-23T08:15:04.092Z","","","","","","","","","","","AttribQ","","50","","","","","","","","","","","","","","","","","","","","","","","","","","","","",""
"3512","","<div style=""width:500px;"">
  <p>How much control did you have over the ball?</p>
  </div>","64","html-slider-response","21","432339","0.0-5.0-2.2","191","1","2025-07-23 08:07:50","1f75c3e559b7213887762d5229550c2b","105.245.240.112","Mozilla/5.0 (Windows NT 10.0; Win64; x64) AppleWebKit/537.36 (KHTML, like Gecko) Chrome/138.0.0.0 Safari/537.36","WebKit","Chrome","138.0.0.0","Windows","10.0","https://app.prolific.com/","en-US,en;q=0.9,xh;q=0.8","665f239f78bd39782ef04172","683dba2a8a9dda3513610c04","688097768eb855e7826ed11e","3","0","665f239f78bd39782ef04172","3","0","2025-07-23T08:15:07.606Z","","","","","","","","","","","ControlQ","","50","","","","","","","","","","","","","","","","","","","","","","","","","","","","",""
"3208","","<div style=""width:500px;"">
  <p>How would you describe your current emotional state?</p>
  </div>","0","html-slider-response","22","435549","0.0-5.0-3.2","191","1","2025-07-23 08:07:50","1f75c3e559b7213887762d5229550c2b","105.245.240.112","Mozilla/5.0 (Windows NT 10.0; Win64; x64) AppleWebKit/537.36 (KHTML, like Gecko) Chrome/138.0.0.0 Safari/537.36","WebKit","Chrome","138.0.0.0","Windows","10.0","https://app.prolific.com/","en-US,en;q=0.9,xh;q=0.8","665f239f78bd39782ef04172","683dba2a8a9dda3513610c04","688097768eb855e7826ed11e","3","0","665f239f78bd39782ef04172","3","0","2025-07-23T08:15:10.816Z","","","","","","","","","","","StressQ","","50","","","","","","","","","","","","","","","","","","","","","","","","","","","","",""
"3222","","<div style=""width:500px;"">
  <p>What best describes how you currently feel?</p>
  </div>","100","html-slider-response","23","438773","0.0-5.0-4.2","191","1","2025-07-23 08:07:50","1f75c3e559b7213887762d5229550c2b","105.245.240.112","Mozilla/5.0 (Windows NT 10.0; Win64; x64) AppleWebKit/537.36 (KHTML, like Gecko) Chrome/138.0.0.0 Safari/537.36","WebKit","Chrome","138.0.0.0","Windows","10.0","https://app.prolific.com/","en-US,en;q=0.9,xh;q=0.8","665f239f78bd39782ef04172","683dba2a8a9dda3513610c04","688097768eb855e7826ed11e","3","0","665f239f78bd39782ef04172","3","0","2025-07-23T08:15:14.041Z","","","","","","","","","","","MotivationQ","","50","","","","","","","","","","","","","","","","","","","","","","","","","","","","",""
"","","","","ctl-task-cpt","24","485270","0.0-5.0-0.3","191","1","2025-07-23 08:07:50","1f75c3e559b7213887762d5229550c2b","105.245.240.112","Mozilla/5.0 (Windows NT 10.0; Win64; x64) AppleWebKit/537.36 (KHTML, like Gecko) Chrome/138.0.0.0 Safari/537.36","WebKit","Chrome","138.0.0.0","Windows","10.0","https://app.prolific.com/","en-US,en;q=0.9,xh;q=0.8","665f239f78bd39782ef04172","683dba2a8a9dda3513610c04","688097768eb855e7826ed11e","3","0","665f239f78bd39782ef04172","3","0","2025-07-23T08:16:00.538Z","","","","","","","","","","","","","","win-only","2","g1:SE,g2:NW","0.7","4","0","444276.9","1274.3","6287.5","43488.4","1","4","4","6","2","-4","-4","16","20","0.12121212121212122","2200.5","3000","-1940","[""left"",""up""]","{""num_key_presses"":11,""num_perfect"":8,""num_errors"":0,""num_randdir"":3,""num_randdir_good_moves"":0,""num_whilered"":0,""num_whileblue"":0,""num_blue"":1,""num_good_moves"":8}","[292.22232142857143,292.12857142857143,10.9,292.22232142857143,292.12857142857143,103.9,292.22232142857143,292.12857142857143,212.1,292.22232142857143,292.12857142857143,312.4,292.22232142857143,292.12857142857143,420.6,292.22232142857143,292.12857142857143,534.9,292.22232142857143,292.12857142857143,643.4,292.22232142857143,292.12857142857143,752.8,292.22232142857143,292.12857142857143,856.7,292.22232142857143,292.12857142857143,960.8,292.22232142857143,292.12857142857143,1061.6,292.22232142857143,292.12857142857143,1166.5,292.22232142857143,292.12857142857143,1272.7,292.22232142857143,292.12857142857143,1372.7,134.22232142857143,77.12857142857143,1474,134.22232142857143,-67.87142857142857,1576.8,128.22232142857143,-77.87142857142857,1679.2,36.222321428571426,14.128571428571426,1780.6,40.222321428571426,39.128571428571426,1882.1,48.222321428571426,63.128571428571426,1994.4,49.222321428571426,65.12857142857143,2095.6,49.222321428571426,65.12857142857143,2205.2,49.222321428571426,65.12857142857143,2315.4,49.222321428571426,65.12857142857143,2441.6,49.222321428571426,65.12857142857143,2546.3,49.222321428571426,65.12857142857143,2646.5,49.222321428571426,65.12857142857143,2756.8,49.222321428571426,65.12857142857143,2865.3,-40.777678571428574,150.12857142857143,2973.3,-111.77767857142857,241.12857142857143,3076.9,-152.77767857142857,308.12857142857143,3184,-152.77767857142857,308.12857142857143,3290,-152.77767857142857,308.12857142857143,3395.5,-152.77767857142857,308.12857142857143,3501.3,-152.77767857142857,308.12857142857143,3611.2,-152.77767857142857,308.12857142857143,3715.2,-152.77767857142857,308.12857142857143,3815.9,-152.77767857142857,308.12857142857143,3922.1,-152.77767857142857,308.12857142857143,4024.2,-152.77767857142857,308.12857142857143,4126.3,-152.77767857142857,308.12857142857143,4228.1,-152.77767857142857,308.12857142857143,4332.7,-152.77767857142857,308.12857142857143,4443.7,-152.77767857142857,308.12857142857143,4545.9,-152.77767857142857,308.12857142857143,4647.1,-152.77767857142857,308.12857142857143,4758.9,-152.77767857142857,308.12857142857143,4875.8,-152.77767857142857,308.12857142857143,4976.8]","[4882.8,4882.8,2387.3,2011.5,484,""smooth"",""up"",""up"",""good_move"",8281.6,3397.7,2982.5,4883.9,415.2,""smooth"",""up"",""up"",""good_move"",10971.1,2688.7,2274,8282.5,414.6,""smooth"",""up"",""up"",""good_move"",13685.8,2713.5,2352.7,10972.3,360.8,""oops"",""left"",""down"",""bad_move"",17279.2,3592.4,3149.6,13686.8,442.8,""oops"",""left"",""right"",""bad_move"",20205.3,2925,2489.8,17280.3,435.2,""oops"",""left"",""down"",""bad_move"",23521.9,3315.4,2870.1,20206.5,445.3,""smooth"",""left"",""left"",""good_move"",26653.1,3126.9,2749.3,23526.2,377.6,""smooth"",""left"",""left"",""good_move"",28961.6,2305,1804.6,26656.6,500.4,""smooth"",""left"",""left"",""good_move"",31283.1,2320.4,1873.2,28962.7,447.2,""smooth"",""left"",""left"",""good_move"",34219.1,2935,2516.9,31284.1,418.1,""smooth"",""up"",""up"",""good_move""]","",""
"4701","","<div style=""width:500px;"">
  <p>What determined the result of this run?</p>
  </div>","100","html-slider-response","25","489977","0.0-5.0-1.3","191","1","2025-07-23 08:07:50","1f75c3e559b7213887762d5229550c2b","105.245.240.112","Mozilla/5.0 (Windows NT 10.0; Win64; x64) AppleWebKit/537.36 (KHTML, like Gecko) Chrome/138.0.0.0 Safari/537.36","WebKit","Chrome","138.0.0.0","Windows","10.0","https://app.prolific.com/","en-US,en;q=0.9,xh;q=0.8","665f239f78bd39782ef04172","683dba2a8a9dda3513610c04","688097768eb855e7826ed11e","3","0","665f239f78bd39782ef04172","3","0","2025-07-23T08:16:05.244Z","","","","","","","","","","","AttribQ","","50","","","","","","","","","","","","","","","","","","","","","","","","","","","","",""
"3400","","<div style=""width:500px;"">
  <p>How much control did you have over the ball?</p>
  </div>","37","html-slider-response","26","493380","0.0-5.0-2.3","191","1","2025-07-23 08:07:50","1f75c3e559b7213887762d5229550c2b","105.245.240.112","Mozilla/5.0 (Windows NT 10.0; Win64; x64) AppleWebKit/537.36 (KHTML, like Gecko) Chrome/138.0.0.0 Safari/537.36","WebKit","Chrome","138.0.0.0","Windows","10.0","https://app.prolific.com/","en-US,en;q=0.9,xh;q=0.8","665f239f78bd39782ef04172","683dba2a8a9dda3513610c04","688097768eb855e7826ed11e","3","0","665f239f78bd39782ef04172","3","0","2025-07-23T08:16:08.647Z","","","","","","","","","","","ControlQ","","50","","","","","","","","","","","","","","","","","","","","","","","","","","","","",""
"6404","","<div style=""width:500px;"">
  <p>How would you describe your current emotional state?</p>
  </div>","0","html-slider-response","27","499786","0.0-5.0-3.3","191","1","2025-07-23 08:07:50","1f75c3e559b7213887762d5229550c2b","105.245.240.112","Mozilla/5.0 (Windows NT 10.0; Win64; x64) AppleWebKit/537.36 (KHTML, like Gecko) Chrome/138.0.0.0 Safari/537.36","WebKit","Chrome","138.0.0.0","Windows","10.0","https://app.prolific.com/","en-US,en;q=0.9,xh;q=0.8","665f239f78bd39782ef04172","683dba2a8a9dda3513610c04","688097768eb855e7826ed11e","3","0","665f239f78bd39782ef04172","3","0","2025-07-23T08:16:15.053Z","","","","","","","","","","","StressQ","","50","","","","","","","","","","","","","","","","","","","","","","","","","","","","",""
"2937","","<div style=""width:500px;"">
  <p>What best describes how you currently feel?</p>
  </div>","100","html-slider-response","28","502726","0.0-5.0-4.3","191","1","2025-07-23 08:07:50","1f75c3e559b7213887762d5229550c2b","105.245.240.112","Mozilla/5.0 (Windows NT 10.0; Win64; x64) AppleWebKit/537.36 (KHTML, like Gecko) Chrome/138.0.0.0 Safari/537.36","WebKit","Chrome","138.0.0.0","Windows","10.0","https://app.prolific.com/","en-US,en;q=0.9,xh;q=0.8","665f239f78bd39782ef04172","683dba2a8a9dda3513610c04","688097768eb855e7826ed11e","3","0","665f239f78bd39782ef04172","3","0","2025-07-23T08:16:17.993Z","","","","","","","","","","","MotivationQ","","50","","","","","","","","","","","","","","","","","","","","","","","","","","","","",""
"","","","","ctl-task-cpt","29","575454","0.0-5.0-0.4","191","1","2025-07-23 08:07:50","1f75c3e559b7213887762d5229550c2b","105.245.240.112","Mozilla/5.0 (Windows NT 10.0; Win64; x64) AppleWebKit/537.36 (KHTML, like Gecko) Chrome/138.0.0.0 Safari/537.36","WebKit","Chrome","138.0.0.0","Windows","10.0","https://app.prolific.com/","en-US,en;q=0.9,xh;q=0.8","665f239f78bd39782ef04172","683dba2a8a9dda3513610c04","688097768eb855e7826ed11e","3","0","665f239f78bd39782ef04172","3","0","2025-07-23T08:17:30.721Z","","","","","","","","","","","","","","win-only","1","g1:NE,g2:SW","0.6","5","0","508229","12422.8","17435.5","69701.6","1","4","8","6","2","-8","-8","8","16","0.06060606060606061","1294.1","3000","-1870","[""down"",""left""]","{""num_key_presses"":11,""num_perfect"":6,""num_errors"":0,""num_randdir"":5,""num_randdir_good_moves"":0,""num_whilered"":0,""num_whileblue"":0,""num_blue"":5,""num_good_moves"":6}","[293.22232142857143,296.12857142857143,1,293.22232142857143,296.12857142857143,100.1,293.22232142857143,296.12857142857143,203.1,293.22232142857143,296.12857142857143,315.1,293.22232142857143,296.12857142857143,425.7,293.22232142857143,296.12857142857143,527.5,293.22232142857143,296.12857142857143,631.8,181.22232142857143,385.12857142857143,736.5,99.22232142857143,485.12857142857143,840.6,57.222321428571426,520.1285714285714,942.4,42.222321428571426,533.1285714285714,1048.3,36.222321428571426,539.1285714285714,1159.2,36.222321428571426,539.1285714285714,1261.5,36.222321428571426,539.1285714285714,1364.9,36.222321428571426,539.1285714285714,1478.7,36.222321428571426,539.1285714285714,1586.3,36.222321428571426,539.1285714285714,1690.3,36.222321428571426,539.1285714285714,1801.6,36.222321428571426,539.1285714285714,1907.7,36.222321428571426,539.1285714285714,2011,23.222321428571426,476.12857142857143,2116,-11.777678571428574,394.12857142857143,2217.8,-20.777678571428574,377.12857142857143,2319.9,-20.777678571428574,377.12857142857143,2425.2,-20.777678571428574,377.12857142857143,2528.9,-20.777678571428574,377.12857142857143,2630.4,-20.777678571428574,377.12857142857143,2732.2,-20.777678571428574,377.12857142857143,2835,-20.777678571428574,377.12857142857143,2937,-20.777678571428574,377.12857142857143,3038.8,-20.777678571428574,377.12857142857143,3145.9,-20.777678571428574,377.12857142857143,3246.2,-20.777678571428574,377.12857142857143,3354.8,-20.777678571428574,377.12857142857143,3459.2,-20.777678571428574,377.12857142857143,3565.3,-20.777678571428574,377.12857142857143,3665.9,-20.777678571428574,377.12857142857143,3775.5,-20.777678571428574,377.12857142857143,3875.6,-20.777678571428574,377.12857142857143,3978.4,-20.777678571428574,377.12857142857143,4091.3,-20.777678571428574,377.12857142857143,4198.9,-20.777678571428574,377.12857142857143,4298.9,-20.777678571428574,377.12857142857143,4412.4,-20.777678571428574,377.12857142857143,4517.8,-20.777678571428574,377.12857142857143,4619.5,-20.777678571428574,377.12857142857143,4726.4,-20.777678571428574,377.12857142857143,4829.3,-20.777678571428574,377.12857142857143,4934.7]","[5051,5051,2533.5,2015.7,501.8,""oops"",""down"",""up"",""bad_move"",11496.9,6444.4,2076.3,8950.3,470.3,""oops"",""down"",""right"",""bad_move"",15287.5,3789.2,3374.4,11498.3,414.8,""oops"",""down"",""up"",""bad_move"",19047.2,3758.9,3296.2,15288.3,462.7,""oops"",""down"",""right"",""bad_move"",25717.8,6668.6,2935.4,22368,414.4,""smooth"",""down"",""down"",""good_move"",28786,3066.5,2682.2,25719.5,384.3,""smooth"",""down"",""down"",""good_move"",37906.9,9119.9,1865.3,35546.1,495.5,""smooth"",""down"",""down"",""good_move"",41188.5,3280.7,2806.5,37907.8,474.2,""smooth"",""down"",""down"",""good_move"",44348.8,3158.2,2694.9,41190.6,463.3,""smooth"",""down"",""down"",""good_move"",46925.6,2575.5,2207.3,44350.1,368.2,""smooth"",""left"",""left"",""good_move"",49449.3,2522.8,2173.5,46926.5,349.3,""oops"",""left"",""up"",""bad_move""]","",""
"9357","","<div style=""width:500px;"">
  <p>What determined the result of this run?</p>
  </div>","100","html-slider-response","30","584816","0.0-5.0-1.4","191","1","2025-07-23 08:07:50","1f75c3e559b7213887762d5229550c2b","105.245.240.112","Mozilla/5.0 (Windows NT 10.0; Win64; x64) AppleWebKit/537.36 (KHTML, like Gecko) Chrome/138.0.0.0 Safari/537.36","WebKit","Chrome","138.0.0.0","Windows","10.0","https://app.prolific.com/","en-US,en;q=0.9,xh;q=0.8","665f239f78bd39782ef04172","683dba2a8a9dda3513610c04","688097768eb855e7826ed11e","3","0","665f239f78bd39782ef04172","3","0","2025-07-23T08:17:40.083Z","","","","","","","","","","","AttribQ","","50","","","","","","","","","","","","","","","","","","","","","","","","","","","","",""
"5224","","<div style=""width:500px;"">
  <p>How much control did you have over the ball?</p>
  </div>","0","html-slider-response","31","590044","0.0-5.0-2.4","191","1","2025-07-23 08:07:50","1f75c3e559b7213887762d5229550c2b","105.245.240.112","Mozilla/5.0 (Windows NT 10.0; Win64; x64) AppleWebKit/537.36 (KHTML, like Gecko) Chrome/138.0.0.0 Safari/537.36","WebKit","Chrome","138.0.0.0","Windows","10.0","https://app.prolific.com/","en-US,en;q=0.9,xh;q=0.8","665f239f78bd39782ef04172","683dba2a8a9dda3513610c04","688097768eb855e7826ed11e","3","0","665f239f78bd39782ef04172","3","0","2025-07-23T08:17:45.311Z","","","","","","","","","","","ControlQ","","50","","","","","","","","","","","","","","","","","","","","","","","","","","","","",""
"3166","","<div style=""width:500px;"">
  <p>How would you describe your current emotional state?</p>
  </div>","0","html-slider-response","32","593212","0.0-5.0-3.4","191","1","2025-07-23 08:07:50","1f75c3e559b7213887762d5229550c2b","105.245.240.112","Mozilla/5.0 (Windows NT 10.0; Win64; x64) AppleWebKit/537.36 (KHTML, like Gecko) Chrome/138.0.0.0 Safari/537.36","WebKit","Chrome","138.0.0.0","Windows","10.0","https://app.prolific.com/","en-US,en;q=0.9,xh;q=0.8","665f239f78bd39782ef04172","683dba2a8a9dda3513610c04","688097768eb855e7826ed11e","3","0","665f239f78bd39782ef04172","3","0","2025-07-23T08:17:48.480Z","","","","","","","","","","","StressQ","","50","","","","","","","","","","","","","","","","","","","","","","","","","","","","",""
"2976","","<div style=""width:500px;"">
  <p>What best describes how you currently feel?</p>
  </div>","100","html-slider-response","33","596191","0.0-5.0-4.4","191","1","2025-07-23 08:07:50","1f75c3e559b7213887762d5229550c2b","105.245.240.112","Mozilla/5.0 (Windows NT 10.0; Win64; x64) AppleWebKit/537.36 (KHTML, like Gecko) Chrome/138.0.0.0 Safari/537.36","WebKit","Chrome","138.0.0.0","Windows","10.0","https://app.prolific.com/","en-US,en;q=0.9,xh;q=0.8","665f239f78bd39782ef04172","683dba2a8a9dda3513610c04","688097768eb855e7826ed11e","3","0","665f239f78bd39782ef04172","3","0","2025-07-23T08:17:51.458Z","","","","","","","","","","","MotivationQ","","50","","","","","","","","","","","","","","","","","","","","","","","","","","","","",""
"","","","","ctl-task-cpt","34","635222","0.0-5.0-0.5","191","1","2025-07-23 08:07:50","1f75c3e559b7213887762d5229550c2b","105.245.240.112","Mozilla/5.0 (Windows NT 10.0; Win64; x64) AppleWebKit/537.36 (KHTML, like Gecko) Chrome/138.0.0.0 Safari/537.36","WebKit","Chrome","138.0.0.0","Windows","10.0","https://app.prolific.com/","en-US,en;q=0.9,xh;q=0.8","665f239f78bd39782ef04172","683dba2a8a9dda3513610c04","688097768eb855e7826ed11e","3","0","665f239f78bd39782ef04172","3","0","2025-07-23T08:18:30.489Z","","","","","","","","","","","","","","win-only","3","g1:SW,g2:NE","0.5","6","0","601695.8","2287.8","7290","36012.2","1","4","4","6","2","4","4","12","8","0.09090909090909091","1380.2","3000","630","[""up"",""right""]","{""num_key_presses"":8,""num_perfect"":4,""num_errors"":0,""num_randdir"":4,""num_randdir_good_moves"":3,""num_whilered"":0,""num_whileblue"":0,""num_blue"":2,""num_good_moves"":7}","[295.22232142857143,296.12857142857143,0.5,295.22232142857143,296.12857142857143,105.3,295.22232142857143,296.12857142857143,212,295.22232142857143,296.12857142857143,315.7,295.22232142857143,296.12857142857143,423.8,295.22232142857143,296.12857142857143,536,295.22232142857143,296.12857142857143,642.4,575.2223214285714,12.128571428571426,747.3,622.2223214285714,-2.8714285714285737,864.1,624.2223214285714,3.1285714285714263,964.7,583.2223214285714,48.128571428571426,1064.8,564.2223214285714,55.128571428571426,1168.6,562.2223214285714,55.128571428571426,1273.6,562.2223214285714,55.128571428571426,1375.1,562.2223214285714,55.128571428571426,1486.9,562.2223214285714,55.128571428571426,1595.3,562.2223214285714,55.128571428571426,1695.9,562.2223214285714,55.128571428571426,1798.1,562.2223214285714,55.128571428571426,1898.8,671.2223214285714,346.12857142857143,2006.1,682.2223214285714,395.12857142857143,2112.8,682.2223214285714,395.12857142857143,2216.9,682.2223214285714,395.12857142857143,2317.3,682.2223214285714,395.12857142857143,2423.3,682.2223214285714,395.12857142857143,2523.3,682.2223214285714,395.12857142857143,2624.2,682.2223214285714,395.12857142857143,2727.7,682.2223214285714,395.12857142857143,2828.8,682.2223214285714,395.12857142857143,2933.3,682.2223214285714,395.12857142857143,3037.5,682.2223214285714,395.12857142857143,3138.7,682.2223214285714,395.12857142857143,3240.1,682.2223214285714,395.12857142857143,3357.7,682.2223214285714,395.12857142857143,3480.4,682.2223214285714,395.12857142857143,3581.6,682.2223214285714,395.12857142857143,3687.5,682.2223214285714,395.12857142857143,3798,682.2223214285714,395.12857142857143,3899.9,682.2223214285714,395.12857142857143,4003.1,682.2223214285714,395.12857142857143,4106.8,682.2223214285714,395.12857142857143,4224.3,682.2223214285714,395.12857142857143,4331.8,682.2223214285714,395.12857142857143,4445.3,682.2223214285714,395.12857142857143,4548.6,682.2223214285714,395.12857142857143,4651.5,682.2223214285714,395.12857142857143,4755.2,682.2223214285714,395.12857142857143,4862.1,682.2223214285714,395.12857142857143,4964.2]","[1906.5,1906.5,1000,0,906.5,""smooth"",""right"",""right"",""good_move"",8421.3,6512.2,3003.2,4920.3,497.8,""oops"",""right"",""right"",""good_move"",11599.3,3177.5,2727.6,8421.8,449.9,""smooth"",""right"",""right"",""good_move"",14688.5,3088.1,2672,11600.5,416.1,""oops"",""up"",""up"",""good_move"",17962.9,3273.1,2869.9,14689.8,403.2,""oops"",""up"",""down"",""bad_move"",20591,2626,2221.5,17965,404.5,""smooth"",""up"",""up"",""good_move"",23153.3,2552.1,2065.4,20601.2,486.7,""oops"",""up"",""up"",""good_move"",28574.6,5419,1747.6,26355.9,471.1,""smooth"",""up"",""up"",""good_move""]","",""
"4390","","<div style=""width:500px;"">
  <p>What determined the result of this run?</p>
  </div>","100","html-slider-response","35","639615","0.0-5.0-1.5","191","1","2025-07-23 08:07:50","1f75c3e559b7213887762d5229550c2b","105.245.240.112","Mozilla/5.0 (Windows NT 10.0; Win64; x64) AppleWebKit/537.36 (KHTML, like Gecko) Chrome/138.0.0.0 Safari/537.36","WebKit","Chrome","138.0.0.0","Windows","10.0","https://app.prolific.com/","en-US,en;q=0.9,xh;q=0.8","665f239f78bd39782ef04172","683dba2a8a9dda3513610c04","688097768eb855e7826ed11e","3","0","665f239f78bd39782ef04172","3","0","2025-07-23T08:18:34.882Z","","","","","","","","","","","AttribQ","","50","","","","","","","","","","","","","","","","","","","","","","","","","","","","",""
"2630","","<div style=""width:500px;"">
  <p>How much control did you have over the ball?</p>
  </div>","71","html-slider-response","36","642248","0.0-5.0-2.5","191","1","2025-07-23 08:07:50","1f75c3e559b7213887762d5229550c2b","105.245.240.112","Mozilla/5.0 (Windows NT 10.0; Win64; x64) AppleWebKit/537.36 (KHTML, like Gecko) Chrome/138.0.0.0 Safari/537.36","WebKit","Chrome","138.0.0.0","Windows","10.0","https://app.prolific.com/","en-US,en;q=0.9,xh;q=0.8","665f239f78bd39782ef04172","683dba2a8a9dda3513610c04","688097768eb855e7826ed11e","3","0","665f239f78bd39782ef04172","3","0","2025-07-23T08:18:37.515Z","","","","","","","","","","","ControlQ","","50","","","","","","","","","","","","","","","","","","","","","","","","","","","","",""
"3215","","<div style=""width:500px;"">
  <p>How would you describe your current emotional state?</p>
  </div>","0","html-slider-response","37","645466","0.0-5.0-3.5","191","1","2025-07-23 08:07:50","1f75c3e559b7213887762d5229550c2b","105.245.240.112","Mozilla/5.0 (Windows NT 10.0; Win64; x64) AppleWebKit/537.36 (KHTML, like Gecko) Chrome/138.0.0.0 Safari/537.36","WebKit","Chrome","138.0.0.0","Windows","10.0","https://app.prolific.com/","en-US,en;q=0.9,xh;q=0.8","665f239f78bd39782ef04172","683dba2a8a9dda3513610c04","688097768eb855e7826ed11e","3","0","665f239f78bd39782ef04172","3","0","2025-07-23T08:18:40.733Z","","","","","","","","","","","StressQ","","50","","","","","","","","","","","","","","","","","","","","","","","","","","","","",""
"3344","","<div style=""width:500px;"">
  <p>What best describes how you currently feel?</p>
  </div>","93","html-slider-response","38","648814","0.0-5.0-4.5","191","1","2025-07-23 08:07:50","1f75c3e559b7213887762d5229550c2b","105.245.240.112","Mozilla/5.0 (Windows NT 10.0; Win64; x64) AppleWebKit/537.36 (KHTML, like Gecko) Chrome/138.0.0.0 Safari/537.36","WebKit","Chrome","138.0.0.0","Windows","10.0","https://app.prolific.com/","en-US,en;q=0.9,xh;q=0.8","665f239f78bd39782ef04172","683dba2a8a9dda3513610c04","688097768eb855e7826ed11e","3","0","665f239f78bd39782ef04172","3","0","2025-07-23T08:18:44.081Z","","","","","","","","","","","MotivationQ","","50","","","","","","","","","","","","","","","","","","","","","","","","","","","","",""
"","","","","ctl-task-cpt","39","697842","0.0-5.0-0.6","191","1","2025-07-23 08:07:50","1f75c3e559b7213887762d5229550c2b","105.245.240.112","Mozilla/5.0 (Windows NT 10.0; Win64; x64) AppleWebKit/537.36 (KHTML, like Gecko) Chrome/138.0.0.0 Safari/537.36","WebKit","Chrome","138.0.0.0","Windows","10.0","https://app.prolific.com/","en-US,en;q=0.9,xh;q=0.8","665f239f78bd39782ef04172","683dba2a8a9dda3513610c04","688097768eb855e7826ed11e","3","0","665f239f78bd39782ef04172","3","0","2025-07-23T08:19:33.110Z","","","","","","","","","","","","","","win-only","3","g1:SW,g2:NE","0.4","7","0","654319.9","1313.2","6317.3","46008.6","1","4","8","6","2","-8","-8","4","12","0.030303030303030304","1356.7","3000","-1760","[""up"",""right""]","{""num_key_presses"":8,""num_perfect"":3,""num_errors"":0,""num_randdir"":5,""num_randdir_good_moves"":2,""num_whilered"":0,""num_whileblue"":0,""num_blue"":4,""num_good_moves"":5}","[296.22232142857143,292.12857142857143,0.5,296.22232142857143,292.12857142857143,106.5,296.22232142857143,292.12857142857143,222.9,296.22232142857143,292.12857142857143,334.1,296.22232142857143,292.12857142857143,434.4,296.22232142857143,292.12857142857143,535.9,478.22232142857143,173.12857142857143,649.9,539.2223214285714,122.12857142857143,757.9,544.2223214285714,109.12857142857143,859.7,545.2223214285714,98.12857142857143,965.6,546.2223214285714,81.12857142857143,1065.7,546.2223214285714,70.12857142857143,1167.6,546.2223214285714,70.12857142857143,1272.4,546.2223214285714,70.12857142857143,1375.1,546.2223214285714,70.12857142857143,1475.7,546.2223214285714,70.12857142857143,1585.4,546.2223214285714,70.12857142857143,1690.4,546.2223214285714,70.12857142857143,1802.9,546.2223214285714,70.12857142857143,1906,551.2223214285714,79.12857142857143,2014.4,651.2223214285714,241.12857142857143,2124.5,657.2223214285714,325.12857142857143,2225.2,657.2223214285714,325.12857142857143,2329.8,657.2223214285714,325.12857142857143,2436.7,657.2223214285714,325.12857142857143,2537.7,657.2223214285714,325.12857142857143,2639.7,657.2223214285714,325.12857142857143,2744.1,657.2223214285714,325.12857142857143,2849.4,657.2223214285714,325.12857142857143,2956.2,657.2223214285714,325.12857142857143,3058.1,657.2223214285714,325.12857142857143,3167.3,657.2223214285714,325.12857142857143,3273.3,657.2223214285714,325.12857142857143,3374.9,657.2223214285714,325.12857142857143,3484.1,657.2223214285714,325.12857142857143,3589.7,657.2223214285714,325.12857142857143,3694.4,657.2223214285714,325.12857142857143,3797.8,657.2223214285714,325.12857142857143,3898.9,657.2223214285714,325.12857142857143,4003.5,657.2223214285714,325.12857142857143,4104.7,657.2223214285714,325.12857142857143,4210.1,657.2223214285714,325.12857142857143,4318.7,657.2223214285714,325.12857142857143,4419.5,657.2223214285714,325.12857142857143,4523.8,657.2223214285714,325.12857142857143,4625.7,657.2223214285714,325.12857142857143,4734.2,657.2223214285714,325.12857142857143,4840.7,657.2223214285714,325.12857142857143,4950.6]","[1744.9,1744.9,1000,0.1,744.8,""oops"",""right"",""up"",""good_move"",3879.6,2126.8,1618.1,1752.9,508.7,""smooth"",""right"",""right"",""good_move"",6111.7,2229.5,1839.9,3882.2,389.6,""smooth"",""right"",""right"",""good_move"",19674.3,13561.7,2329,16918.2,427.1,""oops"",""right"",""down"",""bad_move"",22622.3,2946.2,2519.4,19676.1,426.8,""oops"",""up"",""down"",""bad_move"",29963.6,7340.3,2599.9,26916,447.7,""smooth"",""right"",""right"",""good_move"",33727.5,3757.9,3004.1,29969.6,753.8,""oops"",""up"",""down"",""bad_move"",37294.7,3566.1,2680.9,33728.6,885.2,""oops"",""up"",""up"",""good_move""]","",""
"10958","","<div style=""width:500px;"">
  <p>What determined the result of this run?</p>
  </div>","91","html-slider-response","40","708803","0.0-5.0-1.6","191","1","2025-07-23 08:07:50","1f75c3e559b7213887762d5229550c2b","105.245.240.112","Mozilla/5.0 (Windows NT 10.0; Win64; x64) AppleWebKit/537.36 (KHTML, like Gecko) Chrome/138.0.0.0 Safari/537.36","WebKit","Chrome","138.0.0.0","Windows","10.0","https://app.prolific.com/","en-US,en;q=0.9,xh;q=0.8","665f239f78bd39782ef04172","683dba2a8a9dda3513610c04","688097768eb855e7826ed11e","3","0","665f239f78bd39782ef04172","3","0","2025-07-23T08:19:44.070Z","","","","","","","","","","","AttribQ","","50","","","","","","","","","","","","","","","","","","","","","","","","","","","","",""
"42881","","<div style=""width:500px;"">
  <p>How much control did you have over the ball?</p>
  </div>","7","html-slider-response","41","751687","0.0-5.0-2.6","191","1","2025-07-23 08:07:50","1f75c3e559b7213887762d5229550c2b","105.245.240.112","Mozilla/5.0 (Windows NT 10.0; Win64; x64) AppleWebKit/537.36 (KHTML, like Gecko) Chrome/138.0.0.0 Safari/537.36","WebKit","Chrome","138.0.0.0","Windows","10.0","https://app.prolific.com/","en-US,en;q=0.9,xh;q=0.8","665f239f78bd39782ef04172","683dba2a8a9dda3513610c04","688097768eb855e7826ed11e","3","0","665f239f78bd39782ef04172","3","0","2025-07-23T08:20:26.955Z","","","","","","","","","","","ControlQ","","50","","","","","","","","","","","","","","","","","","","","","","","","","","","","",""
"3977","","<div style=""width:500px;"">
  <p>How would you describe your current emotional state?</p>
  </div>","0","html-slider-response","42","755671","0.0-5.0-3.6","191","1","2025-07-23 08:07:50","1f75c3e559b7213887762d5229550c2b","105.245.240.112","Mozilla/5.0 (Windows NT 10.0; Win64; x64) AppleWebKit/537.36 (KHTML, like Gecko) Chrome/138.0.0.0 Safari/537.36","WebKit","Chrome","138.0.0.0","Windows","10.0","https://app.prolific.com/","en-US,en;q=0.9,xh;q=0.8","665f239f78bd39782ef04172","683dba2a8a9dda3513610c04","688097768eb855e7826ed11e","3","0","665f239f78bd39782ef04172","3","0","2025-07-23T08:20:30.939Z","","","","","","","","","","","StressQ","","50","","","","","","","","","","","","","","","","","","","","","","","","","","","","",""
"7759","","<div style=""width:500px;"">
  <p>What best describes how you currently feel?</p>
  </div>","100","html-slider-response","43","763434","0.0-5.0-4.6","191","1","2025-07-23 08:07:50","1f75c3e559b7213887762d5229550c2b","105.245.240.112","Mozilla/5.0 (Windows NT 10.0; Win64; x64) AppleWebKit/537.36 (KHTML, like Gecko) Chrome/138.0.0.0 Safari/537.36","WebKit","Chrome","138.0.0.0","Windows","10.0","https://app.prolific.com/","en-US,en;q=0.9,xh;q=0.8","665f239f78bd39782ef04172","683dba2a8a9dda3513610c04","688097768eb855e7826ed11e","3","0","665f239f78bd39782ef04172","3","0","2025-07-23T08:20:38.701Z","","","","","","","","","","","MotivationQ","","50","","","","","","","","","","","","","","","","","","","","","","","","","","","","",""
"","","","","ctl-task-cpt","44","814074","0.0-5.0-0.7","191","1","2025-07-23 08:07:50","1f75c3e559b7213887762d5229550c2b","105.245.240.112","Mozilla/5.0 (Windows NT 10.0; Win64; x64) AppleWebKit/537.36 (KHTML, like Gecko) Chrome/138.0.0.0 Safari/537.36","WebKit","Chrome","138.0.0.0","Windows","10.0","https://app.prolific.com/","en-US,en;q=0.9,xh;q=0.8","665f239f78bd39782ef04172","683dba2a8a9dda3513610c04","688097768eb855e7826ed11e","3","0","665f239f78bd39782ef04172","3","0","2025-07-23T08:21:29.342Z","","","","","","","","","","","","","","win-only","1","g1:NE,g2:SW","0.3","8","0","768938.3","9831.8","14846.3","47622.5","1","4","4","6","2","4","4","8","4","0.06060606060606061","1321.7","3000","765","[""down"",""left""]","{""num_key_presses"":8,""num_perfect"":2,""num_errors"":0,""num_randdir"":6,""num_randdir_good_moves"":5,""num_whilered"":0,""num_whileblue"":0,""num_blue"":3,""num_good_moves"":7}","[297.22232142857143,301.12857142857143,2.4,297.22232142857143,301.12857142857143,104.7,297.22232142857143,301.12857142857143,207.4,297.22232142857143,301.12857142857143,307.5,297.22232142857143,301.12857142857143,407.8,297.22232142857143,301.12857142857143,511.3,118.22232142857143,470.12857142857143,611.9,25.222321428571426,580.1285714285714,713.3,19.222321428571426,587.1285714285714,818.8,17.222321428571426,587.1285714285714,923.1,22.222321428571426,569.1285714285714,1025.2,37.222321428571426,554.1285714285714,1127.2,37.222321428571426,553.1285714285714,1238,37.222321428571426,553.1285714285714,1342.1,37.222321428571426,553.1285714285714,1452.7,37.222321428571426,553.1285714285714,1555.3,37.222321428571426,553.1285714285714,1661,37.222321428571426,553.1285714285714,1766.6,37.222321428571426,553.1285714285714,1875.2,4.222321428571426,491.12857142857143,1975.6,-26.777678571428574,426.12857142857143,2078.2,-26.777678571428574,426.12857142857143,2183.8,-26.777678571428574,426.12857142857143,2300.3,-26.777678571428574,426.12857142857143,2405,-26.777678571428574,426.12857142857143,2505.2,-26.777678571428574,426.12857142857143,2610.3,-26.777678571428574,426.12857142857143,2721.9,-26.777678571428574,426.12857142857143,2824.9,-26.777678571428574,426.12857142857143,2926.4,-26.777678571428574,426.12857142857143,3026.8,-26.777678571428574,426.12857142857143,3132,-26.777678571428574,426.12857142857143,3235.1,-26.777678571428574,426.12857142857143,3339.7,-26.777678571428574,426.12857142857143,3444.2,-26.777678571428574,426.12857142857143,3545,-26.777678571428574,426.12857142857143,3648,-26.777678571428574,426.12857142857143,3748.7,-26.777678571428574,426.12857142857143,3855.3,-26.777678571428574,426.12857142857143,3955.4,-26.777678571428574,426.12857142857143,4059.8,-26.777678571428574,426.12857142857143,4164.9,-26.777678571428574,426.12857142857143,4265.1,-26.777678571428574,426.12857142857143,4370.8,-26.777678571428574,426.12857142857143,4476.4,-26.777678571428574,426.12857142857143,4577.2,-26.777678571428574,426.12857142857143,4681.1,-26.777678571428574,426.12857142857143,4802,-26.777678571428574,426.12857142857143,4906.3]","[1534.4,1534.4,1000,0,534.4,""oops"",""down"",""left"",""good_move"",4754.7,3209.9,2810.3,1544.8,399.6,""oops"",""down"",""down"",""good_move"",14911,10148.5,2838.9,11612.8,459.3,""oops"",""down"",""down"",""good_move"",17564.2,2652.7,2198.2,14911.5,454.5,""oops"",""down"",""left"",""good_move"",19623.9,2055.5,1535.5,17568.4,520,""oops"",""down"",""up"",""bad_move"",26639,7014,2738.4,23353,547.6,""oops"",""left"",""down"",""good_move"",29759.7,3116.3,2661.3,26643.4,455,""smooth"",""down"",""down"",""good_move"",32617.9,2857.1,2361.5,29760.8,495.6,""smooth"",""left"",""left"",""good_move""]","",""
"6978","","<div style=""width:500px;"">
  <p>What determined the result of this run?</p>
  </div>","97","html-slider-response","45","821055","0.0-5.0-1.7","191","1","2025-07-23 08:07:50","1f75c3e559b7213887762d5229550c2b","105.245.240.112","Mozilla/5.0 (Windows NT 10.0; Win64; x64) AppleWebKit/537.36 (KHTML, like Gecko) Chrome/138.0.0.0 Safari/537.36","WebKit","Chrome","138.0.0.0","Windows","10.0","https://app.prolific.com/","en-US,en;q=0.9,xh;q=0.8","665f239f78bd39782ef04172","683dba2a8a9dda3513610c04","688097768eb855e7826ed11e","3","0","665f239f78bd39782ef04172","3","0","2025-07-23T08:21:36.322Z","","","","","","","","","","","AttribQ","","50","","","","","","","","","","","","","","","","","","","","","","","","","","","","",""
"50348","","<div style=""width:500px;"">
  <p>How much control did you have over the ball?</p>
  </div>","80","html-slider-response","46","871406","0.0-5.0-2.7","191","1","2025-07-23 08:07:50","1f75c3e559b7213887762d5229550c2b","105.245.240.112","Mozilla/5.0 (Windows NT 10.0; Win64; x64) AppleWebKit/537.36 (KHTML, like Gecko) Chrome/138.0.0.0 Safari/537.36","WebKit","Chrome","138.0.0.0","Windows","10.0","https://app.prolific.com/","en-US,en;q=0.9,xh;q=0.8","665f239f78bd39782ef04172","683dba2a8a9dda3513610c04","688097768eb855e7826ed11e","3","0","665f239f78bd39782ef04172","3","0","2025-07-23T08:22:26.674Z","","","","","","","","","","","ControlQ","","50","","","","","","","","","","","","","","","","","","","","","","","","","","","","",""
"3498","","<div style=""width:500px;"">
  <p>How would you describe your current emotional state?</p>
  </div>","0","html-slider-response","47","874908","0.0-5.0-3.7","191","1","2025-07-23 08:07:50","1f75c3e559b7213887762d5229550c2b","105.245.240.112","Mozilla/5.0 (Windows NT 10.0; Win64; x64) AppleWebKit/537.36 (KHTML, like Gecko) Chrome/138.0.0.0 Safari/537.36","WebKit","Chrome","138.0.0.0","Windows","10.0","https://app.prolific.com/","en-US,en;q=0.9,xh;q=0.8","665f239f78bd39782ef04172","683dba2a8a9dda3513610c04","688097768eb855e7826ed11e","3","0","665f239f78bd39782ef04172","3","0","2025-07-23T08:22:30.176Z","","","","","","","","","","","StressQ","","50","","","","","","","","","","","","","","","","","","","","","","","","","","","","",""
"3524","","<div style=""width:500px;"">
  <p>What best describes how you currently feel?</p>
  </div>","90","html-slider-response","48","878435","0.0-5.0-4.7","191","1","2025-07-23 08:07:50","1f75c3e559b7213887762d5229550c2b","105.245.240.112","Mozilla/5.0 (Windows NT 10.0; Win64; x64) AppleWebKit/537.36 (KHTML, like Gecko) Chrome/138.0.0.0 Safari/537.36","WebKit","Chrome","138.0.0.0","Windows","10.0","https://app.prolific.com/","en-US,en;q=0.9,xh;q=0.8","665f239f78bd39782ef04172","683dba2a8a9dda3513610c04","688097768eb855e7826ed11e","3","0","665f239f78bd39782ef04172","3","0","2025-07-23T08:22:33.702Z","","","","","","","","","","","MotivationQ","","50","","","","","","","","","","","","","","","","","","","","","","","","","","","","",""
"","","","","ctl-task-cpt","49","942468","0.0-5.0-0.8","191","1","2025-07-23 08:07:50","1f75c3e559b7213887762d5229550c2b","105.245.240.112","Mozilla/5.0 (Windows NT 10.0; Win64; x64) AppleWebKit/537.36 (KHTML, like Gecko) Chrome/138.0.0.0 Safari/537.36","WebKit","Chrome","138.0.0.0","Windows","10.0","https://app.prolific.com/","en-US,en;q=0.9,xh;q=0.8","665f239f78bd39782ef04172","683dba2a8a9dda3513610c04","688097768eb855e7826ed11e","3","0","665f239f78bd39782ef04172","3","0","2025-07-23T08:23:37.735Z","","","","","","","","","","","","","","win-only","2","g1:SE,g2:NW","0.2","9","0","883940.1","1537.6","6545.6","61005.5","1","4","8","6","2","-8","-8","0","8","0","1116.5","3000","-1700","[""left"",""up""]","{""num_key_presses"":8,""num_perfect"":2,""num_errors"":0,""num_randdir"":6,""num_randdir_good_moves"":2,""num_whilered"":0,""num_whileblue"":0,""num_blue"":8,""num_good_moves"":4}","[294.22232142857143,299.12857142857143,6.6,294.22232142857143,299.12857142857143,105.2,294.22232142857143,299.12857142857143,207.7,294.22232142857143,299.12857142857143,314.2,294.22232142857143,299.12857142857143,416.2,294.22232142857143,299.12857142857143,522.8,294.22232142857143,299.12857142857143,632.3,139.22232142857143,125.12857142857143,738.2,41.222321428571426,65.12857142857143,845.3,41.222321428571426,67.12857142857143,948.5,41.222321428571426,67.12857142857143,1051,41.222321428571426,67.12857142857143,1156.5,41.222321428571426,67.12857142857143,1264,41.222321428571426,67.12857142857143,1384.8,41.222321428571426,67.12857142857143,1488.5,41.222321428571426,67.12857142857143,1589.5,41.222321428571426,67.12857142857143,1694.3,15.222321428571426,78.12857142857143,1803.5,1.2223214285714263,86.12857142857143,1907.4,-1.7776785714285737,88.12857142857143,2010.7,-61.777678571428574,231.12857142857143,2115.4,-78.77767857142857,300.12857142857143,2218.7,-78.77767857142857,300.12857142857143,2320.9,-78.77767857142857,300.12857142857143,2423.1,-78.77767857142857,300.12857142857143,2524.3,-78.77767857142857,300.12857142857143,2625.4,-78.77767857142857,300.12857142857143,2729,-78.77767857142857,300.12857142857143,2833.2,-78.77767857142857,300.12857142857143,2934.5,-78.77767857142857,300.12857142857143,3044.2,-78.77767857142857,300.12857142857143,3155.3,-78.77767857142857,300.12857142857143,3257.1,-78.77767857142857,300.12857142857143,3360.1,-78.77767857142857,300.12857142857143,3465.2,-78.77767857142857,300.12857142857143,3570.8,-78.77767857142857,300.12857142857143,3678.7,-78.77767857142857,300.12857142857143,3785.7,-78.77767857142857,300.12857142857143,3896.5,-78.77767857142857,300.12857142857143,4004.7,-78.77767857142857,300.12857142857143,4111.9,-78.77767857142857,300.12857142857143,4216.8,-78.77767857142857,300.12857142857143,4319.8,-78.77767857142857,300.12857142857143,4421.7,-78.77767857142857,300.12857142857143,4522.4,-78.77767857142857,300.12857142857143,4624.6,-78.77767857142857,300.12857142857143,4736.6,-78.77767857142857,300.12857142857143,4838,-78.77767857142857,300.12857142857143,4948.7]","[1676.4,1676.4,1000,0,676.4,""smooth"",""up"",""up"",""good_move"",5254.3,3576.8,2919.4,1677.5,657.4,""smooth"",""up"",""up"",""good_move"",7425.2,2169.8,1614.2,5255.4,555.6,""oops"",""up"",""down"",""bad_move"",18009.8,10583.4,2097.3,15459.6,452.9,""oops"",""left"",""right"",""bad_move"",27604.4,9592.9,2852.4,24192.7,559.3,""oops"",""up"",""right"",""bad_move"",40698.3,13093.4,2052.5,38176.6,469.2,""oops"",""up"",""down"",""bad_move"",43069.5,2370.5,1794.6,40699,575.9,""oops"",""up"",""left"",""good_move"",51021.5,7950.5,3065.1,47161.9,794.5,""oops"",""up"",""left"",""good_move""]","",""
"16539","","<div style=""width:500px;"">
  <p>What determined the result of this run?</p>
  </div>","100","html-slider-response","50","959010","0.0-5.0-1.8","191","1","2025-07-23 08:07:50","1f75c3e559b7213887762d5229550c2b","105.245.240.112","Mozilla/5.0 (Windows NT 10.0; Win64; x64) AppleWebKit/537.36 (KHTML, like Gecko) Chrome/138.0.0.0 Safari/537.36","WebKit","Chrome","138.0.0.0","Windows","10.0","https://app.prolific.com/","en-US,en;q=0.9,xh;q=0.8","665f239f78bd39782ef04172","683dba2a8a9dda3513610c04","688097768eb855e7826ed11e","3","0","665f239f78bd39782ef04172","3","0","2025-07-23T08:23:54.277Z","","","","","","","","","","","AttribQ","","50","","","","","","","","","","","","","","","","","","","","","","","","","","","","",""
"4458","","<div style=""width:500px;"">
  <p>How much control did you have over the ball?</p>
  </div>","0","html-slider-response","51","963474","0.0-5.0-2.8","191","1","2025-07-23 08:07:50","1f75c3e559b7213887762d5229550c2b","105.245.240.112","Mozilla/5.0 (Windows NT 10.0; Win64; x64) AppleWebKit/537.36 (KHTML, like Gecko) Chrome/138.0.0.0 Safari/537.36","WebKit","Chrome","138.0.0.0","Windows","10.0","https://app.prolific.com/","en-US,en;q=0.9,xh;q=0.8","665f239f78bd39782ef04172","683dba2a8a9dda3513610c04","688097768eb855e7826ed11e","3","0","665f239f78bd39782ef04172","3","0","2025-07-23T08:23:58.742Z","","","","","","","","","","","ControlQ","","50","","","","","","","","","","","","","","","","","","","","","","","","","","","","",""
"5916","","<div style=""width:500px;"">
  <p>How would you describe your current emotional state?</p>
  </div>","0","html-slider-response","52","969393","0.0-5.0-3.8","191","1","2025-07-23 08:07:50","1f75c3e559b7213887762d5229550c2b","105.245.240.112","Mozilla/5.0 (Windows NT 10.0; Win64; x64) AppleWebKit/537.36 (KHTML, like Gecko) Chrome/138.0.0.0 Safari/537.36","WebKit","Chrome","138.0.0.0","Windows","10.0","https://app.prolific.com/","en-US,en;q=0.9,xh;q=0.8","665f239f78bd39782ef04172","683dba2a8a9dda3513610c04","688097768eb855e7826ed11e","3","0","665f239f78bd39782ef04172","3","0","2025-07-23T08:24:04.660Z","","","","","","","","","","","StressQ","","50","","","","","","","","","","","","","","","","","","","","","","","","","","","","",""
"4015","","<div style=""width:500px;"">
  <p>What best describes how you currently feel?</p>
  </div>","100","html-slider-response","53","973412","0.0-5.0-4.8","191","1","2025-07-23 08:07:50","1f75c3e559b7213887762d5229550c2b","105.245.240.112","Mozilla/5.0 (Windows NT 10.0; Win64; x64) AppleWebKit/537.36 (KHTML, like Gecko) Chrome/138.0.0.0 Safari/537.36","WebKit","Chrome","138.0.0.0","Windows","10.0","https://app.prolific.com/","en-US,en;q=0.9,xh;q=0.8","665f239f78bd39782ef04172","683dba2a8a9dda3513610c04","688097768eb855e7826ed11e","3","0","665f239f78bd39782ef04172","3","0","2025-07-23T08:24:08.679Z","","","","","","","","","","","MotivationQ","","50","","","","","","","","","","","","","","","","","","","","","","","","","","","","",""
"","","","","ctl-task-cpt","54","1051374","0.0-5.0-0.9","191","1","2025-07-23 08:07:50","1f75c3e559b7213887762d5229550c2b","105.245.240.112","Mozilla/5.0 (Windows NT 10.0; Win64; x64) AppleWebKit/537.36 (KHTML, like Gecko) Chrome/138.0.0.0 Safari/537.36","WebKit","Chrome","138.0.0.0","Windows","10.0","https://app.prolific.com/","en-US,en;q=0.9,xh;q=0.8","665f239f78bd39782ef04172","683dba2a8a9dda3513610c04","688097768eb855e7826ed11e","3","0","665f239f78bd39782ef04172","3","0","2025-07-23T08:25:26.641Z","","","","","","","","","","","","","","win-only","2","g1:SE,g2:NW","0.4","10","0","978918.9","1574.5","6585.8","74939.1","1","4","4","6","2","4","4","4","0","0.030303030303030304","1326.8","3000","20","[""left"",""up""]","{""num_key_presses"":14,""num_perfect"":7,""num_errors"":0,""num_randdir"":7,""num_randdir_good_moves"":3,""num_whilered"":0,""num_whileblue"":0,""num_blue"":7,""num_good_moves"":10}","[298.22232142857143,300.12857142857143,5.7,298.22232142857143,300.12857142857143,104.5,298.22232142857143,300.12857142857143,209.4,298.22232142857143,300.12857142857143,309.8,298.22232142857143,300.12857142857143,417.2,298.22232142857143,300.12857142857143,528.3,298.22232142857143,300.12857142857143,628.6,211.22232142857143,227.12857142857143,735.2,66.22232142857143,83.12857142857143,848.3,56.222321428571426,28.128571428571426,951.4,68.22232142857143,19.128571428571426,1053.7,64.22232142857143,23.128571428571426,1157.3,64.22232142857143,23.128571428571426,1260.1,64.22232142857143,23.128571428571426,1370,64.22232142857143,23.128571428571426,1473.8,64.22232142857143,23.128571428571426,1581.8,64.22232142857143,23.128571428571426,1691.3,64.22232142857143,23.128571428571426,1794,64.22232142857143,23.128571428571426,1904.8,64.22232142857143,23.128571428571426,2016.2,64.22232142857143,23.128571428571426,2126.1,64.22232142857143,23.128571428571426,2235.2,64.22232142857143,23.128571428571426,2344.5,64.22232142857143,23.128571428571426,2453.2,64.22232142857143,23.128571428571426,2556.1,64.22232142857143,23.128571428571426,2660.6,64.22232142857143,23.128571428571426,2767,64.22232142857143,23.128571428571426,2875.2,64.22232142857143,23.128571428571426,2978.4,64.22232142857143,23.128571428571426,3082.2,64.22232142857143,23.128571428571426,3189.6,64.22232142857143,23.128571428571426,3295.3,64.22232142857143,23.128571428571426,3407.9,64.22232142857143,23.128571428571426,3509.7,64.22232142857143,23.128571428571426,3618.8,64.22232142857143,23.128571428571426,3725,64.22232142857143,23.128571428571426,3839.2,64.22232142857143,23.128571428571426,3949.4,64.22232142857143,23.128571428571426,4053.3,64.22232142857143,23.128571428571426,4165.8,64.22232142857143,23.128571428571426,4277,64.22232142857143,23.128571428571426,4388.7,64.22232142857143,23.128571428571426,4489,64.22232142857143,23.128571428571426,4591.9,64.22232142857143,23.128571428571426,4695.2,64.22232142857143,23.128571428571426,4805.8,64.22232142857143,23.128571428571426,4909.4]","[1787.9,1787.9,1000,0,788,""oops"",""up"",""left"",""good_move"",5114.9,3324.7,2870.2,1790.3,454.4,""smooth"",""up"",""up"",""good_move"",8016.5,2900.7,2446.3,5116,454.4,""oops"",""up"",""down"",""bad_move"",11242.3,3219.8,2788.5,8022.6,431.2,""oops"",""up"",""right"",""bad_move"",14565.6,3321.9,2880.3,11243.7,441.6,""smooth"",""up"",""up"",""good_move"",21844.1,7277.5,3358.6,17993.4,492.2,""oops"",""up"",""down"",""bad_move"",28925.6,7076.4,2742.6,25642.5,540.5,""oops"",""up"",""up"",""good_move"",35891.7,6965.2,2429.9,32891.6,570.2,""smooth"",""up"",""up"",""good_move"",38951.7,3053.1,2604.4,35898.6,448.7,""oops"",""up"",""up"",""good_move"",41441.9,2487.5,2049.6,38954.4,437.9,""smooth"",""left"",""left"",""good_move"",48624.3,7181.2,2412.6,45718.7,493.1,""smooth"",""left"",""left"",""good_move"",55589.8,6961.9,2167.8,52947.9,474.1,""oops"",""left"",""down"",""bad_move"",62375.9,6785.1,2741.4,59173.3,461.3,""smooth"",""left"",""left"",""good_move"",68126.8,5749.9,2309.7,65374,443.1,""smooth"",""up"",""up"",""good_move""]","",""
"10883","","<div style=""width:500px;"">
  <p>What determined the result of this run?</p>
  </div>","100","html-slider-response","55","1062260","0.0-5.0-1.9","191","1","2025-07-23 08:07:50","1f75c3e559b7213887762d5229550c2b","105.245.240.112","Mozilla/5.0 (Windows NT 10.0; Win64; x64) AppleWebKit/537.36 (KHTML, like Gecko) Chrome/138.0.0.0 Safari/537.36","WebKit","Chrome","138.0.0.0","Windows","10.0","https://app.prolific.com/","en-US,en;q=0.9,xh;q=0.8","665f239f78bd39782ef04172","683dba2a8a9dda3513610c04","688097768eb855e7826ed11e","3","0","665f239f78bd39782ef04172","3","0","2025-07-23T08:25:37.527Z","","","","","","","","","","","AttribQ","","50","","","","","","","","","","","","","","","","","","","","","","","","","","","","",""
"3533","","<div style=""width:500px;"">
  <p>How much control did you have over the ball?</p>
  </div>","21","html-slider-response","56","1065797","0.0-5.0-2.9","191","1","2025-07-23 08:07:50","1f75c3e559b7213887762d5229550c2b","105.245.240.112","Mozilla/5.0 (Windows NT 10.0; Win64; x64) AppleWebKit/537.36 (KHTML, like Gecko) Chrome/138.0.0.0 Safari/537.36","WebKit","Chrome","138.0.0.0","Windows","10.0","https://app.prolific.com/","en-US,en;q=0.9,xh;q=0.8","665f239f78bd39782ef04172","683dba2a8a9dda3513610c04","688097768eb855e7826ed11e","3","0","665f239f78bd39782ef04172","3","0","2025-07-23T08:25:41.065Z","","","","","","","","","","","ControlQ","","50","","","","","","","","","","","","","","","","","","","","","","","","","","","","",""
"4136","","<div style=""width:500px;"">
  <p>How would you describe your current emotional state?</p>
  </div>","0","html-slider-response","57","1069937","0.0-5.0-3.9","191","1","2025-07-23 08:07:50","1f75c3e559b7213887762d5229550c2b","105.245.240.112","Mozilla/5.0 (Windows NT 10.0; Win64; x64) AppleWebKit/537.36 (KHTML, like Gecko) Chrome/138.0.0.0 Safari/537.36","WebKit","Chrome","138.0.0.0","Windows","10.0","https://app.prolific.com/","en-US,en;q=0.9,xh;q=0.8","665f239f78bd39782ef04172","683dba2a8a9dda3513610c04","688097768eb855e7826ed11e","3","0","665f239f78bd39782ef04172","3","0","2025-07-23T08:25:45.205Z","","","","","","","","","","","StressQ","","50","","","","","","","","","","","","","","","","","","","","","","","","","","","","",""
"3171","","<div style=""width:500px;"">
  <p>What best describes how you currently feel?</p>
  </div>","100","html-slider-response","58","1073112","0.0-5.0-4.9","191","1","2025-07-23 08:07:50","1f75c3e559b7213887762d5229550c2b","105.245.240.112","Mozilla/5.0 (Windows NT 10.0; Win64; x64) AppleWebKit/537.36 (KHTML, like Gecko) Chrome/138.0.0.0 Safari/537.36","WebKit","Chrome","138.0.0.0","Windows","10.0","https://app.prolific.com/","en-US,en;q=0.9,xh;q=0.8","665f239f78bd39782ef04172","683dba2a8a9dda3513610c04","688097768eb855e7826ed11e","3","0","665f239f78bd39782ef04172","3","0","2025-07-23T08:25:48.380Z","","","","","","","","","","","MotivationQ","","50","","","","","","","","","","","","","","","","","","","","","","","","","","","","",""
"","","","","ctl-task-cpt","59","1104330","0.0-5.0-0.10","191","1","2025-07-23 08:07:50","1f75c3e559b7213887762d5229550c2b","105.245.240.112","Mozilla/5.0 (Windows NT 10.0; Win64; x64) AppleWebKit/537.36 (KHTML, like Gecko) Chrome/138.0.0.0 Safari/537.36","WebKit","Chrome","138.0.0.0","Windows","10.0","https://app.prolific.com/","en-US,en;q=0.9,xh;q=0.8","665f239f78bd39782ef04172","683dba2a8a9dda3513610c04","688097768eb855e7826ed11e","3","0","665f239f78bd39782ef04172","3","0","2025-07-23T08:26:19.597Z","","","","","","","","","","","","","","win-only","0","g1:NW,g2:SE","0.5","11","0","1078617.3","1686.5","6696.4","28185.6","1","4","8","6","2","8","8","12","4","0.09090909090909091","1428.2","3000","1655","[""down"",""right""]","{""num_key_presses"":8,""num_perfect"":5,""num_errors"":0,""num_randdir"":3,""num_randdir_good_moves"":2,""num_whilered"":0,""num_whileblue"":0,""num_blue"":0,""num_good_moves"":7}","[295.22232142857143,296.12857142857143,2.9,295.22232142857143,296.12857142857143,101.3,295.22232142857143,296.12857142857143,209.3,295.22232142857143,296.12857142857143,312.4,295.22232142857143,296.12857142857143,415.1,295.22232142857143,296.12857142857143,521,295.22232142857143,296.12857142857143,625.4,452.22232142857143,384.12857142857143,736.3,552.2223214285714,497.12857142857143,846.7,571.2223214285714,530.1285714285714,961.8,579.2223214285714,546.1285714285714,1067.9,559.2223214285714,537.1285714285714,1169.4,554.2223214285714,535.1285714285714,1277.5,554.2223214285714,535.1285714285714,1383.1,554.2223214285714,535.1285714285714,1487.3,554.2223214285714,535.1285714285714,1588.1,554.2223214285714,535.1285714285714,1697.2,554.2223214285714,535.1285714285714,1801.2,554.2223214285714,535.1285714285714,1903.9,554.2223214285714,535.1285714285714,2008.3,554.2223214285714,535.1285714285714,2114.8,636.2223214285714,380.12857142857143,2221,695.2223214285714,337.12857142857143,2328.2,697.2223214285714,337.12857142857143,2428.3,697.2223214285714,337.12857142857143,2533,697.2223214285714,337.12857142857143,2635.7,697.2223214285714,337.12857142857143,2738.6,697.2223214285714,337.12857142857143,2847.7,697.2223214285714,337.12857142857143,2963.9,697.2223214285714,337.12857142857143,3069.2,697.2223214285714,337.12857142857143,3171.8,697.2223214285714,337.12857142857143,3275,697.2223214285714,337.12857142857143,3382.4,697.2223214285714,337.12857142857143,3485.3,697.2223214285714,337.12857142857143,3587.7,697.2223214285714,337.12857142857143,3688.4,697.2223214285714,337.12857142857143,3799.9,697.2223214285714,337.12857142857143,3905.1,697.2223214285714,337.12857142857143,4016.5,697.2223214285714,337.12857142857143,4119.1,697.2223214285714,337.12857142857143,4226.4,697.2223214285714,337.12857142857143,4335.4,697.2223214285714,337.12857142857143,4442.4,697.2223214285714,337.12857142857143,4550.9,697.2223214285714,337.12857142857143,4652.2,697.2223214285714,337.12857142857143,4753,697.2223214285714,337.12857142857143,4859.8,697.2223214285714,337.12857142857143,4966.6]","[1699.8,1699.8,1000,0,699.8,""oops"",""down"",""right"",""good_move"",5136.5,3435.5,2960.9,1701,474.6,""smooth"",""down"",""down"",""good_move"",7562.1,2420.6,1976.5,5141.5,444.1,""oops"",""down"",""left"",""bad_move"",10405.3,2841.4,2148.3,7563.9,693.1,""smooth"",""down"",""down"",""good_move"",13127,2720.6,2268.9,10406.5,451.6,""smooth"",""down"",""down"",""good_move"",15425.8,2297.9,1828.2,13127.9,469.7,""smooth"",""right"",""right"",""good_move"",18747.5,3315.9,2947.2,15431.6,368.7,""smooth"",""right"",""right"",""good_move"",21232.8,2484.4,2042.8,18748.5,441.5,""oops"",""right"",""right"",""good_move""]","",""
"6133","","<div style=""width:500px;"">
  <p>What determined the result of this run?</p>
  </div>","93","html-slider-response","60","1110466","0.0-5.0-1.10","191","1","2025-07-23 08:07:50","1f75c3e559b7213887762d5229550c2b","105.245.240.112","Mozilla/5.0 (Windows NT 10.0; Win64; x64) AppleWebKit/537.36 (KHTML, like Gecko) Chrome/138.0.0.0 Safari/537.36","WebKit","Chrome","138.0.0.0","Windows","10.0","https://app.prolific.com/","en-US,en;q=0.9,xh;q=0.8","665f239f78bd39782ef04172","683dba2a8a9dda3513610c04","688097768eb855e7826ed11e","3","0","665f239f78bd39782ef04172","3","0","2025-07-23T08:26:25.733Z","","","","","","","","","","","AttribQ","","50","","","","","","","","","","","","","","","","","","","","","","","","","","","","",""
"3766","","<div style=""width:500px;"">
  <p>How much control did you have over the ball?</p>
  </div>","62","html-slider-response","61","1114236","0.0-5.0-2.10","191","1","2025-07-23 08:07:50","1f75c3e559b7213887762d5229550c2b","105.245.240.112","Mozilla/5.0 (Windows NT 10.0; Win64; x64) AppleWebKit/537.36 (KHTML, like Gecko) Chrome/138.0.0.0 Safari/537.36","WebKit","Chrome","138.0.0.0","Windows","10.0","https://app.prolific.com/","en-US,en;q=0.9,xh;q=0.8","665f239f78bd39782ef04172","683dba2a8a9dda3513610c04","688097768eb855e7826ed11e","3","0","665f239f78bd39782ef04172","3","0","2025-07-23T08:26:29.503Z","","","","","","","","","","","ControlQ","","50","","","","","","","","","","","","","","","","","","","","","","","","","","","","",""
"4505","","<div style=""width:500px;"">
  <p>How would you describe your current emotional state?</p>
  </div>","0","html-slider-response","62","1118745","0.0-5.0-3.10","191","1","2025-07-23 08:07:50","1f75c3e559b7213887762d5229550c2b","105.245.240.112","Mozilla/5.0 (Windows NT 10.0; Win64; x64) AppleWebKit/537.36 (KHTML, like Gecko) Chrome/138.0.0.0 Safari/537.36","WebKit","Chrome","138.0.0.0","Windows","10.0","https://app.prolific.com/","en-US,en;q=0.9,xh;q=0.8","665f239f78bd39782ef04172","683dba2a8a9dda3513610c04","688097768eb855e7826ed11e","3","0","665f239f78bd39782ef04172","3","0","2025-07-23T08:26:34.012Z","","","","","","","","","","","StressQ","","50","","","","","","","","","","","","","","","","","","","","","","","","","","","","",""
"4044","","<div style=""width:500px;"">
  <p>What best describes how you currently feel?</p>
  </div>","100","html-slider-response","63","1122791","0.0-5.0-4.10","191","1","2025-07-23 08:07:50","1f75c3e559b7213887762d5229550c2b","105.245.240.112","Mozilla/5.0 (Windows NT 10.0; Win64; x64) AppleWebKit/537.36 (KHTML, like Gecko) Chrome/138.0.0.0 Safari/537.36","WebKit","Chrome","138.0.0.0","Windows","10.0","https://app.prolific.com/","en-US,en;q=0.9,xh;q=0.8","665f239f78bd39782ef04172","683dba2a8a9dda3513610c04","688097768eb855e7826ed11e","3","0","665f239f78bd39782ef04172","3","0","2025-07-23T08:26:38.058Z","","","","","","","","","","","MotivationQ","","50","","","","","","","","","","","","","","","","","","","","","","","","","","","","",""
"","","","","ctl-task-cpt","64","1183929","0.0-5.0-0.11","191","1","2025-07-23 08:07:50","1f75c3e559b7213887762d5229550c2b","105.245.240.112","Mozilla/5.0 (Windows NT 10.0; Win64; x64) AppleWebKit/537.36 (KHTML, like Gecko) Chrome/138.0.0.0 Safari/537.36","WebKit","Chrome","138.0.0.0","Windows","10.0","https://app.prolific.com/","en-US,en;q=0.9,xh;q=0.8","665f239f78bd39782ef04172","683dba2a8a9dda3513610c04","688097768eb855e7826ed11e","3","0","665f239f78bd39782ef04172","3","0","2025-07-23T08:27:39.197Z","","","","","","","","","","","","","","win-only","1","g1:NE,g2:SW","0.6","12","0","1128296.3","10824","15831","58113.3","1","4","4","6","2","4","4","16","12","0.12121212121212122","1293.4","3000","870","[""down"",""left""]","{""num_key_presses"":12,""num_perfect"":8,""num_errors"":0,""num_randdir"":4,""num_randdir_good_moves"":1,""num_whilered"":0,""num_whileblue"":0,""num_blue"":2,""num_good_moves"":9}","[295.22232142857143,294.12857142857143,0.9,295.22232142857143,294.12857142857143,105.1,295.22232142857143,294.12857142857143,205.3,295.22232142857143,294.12857142857143,316.4,295.22232142857143,294.12857142857143,423.9,282.22232142857143,290.12857142857143,529.2,81.22232142857143,429.12857142857143,631.4,63.222321428571426,455.12857142857143,737.6,57.222321428571426,471.12857142857143,848.8,54.222321428571426,511.12857142857143,954.9,44.222321428571426,551.1285714285714,1067.9,42.222321428571426,553.1285714285714,1171.9,42.222321428571426,553.1285714285714,1277.6,42.222321428571426,553.1285714285714,1390.2,42.222321428571426,553.1285714285714,1494.7,42.222321428571426,553.1285714285714,1596.4,42.222321428571426,553.1285714285714,1707.3,42.222321428571426,553.1285714285714,1813,42.222321428571426,553.1285714285714,1926.6,28.222321428571426,451.12857142857143,2043.4,6.222321428571426,374.12857142857143,2146.1,-3.7776785714285737,367.12857142857143,2247.2,-4.777678571428574,367.12857142857143,2354.3,-4.777678571428574,367.12857142857143,2472.5,-4.777678571428574,367.12857142857143,2575,-4.777678571428574,367.12857142857143,2679.5,-4.777678571428574,367.12857142857143,2788.8,-4.777678571428574,367.12857142857143,2900,-4.777678571428574,367.12857142857143,3009.2,-4.777678571428574,367.12857142857143,3110.5,-4.777678571428574,367.12857142857143,3220.6,-4.777678571428574,367.12857142857143,3324.5,-4.777678571428574,367.12857142857143,3437.6,-4.777678571428574,367.12857142857143,3549.4,-4.777678571428574,367.12857142857143,3660.2,-4.777678571428574,367.12857142857143,3772.5,-4.777678571428574,367.12857142857143,3877.4,-4.777678571428574,367.12857142857143,3983.8,-4.777678571428574,367.12857142857143,4092.9,-4.777678571428574,367.12857142857143,4201.2,-4.777678571428574,367.12857142857143,4312.8,-4.777678571428574,367.12857142857143,4420.9,-4.777678571428574,367.12857142857143,4531.8,-4.777678571428574,367.12857142857143,4635.4,-4.777678571428574,367.12857142857143,4744.8,-4.777678571428574,367.12857142857143,4850.8,-4.777678571428574,367.12857142857143,4956.9]","[1605.8,1605.8,1000,0,605.8,""smooth"",""down"",""down"",""good_move"",4871,3264,2835.3,1607,428.7,""smooth"",""down"",""down"",""good_move"",8275.8,3404,2946.7,4871.8,457.3,""smooth"",""down"",""down"",""good_move"",10996.3,2715.2,2264.5,8281.1,450.7,""oops"",""left"",""up"",""bad_move"",13852.8,2855.3,2419.6,10997.5,435.7,""smooth"",""left"",""left"",""good_move"",16583.5,2723.6,2313.5,13860,410.1,""oops"",""left"",""down"",""good_move"",18534.3,1947.8,1362.5,16586.5,585.3,""oops"",""left"",""right"",""bad_move"",22137.4,3601.4,3171.8,18536,429.6,""smooth"",""left"",""left"",""good_move"",25984.2,3845.9,3413,22138.3,432.9,""smooth"",""left"",""left"",""good_move"",32669.9,6679.3,2795.3,29333.5,541.1,""oops"",""left"",""up"",""bad_move"",35906.7,3235.6,2578,32671.1,657.6,""smooth"",""left"",""left"",""good_move"",42041.5,6133.8,2128,39382,531.5,""smooth"",""down"",""down"",""good_move""]","",""
"33327","","<div style=""width:500px;"">
  <p>What determined the result of this run?</p>
  </div>","97","html-slider-response","65","1217261","0.0-5.0-1.11","191","1","2025-07-23 08:07:50","1f75c3e559b7213887762d5229550c2b","105.245.240.112","Mozilla/5.0 (Windows NT 10.0; Win64; x64) AppleWebKit/537.36 (KHTML, like Gecko) Chrome/138.0.0.0 Safari/537.36","WebKit","Chrome","138.0.0.0","Windows","10.0","https://app.prolific.com/","en-US,en;q=0.9,xh;q=0.8","665f239f78bd39782ef04172","683dba2a8a9dda3513610c04","688097768eb855e7826ed11e","3","0","665f239f78bd39782ef04172","3","0","2025-07-23T08:28:12.528Z","","","","","","","","","","","AttribQ","","50","","","","","","","","","","","","","","","","","","","","","","","","","","","","",""
"5940","","<div style=""width:500px;"">
  <p>How much control did you have over the ball?</p>
  </div>","75","html-slider-response","66","1223208","0.0-5.0-2.11","191","1","2025-07-23 08:07:50","1f75c3e559b7213887762d5229550c2b","105.245.240.112","Mozilla/5.0 (Windows NT 10.0; Win64; x64) AppleWebKit/537.36 (KHTML, like Gecko) Chrome/138.0.0.0 Safari/537.36","WebKit","Chrome","138.0.0.0","Windows","10.0","https://app.prolific.com/","en-US,en;q=0.9,xh;q=0.8","665f239f78bd39782ef04172","683dba2a8a9dda3513610c04","688097768eb855e7826ed11e","3","0","665f239f78bd39782ef04172","3","0","2025-07-23T08:28:18.475Z","","","","","","","","","","","ControlQ","","50","","","","","","","","","","","","","","","","","","","","","","","","","","","","",""
"21130","","<div style=""width:500px;"">
  <p>How would you describe your current emotional state?</p>
  </div>","0","html-slider-response","67","1244342","0.0-5.0-3.11","191","1","2025-07-23 08:07:50","1f75c3e559b7213887762d5229550c2b","105.245.240.112","Mozilla/5.0 (Windows NT 10.0; Win64; x64) AppleWebKit/537.36 (KHTML, like Gecko) Chrome/138.0.0.0 Safari/537.36","WebKit","Chrome","138.0.0.0","Windows","10.0","https://app.prolific.com/","en-US,en;q=0.9,xh;q=0.8","665f239f78bd39782ef04172","683dba2a8a9dda3513610c04","688097768eb855e7826ed11e","3","0","665f239f78bd39782ef04172","3","0","2025-07-23T08:28:39.609Z","","","","","","","","","","","StressQ","","50","","","","","","","","","","","","","","","","","","","","","","","","","","","","",""
"3904","","<div style=""width:500px;"">
  <p>What best describes how you currently feel?</p>
  </div>","100","html-slider-response","68","1248251","0.0-5.0-4.11","191","1","2025-07-23 08:07:50","1f75c3e559b7213887762d5229550c2b","105.245.240.112","Mozilla/5.0 (Windows NT 10.0; Win64; x64) AppleWebKit/537.36 (KHTML, like Gecko) Chrome/138.0.0.0 Safari/537.36","WebKit","Chrome","138.0.0.0","Windows","10.0","https://app.prolific.com/","en-US,en;q=0.9,xh;q=0.8","665f239f78bd39782ef04172","683dba2a8a9dda3513610c04","688097768eb855e7826ed11e","3","0","665f239f78bd39782ef04172","3","0","2025-07-23T08:28:43.519Z","","","","","","","","","","","MotivationQ","","50","","","","","","","","","","","","","","","","","","","","","","","","","","","","",""
"","","","","ctl-task-cpt","69","1287149","0.0-5.0-0.12","191","1","2025-07-23 08:07:50","1f75c3e559b7213887762d5229550c2b","105.245.240.112","Mozilla/5.0 (Windows NT 10.0; Win64; x64) AppleWebKit/537.36 (KHTML, like Gecko) Chrome/138.0.0.0 Safari/537.36","WebKit","Chrome","138.0.0.0","Windows","10.0","https://app.prolific.com/","en-US,en;q=0.9,xh;q=0.8","665f239f78bd39782ef04172","683dba2a8a9dda3513610c04","688097768eb855e7826ed11e","3","0","665f239f78bd39782ef04172","3","0","2025-07-23T08:29:22.416Z","","","","","","","","","","","","","","win-only","0","g1:NW,g2:SE","0.7","13","0","1253755.5","8030.7","13034.8","35871.7","1","4","4","6","2","4","4","20","16","0.15151515151515152","1370.2","3000","2015","[""down"",""right""]","{""num_key_presses"":6,""num_perfect"":3,""num_errors"":0,""num_randdir"":3,""num_randdir_good_moves"":3,""num_whilered"":0,""num_whileblue"":0,""num_blue"":2,""num_good_moves"":6}","[293.22232142857143,293.12857142857143,1.1,293.22232142857143,293.12857142857143,100.6,293.22232142857143,293.12857142857143,200.8,293.22232142857143,293.12857142857143,303.9,293.22232142857143,293.12857142857143,411.8,293.22232142857143,293.12857142857143,522.3,469.22232142857143,427.12857142857143,636.2,590.2223214285714,573.1285714285714,740.2,598.2223214285714,577.1285714285714,848.6,599.2223214285714,574.1285714285714,956.8,570.2223214285714,538.1285714285714,1059.8,551.2223214285714,537.1285714285714,1170.5,551.2223214285714,537.1285714285714,1276.9,551.2223214285714,537.1285714285714,1394.1,551.2223214285714,537.1285714285714,1497.8,551.2223214285714,537.1285714285714,1604.2,551.2223214285714,537.1285714285714,1709.9,551.2223214285714,537.1285714285714,1822.2,547.2223214285714,506.12857142857143,1924.5,641.2223214285714,331.12857142857143,2032.3,652.2223214285714,314.12857142857143,2132.3,652.2223214285714,314.12857142857143,2239.4,652.2223214285714,314.12857142857143,2349.3,652.2223214285714,314.12857142857143,2455.7,652.2223214285714,314.12857142857143,2567,652.2223214285714,314.12857142857143,2670.1,652.2223214285714,314.12857142857143,2774.2,652.2223214285714,314.12857142857143,2880.7,652.2223214285714,314.12857142857143,2987.4,652.2223214285714,314.12857142857143,3088,652.2223214285714,314.12857142857143,3201.5,652.2223214285714,314.12857142857143,3319.2,652.2223214285714,314.12857142857143,3432.1,652.2223214285714,314.12857142857143,3540.1,652.2223214285714,314.12857142857143,3649.6,652.2223214285714,314.12857142857143,3756.5,652.2223214285714,314.12857142857143,3867.9,652.2223214285714,314.12857142857143,3972.8,652.2223214285714,314.12857142857143,4080.8,652.2223214285714,314.12857142857143,4192,652.2223214285714,314.12857142857143,4298,652.2223214285714,314.12857142857143,4406.4,652.2223214285714,314.12857142857143,4509.8,652.2223214285714,314.12857142857143,4614.6,652.2223214285714,314.12857142857143,4721,652.2223214285714,314.12857142857143,4832.5,652.2223214285714,314.12857142857143,4937.5]","[4283.8,4283.8,1779.4,2005.9,498.5,""smooth"",""down"",""down"",""good_move"",7331.3,3046.6,2520.2,4284.7,526.4,""oops"",""down"",""down"",""good_move"",9432.2,2098.3,1593,7333.9,505.3,""oops"",""down"",""right"",""good_move"",13079.1,3645.6,3146.8,9433.5,498.8,""oops"",""down"",""down"",""good_move"",19650.8,6570.5,2425.2,16781.5,444.1,""smooth"",""right"",""right"",""good_move"",22600.4,2948.8,2489.7,19651.7,459,""smooth"",""right"",""right"",""good_move""]","",""
"5757","","<div style=""width:500px;"">
  <p>What determined the result of this run?</p>
  </div>","100","html-slider-response","70","1292909","0.0-5.0-1.12","191","1","2025-07-23 08:07:50","1f75c3e559b7213887762d5229550c2b","105.245.240.112","Mozilla/5.0 (Windows NT 10.0; Win64; x64) AppleWebKit/537.36 (KHTML, like Gecko) Chrome/138.0.0.0 Safari/537.36","WebKit","Chrome","138.0.0.0","Windows","10.0","https://app.prolific.com/","en-US,en;q=0.9,xh;q=0.8","665f239f78bd39782ef04172","683dba2a8a9dda3513610c04","688097768eb855e7826ed11e","3","0","665f239f78bd39782ef04172","3","0","2025-07-23T08:29:28.177Z","","","","","","","","","","","AttribQ","","50","","","","","","","","","","","","","","","","","","","","","","","","","","","","",""
"5039","","<div style=""width:500px;"">
  <p>How much control did you have over the ball?</p>
  </div>","67","html-slider-response","71","1297952","0.0-5.0-2.12","191","1","2025-07-23 08:07:50","1f75c3e559b7213887762d5229550c2b","105.245.240.112","Mozilla/5.0 (Windows NT 10.0; Win64; x64) AppleWebKit/537.36 (KHTML, like Gecko) Chrome/138.0.0.0 Safari/537.36","WebKit","Chrome","138.0.0.0","Windows","10.0","https://app.prolific.com/","en-US,en;q=0.9,xh;q=0.8","665f239f78bd39782ef04172","683dba2a8a9dda3513610c04","688097768eb855e7826ed11e","3","0","665f239f78bd39782ef04172","3","0","2025-07-23T08:29:33.219Z","","","","","","","","","","","ControlQ","","50","","","","","","","","","","","","","","","","","","","","","","","","","","","","",""
"3687","","<div style=""width:500px;"">
  <p>How would you describe your current emotional state?</p>
  </div>","0","html-slider-response","72","1301643","0.0-5.0-3.12","191","1","2025-07-23 08:07:50","1f75c3e559b7213887762d5229550c2b","105.245.240.112","Mozilla/5.0 (Windows NT 10.0; Win64; x64) AppleWebKit/537.36 (KHTML, like Gecko) Chrome/138.0.0.0 Safari/537.36","WebKit","Chrome","138.0.0.0","Windows","10.0","https://app.prolific.com/","en-US,en;q=0.9,xh;q=0.8","665f239f78bd39782ef04172","683dba2a8a9dda3513610c04","688097768eb855e7826ed11e","3","0","665f239f78bd39782ef04172","3","0","2025-07-23T08:29:36.910Z","","","","","","","","","","","StressQ","","50","","","","","","","","","","","","","","","","","","","","","","","","","","","","",""
"2854","","<div style=""width:500px;"">
  <p>What best describes how you currently feel?</p>
  </div>","100","html-slider-response","73","1304502","0.0-5.0-4.12","191","1","2025-07-23 08:07:50","1f75c3e559b7213887762d5229550c2b","105.245.240.112","Mozilla/5.0 (Windows NT 10.0; Win64; x64) AppleWebKit/537.36 (KHTML, like Gecko) Chrome/138.0.0.0 Safari/537.36","WebKit","Chrome","138.0.0.0","Windows","10.0","https://app.prolific.com/","en-US,en;q=0.9,xh;q=0.8","665f239f78bd39782ef04172","683dba2a8a9dda3513610c04","688097768eb855e7826ed11e","3","0","665f239f78bd39782ef04172","3","0","2025-07-23T08:29:39.770Z","","","","","","","","","","","MotivationQ","","50","","","","","","","","","","","","","","","","","","","","","","","","","","","","",""
