"rt","response_timestamp","stimulus","response","trial_type","trial_index","time_elapsed","internal_node_id","run_id","condition","recorded_at","source_code_version","ip","user_agent","device","browser","browser_version","platform","platform_version","referer","accept_language","PROLIFIC_PID","STUDY_ID","SESSION_ID","WEEK","BATCH","prolific_id","week","batch","realtime","success","responses","item_order","radio_event_ids","radio_event_times","key_event_times","mouse_event_times","straightlining","zigzagging","honeypot","eventType","view_history","slider_start","which_type","canvas_config","goals_layout","control_level","trial_number","tutorial_trial_number","trial_start_time","phase1_start_time","phase2_start_time","phase3_start_time","goal_1_value","goal_1_distance","goal_2_value","goal_2_distance","goal_selected","outcome","outcome_total","participant_final_score","participant_initial_score","participant_final_score_prop","goal_choice_rt","allocated_time","allocated_time_remaining","goal_direction","counts","mouse_movements","key_presses","question_order","question_id"
"2380","1752660760529","<p style='font-size:40px;line-height:1.25'><strong>Welcome to the experiment!</strong></p><p style='font-size:1.1em;line-height:1.25'>Thank you for participanting in our experiment again! You will be asked to play the Dysfunctional Ball Game again. We will briefly recap the rules before we start.</p><p style='font-size:1.1em;line-height:1.25'>Press <strong>Next</strong> to continue.</p>","0","custom-html-button-response","0","2382","0.0-0.0","97","1","2025-07-16 10:12:37","1f75c3e559b7213887762d5229550c2b","85.246.21.29","Mozilla/5.0 (Windows NT 10.0; Win64; x64) AppleWebKit/537.36 (KHTML, like Gecko) Chrome/138.0.0.0 Safari/537.36","WebKit","Chrome","138.0.0.0","Windows","10.0","https://app.prolific.com/","pt-PT,pt;q=0.9,en-US;q=0.8,en;q=0.7","65a93241fc1ee8c40991a861","68764874ac79eee8c1d4cb03","68777b12b50250593a8dda1c","2","0","65a93241fc1ee8c40991a861","2","0","2025-07-16T10:12:40.530Z","","","","","","","","","","","","","","","","","","","","","","","","","","","","","","","","","","","","","","","","","",""
"1570","","","","fullscreen","1","4970","0.0-1.0","97","1","2025-07-16 10:12:37","1f75c3e559b7213887762d5229550c2b","85.246.21.29","Mozilla/5.0 (Windows NT 10.0; Win64; x64) AppleWebKit/537.36 (KHTML, like Gecko) Chrome/138.0.0.0 Safari/537.36","WebKit","Chrome","138.0.0.0","Windows","10.0","https://app.prolific.com/","pt-PT,pt;q=0.9,en-US;q=0.8,en;q=0.7","65a93241fc1ee8c40991a861","68764874ac79eee8c1d4cb03","68777b12b50250593a8dda1c","2","0","65a93241fc1ee8c40991a861","2","0","","true","","","","","","","","","","","","","","","","","","","","","","","","","","","","","","","","","","","","","","","","",""
"54513","1752660817631","<p style='font-size:1.1em;line-height:1.25'>In the following, we will ask you a few questions relating to your feelings in the last 24 hours.<br></p><p style='font-size:1.1em;line-height:1.25'>Press the <strong>Next</strong> button to continue.</p>","0","custom-html-button-response","2","59483","0.0-2.0-0.0","97","1","2025-07-16 10:12:37","1f75c3e559b7213887762d5229550c2b","85.246.21.29","Mozilla/5.0 (Windows NT 10.0; Win64; x64) AppleWebKit/537.36 (KHTML, like Gecko) Chrome/138.0.0.0 Safari/537.36","WebKit","Chrome","138.0.0.0","Windows","10.0","https://app.prolific.com/","pt-PT,pt;q=0.9,en-US;q=0.8,en;q=0.7","65a93241fc1ee8c40991a861","68764874ac79eee8c1d4cb03","68777b12b50250593a8dda1c","2","0","65a93241fc1ee8c40991a861","2","0","2025-07-16T10:13:37.631Z","","","","","","","","","","","","","","","","","","","","","","","","","","","","","","","","","","","","","","","","","",""
"25836","","","","survey-template","3","85323","0.0-2.0-1.0","97","1","2025-07-16 10:12:37","1f75c3e559b7213887762d5229550c2b","85.246.21.29","Mozilla/5.0 (Windows NT 10.0; Win64; x64) AppleWebKit/537.36 (KHTML, like Gecko) Chrome/138.0.0.0 Safari/537.36","WebKit","Chrome","138.0.0.0","Windows","10.0","https://app.prolific.com/","pt-PT,pt;q=0.9,en-US;q=0.8,en;q=0.7","65a93241fc1ee8c40991a861","68764874ac79eee8c1d4cb03","68777b12b50250593a8dda1c","2","0","65a93241fc1ee8c40991a861","2","0","2025-07-16T10:14:03.471Z","","{""Q01"":""0"",""Q02"":""0"",""Q03"":""0"",""Q04"":""0"",""Q05"":""1"",""Q06"":""1"",""Q07"":""1"",""Q08"":""0"",""Q09"":""0"",""Q10"":""0"",""Q11"":""0"",""Q12"":""0"",""Q13"":""5"",""Q14"":""0"",""Q15"":""0"",""Q16"":""0"",""Q17"":""0"",""Q18"":""0"",""Q19"":""0"",""Q20"":""0"",""Q21"":""0"",""Q22"":""0""}","[0,1,2,3,4,5,6,7,8,9,10,11,12,13,14,15,16,17,18,19,20,21]","[""Q01"",""Q02"",""Q03"",""Q04"",""Q05"",""Q05"",""Q06"",""Q07"",""Q08"",""Q09"",""Q10"",""Q11"",""Q12"",""Q13"",""Q14"",""Q15"",""Q16"",""Q17"",""Q18"",""Q19"",""Q20"",""Q21"",""Q22""]","[3333.199999988079,3909,4385,5438.100000023842,6006.699999988079,7316.800000011921,9863.899999976158,11088.199999988079,12251.600000023842,13034.899999976158,13950.100000023842,15127.600000023842,15761.300000011921,17522.69999998808,18723,19370.69999998808,20300.600000023842,20985.5,21551.899999976158,23056.69999998808,23922.100000023842,24477.600000023842,25040.19999998808]","[]","[0,3333.199999988079,3909,4385,4997.800000011921,5438.100000023842,6006.699999988079,7316.800000011921,9863.899999976158,11088.199999988079,12251.600000023842,13034.899999976158,13950.100000023842,15127.600000023842,15761.300000011921,17522.69999998808,18723,19370.69999998808,20300.600000023842,20985.5,21551.899999976158,23056.69999998808,23503.899999976158,23922.100000023842,24477.600000023842,25040.19999998808,25831.69999998808]","0.8181818181818182","0.19047619047619047","0","drsp","","","","","","","","","","","","","","","","","","","","","","","","","","","","","","",""
"7127.100000023842","","","","survey-template","4","92452","0.0-2.0-2.0","97","1","2025-07-16 10:12:37","1f75c3e559b7213887762d5229550c2b","85.246.21.29","Mozilla/5.0 (Windows NT 10.0; Win64; x64) AppleWebKit/537.36 (KHTML, like Gecko) Chrome/138.0.0.0 Safari/537.36","WebKit","Chrome","138.0.0.0","Windows","10.0","https://app.prolific.com/","pt-PT,pt;q=0.9,en-US;q=0.8,en;q=0.7","65a93241fc1ee8c40991a861","68764874ac79eee8c1d4cb03","68777b12b50250593a8dda1c","2","0","65a93241fc1ee8c40991a861","2","0","2025-07-16T10:14:10.600Z","","{""Q01"":""1"",""Q02"":""0"",""Q03"":""0""}","[0,1,2]","[""Q01"",""Q02"",""Q03"",""Q02""]","[2005.699999988079,2783.199999988079,3758.300000011921,5259.300000011921]","[]","[2005.699999988079,2783.199999988079,3758.300000011921,5259.300000011921,7126.400000035763]","0.3333333333333333","0.5","0","stress","","","","","","","","","","","","","","","","","","","","","","","","","","","","","","",""
"1624","","","","instructions","5","94077","0.0-3.0-0.0","97","1","2025-07-16 10:12:37","1f75c3e559b7213887762d5229550c2b","85.246.21.29","Mozilla/5.0 (Windows NT 10.0; Win64; x64) AppleWebKit/537.36 (KHTML, like Gecko) Chrome/138.0.0.0 Safari/537.36","WebKit","Chrome","138.0.0.0","Windows","10.0","https://app.prolific.com/","pt-PT,pt;q=0.9,en-US;q=0.8,en;q=0.7","65a93241fc1ee8c40991a861","68764874ac79eee8c1d4cb03","68777b12b50250593a8dda1c","2","0","65a93241fc1ee8c40991a861","2","0","","","","","","","","","","","","","[{""page_index"":0,""viewing_time"":1624}]","","","","","","","","","","","","","","","","","","","","","","","","","","","","","",""
"2181","","<p>Before you start with this game please answer the following three questions yourself. </p>
  <p>Through this game, we measure several aspects of your cognitive performance, such as reaction times, multi-tasking capabilities </p>
  <p>and the ability to assess the situation you are in.</p>
  <p></p>
  <p><b>How good do you usually are in such tasks?</b></p>","100","html-slider-response","6","96259","0.0-4.0-0.0","97","1","2025-07-16 10:12:37","1f75c3e559b7213887762d5229550c2b","85.246.21.29","Mozilla/5.0 (Windows NT 10.0; Win64; x64) AppleWebKit/537.36 (KHTML, like Gecko) Chrome/138.0.0.0 Safari/537.36","WebKit","Chrome","138.0.0.0","Windows","10.0","https://app.prolific.com/","pt-PT,pt;q=0.9,en-US;q=0.8,en;q=0.7","65a93241fc1ee8c40991a861","68764874ac79eee8c1d4cb03","68777b12b50250593a8dda1c","2","0","65a93241fc1ee8c40991a861","2","0","2025-07-16T10:14:14.407Z","","","","","","","","","","","PreSkillQ","","50","","","","","","","","","","","","","","","","","","","","","","","","","","","","",""
"2555","","<div style=""width:500px;"">
  <p>How well do you think you will perform in this task compared to other participants?</p>
  </div>","61","html-slider-response","7","98815","0.0-4.0-1.0","97","1","2025-07-16 10:12:37","1f75c3e559b7213887762d5229550c2b","85.246.21.29","Mozilla/5.0 (Windows NT 10.0; Win64; x64) AppleWebKit/537.36 (KHTML, like Gecko) Chrome/138.0.0.0 Safari/537.36","WebKit","Chrome","138.0.0.0","Windows","10.0","https://app.prolific.com/","pt-PT,pt;q=0.9,en-US;q=0.8,en;q=0.7","65a93241fc1ee8c40991a861","68764874ac79eee8c1d4cb03","68777b12b50250593a8dda1c","2","0","65a93241fc1ee8c40991a861","2","0","2025-07-16T10:14:16.963Z","","","","","","","","","","","PrePerfQ","","50","","","","","","","","","","","","","","","","","","","","","","","","","","","","",""
"1808","","<div style=""width:500px;"">
  <p>What best describes how you currently feel?</p>
  </div>","100","html-slider-response","8","100624","0.0-4.0-2.0","97","1","2025-07-16 10:12:37","1f75c3e559b7213887762d5229550c2b","85.246.21.29","Mozilla/5.0 (Windows NT 10.0; Win64; x64) AppleWebKit/537.36 (KHTML, like Gecko) Chrome/138.0.0.0 Safari/537.36","WebKit","Chrome","138.0.0.0","Windows","10.0","https://app.prolific.com/","pt-PT,pt;q=0.9,en-US;q=0.8,en;q=0.7","65a93241fc1ee8c40991a861","68764874ac79eee8c1d4cb03","68777b12b50250593a8dda1c","2","0","65a93241fc1ee8c40991a861","2","0","2025-07-16T10:14:18.772Z","","","","","","","","","","","PreMotivationQ","","50","","","","","","","","","","","","","","","","","","","","","","","","","","","","",""
"","","","","ctl-task-cpt","9","140358","0.0-5.0-0.0","97","1","2025-07-16 10:12:37","1f75c3e559b7213887762d5229550c2b","85.246.21.29","Mozilla/5.0 (Windows NT 10.0; Win64; x64) AppleWebKit/537.36 (KHTML, like Gecko) Chrome/138.0.0.0 Safari/537.36","WebKit","Chrome","138.0.0.0","Windows","10.0","https://app.prolific.com/","pt-PT,pt;q=0.9,en-US;q=0.8,en;q=0.7","65a93241fc1ee8c40991a861","68764874ac79eee8c1d4cb03","68777b12b50250593a8dda1c","2","0","65a93241fc1ee8c40991a861","2","0","2025-07-16T10:14:58.506Z","","","","","","","","","","","","","","win-only","2","g1:SE,g2:NW","1","1","0","101729.9","1356.5","6356.8","36727.7","1","4","8","6","2","8","8","8","0","0.06060606060606061","861.9","3000","595","[""left"",""up""]","{""num_key_presses"":6,""num_perfect"":6,""num_errors"":0,""num_randdir"":0,""num_randdir_good_moves"":0,""num_whilered"":0,""num_whileblue"":0,""num_blue"":4,""num_good_moves"":6}","[415.57142857142856,420.47767857142856,0.2,415.57142857142856,420.47767857142856,104.6,415.57142857142856,420.47767857142856,209.4,415.57142857142856,420.47767857142856,310.6,415.57142857142856,420.47767857142856,415,415.57142857142856,420.47767857142856,515.6,375.57142857142856,380.47767857142856,619.3,53.57142857142857,63.47767857142857,721.7,32.57142857142857,51.47767857142857,824.9,32.57142857142857,51.47767857142857,929.8,32.57142857142857,51.47767857142857,1035,-16.42857142857143,54.47767857142857,1140.2,-273.42857142857144,85.47767857142857,1244.6,-330.42857142857144,96.47767857142857,1349.9,-330.42857142857144,96.47767857142857,1454.6,-330.42857142857144,96.47767857142857,1555.3,-330.42857142857144,96.47767857142857,1659.6,-330.42857142857144,96.47767857142857,1764.8,-330.42857142857144,96.47767857142857,1870.3,-330.42857142857144,96.47767857142857,1974.8,-330.42857142857144,96.47767857142857,2075.4,-330.42857142857144,96.47767857142857,2180,-330.42857142857144,96.47767857142857,2284.2,-330.42857142857144,96.47767857142857,2384.3,-330.42857142857144,96.47767857142857,2484.8,-330.42857142857144,96.47767857142857,2585.3,-330.42857142857144,96.47767857142857,2690.5,-330.42857142857144,96.47767857142857,2794.2,-330.42857142857144,96.47767857142857,2895.4,-330.42857142857144,96.47767857142857,2999.2,-330.42857142857144,96.47767857142857,3099.3,-330.42857142857144,96.47767857142857,3200.3,-330.42857142857144,96.47767857142857,3305.5,-330.42857142857144,96.47767857142857,3408.8,-330.42857142857144,96.47767857142857,3510,-330.42857142857144,96.47767857142857,3616.3,-330.42857142857144,96.47767857142857,3719.5,-330.42857142857144,96.47767857142857,3819.8,-330.42857142857144,96.47767857142857,3924.4,-330.42857142857144,96.47767857142857,4025,-330.42857142857144,96.47767857142857,4129.6,-330.42857142857144,96.47767857142857,4234.3,-330.42857142857144,96.47767857142857,4334.6,-330.42857142857144,96.47767857142857,4438.8,-330.42857142857144,96.47767857142857,4539.2,-330.42857142857144,96.47767857142857,4639.3,-330.42857142857144,96.47767857142857,4739.5,-330.42857142857144,96.47767857142857,4844.5,-330.42857142857144,96.47767857142857,4944.5]","[1435.6,1435.6,1000,0,435.6,""smooth"",""up"",""up"",""good_move"",7979.4,6543.3,2403.3,5044,532.1,""smooth"",""left"",""left"",""good_move"",17555.6,9575.9,2704.6,14494.1,356.9,""smooth"",""left"",""left"",""good_move"",20243,2687.1,2324.2,17555.9,362.9,""smooth"",""up"",""up"",""good_move"",26882.5,6639.3,2145.9,24369.3,367.3,""smooth"",""up"",""up"",""good_move"",30282.1,3399.4,3007.7,26882.7,391.7,""smooth"",""left"",""left"",""good_move""]","",""
"1890","","<div style=""width:500px;"">
  <p>What determined the result of this run?</p>
  </div>","100","html-slider-response","10","142249","0.0-5.0-1.0","97","1","2025-07-16 10:12:37","1f75c3e559b7213887762d5229550c2b","85.246.21.29","Mozilla/5.0 (Windows NT 10.0; Win64; x64) AppleWebKit/537.36 (KHTML, like Gecko) Chrome/138.0.0.0 Safari/537.36","WebKit","Chrome","138.0.0.0","Windows","10.0","https://app.prolific.com/","pt-PT,pt;q=0.9,en-US;q=0.8,en;q=0.7","65a93241fc1ee8c40991a861","68764874ac79eee8c1d4cb03","68777b12b50250593a8dda1c","2","0","65a93241fc1ee8c40991a861","2","0","2025-07-16T10:15:00.397Z","","","","","","","","","","","AttribQ","","50","","","","","","","","","","","","","","","","","","","","","","","","","","","","",""
"1756","","<div style=""width:500px;"">
  <p>How much control did you have over the ball?</p>
  </div>","100","html-slider-response","11","144006","0.0-5.0-2.0","97","1","2025-07-16 10:12:37","1f75c3e559b7213887762d5229550c2b","85.246.21.29","Mozilla/5.0 (Windows NT 10.0; Win64; x64) AppleWebKit/537.36 (KHTML, like Gecko) Chrome/138.0.0.0 Safari/537.36","WebKit","Chrome","138.0.0.0","Windows","10.0","https://app.prolific.com/","pt-PT,pt;q=0.9,en-US;q=0.8,en;q=0.7","65a93241fc1ee8c40991a861","68764874ac79eee8c1d4cb03","68777b12b50250593a8dda1c","2","0","65a93241fc1ee8c40991a861","2","0","2025-07-16T10:15:02.154Z","","","","","","","","","","","ControlQ","","50","","","","","","","","","","","","","","","","","","","","","","","","","","","","",""
"1469","","<div style=""width:500px;"">
  <p>How would you describe your current emotional state?</p>
  </div>","0","html-slider-response","12","145476","0.0-5.0-3.0","97","1","2025-07-16 10:12:37","1f75c3e559b7213887762d5229550c2b","85.246.21.29","Mozilla/5.0 (Windows NT 10.0; Win64; x64) AppleWebKit/537.36 (KHTML, like Gecko) Chrome/138.0.0.0 Safari/537.36","WebKit","Chrome","138.0.0.0","Windows","10.0","https://app.prolific.com/","pt-PT,pt;q=0.9,en-US;q=0.8,en;q=0.7","65a93241fc1ee8c40991a861","68764874ac79eee8c1d4cb03","68777b12b50250593a8dda1c","2","0","65a93241fc1ee8c40991a861","2","0","2025-07-16T10:15:03.624Z","","","","","","","","","","","StressQ","","50","","","","","","","","","","","","","","","","","","","","","","","","","","","","",""
"1605","","<div style=""width:500px;"">
  <p>What best describes how you currently feel?</p>
  </div>","100","html-slider-response","13","147081","0.0-5.0-4.0","97","1","2025-07-16 10:12:37","1f75c3e559b7213887762d5229550c2b","85.246.21.29","Mozilla/5.0 (Windows NT 10.0; Win64; x64) AppleWebKit/537.36 (KHTML, like Gecko) Chrome/138.0.0.0 Safari/537.36","WebKit","Chrome","138.0.0.0","Windows","10.0","https://app.prolific.com/","pt-PT,pt;q=0.9,en-US;q=0.8,en;q=0.7","65a93241fc1ee8c40991a861","68764874ac79eee8c1d4cb03","68777b12b50250593a8dda1c","2","0","65a93241fc1ee8c40991a861","2","0","2025-07-16T10:15:05.229Z","","","","","","","","","","","MotivationQ","","50","","","","","","","","","","","","","","","","","","","","","","","","","","","","",""
"","","","","ctl-task-cpt","14","180825","0.0-5.0-0.1","97","1","2025-07-16 10:12:37","1f75c3e559b7213887762d5229550c2b","85.246.21.29","Mozilla/5.0 (Windows NT 10.0; Win64; x64) AppleWebKit/537.36 (KHTML, like Gecko) Chrome/138.0.0.0 Safari/537.36","WebKit","Chrome","138.0.0.0","Windows","10.0","https://app.prolific.com/","pt-PT,pt;q=0.9,en-US;q=0.8,en;q=0.7","65a93241fc1ee8c40991a861","68764874ac79eee8c1d4cb03","68777b12b50250593a8dda1c","2","0","65a93241fc1ee8c40991a861","2","0","2025-07-16T10:15:38.973Z","","","","","","","","","","","","","","win-only","2","g1:SE,g2:NW","0.9","2","0","148186.3","698.3","5700.7","30726.3","1","4","4","6","2","4","3","11","8","0.08333333333333333","893.1","3000","860","[""left"",""up""]","{""num_key_presses"":7,""num_perfect"":6,""num_errors"":1,""num_randdir"":0,""num_randdir_good_moves"":0,""num_whilered"":0,""num_whileblue"":0,""num_blue"":2,""num_good_moves"":6}","[420.57142857142856,414.47767857142856,0.2,420.57142857142856,414.47767857142856,102,420.57142857142856,414.47767857142856,202.6,523.5714285714286,414.47767857142856,309.7,997.5714285714286,398.47767857142856,412,1051.5714285714287,398.47767857142856,512.3,317.57142857142856,242.47767857142856,614.1,78.57142857142857,180.47767857142856,717.4,85.57142857142857,112.47767857142857,817.7,85.57142857142857,54.47767857142857,922.3,85.57142857142857,54.47767857142857,1023.2,-49.42857142857143,89.47767857142857,1127.6,-193.42857142857144,142.47767857142856,1234.1,-193.42857142857144,142.47767857142856,1337.7,-193.42857142857144,142.47767857142856,1442.4,-193.42857142857144,142.47767857142856,1544.1,-193.42857142857144,142.47767857142856,1647.1,-193.42857142857144,142.47767857142856,1750.2,-193.42857142857144,142.47767857142856,1852.2,-193.42857142857144,142.47767857142856,1954.5,-193.42857142857144,142.47767857142856,2057.2,-193.42857142857144,142.47767857142856,2157.9,-193.42857142857144,142.47767857142856,2262.4,-193.42857142857144,142.47767857142856,2368.5,-193.42857142857144,142.47767857142856,2468.7,-193.42857142857144,142.47767857142856,2572.4,-193.42857142857144,142.47767857142856,2672.4,-193.42857142857144,142.47767857142856,2772.6,-193.42857142857144,142.47767857142856,2873,-193.42857142857144,142.47767857142856,2976.9,-193.42857142857144,142.47767857142856,3076.9,-193.42857142857144,142.47767857142856,3177.4,-193.42857142857144,142.47767857142856,3277.8,-193.42857142857144,142.47767857142856,3383.2,-193.42857142857144,142.47767857142856,3487.5,-193.42857142857144,142.47767857142856,3593.1,-193.42857142857144,142.47767857142856,3693.1,-193.42857142857144,142.47767857142856,3797.6,-193.42857142857144,142.47767857142856,3902.1,-193.42857142857144,142.47767857142856,4002.1,-193.42857142857144,142.47767857142856,4102.2,-193.42857142857144,142.47767857142856,4203.6,-193.42857142857144,142.47767857142856,4314.2,-193.42857142857144,142.47767857142856,4417.9,-193.42857142857144,142.47767857142856,4522.5,-193.42857142857144,142.47767857142856,4628,-193.42857142857144,142.47767857142856,4728,-193.42857142857144,142.47767857142856,4829,-193.42857142857144,142.47767857142856,4932.1]","[1394.7,1394.7,1000,0,394.7,""smooth"",""left"",""left"",""good_move"",4362.2,2967.2,2515.2,1395,452,""smooth"",""left"",""left"",""good_move"",10258.4,5896,1655.6,8270.1,332.7,""smooth"",""up"",""up"",""good_move"",14891.9,4633.3,1820.3,13600.2,-528.6,""error"",""-"",""-"",""no_move"",18874.6,3982.2,2654.5,15895.7,324.4,""smooth"",""up"",""up"",""good_move"",22386.8,3512,3145.5,18874.8,366.5,""smooth"",""left"",""left"",""good_move"",24939.2,2551.9,2251.4,22387.3,300.5,""smooth"",""up"",""up"",""good_move""]","",""
"3301","","<div style=""width:500px;"">
  <p>What determined the result of this run?</p>
  </div>","0","html-slider-response","15","184126","0.0-5.0-1.1","97","1","2025-07-16 10:12:37","1f75c3e559b7213887762d5229550c2b","85.246.21.29","Mozilla/5.0 (Windows NT 10.0; Win64; x64) AppleWebKit/537.36 (KHTML, like Gecko) Chrome/138.0.0.0 Safari/537.36","WebKit","Chrome","138.0.0.0","Windows","10.0","https://app.prolific.com/","pt-PT,pt;q=0.9,en-US;q=0.8,en;q=0.7","65a93241fc1ee8c40991a861","68764874ac79eee8c1d4cb03","68777b12b50250593a8dda1c","2","0","65a93241fc1ee8c40991a861","2","0","2025-07-16T10:15:42.274Z","","","","","","","","","","","AttribQ","","50","","","","","","","","","","","","","","","","","","","","","","","","","","","","",""
"1423","","<div style=""width:500px;"">
  <p>How much control did you have over the ball?</p>
  </div>","100","html-slider-response","16","185550","0.0-5.0-2.1","97","1","2025-07-16 10:12:37","1f75c3e559b7213887762d5229550c2b","85.246.21.29","Mozilla/5.0 (Windows NT 10.0; Win64; x64) AppleWebKit/537.36 (KHTML, like Gecko) Chrome/138.0.0.0 Safari/537.36","WebKit","Chrome","138.0.0.0","Windows","10.0","https://app.prolific.com/","pt-PT,pt;q=0.9,en-US;q=0.8,en;q=0.7","65a93241fc1ee8c40991a861","68764874ac79eee8c1d4cb03","68777b12b50250593a8dda1c","2","0","65a93241fc1ee8c40991a861","2","0","2025-07-16T10:15:43.698Z","","","","","","","","","","","ControlQ","","50","","","","","","","","","","","","","","","","","","","","","","","","","","","","",""
"1629","","<div style=""width:500px;"">
  <p>How would you describe your current emotional state?</p>
  </div>","0","html-slider-response","17","187180","0.0-5.0-3.1","97","1","2025-07-16 10:12:37","1f75c3e559b7213887762d5229550c2b","85.246.21.29","Mozilla/5.0 (Windows NT 10.0; Win64; x64) AppleWebKit/537.36 (KHTML, like Gecko) Chrome/138.0.0.0 Safari/537.36","WebKit","Chrome","138.0.0.0","Windows","10.0","https://app.prolific.com/","pt-PT,pt;q=0.9,en-US;q=0.8,en;q=0.7","65a93241fc1ee8c40991a861","68764874ac79eee8c1d4cb03","68777b12b50250593a8dda1c","2","0","65a93241fc1ee8c40991a861","2","0","2025-07-16T10:15:45.328Z","","","","","","","","","","","StressQ","","50","","","","","","","","","","","","","","","","","","","","","","","","","","","","",""
"1305","","<div style=""width:500px;"">
  <p>What best describes how you currently feel?</p>
  </div>","100","html-slider-response","18","188486","0.0-5.0-4.1","97","1","2025-07-16 10:12:37","1f75c3e559b7213887762d5229550c2b","85.246.21.29","Mozilla/5.0 (Windows NT 10.0; Win64; x64) AppleWebKit/537.36 (KHTML, like Gecko) Chrome/138.0.0.0 Safari/537.36","WebKit","Chrome","138.0.0.0","Windows","10.0","https://app.prolific.com/","pt-PT,pt;q=0.9,en-US;q=0.8,en;q=0.7","65a93241fc1ee8c40991a861","68764874ac79eee8c1d4cb03","68777b12b50250593a8dda1c","2","0","65a93241fc1ee8c40991a861","2","0","2025-07-16T10:15:46.634Z","","","","","","","","","","","MotivationQ","","50","","","","","","","","","","","","","","","","","","","","","","","","","","","","",""
"","","","","ctl-task-cpt","19","241411","0.0-5.0-0.2","97","1","2025-07-16 10:12:37","1f75c3e559b7213887762d5229550c2b","85.246.21.29","Mozilla/5.0 (Windows NT 10.0; Win64; x64) AppleWebKit/537.36 (KHTML, like Gecko) Chrome/138.0.0.0 Safari/537.36","WebKit","Chrome","138.0.0.0","Windows","10.0","https://app.prolific.com/","pt-PT,pt;q=0.9,en-US;q=0.8,en;q=0.7","65a93241fc1ee8c40991a861","68764874ac79eee8c1d4cb03","68777b12b50250593a8dda1c","2","0","65a93241fc1ee8c40991a861","2","0","2025-07-16T10:16:39.559Z","","","","","","","","","","","","","","win-only","2","g1:SE,g2:NW","0.8","3","0","189591.6","802.3","5806","49906","1","4","8","6","2","8","8","19","11","0.14393939393939395","712.3","3000","25","[""left"",""up""]","{""num_key_presses"":8,""num_perfect"":7,""num_errors"":0,""num_randdir"":1,""num_randdir_good_moves"":0,""num_whilered"":0,""num_whileblue"":0,""num_blue"":6,""num_good_moves"":7}","[418.57142857142856,415.47767857142856,0.3,418.57142857142856,415.47767857142856,100.2,418.57142857142856,415.47767857142856,204,418.57142857142856,415.47767857142856,308.5,261.57142857142856,267.47767857142856,409.9,34.57142857142857,81.47767857142857,515.9,54.57142857142857,80.47767857142857,618.7,69.57142857142857,80.47767857142857,722.7,69.57142857142857,80.47767857142857,824.7,19.57142857142857,78.47767857142857,927.4,-177.42857142857144,161.47767857142856,1029.3,-203.42857142857144,184.47767857142856,1130.7,-203.42857142857144,184.47767857142856,1233.7,-203.42857142857144,184.47767857142856,1338.8,-203.42857142857144,184.47767857142856,1440.2,-203.42857142857144,184.47767857142856,1543.3,-203.42857142857144,184.47767857142856,1644.6,-203.42857142857144,184.47767857142856,1749.5,-203.42857142857144,184.47767857142856,1854.6,-203.42857142857144,184.47767857142856,1961.2,-203.42857142857144,184.47767857142856,2064.4,-203.42857142857144,184.47767857142856,2169.7,-203.42857142857144,184.47767857142856,2273.6,-203.42857142857144,184.47767857142856,2374.6,-203.42857142857144,184.47767857142856,2480.8,-203.42857142857144,184.47767857142856,2584.3,-203.42857142857144,184.47767857142856,2688.9,-203.42857142857144,184.47767857142856,2793.8,-203.42857142857144,184.47767857142856,2895,-203.42857142857144,184.47767857142856,2995.5,-203.42857142857144,184.47767857142856,3098.9,-203.42857142857144,184.47767857142856,3204.6,-203.42857142857144,184.47767857142856,3308.6,-203.42857142857144,184.47767857142856,3408.9,-203.42857142857144,184.47767857142856,3509.4,-203.42857142857144,184.47767857142856,3613.3,-203.42857142857144,184.47767857142856,3718.9,-203.42857142857144,184.47767857142856,3819.5,-203.42857142857144,184.47767857142856,3920.7,-203.42857142857144,184.47767857142856,4023.4,-203.42857142857144,184.47767857142856,4124.3,-203.42857142857144,184.47767857142856,4229,-203.42857142857144,184.47767857142856,4334.4,-203.42857142857144,184.47767857142856,4439.9,-203.42857142857144,184.47767857142856,4543.5,-203.42857142857144,184.47767857142856,4643.5,-203.42857142857144,184.47767857142856,4743.6,-203.42857142857144,184.47767857142856,4843.6,-203.42857142857144,184.47767857142856,4943.6]","[5171.4,5171.4,2796.3,2005,370.1,""smooth"",""left"",""left"",""good_move"",8827,3655.3,3272.4,5171.8,382.9,""smooth"",""up"",""up"",""good_move"",22763.6,13936.3,3342.7,19081.7,339.2,""smooth"",""up"",""up"",""good_move"",29028.3,6264.5,2175.7,26438.6,414,""smooth"",""left"",""left"",""good_move"",32164.1,3135.6,2683.9,29028.6,451.6,""oops"",""up"",""right"",""bad_move"",35244.4,3080,2666,32164.5,414,""smooth"",""left"",""left"",""good_move"",37768.8,2524.1,2158.6,35244.8,365.5,""smooth"",""left"",""left"",""good_move"",44011.8,6242.7,2647.7,41076.3,287.8,""smooth"",""up"",""up"",""good_move""]","",""
"1372","","<div style=""width:500px;"">
  <p>What determined the result of this run?</p>
  </div>","0","html-slider-response","20","242784","0.0-5.0-1.2","97","1","2025-07-16 10:12:37","1f75c3e559b7213887762d5229550c2b","85.246.21.29","Mozilla/5.0 (Windows NT 10.0; Win64; x64) AppleWebKit/537.36 (KHTML, like Gecko) Chrome/138.0.0.0 Safari/537.36","WebKit","Chrome","138.0.0.0","Windows","10.0","https://app.prolific.com/","pt-PT,pt;q=0.9,en-US;q=0.8,en;q=0.7","65a93241fc1ee8c40991a861","68764874ac79eee8c1d4cb03","68777b12b50250593a8dda1c","2","0","65a93241fc1ee8c40991a861","2","0","2025-07-16T10:16:40.932Z","","","","","","","","","","","AttribQ","","50","","","","","","","","","","","","","","","","","","","","","","","","","","","","",""
"1743","","<div style=""width:500px;"">
  <p>How much control did you have over the ball?</p>
  </div>","0","html-slider-response","21","244528","0.0-5.0-2.2","97","1","2025-07-16 10:12:37","1f75c3e559b7213887762d5229550c2b","85.246.21.29","Mozilla/5.0 (Windows NT 10.0; Win64; x64) AppleWebKit/537.36 (KHTML, like Gecko) Chrome/138.0.0.0 Safari/537.36","WebKit","Chrome","138.0.0.0","Windows","10.0","https://app.prolific.com/","pt-PT,pt;q=0.9,en-US;q=0.8,en;q=0.7","65a93241fc1ee8c40991a861","68764874ac79eee8c1d4cb03","68777b12b50250593a8dda1c","2","0","65a93241fc1ee8c40991a861","2","0","2025-07-16T10:16:42.676Z","","","","","","","","","","","ControlQ","","50","","","","","","","","","","","","","","","","","","","","","","","","","","","","",""
"1469","","<div style=""width:500px;"">
  <p>How would you describe your current emotional state?</p>
  </div>","0","html-slider-response","22","245998","0.0-5.0-3.2","97","1","2025-07-16 10:12:37","1f75c3e559b7213887762d5229550c2b","85.246.21.29","Mozilla/5.0 (Windows NT 10.0; Win64; x64) AppleWebKit/537.36 (KHTML, like Gecko) Chrome/138.0.0.0 Safari/537.36","WebKit","Chrome","138.0.0.0","Windows","10.0","https://app.prolific.com/","pt-PT,pt;q=0.9,en-US;q=0.8,en;q=0.7","65a93241fc1ee8c40991a861","68764874ac79eee8c1d4cb03","68777b12b50250593a8dda1c","2","0","65a93241fc1ee8c40991a861","2","0","2025-07-16T10:16:44.146Z","","","","","","","","","","","StressQ","","50","","","","","","","","","","","","","","","","","","","","","","","","","","","","",""
"1381","","<div style=""width:500px;"">
  <p>What best describes how you currently feel?</p>
  </div>","100","html-slider-response","23","247380","0.0-5.0-4.2","97","1","2025-07-16 10:12:37","1f75c3e559b7213887762d5229550c2b","85.246.21.29","Mozilla/5.0 (Windows NT 10.0; Win64; x64) AppleWebKit/537.36 (KHTML, like Gecko) Chrome/138.0.0.0 Safari/537.36","WebKit","Chrome","138.0.0.0","Windows","10.0","https://app.prolific.com/","pt-PT,pt;q=0.9,en-US;q=0.8,en;q=0.7","65a93241fc1ee8c40991a861","68764874ac79eee8c1d4cb03","68777b12b50250593a8dda1c","2","0","65a93241fc1ee8c40991a861","2","0","2025-07-16T10:16:45.528Z","","","","","","","","","","","MotivationQ","","50","","","","","","","","","","","","","","","","","","","","","","","","","","","","",""
"","","","","ctl-task-cpt","24","266402","0.0-5.0-0.3","97","1","2025-07-16 10:12:37","1f75c3e559b7213887762d5229550c2b","85.246.21.29","Mozilla/5.0 (Windows NT 10.0; Win64; x64) AppleWebKit/537.36 (KHTML, like Gecko) Chrome/138.0.0.0 Safari/537.36","WebKit","Chrome","138.0.0.0","Windows","10.0","https://app.prolific.com/","pt-PT,pt;q=0.9,en-US;q=0.8,en;q=0.7","65a93241fc1ee8c40991a861","68764874ac79eee8c1d4cb03","68777b12b50250593a8dda1c","2","0","65a93241fc1ee8c40991a861","2","0","2025-07-16T10:17:04.551Z","","","","","","","","","","","","","","win-only","0","g1:NW,g2:SE","0.7","4","0","248485.7","1026.7","6032.4","16010.9","1","4","4","6","1","1","1","20","19","0.15151515151515152","1618.9","3000","1595","[""left"",""up""]","{""num_key_presses"":4,""num_perfect"":3,""num_errors"":0,""num_randdir"":1,""num_randdir_good_moves"":1,""num_whilered"":0,""num_whileblue"":0,""num_blue"":0,""num_good_moves"":4}","[422.57142857142856,410.47767857142856,0.2,422.57142857142856,410.47767857142856,104.6,422.57142857142856,410.47767857142856,207,422.57142857142856,410.47767857142856,308.3,402.57142857142856,410.47767857142856,409.7,383.57142857142856,397.47767857142856,512,760.5714285714286,634.4776785714286,614.9,813.5714285714286,748.4776785714286,716.4,809.5714285714286,765.4776785714286,817.8,793.5714285714286,768.4776785714286,920.2,793.5714285714286,768.4776785714286,1022.3,793.5714285714286,768.4776785714286,1128.6,781.5714285714286,765.4776785714286,1229.1,412.57142857142856,393.47767857142856,1329.5,138.57142857142856,164.47767857142856,1435.8,74.57142857142857,108.47767857142857,1536.2,42.57142857142857,68.47767857142857,1644.5,37.57142857142857,68.47767857142857,1745.6,-112.42857142857143,105.47767857142857,1848,-227.42857142857144,178.47767857142856,1950.7,-231.42857142857144,190.47767857142856,2054,-232.42857142857144,191.47767857142856,2155.1,-232.42857142857144,191.47767857142856,2256,-232.42857142857144,191.47767857142856,2359.1,-232.42857142857144,191.47767857142856,2460,-232.42857142857144,191.47767857142856,2563.1,-232.42857142857144,191.47767857142856,2664.4,-232.42857142857144,191.47767857142856,2765.3,-232.42857142857144,191.47767857142856,2870.5,-232.42857142857144,191.47767857142856,2974,-232.42857142857144,191.47767857142856,3074.8,-232.42857142857144,191.47767857142856,3176.5,-232.42857142857144,191.47767857142856,3281.1,-232.42857142857144,191.47767857142856,3383.8,-232.42857142857144,191.47767857142856,3485.9,-232.42857142857144,191.47767857142856,3586,-232.42857142857144,191.47767857142856,3687.1,-232.42857142857144,191.47767857142856,3787.7,-232.42857142857144,191.47767857142856,3892.3,-232.42857142857144,191.47767857142856,3995.5,-232.42857142857144,191.47767857142856,4099.4,-232.42857142857144,191.47767857142856,4200.4,-232.42857142857144,191.47767857142856,4305.5,-232.42857142857144,191.47767857142856,4407.2,-232.42857142857144,191.47767857142856,4509.3,-232.42857142857144,191.47767857142856,4612.2,-232.42857142857144,191.47767857142856,4715,-232.42857142857144,191.47767857142856,4815.6,-232.42857142857144,191.47767857142856,4921]","[1404,1404,1000,0,404,""smooth"",""left"",""left"",""good_move"",4515.4,3110.7,2768.9,1404.7,341.8,""smooth"",""up"",""up"",""good_move"",6891.1,2375.2,2017.7,4515.9,357.5,""oops"",""up"",""left"",""good_move"",9892.1,3000.7,2665.2,6891.4,335.5,""smooth"",""up"",""up"",""good_move""]","",""
"2077","","<div style=""width:500px;"">
  <p>What determined the result of this run?</p>
  </div>","0","html-slider-response","25","268481","0.0-5.0-1.3","97","1","2025-07-16 10:12:37","1f75c3e559b7213887762d5229550c2b","85.246.21.29","Mozilla/5.0 (Windows NT 10.0; Win64; x64) AppleWebKit/537.36 (KHTML, like Gecko) Chrome/138.0.0.0 Safari/537.36","WebKit","Chrome","138.0.0.0","Windows","10.0","https://app.prolific.com/","pt-PT,pt;q=0.9,en-US;q=0.8,en;q=0.7","65a93241fc1ee8c40991a861","68764874ac79eee8c1d4cb03","68777b12b50250593a8dda1c","2","0","65a93241fc1ee8c40991a861","2","0","2025-07-16T10:17:06.629Z","","","","","","","","","","","AttribQ","","50","","","","","","","","","","","","","","","","","","","","","","","","","","","","",""
"1606","","<div style=""width:500px;"">
  <p>How much control did you have over the ball?</p>
  </div>","0","html-slider-response","26","270088","0.0-5.0-2.3","97","1","2025-07-16 10:12:37","1f75c3e559b7213887762d5229550c2b","85.246.21.29","Mozilla/5.0 (Windows NT 10.0; Win64; x64) AppleWebKit/537.36 (KHTML, like Gecko) Chrome/138.0.0.0 Safari/537.36","WebKit","Chrome","138.0.0.0","Windows","10.0","https://app.prolific.com/","pt-PT,pt;q=0.9,en-US;q=0.8,en;q=0.7","65a93241fc1ee8c40991a861","68764874ac79eee8c1d4cb03","68777b12b50250593a8dda1c","2","0","65a93241fc1ee8c40991a861","2","0","2025-07-16T10:17:08.236Z","","","","","","","","","","","ControlQ","","50","","","","","","","","","","","","","","","","","","","","","","","","","","","","",""
"1657","","<div style=""width:500px;"">
  <p>How would you describe your current emotional state?</p>
  </div>","0","html-slider-response","27","271746","0.0-5.0-3.3","97","1","2025-07-16 10:12:37","1f75c3e559b7213887762d5229550c2b","85.246.21.29","Mozilla/5.0 (Windows NT 10.0; Win64; x64) AppleWebKit/537.36 (KHTML, like Gecko) Chrome/138.0.0.0 Safari/537.36","WebKit","Chrome","138.0.0.0","Windows","10.0","https://app.prolific.com/","pt-PT,pt;q=0.9,en-US;q=0.8,en;q=0.7","65a93241fc1ee8c40991a861","68764874ac79eee8c1d4cb03","68777b12b50250593a8dda1c","2","0","65a93241fc1ee8c40991a861","2","0","2025-07-16T10:17:09.894Z","","","","","","","","","","","StressQ","","50","","","","","","","","","","","","","","","","","","","","","","","","","","","","",""
"1475","","<div style=""width:500px;"">
  <p>What best describes how you currently feel?</p>
  </div>","100","html-slider-response","28","273222","0.0-5.0-4.3","97","1","2025-07-16 10:12:37","1f75c3e559b7213887762d5229550c2b","85.246.21.29","Mozilla/5.0 (Windows NT 10.0; Win64; x64) AppleWebKit/537.36 (KHTML, like Gecko) Chrome/138.0.0.0 Safari/537.36","WebKit","Chrome","138.0.0.0","Windows","10.0","https://app.prolific.com/","pt-PT,pt;q=0.9,en-US;q=0.8,en;q=0.7","65a93241fc1ee8c40991a861","68764874ac79eee8c1d4cb03","68777b12b50250593a8dda1c","2","0","65a93241fc1ee8c40991a861","2","0","2025-07-16T10:17:11.370Z","","","","","","","","","","","MotivationQ","","50","","","","","","","","","","","","","","","","","","","","","","","","","","","","",""
"","","","","ctl-task-cpt","29","312606","0.0-5.0-0.4","97","1","2025-07-16 10:12:37","1f75c3e559b7213887762d5229550c2b","85.246.21.29","Mozilla/5.0 (Windows NT 10.0; Win64; x64) AppleWebKit/537.36 (KHTML, like Gecko) Chrome/138.0.0.0 Safari/537.36","WebKit","Chrome","138.0.0.0","Windows","10.0","https://app.prolific.com/","pt-PT,pt;q=0.9,en-US;q=0.8,en;q=0.7","65a93241fc1ee8c40991a861","68764874ac79eee8c1d4cb03","68777b12b50250593a8dda1c","2","0","65a93241fc1ee8c40991a861","2","0","2025-07-16T10:17:50.754Z","","","","","","","","","","","","","","win-only","2","g1:SE,g2:NW","0.6","5","0","274327.8","665","5672.1","36361.5","1","4","4","6","1","1","1","21","20","0.1590909090909091","1826.4","3000","515","[""down"",""right""]","{""num_key_presses"":8,""num_perfect"":5,""num_errors"":0,""num_randdir"":3,""num_randdir_good_moves"":1,""num_whilered"":0,""num_whileblue"":0,""num_blue"":3,""num_good_moves"":6}","[416.57142857142856,415.47767857142856,0.3,416.57142857142856,415.47767857142856,104.3,421.57142857142856,415.47767857142856,208.7,568.5714285714286,416.47767857142856,314.3,699.5714285714286,423.47767857142856,420.4,634.5714285714286,433.47767857142856,527.8,526.5714285714286,384.47767857142856,629,154.57142857142856,172.47767857142856,731,74.57142857142857,94.47767857142857,834.8,34.57142857142857,55.47767857142857,936.5,27.57142857142857,50.47767857142857,1046.9,45.57142857142857,62.47767857142857,1148.7,56.57142857142857,74.47767857142857,1249.9,98.57142857142857,115.47767857142857,1354.2,518.5714285714286,507.47767857142856,1455.7,696.5714285714286,668.4776785714286,1562.7,727.5714285714286,720.4776785714286,1665.7,751.5714285714286,753.4776785714286,1767.6,751.5714285714286,759.4776785714286,1872.5,760.5714285714286,744.4776785714286,1972.9,906.5714285714286,597.4776785714286,2081.4,948.5714285714286,579.4776785714286,2185.1,948.5714285714286,579.4776785714286,2286,948.5714285714286,579.4776785714286,2389.7,948.5714285714286,579.4776785714286,2492.2,948.5714285714286,579.4776785714286,2599.4,948.5714285714286,579.4776785714286,2702.6,948.5714285714286,579.4776785714286,2805.9,948.5714285714286,579.4776785714286,2909.9,948.5714285714286,579.4776785714286,3015.2,948.5714285714286,579.4776785714286,3123.4,948.5714285714286,579.4776785714286,3229.2,948.5714285714286,579.4776785714286,3331.7,948.5714285714286,579.4776785714286,3436.6,948.5714285714286,579.4776785714286,3537.1,948.5714285714286,579.4776785714286,3640.4,948.5714285714286,579.4776785714286,3744.7,948.5714285714286,579.4776785714286,3845.6,948.5714285714286,579.4776785714286,3947.8,948.5714285714286,579.4776785714286,4049.1,948.5714285714286,579.4776785714286,4155.3,948.5714285714286,579.4776785714286,4256.5,948.5714285714286,579.4776785714286,4359.3,948.5714285714286,579.4776785714286,4462.8,948.5714285714286,579.4776785714286,4566.2,948.5714285714286,579.4776785714286,4666.8,948.5714285714286,579.4776785714286,4769.4,948.5714285714286,579.4776785714286,4875.2,948.5714285714286,579.4776785714286,4982.2]","[1377.2,1377.2,1000,0,377.2,""smooth"",""down"",""down"",""good_move"",4265.6,2888.1,2518.1,1377.5,370,""oops"",""down"",""down"",""good_move"",7025,2759,2429.2,4266,329.8,""oops"",""right"",""left"",""bad_move"",10001.5,2976.1,2627.2,7025.4,348.9,""smooth"",""right"",""right"",""good_move"",12857.8,2855.8,2553.1,10002,302.7,""smooth"",""right"",""right"",""good_move"",26217.6,13359.5,2517.4,23338.2,362,""oops"",""right"",""left"",""bad_move"",28369.9,2152,1713.4,26217.9,438.6,""smooth"",""right"",""right"",""good_move"",30601.7,2231.4,1864.7,28370.3,366.7,""smooth"",""right"",""right"",""good_move""]","",""
"2016","","<div style=""width:500px;"">
  <p>What determined the result of this run?</p>
  </div>","0","html-slider-response","30","314623","0.0-5.0-1.4","97","1","2025-07-16 10:12:37","1f75c3e559b7213887762d5229550c2b","85.246.21.29","Mozilla/5.0 (Windows NT 10.0; Win64; x64) AppleWebKit/537.36 (KHTML, like Gecko) Chrome/138.0.0.0 Safari/537.36","WebKit","Chrome","138.0.0.0","Windows","10.0","https://app.prolific.com/","pt-PT,pt;q=0.9,en-US;q=0.8,en;q=0.7","65a93241fc1ee8c40991a861","68764874ac79eee8c1d4cb03","68777b12b50250593a8dda1c","2","0","65a93241fc1ee8c40991a861","2","0","2025-07-16T10:17:52.771Z","","","","","","","","","","","AttribQ","","50","","","","","","","","","","","","","","","","","","","","","","","","","","","","",""
"4423","","<div style=""width:500px;"">
  <p>How much control did you have over the ball?</p>
  </div>","0","html-slider-response","31","319047","0.0-5.0-2.4","97","1","2025-07-16 10:12:37","1f75c3e559b7213887762d5229550c2b","85.246.21.29","Mozilla/5.0 (Windows NT 10.0; Win64; x64) AppleWebKit/537.36 (KHTML, like Gecko) Chrome/138.0.0.0 Safari/537.36","WebKit","Chrome","138.0.0.0","Windows","10.0","https://app.prolific.com/","pt-PT,pt;q=0.9,en-US;q=0.8,en;q=0.7","65a93241fc1ee8c40991a861","68764874ac79eee8c1d4cb03","68777b12b50250593a8dda1c","2","0","65a93241fc1ee8c40991a861","2","0","2025-07-16T10:17:57.196Z","","","","","","","","","","","ControlQ","","50","","","","","","","","","","","","","","","","","","","","","","","","","","","","",""
"1438","","<div style=""width:500px;"">
  <p>How would you describe your current emotional state?</p>
  </div>","0","html-slider-response","32","320487","0.0-5.0-3.4","97","1","2025-07-16 10:12:37","1f75c3e559b7213887762d5229550c2b","85.246.21.29","Mozilla/5.0 (Windows NT 10.0; Win64; x64) AppleWebKit/537.36 (KHTML, like Gecko) Chrome/138.0.0.0 Safari/537.36","WebKit","Chrome","138.0.0.0","Windows","10.0","https://app.prolific.com/","pt-PT,pt;q=0.9,en-US;q=0.8,en;q=0.7","65a93241fc1ee8c40991a861","68764874ac79eee8c1d4cb03","68777b12b50250593a8dda1c","2","0","65a93241fc1ee8c40991a861","2","0","2025-07-16T10:17:58.635Z","","","","","","","","","","","StressQ","","50","","","","","","","","","","","","","","","","","","","","","","","","","","","","",""
"1417","","<div style=""width:500px;"">
  <p>What best describes how you currently feel?</p>
  </div>","100","html-slider-response","33","321904","0.0-5.0-4.4","97","1","2025-07-16 10:12:37","1f75c3e559b7213887762d5229550c2b","85.246.21.29","Mozilla/5.0 (Windows NT 10.0; Win64; x64) AppleWebKit/537.36 (KHTML, like Gecko) Chrome/138.0.0.0 Safari/537.36","WebKit","Chrome","138.0.0.0","Windows","10.0","https://app.prolific.com/","pt-PT,pt;q=0.9,en-US;q=0.8,en;q=0.7","65a93241fc1ee8c40991a861","68764874ac79eee8c1d4cb03","68777b12b50250593a8dda1c","2","0","65a93241fc1ee8c40991a861","2","0","2025-07-16T10:18:00.052Z","","","","","","","","","","","MotivationQ","","50","","","","","","","","","","","","","","","","","","","","","","","","","","","","",""
"","","","","ctl-task-cpt","34","351457","0.0-5.0-0.5","97","1","2025-07-16 10:12:37","1f75c3e559b7213887762d5229550c2b","85.246.21.29","Mozilla/5.0 (Windows NT 10.0; Win64; x64) AppleWebKit/537.36 (KHTML, like Gecko) Chrome/138.0.0.0 Safari/537.36","WebKit","Chrome","138.0.0.0","Windows","10.0","https://app.prolific.com/","pt-PT,pt;q=0.9,en-US;q=0.8,en;q=0.7","65a93241fc1ee8c40991a861","68764874ac79eee8c1d4cb03","68777b12b50250593a8dda1c","2","0","65a93241fc1ee8c40991a861","2","0","2025-07-16T10:18:29.605Z","","","","","","","","","","","","","","win-only","0","g1:NW,g2:SE","0.5","6","0","323009.9","732.5","5737.3","26530.8","1","4","8","6","2","8","7","28","21","0.21212121212121213","698.6","3000","625","[""down"",""right""]","{""num_key_presses"":8,""num_perfect"":5,""num_errors"":1,""num_randdir"":2,""num_randdir_good_moves"":2,""num_whilered"":0,""num_whileblue"":1,""num_blue"":1,""num_good_moves"":7}","[414.57142857142856,415.47767857142856,0.3,414.57142857142856,415.47767857142856,100.1,414.57142857142856,415.47767857142856,203.8,414.57142857142856,415.47767857142856,307.8,458.57142857142856,435.47767857142856,411.2,676.5714285714286,625.4776785714286,512.5,741.5714285714286,723.4776785714286,617.2,754.5714285714286,746.4776785714286,718.8,755.5714285714286,742.4776785714286,821.7,900.5714285714286,570.4776785714286,928.9,968.5714285714286,531.4776785714286,1033.5,968.5714285714286,531.4776785714286,1139.6,968.5714285714286,531.4776785714286,1247.4,968.5714285714286,531.4776785714286,1348.8,968.5714285714286,531.4776785714286,1449.3,968.5714285714286,531.4776785714286,1557.9,968.5714285714286,531.4776785714286,1665.1,968.5714285714286,531.4776785714286,1768.1,968.5714285714286,531.4776785714286,1873.8,968.5714285714286,531.4776785714286,1976.4,968.5714285714286,531.4776785714286,2078.6,968.5714285714286,531.4776785714286,2180.1,968.5714285714286,531.4776785714286,2284.2,968.5714285714286,531.4776785714286,2384.3,968.5714285714286,531.4776785714286,2488.3,968.5714285714286,531.4776785714286,2593.1,968.5714285714286,531.4776785714286,2695.8,968.5714285714286,531.4776785714286,2798.3,968.5714285714286,531.4776785714286,2900.8,968.5714285714286,531.4776785714286,3005.3,968.5714285714286,531.4776785714286,3107.9,968.5714285714286,531.4776785714286,3208.8,968.5714285714286,531.4776785714286,3314.6,968.5714285714286,531.4776785714286,3416,968.5714285714286,531.4776785714286,3518.4,968.5714285714286,531.4776785714286,3621.3,968.5714285714286,531.4776785714286,3724.6,968.5714285714286,531.4776785714286,3828.5,968.5714285714286,531.4776785714286,3928.9,968.5714285714286,531.4776785714286,4031.2,968.5714285714286,531.4776785714286,4136.4,968.5714285714286,531.4776785714286,4239.7,968.5714285714286,531.4776785714286,4341.7,968.5714285714286,531.4776785714286,4444.6,968.5714285714286,531.4776785714286,4545.1,968.5714285714286,531.4776785714286,4650.8,968.5714285714286,531.4776785714286,4755.9,968.5714285714286,531.4776785714286,4857,968.5714285714286,531.4776785714286,4957.7]","[1390.3,1390.3,1000,0,390.3,""oops"",""right"",""down"",""good_move"",4246.6,2856.1,2422,1390.5,434.1,""smooth"",""right"",""right"",""good_move"",7246.8,2998.8,2622.5,4248,376.3,""smooth"",""right"",""right"",""good_move"",9927,2679.4,2300.6,7247.6,378.8,""smooth"",""down"",""down"",""good_move"",12302.1,2374.8,2092.1,9927.3,282.7,""while_blue"",""right"",""up"",""bad_move"",15341.5,3038.4,2676.7,12303.1,361.7,""smooth"",""down"",""down"",""good_move"",18013.8,2672,2327,15341.8,345,""smooth"",""down"",""down"",""good_move"",20694.2,2680.2,2361.7,18014,318.5,""oops"",""right"",""right"",""good_move""]","",""
"3617","","<div style=""width:500px;"">
  <p>What determined the result of this run?</p>
  </div>","100","html-slider-response","35","355075","0.0-5.0-1.5","97","1","2025-07-16 10:12:37","1f75c3e559b7213887762d5229550c2b","85.246.21.29","Mozilla/5.0 (Windows NT 10.0; Win64; x64) AppleWebKit/537.36 (KHTML, like Gecko) Chrome/138.0.0.0 Safari/537.36","WebKit","Chrome","138.0.0.0","Windows","10.0","https://app.prolific.com/","pt-PT,pt;q=0.9,en-US;q=0.8,en;q=0.7","65a93241fc1ee8c40991a861","68764874ac79eee8c1d4cb03","68777b12b50250593a8dda1c","2","0","65a93241fc1ee8c40991a861","2","0","2025-07-16T10:18:33.223Z","","","","","","","","","","","AttribQ","","50","","","","","","","","","","","","","","","","","","","","","","","","","","","","",""
"1847","","<div style=""width:500px;"">
  <p>How much control did you have over the ball?</p>
  </div>","61","html-slider-response","36","356923","0.0-5.0-2.5","97","1","2025-07-16 10:12:37","1f75c3e559b7213887762d5229550c2b","85.246.21.29","Mozilla/5.0 (Windows NT 10.0; Win64; x64) AppleWebKit/537.36 (KHTML, like Gecko) Chrome/138.0.0.0 Safari/537.36","WebKit","Chrome","138.0.0.0","Windows","10.0","https://app.prolific.com/","pt-PT,pt;q=0.9,en-US;q=0.8,en;q=0.7","65a93241fc1ee8c40991a861","68764874ac79eee8c1d4cb03","68777b12b50250593a8dda1c","2","0","65a93241fc1ee8c40991a861","2","0","2025-07-16T10:18:35.071Z","","","","","","","","","","","ControlQ","","50","","","","","","","","","","","","","","","","","","","","","","","","","","","","",""
"1400","","<div style=""width:500px;"">
  <p>How would you describe your current emotional state?</p>
  </div>","0","html-slider-response","37","358324","0.0-5.0-3.5","97","1","2025-07-16 10:12:37","1f75c3e559b7213887762d5229550c2b","85.246.21.29","Mozilla/5.0 (Windows NT 10.0; Win64; x64) AppleWebKit/537.36 (KHTML, like Gecko) Chrome/138.0.0.0 Safari/537.36","WebKit","Chrome","138.0.0.0","Windows","10.0","https://app.prolific.com/","pt-PT,pt;q=0.9,en-US;q=0.8,en;q=0.7","65a93241fc1ee8c40991a861","68764874ac79eee8c1d4cb03","68777b12b50250593a8dda1c","2","0","65a93241fc1ee8c40991a861","2","0","2025-07-16T10:18:36.472Z","","","","","","","","","","","StressQ","","50","","","","","","","","","","","","","","","","","","","","","","","","","","","","",""
"1150","","<div style=""width:500px;"">
  <p>What best describes how you currently feel?</p>
  </div>","100","html-slider-response","38","359475","0.0-5.0-4.5","97","1","2025-07-16 10:12:37","1f75c3e559b7213887762d5229550c2b","85.246.21.29","Mozilla/5.0 (Windows NT 10.0; Win64; x64) AppleWebKit/537.36 (KHTML, like Gecko) Chrome/138.0.0.0 Safari/537.36","WebKit","Chrome","138.0.0.0","Windows","10.0","https://app.prolific.com/","pt-PT,pt;q=0.9,en-US;q=0.8,en;q=0.7","65a93241fc1ee8c40991a861","68764874ac79eee8c1d4cb03","68777b12b50250593a8dda1c","2","0","65a93241fc1ee8c40991a861","2","0","2025-07-16T10:18:37.623Z","","","","","","","","","","","MotivationQ","","50","","","","","","","","","","","","","","","","","","","","","","","","","","","","",""
"","","","","ctl-task-cpt","39","391917","0.0-5.0-0.6","97","1","2025-07-16 10:12:37","1f75c3e559b7213887762d5229550c2b","85.246.21.29","Mozilla/5.0 (Windows NT 10.0; Win64; x64) AppleWebKit/537.36 (KHTML, like Gecko) Chrome/138.0.0.0 Safari/537.36","WebKit","Chrome","138.0.0.0","Windows","10.0","https://app.prolific.com/","pt-PT,pt;q=0.9,en-US;q=0.8,en;q=0.7","65a93241fc1ee8c40991a861","68764874ac79eee8c1d4cb03","68777b12b50250593a8dda1c","2","0","65a93241fc1ee8c40991a861","2","0","2025-07-16T10:19:10.065Z","","","","","","","","","","","","","","win-only","0","g1:NW,g2:SE","0.4","7","0","360580.7","994.1","5998.8","29423.5","1","4","4","6","1","1","1","29","28","0.2196969696969697","1610.2","3000","1405","[""left"",""up""]","{""num_key_presses"":6,""num_perfect"":2,""num_errors"":0,""num_randdir"":4,""num_randdir_good_moves"":3,""num_whilered"":0,""num_whileblue"":0,""num_blue"":2,""num_good_moves"":5}","[419.57142857142856,423.47767857142856,0.3,419.57142857142856,423.47767857142856,100.4,427.57142857142856,424.47767857142856,203.5,508.57142857142856,412.47767857142856,310.3,665.5714285714286,469.47767857142856,411,716.5714285714286,669.4776785714286,515.5,748.5714285714286,758.4776785714286,619.8,751.5714285714286,760.4776785714286,720.4,752.5714285714286,760.4776785714286,824.7,752.5714285714286,759.4776785714286,925.2,745.5714285714286,756.4776785714286,1025.8,574.5714285714286,590.4776785714286,1131.1,232.57142857142856,221.47767857142856,1237.9,190.57142857142856,174.47767857142856,1344.8,75.57142857142857,95.47767857142857,1445.6,74.57142857142857,94.47767857142857,1550.9,74.57142857142857,94.47767857142857,1660.2,74.57142857142857,94.47767857142857,1760.8,15.57142857142857,112.47767857142857,1871.6,-115.42857142857143,164.47767857142856,1978.9,-117.42857142857143,167.47767857142856,2081.1,-117.42857142857143,167.47767857142856,2187.9,-117.42857142857143,167.47767857142856,2291.1,-117.42857142857143,167.47767857142856,2394.7,-117.42857142857143,167.47767857142856,2495.1,-117.42857142857143,167.47767857142856,2600,-117.42857142857143,167.47767857142856,2702.6,-117.42857142857143,167.47767857142856,2803.7,-117.42857142857143,167.47767857142856,2906.2,-117.42857142857143,167.47767857142856,3008.4,-117.42857142857143,167.47767857142856,3110.7,-117.42857142857143,167.47767857142856,3214.1,-117.42857142857143,167.47767857142856,3319.3,-117.42857142857143,167.47767857142856,3427.6,-117.42857142857143,167.47767857142856,3529.1,-117.42857142857143,167.47767857142856,3634.5,-117.42857142857143,167.47767857142856,3743.3,-117.42857142857143,167.47767857142856,3848.2,-117.42857142857143,167.47767857142856,3953.6,-117.42857142857143,167.47767857142856,4055.7,-117.42857142857143,167.47767857142856,4159.1,-117.42857142857143,167.47767857142856,4261.5,-117.42857142857143,167.47767857142856,4362.9,-117.42857142857143,167.47767857142856,4464,-117.42857142857143,167.47767857142856,4564.4,-117.42857142857143,167.47767857142856,4670,-117.42857142857143,167.47767857142856,4777.4,-117.42857142857143,167.47767857142856,4883,-117.42857142857143,167.47767857142856,4984.8]","[1405.8,1405.8,1000,0,405.8,""oops"",""left"",""up"",""good_move"",4285.6,2879.6,2539.9,1406,339.7,""oops"",""left"",""down"",""bad_move"",11335.3,7049.2,3546.4,7423.9,365,""oops"",""left"",""left"",""good_move"",14421.7,3085.9,2578.4,11335.8,507.5,""smooth"",""left"",""left"",""good_move"",20356.7,5934.9,2115.8,17814.2,426.7,""smooth"",""up"",""up"",""good_move"",23317,2960.1,2633.9,20356.9,326.2,""oops"",""up"",""up"",""good_move""]","",""
"2848","","<div style=""width:500px;"">
  <p>What determined the result of this run?</p>
  </div>","0","html-slider-response","40","394767","0.0-5.0-1.6","97","1","2025-07-16 10:12:37","1f75c3e559b7213887762d5229550c2b","85.246.21.29","Mozilla/5.0 (Windows NT 10.0; Win64; x64) AppleWebKit/537.36 (KHTML, like Gecko) Chrome/138.0.0.0 Safari/537.36","WebKit","Chrome","138.0.0.0","Windows","10.0","https://app.prolific.com/","pt-PT,pt;q=0.9,en-US;q=0.8,en;q=0.7","65a93241fc1ee8c40991a861","68764874ac79eee8c1d4cb03","68777b12b50250593a8dda1c","2","0","65a93241fc1ee8c40991a861","2","0","2025-07-16T10:19:12.915Z","","","","","","","","","","","AttribQ","","50","","","","","","","","","","","","","","","","","","","","","","","","","","","","",""
"1226","","<div style=""width:500px;"">
  <p>How much control did you have over the ball?</p>
  </div>","0","html-slider-response","41","395994","0.0-5.0-2.6","97","1","2025-07-16 10:12:37","1f75c3e559b7213887762d5229550c2b","85.246.21.29","Mozilla/5.0 (Windows NT 10.0; Win64; x64) AppleWebKit/537.36 (KHTML, like Gecko) Chrome/138.0.0.0 Safari/537.36","WebKit","Chrome","138.0.0.0","Windows","10.0","https://app.prolific.com/","pt-PT,pt;q=0.9,en-US;q=0.8,en;q=0.7","65a93241fc1ee8c40991a861","68764874ac79eee8c1d4cb03","68777b12b50250593a8dda1c","2","0","65a93241fc1ee8c40991a861","2","0","2025-07-16T10:19:14.142Z","","","","","","","","","","","ControlQ","","50","","","","","","","","","","","","","","","","","","","","","","","","","","","","",""
"1801","","<div style=""width:500px;"">
  <p>How would you describe your current emotional state?</p>
  </div>","0","html-slider-response","42","397796","0.0-5.0-3.6","97","1","2025-07-16 10:12:37","1f75c3e559b7213887762d5229550c2b","85.246.21.29","Mozilla/5.0 (Windows NT 10.0; Win64; x64) AppleWebKit/537.36 (KHTML, like Gecko) Chrome/138.0.0.0 Safari/537.36","WebKit","Chrome","138.0.0.0","Windows","10.0","https://app.prolific.com/","pt-PT,pt;q=0.9,en-US;q=0.8,en;q=0.7","65a93241fc1ee8c40991a861","68764874ac79eee8c1d4cb03","68777b12b50250593a8dda1c","2","0","65a93241fc1ee8c40991a861","2","0","2025-07-16T10:19:15.944Z","","","","","","","","","","","StressQ","","50","","","","","","","","","","","","","","","","","","","","","","","","","","","","",""
"4318","","<div style=""width:500px;"">
  <p>What best describes how you currently feel?</p>
  </div>","100","html-slider-response","43","402115","0.0-5.0-4.6","97","1","2025-07-16 10:12:37","1f75c3e559b7213887762d5229550c2b","85.246.21.29","Mozilla/5.0 (Windows NT 10.0; Win64; x64) AppleWebKit/537.36 (KHTML, like Gecko) Chrome/138.0.0.0 Safari/537.36","WebKit","Chrome","138.0.0.0","Windows","10.0","https://app.prolific.com/","pt-PT,pt;q=0.9,en-US;q=0.8,en;q=0.7","65a93241fc1ee8c40991a861","68764874ac79eee8c1d4cb03","68777b12b50250593a8dda1c","2","0","65a93241fc1ee8c40991a861","2","0","2025-07-16T10:19:20.263Z","","","","","","","","","","","MotivationQ","","50","","","","","","","","","","","","","","","","","","","","","","","","","","","","",""
"","","","","ctl-task-cpt","44","466338","0.0-5.0-0.7","97","1","2025-07-16 10:12:37","1f75c3e559b7213887762d5229550c2b","85.246.21.29","Mozilla/5.0 (Windows NT 10.0; Win64; x64) AppleWebKit/537.36 (KHTML, like Gecko) Chrome/138.0.0.0 Safari/537.36","WebKit","Chrome","138.0.0.0","Windows","10.0","https://app.prolific.com/","pt-PT,pt;q=0.9,en-US;q=0.8,en;q=0.7","65a93241fc1ee8c40991a861","68764874ac79eee8c1d4cb03","68777b12b50250593a8dda1c","2","0","65a93241fc1ee8c40991a861","2","0","2025-07-16T10:20:24.486Z","","","","","","","","","","","","","","win-only","3","g1:SW,g2:NE","0.3","8","0","403220.8","6227","11228.5","61201.6","1","4","8","6","2","-8","-9","20","29","0.15151515151515152","1656","3000","-1675","[""up"",""right""]","{""num_key_presses"":16,""num_perfect"":4,""num_errors"":1,""num_randdir"":11,""num_randdir_good_moves"":3,""num_whilered"":0,""num_whileblue"":0,""num_blue"":2,""num_good_moves"":7}","[410.57142857142856,416.47767857142856,0.2,410.57142857142856,416.47767857142856,103,410.57142857142856,416.47767857142856,204.5,409.57142857142856,416.47767857142856,311,397.57142857142856,414.47767857142856,412.2,396.57142857142856,414.47767857142856,512.7,589.5714285714286,138.47767857142856,618,732.5714285714286,39.47767857142857,721.8,734.5714285714286,65.47767857142857,826.2,734.5714285714286,80.47767857142857,931.9,734.5714285714286,80.47767857142857,1035,734.5714285714286,80.47767857142857,1145.5,734.5714285714286,80.47767857142857,1249.3,734.5714285714286,80.47767857142857,1356.2,734.5714285714286,80.47767857142857,1462.7,734.5714285714286,80.47767857142857,1565.3,734.5714285714286,80.47767857142857,1678.8,734.5714285714286,80.47767857142857,1780.7,738.5714285714286,81.47767857142857,1889.1,868.5714285714286,113.47767857142857,1994.9,1033.5714285714287,176.47767857142856,2094.9,1036.5714285714287,179.47767857142856,2198.3,1036.5714285714287,179.47767857142856,2302.8,1036.5714285714287,179.47767857142856,2409,1036.5714285714287,179.47767857142856,2509.2,1036.5714285714287,179.47767857142856,2617.1,1036.5714285714287,179.47767857142856,2718.1,1036.5714285714287,179.47767857142856,2821.1,1036.5714285714287,179.47767857142856,2925.9,1036.5714285714287,179.47767857142856,3036.9,1036.5714285714287,179.47767857142856,3142.9,1036.5714285714287,179.47767857142856,3246.7,1036.5714285714287,179.47767857142856,3357.3,1036.5714285714287,179.47767857142856,3458.2,1036.5714285714287,179.47767857142856,3561.6,1036.5714285714287,179.47767857142856,3664.7,1036.5714285714287,179.47767857142856,3767.5,1036.5714285714287,179.47767857142856,3870.6,1036.5714285714287,179.47767857142856,3972.1,1036.5714285714287,179.47767857142856,4074.6,1036.5714285714287,179.47767857142856,4177.8,1036.5714285714287,179.47767857142856,4279.5,1036.5714285714287,179.47767857142856,4379.7,1036.5714285714287,179.47767857142856,4480.7,1036.5714285714287,179.47767857142856,4587.4,1036.5714285714287,179.47767857142856,4688.6,1036.5714285714287,179.47767857142856,4803,1036.5714285714287,179.47767857142856,4911.2]","[1384,1384,1000,0,384,""smooth"",""up"",""up"",""good_move"",3911.9,2527.4,2165.6,1384.5,361.8,""smooth"",""up"",""up"",""good_move"",7200.1,3287.9,2937.4,3912.2,350.5,""oops"",""right"",""down"",""bad_move"",9431.5,2231.1,1876.6,7200.5,354.5,""oops"",""right"",""left"",""bad_move"",12408.6,2976.7,2662.1,9431.9,314.6,""smooth"",""up"",""up"",""good_move"",14568,2159.2,1856.4,12408.8,302.8,""oops"",""up"",""up"",""good_move"",16983.5,2415.4,2088.8,14568.1,326.6,""oops"",""right"",""left"",""bad_move"",22391.5,5407.7,2216.9,19837.1,337.5,""oops"",""right"",""down"",""bad_move"",25504.1,3112.3,2773.9,22391.8,338.4,""oops"",""right"",""down"",""bad_move"",30607.5,5102.8,1294.5,28969.3,343.7,""oops"",""right"",""right"",""good_move"",33608.2,3000.4,2660,30607.8,340.4,""oops"",""right"",""down"",""bad_move"",36558.9,2950.3,2540.5,33608.6,409.8,""oops"",""right"",""down"",""bad_move"",39879.2,3320.2,2927.9,36559,392.3,""smooth"",""right"",""right"",""good_move"",40127.5,248.1,2547.4,39879.4,-2299.3,""error"",""-"",""-"",""no_move"",43800.1,3672.5,2267.1,41135.6,397.4,""oops"",""right"",""up"",""good_move"",46958.9,3158.6,2825.2,43800.3,333.4,""oops"",""right"",""left"",""bad_move""]","",""
"1397","","<div style=""width:500px;"">
  <p>What determined the result of this run?</p>
  </div>","0","html-slider-response","45","467736","0.0-5.0-1.7","97","1","2025-07-16 10:12:37","1f75c3e559b7213887762d5229550c2b","85.246.21.29","Mozilla/5.0 (Windows NT 10.0; Win64; x64) AppleWebKit/537.36 (KHTML, like Gecko) Chrome/138.0.0.0 Safari/537.36","WebKit","Chrome","138.0.0.0","Windows","10.0","https://app.prolific.com/","pt-PT,pt;q=0.9,en-US;q=0.8,en;q=0.7","65a93241fc1ee8c40991a861","68764874ac79eee8c1d4cb03","68777b12b50250593a8dda1c","2","0","65a93241fc1ee8c40991a861","2","0","2025-07-16T10:20:25.884Z","","","","","","","","","","","AttribQ","","50","","","","","","","","","","","","","","","","","","","","","","","","","","","","",""
"1128","","<div style=""width:500px;"">
  <p>How much control did you have over the ball?</p>
  </div>","0","html-slider-response","46","468865","0.0-5.0-2.7","97","1","2025-07-16 10:12:37","1f75c3e559b7213887762d5229550c2b","85.246.21.29","Mozilla/5.0 (Windows NT 10.0; Win64; x64) AppleWebKit/537.36 (KHTML, like Gecko) Chrome/138.0.0.0 Safari/537.36","WebKit","Chrome","138.0.0.0","Windows","10.0","https://app.prolific.com/","pt-PT,pt;q=0.9,en-US;q=0.8,en;q=0.7","65a93241fc1ee8c40991a861","68764874ac79eee8c1d4cb03","68777b12b50250593a8dda1c","2","0","65a93241fc1ee8c40991a861","2","0","2025-07-16T10:20:27.013Z","","","","","","","","","","","ControlQ","","50","","","","","","","","","","","","","","","","","","","","","","","","","","","","",""
"1394","","<div style=""width:500px;"">
  <p>How would you describe your current emotional state?</p>
  </div>","100","html-slider-response","47","470260","0.0-5.0-3.7","97","1","2025-07-16 10:12:37","1f75c3e559b7213887762d5229550c2b","85.246.21.29","Mozilla/5.0 (Windows NT 10.0; Win64; x64) AppleWebKit/537.36 (KHTML, like Gecko) Chrome/138.0.0.0 Safari/537.36","WebKit","Chrome","138.0.0.0","Windows","10.0","https://app.prolific.com/","pt-PT,pt;q=0.9,en-US;q=0.8,en;q=0.7","65a93241fc1ee8c40991a861","68764874ac79eee8c1d4cb03","68777b12b50250593a8dda1c","2","0","65a93241fc1ee8c40991a861","2","0","2025-07-16T10:20:28.409Z","","","","","","","","","","","StressQ","","50","","","","","","","","","","","","","","","","","","","","","","","","","","","","",""
"1910","","<div style=""width:500px;"">
  <p>What best describes how you currently feel?</p>
  </div>","0","html-slider-response","48","472171","0.0-5.0-4.7","97","1","2025-07-16 10:12:37","1f75c3e559b7213887762d5229550c2b","85.246.21.29","Mozilla/5.0 (Windows NT 10.0; Win64; x64) AppleWebKit/537.36 (KHTML, like Gecko) Chrome/138.0.0.0 Safari/537.36","WebKit","Chrome","138.0.0.0","Windows","10.0","https://app.prolific.com/","pt-PT,pt;q=0.9,en-US;q=0.8,en;q=0.7","65a93241fc1ee8c40991a861","68764874ac79eee8c1d4cb03","68777b12b50250593a8dda1c","2","0","65a93241fc1ee8c40991a861","2","0","2025-07-16T10:20:30.320Z","","","","","","","","","","","MotivationQ","","50","","","","","","","","","","","","","","","","","","","","","","","","","","","","",""
"","","","","ctl-task-cpt","49","511379","0.0-5.0-0.8","97","1","2025-07-16 10:12:37","1f75c3e559b7213887762d5229550c2b","85.246.21.29","Mozilla/5.0 (Windows NT 10.0; Win64; x64) AppleWebKit/537.36 (KHTML, like Gecko) Chrome/138.0.0.0 Safari/537.36","WebKit","Chrome","138.0.0.0","Windows","10.0","https://app.prolific.com/","pt-PT,pt;q=0.9,en-US;q=0.8,en;q=0.7","65a93241fc1ee8c40991a861","68764874ac79eee8c1d4cb03","68777b12b50250593a8dda1c","2","0","65a93241fc1ee8c40991a861","2","0","2025-07-16T10:21:09.527Z","","","","","","","","","","","","","","win-only","2","g1:SE,g2:NW","0.2","9","0","473277.6","1032.6","6043.8","36184.6","1","4","4","6","1","1","1","21","20","0.1590909090909091","2466.4","3000","1420","[""down"",""right""]","{""num_key_presses"":8,""num_perfect"":2,""num_errors"":0,""num_randdir"":6,""num_randdir_good_moves"":4,""num_whilered"":0,""num_whileblue"":0,""num_blue"":2,""num_good_moves"":6}","[414.57142857142856,415.47767857142856,0.6,414.57142857142856,415.47767857142856,106.4,414.57142857142856,415.47767857142856,208.6,413.57142857142856,415.47767857142856,308.9,423.57142857142856,419.47767857142856,417.4,479.57142857142856,461.47767857142856,522.6,567.5714285714286,551.4776785714286,628,576.5714285714286,589.4776785714286,731.1,611.5714285714286,632.4776785714286,840.9,716.5714285714286,733.4776785714286,945.6,587.5714285714286,639.4776785714286,1055.8,205.57142857142856,244.47767857142856,1159.1,154.57142857142856,167.47767857142856,1264,93.57142857142857,87.47767857142857,1371.9,74.57142857142857,69.47767857142857,1476.6,74.57142857142857,69.47767857142857,1577.7,74.57142857142857,69.47767857142857,1679.8,83.57142857142857,85.47767857142857,1787.1,384.57142857142856,293.47767857142856,1889.2,753.5714285714286,579.4776785714286,1989.5,753.5714285714286,664.4776785714286,2089.7,732.5714285714286,682.4776785714286,2191.5,726.5714285714286,747.4776785714286,2297,729.5714285714286,761.4776785714286,2402,729.5714285714286,761.4776785714286,2507.3,729.5714285714286,761.4776785714286,2608.5,800.5714285714286,628.4776785714286,2714.1,983.5714285714286,513.4776785714286,2818.6,1005.5714285714286,508.47767857142856,2929.4,1005.5714285714286,508.47767857142856,3030.6,1005.5714285714286,508.47767857142856,3137,1005.5714285714286,508.47767857142856,3240.2,1005.5714285714286,508.47767857142856,3341,1005.5714285714286,508.47767857142856,3449.5,1005.5714285714286,508.47767857142856,3555.5,1005.5714285714286,508.47767857142856,3659.1,1005.5714285714286,508.47767857142856,3760,1005.5714285714286,508.47767857142856,3865.2,1005.5714285714286,508.47767857142856,3971.8,1005.5714285714286,508.47767857142856,4072.2,1005.5714285714286,508.47767857142856,4174.1,1005.5714285714286,508.47767857142856,4283.7,1005.5714285714286,508.47767857142856,4391.1,1005.5714285714286,508.47767857142856,4499,1005.5714285714286,508.47767857142856,4605.6,1005.5714285714286,508.47767857142856,4707,1005.5714285714286,508.47767857142856,4813.3,1005.5714285714286,508.47767857142856,4914.4]","[1376,1376,1000,0,376,""oops"",""down"",""left"",""bad_move"",4662.8,3286.3,2943.4,1376.5,342.9,""smooth"",""down"",""down"",""good_move"",7958.7,3295.7,2925.4,4663.1,370.3,""smooth"",""right"",""right"",""good_move"",10992.8,3033.9,2663.3,7958.9,370.6,""oops"",""down"",""right"",""good_move"",13855.3,2862.2,2502.4,10993.1,359.8,""oops"",""down"",""down"",""good_move"",16567.7,2712.3,2345,13855.5,367.2,""oops"",""right"",""left"",""bad_move"",19255.1,2687.1,2322.6,16568,364.5,""oops"",""right"",""right"",""good_move"",29991.7,10736.5,2836.1,26801.7,353.9,""oops"",""right"",""right"",""good_move""]","",""
"2732","","<div style=""width:500px;"">
  <p>What determined the result of this run?</p>
  </div>","0","html-slider-response","50","514111","0.0-5.0-1.8","97","1","2025-07-16 10:12:37","1f75c3e559b7213887762d5229550c2b","85.246.21.29","Mozilla/5.0 (Windows NT 10.0; Win64; x64) AppleWebKit/537.36 (KHTML, like Gecko) Chrome/138.0.0.0 Safari/537.36","WebKit","Chrome","138.0.0.0","Windows","10.0","https://app.prolific.com/","pt-PT,pt;q=0.9,en-US;q=0.8,en;q=0.7","65a93241fc1ee8c40991a861","68764874ac79eee8c1d4cb03","68777b12b50250593a8dda1c","2","0","65a93241fc1ee8c40991a861","2","0","2025-07-16T10:21:12.259Z","","","","","","","","","","","AttribQ","","50","","","","","","","","","","","","","","","","","","","","","","","","","","","","",""
"1760","","<div style=""width:500px;"">
  <p>How much control did you have over the ball?</p>
  </div>","15","html-slider-response","51","515873","0.0-5.0-2.8","97","1","2025-07-16 10:12:37","1f75c3e559b7213887762d5229550c2b","85.246.21.29","Mozilla/5.0 (Windows NT 10.0; Win64; x64) AppleWebKit/537.36 (KHTML, like Gecko) Chrome/138.0.0.0 Safari/537.36","WebKit","Chrome","138.0.0.0","Windows","10.0","https://app.prolific.com/","pt-PT,pt;q=0.9,en-US;q=0.8,en;q=0.7","65a93241fc1ee8c40991a861","68764874ac79eee8c1d4cb03","68777b12b50250593a8dda1c","2","0","65a93241fc1ee8c40991a861","2","0","2025-07-16T10:21:14.021Z","","","","","","","","","","","ControlQ","","50","","","","","","","","","","","","","","","","","","","","","","","","","","","","",""
"1541","","<div style=""width:500px;"">
  <p>How would you describe your current emotional state?</p>
  </div>","0","html-slider-response","52","517416","0.0-5.0-3.8","97","1","2025-07-16 10:12:37","1f75c3e559b7213887762d5229550c2b","85.246.21.29","Mozilla/5.0 (Windows NT 10.0; Win64; x64) AppleWebKit/537.36 (KHTML, like Gecko) Chrome/138.0.0.0 Safari/537.36","WebKit","Chrome","138.0.0.0","Windows","10.0","https://app.prolific.com/","pt-PT,pt;q=0.9,en-US;q=0.8,en;q=0.7","65a93241fc1ee8c40991a861","68764874ac79eee8c1d4cb03","68777b12b50250593a8dda1c","2","0","65a93241fc1ee8c40991a861","2","0","2025-07-16T10:21:15.564Z","","","","","","","","","","","StressQ","","50","","","","","","","","","","","","","","","","","","","","","","","","","","","","",""
"1943","","<div style=""width:500px;"">
  <p>What best describes how you currently feel?</p>
  </div>","100","html-slider-response","53","519359","0.0-5.0-4.8","97","1","2025-07-16 10:12:37","1f75c3e559b7213887762d5229550c2b","85.246.21.29","Mozilla/5.0 (Windows NT 10.0; Win64; x64) AppleWebKit/537.36 (KHTML, like Gecko) Chrome/138.0.0.0 Safari/537.36","WebKit","Chrome","138.0.0.0","Windows","10.0","https://app.prolific.com/","pt-PT,pt;q=0.9,en-US;q=0.8,en;q=0.7","65a93241fc1ee8c40991a861","68764874ac79eee8c1d4cb03","68777b12b50250593a8dda1c","2","0","65a93241fc1ee8c40991a861","2","0","2025-07-16T10:21:17.508Z","","","","","","","","","","","MotivationQ","","50","","","","","","","","","","","","","","","","","","","","","","","","","","","","",""
"","","","","ctl-task-cpt","54","588827","0.0-5.0-0.9","97","1","2025-07-16 10:12:37","1f75c3e559b7213887762d5229550c2b","85.246.21.29","Mozilla/5.0 (Windows NT 10.0; Win64; x64) AppleWebKit/537.36 (KHTML, like Gecko) Chrome/138.0.0.0 Safari/537.36","WebKit","Chrome","138.0.0.0","Windows","10.0","https://app.prolific.com/","pt-PT,pt;q=0.9,en-US;q=0.8,en;q=0.7","65a93241fc1ee8c40991a861","68764874ac79eee8c1d4cb03","68777b12b50250593a8dda1c","2","0","65a93241fc1ee8c40991a861","2","0","2025-07-16T10:22:26.976Z","","","","","","","","","","","","","","win-only","3","g1:SW,g2:NE","0.4","10","0","520465.3","895.3","5898.7","66430.4","1","4","8","6","2","-8","-8","13","21","0.09848484848484848","842.7","3000","-815","[""up"",""right""]","{""num_key_presses"":18,""num_perfect"":8,""num_errors"":0,""num_randdir"":10,""num_randdir_good_moves"":1,""num_whilered"":0,""num_whileblue"":0,""num_blue"":3,""num_good_moves"":9}","[416.57142857142856,425.47767857142856,0.4,416.57142857142856,425.47767857142856,109.3,416.57142857142856,425.47767857142856,213.5,416.57142857142856,425.47767857142856,322.6,416.57142857142856,425.47767857142856,427.3,416.57142857142856,425.47767857142856,533.7,550.5714285714286,232.47767857142856,637.2,714.5714285714286,86.47767857142857,741.4,765.5714285714286,68.47767857142857,851,765.5714285714286,68.47767857142857,956.6,765.5714285714286,68.47767857142857,1059.4,765.5714285714286,68.47767857142857,1166,765.5714285714286,68.47767857142857,1274.9,765.5714285714286,68.47767857142857,1377.2,765.5714285714286,68.47767857142857,1482.8,765.5714285714286,68.47767857142857,1585.6,765.5714285714286,68.47767857142857,1692.7,765.5714285714286,68.47767857142857,1793.3,765.5714285714286,68.47767857142857,1899.3,765.5714285714286,68.47767857142857,2005.7,765.5714285714286,68.47767857142857,2112.6,765.5714285714286,68.47767857142857,2217.5,765.5714285714286,68.47767857142857,2325.1,765.5714285714286,68.47767857142857,2427.8,765.5714285714286,68.47767857142857,2535.6,765.5714285714286,68.47767857142857,2640.6,765.5714285714286,68.47767857142857,2747.6,765.5714285714286,68.47767857142857,2849.9,765.5714285714286,68.47767857142857,2958.7,765.5714285714286,68.47767857142857,3065.6,765.5714285714286,68.47767857142857,3166.5,765.5714285714286,68.47767857142857,3270.3,765.5714285714286,68.47767857142857,3375.2,765.5714285714286,68.47767857142857,3478.7,765.5714285714286,69.47767857142857,3586.3,764.5714285714286,69.47767857142857,3695.4,764.5714285714286,71.47767857142857,3799.4,764.5714285714286,71.47767857142857,3906.4,764.5714285714286,71.47767857142857,4008.1,763.5714285714286,71.47767857142857,4120.1,763.5714285714286,72.47767857142857,4223.1,762.5714285714286,73.47767857142857,4326.7,762.5714285714286,73.47767857142857,4433,762.5714285714286,81.47767857142857,4537.5,819.5714285714286,131.47767857142856,4645.2,914.5714285714286,208.47767857142856,4758.2,932.5714285714286,229.47767857142856,4861,932.5714285714286,229.47767857142856,4963.1]","[1404.1,1404.1,1000,0,404.1,""smooth"",""up"",""up"",""good_move"",4390.2,2985.7,2598.1,1404.5,387.6,""smooth"",""right"",""right"",""good_move"",7076.3,2685.4,2349.5,4390.9,335.9,""oops"",""up"",""up"",""good_move"",9500.8,2424.3,2071.4,7076.5,352.9,""oops"",""right"",""down"",""bad_move"",12140.5,2639.5,2303.6,9501,335.9,""smooth"",""up"",""up"",""good_move"",14164.3,2023.7,1643.6,12140.7,380.1,""oops"",""up"",""down"",""bad_move"",19324.3,5159.8,1533.3,17405,386,""oops"",""up"",""left"",""bad_move"",21572.4,2247.8,1881.6,19324.6,366.2,""smooth"",""up"",""up"",""good_move"",23861.4,2288.6,1787.9,21572.8,500.7,""oops"",""right"",""down"",""bad_move"",27268.5,3406.9,2925.7,23861.6,481.2,""oops"",""right"",""down"",""bad_move"",30900.6,3631.2,3217.5,27269.4,413.7,""oops"",""right"",""down"",""bad_move"",33716.2,2815.3,2438,30900.9,377.3,""oops"",""up"",""down"",""bad_move"",43669.9,9953.7,2535.7,40694.3,440,""smooth"",""right"",""right"",""good_move"",46675.8,3005.6,2628.2,43670.2,377.4,""smooth"",""right"",""right"",""good_move"",49140.1,2464.3,2102.8,46675.9,361.5,""smooth"",""up"",""up"",""good_move"",51708.8,2568.3,1896.4,49140.5,671.9,""oops"",""up"",""down"",""bad_move"",54676.2,2966.6,2607.6,51709.6,359,""smooth"",""right"",""right"",""good_move"",57132,2455.7,2081.8,54676.3,373.9,""oops"",""up"",""left"",""bad_move""]","",""
"1504","","<div style=""width:500px;"">
  <p>What determined the result of this run?</p>
  </div>","0","html-slider-response","55","590334","0.0-5.0-1.9","97","1","2025-07-16 10:12:37","1f75c3e559b7213887762d5229550c2b","85.246.21.29","Mozilla/5.0 (Windows NT 10.0; Win64; x64) AppleWebKit/537.36 (KHTML, like Gecko) Chrome/138.0.0.0 Safari/537.36","WebKit","Chrome","138.0.0.0","Windows","10.0","https://app.prolific.com/","pt-PT,pt;q=0.9,en-US;q=0.8,en;q=0.7","65a93241fc1ee8c40991a861","68764874ac79eee8c1d4cb03","68777b12b50250593a8dda1c","2","0","65a93241fc1ee8c40991a861","2","0","2025-07-16T10:22:28.482Z","","","","","","","","","","","AttribQ","","50","","","","","","","","","","","","","","","","","","","","","","","","","","","","",""
"1268","","<div style=""width:500px;"">
  <p>How much control did you have over the ball?</p>
  </div>","0","html-slider-response","56","591603","0.0-5.0-2.9","97","1","2025-07-16 10:12:37","1f75c3e559b7213887762d5229550c2b","85.246.21.29","Mozilla/5.0 (Windows NT 10.0; Win64; x64) AppleWebKit/537.36 (KHTML, like Gecko) Chrome/138.0.0.0 Safari/537.36","WebKit","Chrome","138.0.0.0","Windows","10.0","https://app.prolific.com/","pt-PT,pt;q=0.9,en-US;q=0.8,en;q=0.7","65a93241fc1ee8c40991a861","68764874ac79eee8c1d4cb03","68777b12b50250593a8dda1c","2","0","65a93241fc1ee8c40991a861","2","0","2025-07-16T10:22:29.751Z","","","","","","","","","","","ControlQ","","50","","","","","","","","","","","","","","","","","","","","","","","","","","","","",""
"1521","","<div style=""width:500px;"">
  <p>How would you describe your current emotional state?</p>
  </div>","100","html-slider-response","57","593127","0.0-5.0-3.9","97","1","2025-07-16 10:12:37","1f75c3e559b7213887762d5229550c2b","85.246.21.29","Mozilla/5.0 (Windows NT 10.0; Win64; x64) AppleWebKit/537.36 (KHTML, like Gecko) Chrome/138.0.0.0 Safari/537.36","WebKit","Chrome","138.0.0.0","Windows","10.0","https://app.prolific.com/","pt-PT,pt;q=0.9,en-US;q=0.8,en;q=0.7","65a93241fc1ee8c40991a861","68764874ac79eee8c1d4cb03","68777b12b50250593a8dda1c","2","0","65a93241fc1ee8c40991a861","2","0","2025-07-16T10:22:31.275Z","","","","","","","","","","","StressQ","","50","","","","","","","","","","","","","","","","","","","","","","","","","","","","",""
"1404","","<div style=""width:500px;"">
  <p>What best describes how you currently feel?</p>
  </div>","0","html-slider-response","58","594532","0.0-5.0-4.9","97","1","2025-07-16 10:12:37","1f75c3e559b7213887762d5229550c2b","85.246.21.29","Mozilla/5.0 (Windows NT 10.0; Win64; x64) AppleWebKit/537.36 (KHTML, like Gecko) Chrome/138.0.0.0 Safari/537.36","WebKit","Chrome","138.0.0.0","Windows","10.0","https://app.prolific.com/","pt-PT,pt;q=0.9,en-US;q=0.8,en;q=0.7","65a93241fc1ee8c40991a861","68764874ac79eee8c1d4cb03","68777b12b50250593a8dda1c","2","0","65a93241fc1ee8c40991a861","2","0","2025-07-16T10:22:32.680Z","","","","","","","","","","","MotivationQ","","50","","","","","","","","","","","","","","","","","","","","","","","","","","","","",""
"","","","","ctl-task-cpt","59","618475","0.0-5.0-0.10","97","1","2025-07-16 10:12:37","1f75c3e559b7213887762d5229550c2b","85.246.21.29","Mozilla/5.0 (Windows NT 10.0; Win64; x64) AppleWebKit/537.36 (KHTML, like Gecko) Chrome/138.0.0.0 Safari/537.36","WebKit","Chrome","138.0.0.0","Windows","10.0","https://app.prolific.com/","pt-PT,pt;q=0.9,en-US;q=0.8,en;q=0.7","65a93241fc1ee8c40991a861","68764874ac79eee8c1d4cb03","68777b12b50250593a8dda1c","2","0","65a93241fc1ee8c40991a861","2","0","2025-07-16T10:22:56.623Z","","","","","","","","","","","","","","win-only","3","g1:SW,g2:NE","0.5","11","0","595638.4","3178.7","8187.9","20929.6","1","4","4","6","1","1","1","14","13","0.10606060606060606","1180.6","3000","2410","[""down"",""left""]","{""num_key_presses"":4,""num_perfect"":1,""num_errors"":0,""num_randdir"":3,""num_randdir_good_moves"":3,""num_whilered"":0,""num_whileblue"":0,""num_blue"":1,""num_good_moves"":4}","[418.57142857142856,419.47767857142856,0.2,418.57142857142856,419.47767857142856,105.1,418.57142857142856,419.47767857142856,209.8,418.57142857142856,419.47767857142856,313,415.57142857142856,419.47767857142856,419.4,407.57142857142856,425.47767857142856,528.3,295.57142857142856,521.4776785714286,636.6,250.57142857142856,625.4776785714286,738.2,194.57142857142856,721.4776785714286,842.5,75.57142857142857,851.4776785714286,942.6,83.57142857142857,837.4776785714286,1049.3,92.57142857142857,809.4776785714286,1152,92.57142857142857,809.4776785714286,1261.9,95.57142857142857,805.4776785714286,1372.9,411.57142857142856,667.4776785714286,1476.5,1002.5714285714286,575.4776785714286,1580.8,1153.5714285714287,541.4776785714286,1690.6,1127.5714285714287,535.4776785714286,1792.1,1127.5714285714287,535.4776785714286,1900.7,1127.5714285714287,532.4776785714286,2004.4,1126.5714285714287,526.4776785714286,2109.8,1126.5714285714287,525.4776785714286,2226.2,1126.5714285714287,525.4776785714286,2327.6,1126.5714285714287,525.4776785714286,2437.9,1126.5714285714287,525.4776785714286,2546.5,1126.5714285714287,525.4776785714286,2655,1126.5714285714287,525.4776785714286,2757.9,1126.5714285714287,525.4776785714286,2859.2,1126.5714285714287,525.4776785714286,2963,1126.5714285714287,525.4776785714286,3072.3,1126.5714285714287,525.4776785714286,3180,1126.5714285714287,525.4776785714286,3283.2,1126.5714285714287,525.4776785714286,3388.6,1126.5714285714287,525.4776785714286,3497.9,1126.5714285714287,525.4776785714286,3603.6,1126.5714285714287,525.4776785714286,3712.9,1126.5714285714287,525.4776785714286,3820,1126.5714285714287,525.4776785714286,3927.8,1126.5714285714287,525.4776785714286,4034.5,1126.5714285714287,525.4776785714286,4146.6,1126.5714285714287,525.4776785714286,4251.1,1126.5714285714287,525.4776785714286,4359.3,1126.5714285714287,525.4776785714286,4460.9,1126.5714285714287,525.4776785714286,4565.3,1126.5714285714287,525.4776785714286,4666.4,1126.5714285714287,525.4776785714286,4769.5,1126.5714285714287,525.4776785714286,4878,1126.5714285714287,525.4776785714286,4989.1]","[1373.9,1373.9,1000,0,373.9,""oops"",""down"",""left"",""good_move"",4046.1,2672,2239.3,1374.1,432.7,""oops"",""down"",""left"",""good_move"",9631.6,5585.2,2222.4,7045.2,364,""smooth"",""down"",""down"",""good_move"",12558.2,2926.3,2575.2,9631.9,351.1,""oops"",""down"",""down"",""good_move""]","",""
"2331","","<div style=""width:500px;"">
  <p>What determined the result of this run?</p>
  </div>","0","html-slider-response","60","620807","0.0-5.0-1.10","97","1","2025-07-16 10:12:37","1f75c3e559b7213887762d5229550c2b","85.246.21.29","Mozilla/5.0 (Windows NT 10.0; Win64; x64) AppleWebKit/537.36 (KHTML, like Gecko) Chrome/138.0.0.0 Safari/537.36","WebKit","Chrome","138.0.0.0","Windows","10.0","https://app.prolific.com/","pt-PT,pt;q=0.9,en-US;q=0.8,en;q=0.7","65a93241fc1ee8c40991a861","68764874ac79eee8c1d4cb03","68777b12b50250593a8dda1c","2","0","65a93241fc1ee8c40991a861","2","0","2025-07-16T10:22:58.955Z","","","","","","","","","","","AttribQ","","50","","","","","","","","","","","","","","","","","","","","","","","","","","","","",""
"1545","","<div style=""width:500px;"">
  <p>How much control did you have over the ball?</p>
  </div>","0","html-slider-response","61","622354","0.0-5.0-2.10","97","1","2025-07-16 10:12:37","1f75c3e559b7213887762d5229550c2b","85.246.21.29","Mozilla/5.0 (Windows NT 10.0; Win64; x64) AppleWebKit/537.36 (KHTML, like Gecko) Chrome/138.0.0.0 Safari/537.36","WebKit","Chrome","138.0.0.0","Windows","10.0","https://app.prolific.com/","pt-PT,pt;q=0.9,en-US;q=0.8,en;q=0.7","65a93241fc1ee8c40991a861","68764874ac79eee8c1d4cb03","68777b12b50250593a8dda1c","2","0","65a93241fc1ee8c40991a861","2","0","2025-07-16T10:23:00.502Z","","","","","","","","","","","ControlQ","","50","","","","","","","","","","","","","","","","","","","","","","","","","","","","",""
"1670","","<div style=""width:500px;"">
  <p>How would you describe your current emotional state?</p>
  </div>","0","html-slider-response","62","624025","0.0-5.0-3.10","97","1","2025-07-16 10:12:37","1f75c3e559b7213887762d5229550c2b","85.246.21.29","Mozilla/5.0 (Windows NT 10.0; Win64; x64) AppleWebKit/537.36 (KHTML, like Gecko) Chrome/138.0.0.0 Safari/537.36","WebKit","Chrome","138.0.0.0","Windows","10.0","https://app.prolific.com/","pt-PT,pt;q=0.9,en-US;q=0.8,en;q=0.7","65a93241fc1ee8c40991a861","68764874ac79eee8c1d4cb03","68777b12b50250593a8dda1c","2","0","65a93241fc1ee8c40991a861","2","0","2025-07-16T10:23:02.173Z","","","","","","","","","","","StressQ","","50","","","","","","","","","","","","","","","","","","","","","","","","","","","","",""
"1378","","<div style=""width:500px;"">
  <p>What best describes how you currently feel?</p>
  </div>","0","html-slider-response","63","625404","0.0-5.0-4.10","97","1","2025-07-16 10:12:37","1f75c3e559b7213887762d5229550c2b","85.246.21.29","Mozilla/5.0 (Windows NT 10.0; Win64; x64) AppleWebKit/537.36 (KHTML, like Gecko) Chrome/138.0.0.0 Safari/537.36","WebKit","Chrome","138.0.0.0","Windows","10.0","https://app.prolific.com/","pt-PT,pt;q=0.9,en-US;q=0.8,en;q=0.7","65a93241fc1ee8c40991a861","68764874ac79eee8c1d4cb03","68777b12b50250593a8dda1c","2","0","65a93241fc1ee8c40991a861","2","0","2025-07-16T10:23:03.552Z","","","","","","","","","","","MotivationQ","","50","","","","","","","","","","","","","","","","","","","","","","","","","","","","",""
"","","","","ctl-task-cpt","64","700589","0.0-5.0-0.11","97","1","2025-07-16 10:12:37","1f75c3e559b7213887762d5229550c2b","85.246.21.29","Mozilla/5.0 (Windows NT 10.0; Win64; x64) AppleWebKit/537.36 (KHTML, like Gecko) Chrome/138.0.0.0 Safari/537.36","WebKit","Chrome","138.0.0.0","Windows","10.0","https://app.prolific.com/","pt-PT,pt;q=0.9,en-US;q=0.8,en;q=0.7","65a93241fc1ee8c40991a861","68764874ac79eee8c1d4cb03","68777b12b50250593a8dda1c","2","0","65a93241fc1ee8c40991a861","2","0","2025-07-16T10:24:18.738Z","","","","","","","","","","","","","","win-only","2","g1:SE,g2:NW","0.6","12","0","626510.7","1031.1","6040.5","72165.2","1","4","8","6","1","-1","-1","13","14","0.09848484848484848","1661.7","3000","-1435","[""down"",""right""]","{""num_key_presses"":14,""num_perfect"":8,""num_errors"":0,""num_randdir"":6,""num_randdir_good_moves"":0,""num_whilered"":0,""num_whileblue"":0,""num_blue"":7,""num_good_moves"":8}","[418.57142857142856,423.47767857142856,0.1,418.57142857142856,423.47767857142856,102.5,416.57142857142856,422.47767857142856,203.7,410.57142857142856,422.47767857142856,312.8,410.57142857142856,422.47767857142856,422.9,534.5714285714286,521.4776785714286,523.7,684.5714285714286,633.4776785714286,627.4,731.5714285714286,693.4776785714286,738.4,742.5714285714286,718.4776785714286,845,758.5714285714286,751.4776785714286,956,766.5714285714286,774.4776785714286,1060.6,766.5714285714286,774.4776785714286,1163.3,766.5714285714286,774.4776785714286,1273.5,766.5714285714286,774.4776785714286,1383.2,766.5714285714286,774.4776785714286,1484.4,766.5714285714286,774.4776785714286,1591.5,766.5714285714286,774.4776785714286,1699.2,766.5714285714286,774.4776785714286,1804.9,835.5714285714286,719.4776785714286,1914.2,1071.5714285714287,572.4776785714286,2020.4,1083.5714285714287,566.4776785714286,2124,1083.5714285714287,566.4776785714286,2228.8,1083.5714285714287,566.4776785714286,2331.2,1083.5714285714287,566.4776785714286,2432.5,1083.5714285714287,566.4776785714286,2543.1,1083.5714285714287,566.4776785714286,2644.2,1083.5714285714287,566.4776785714286,2753.7,1083.5714285714287,566.4776785714286,2862.3,1083.5714285714287,566.4776785714286,2968.1,1083.5714285714287,566.4776785714286,3076.2,1083.5714285714287,566.4776785714286,3180.7,1083.5714285714287,566.4776785714286,3283.7,1083.5714285714287,566.4776785714286,3393.2,1083.5714285714287,566.4776785714286,3506.6,1083.5714285714287,566.4776785714286,3628.6,1083.5714285714287,566.4776785714286,3742.3,1083.5714285714287,566.4776785714286,3852.9,1083.5714285714287,566.4776785714286,3965.5,1083.5714285714287,566.4776785714286,4065.6,1083.5714285714287,566.4776785714286,4180.2,1083.5714285714287,566.4776785714286,4287.3,1083.5714285714287,566.4776785714286,4389,1083.5714285714287,566.4776785714286,4490.6,1083.5714285714287,566.4776785714286,4602,1083.5714285714287,566.4776785714286,4707,1083.5714285714287,566.4776785714286,4821.9,1083.5714285714287,566.4776785714286,4935.6]","[1368.6,1368.6,1000,0,368.6,""oops"",""right"",""up"",""bad_move"",11864.8,10496,2868.4,8609.6,386.8,""oops"",""down"",""up"",""bad_move"",17857.5,5992.5,2614.8,14863.3,379.4,""oops"",""right"",""left"",""bad_move"",23696.7,5839.1,2440.9,20830.9,425,""oops"",""left"",""up"",""bad_move"",27313.2,3616.1,2553.2,23697.1,1062.9,""smooth"",""right"",""right"",""good_move"",30081.5,2768,2460,27313.5,308,""smooth"",""right"",""right"",""good_move"",33144.3,3062.4,1985.5,30081.9,1076.9,""smooth"",""right"",""right"",""good_move"",36137.1,2992.7,2626,33144.4,366.7,""smooth"",""down"",""down"",""good_move"",39016.5,2879.2,2547.5,36137.3,331.7,""smooth"",""down"",""down"",""good_move"",41368.9,2352.3,1957.6,39016.6,394.7,""smooth"",""down"",""down"",""good_move"",44424.7,3055.4,2696.2,41369.3,359.2,""oops"",""down"",""up"",""bad_move"",47010,2585.1,2099.6,44425,485.4,""smooth"",""down"",""down"",""good_move"",53113.1,6102.8,1935.2,50814.5,363.5,""smooth"",""down"",""down"",""good_move"",55688.8,2575.4,2176,53113.4,399.4,""oops"",""down"",""left"",""bad_move""]","",""
"1421","","<div style=""width:500px;"">
  <p>What determined the result of this run?</p>
  </div>","0","html-slider-response","65","702011","0.0-5.0-1.11","97","1","2025-07-16 10:12:37","1f75c3e559b7213887762d5229550c2b","85.246.21.29","Mozilla/5.0 (Windows NT 10.0; Win64; x64) AppleWebKit/537.36 (KHTML, like Gecko) Chrome/138.0.0.0 Safari/537.36","WebKit","Chrome","138.0.0.0","Windows","10.0","https://app.prolific.com/","pt-PT,pt;q=0.9,en-US;q=0.8,en;q=0.7","65a93241fc1ee8c40991a861","68764874ac79eee8c1d4cb03","68777b12b50250593a8dda1c","2","0","65a93241fc1ee8c40991a861","2","0","2025-07-16T10:24:20.160Z","","","","","","","","","","","AttribQ","","50","","","","","","","","","","","","","","","","","","","","","","","","","","","","",""
"1104","","<div style=""width:500px;"">
  <p>How much control did you have over the ball?</p>
  </div>","0","html-slider-response","66","703116","0.0-5.0-2.11","97","1","2025-07-16 10:12:37","1f75c3e559b7213887762d5229550c2b","85.246.21.29","Mozilla/5.0 (Windows NT 10.0; Win64; x64) AppleWebKit/537.36 (KHTML, like Gecko) Chrome/138.0.0.0 Safari/537.36","WebKit","Chrome","138.0.0.0","Windows","10.0","https://app.prolific.com/","pt-PT,pt;q=0.9,en-US;q=0.8,en;q=0.7","65a93241fc1ee8c40991a861","68764874ac79eee8c1d4cb03","68777b12b50250593a8dda1c","2","0","65a93241fc1ee8c40991a861","2","0","2025-07-16T10:24:21.264Z","","","","","","","","","","","ControlQ","","50","","","","","","","","","","","","","","","","","","","","","","","","","","","","",""
"1201","","<div style=""width:500px;"">
  <p>How would you describe your current emotional state?</p>
  </div>","100","html-slider-response","67","704318","0.0-5.0-3.11","97","1","2025-07-16 10:12:37","1f75c3e559b7213887762d5229550c2b","85.246.21.29","Mozilla/5.0 (Windows NT 10.0; Win64; x64) AppleWebKit/537.36 (KHTML, like Gecko) Chrome/138.0.0.0 Safari/537.36","WebKit","Chrome","138.0.0.0","Windows","10.0","https://app.prolific.com/","pt-PT,pt;q=0.9,en-US;q=0.8,en;q=0.7","65a93241fc1ee8c40991a861","68764874ac79eee8c1d4cb03","68777b12b50250593a8dda1c","2","0","65a93241fc1ee8c40991a861","2","0","2025-07-16T10:24:22.467Z","","","","","","","","","","","StressQ","","50","","","","","","","","","","","","","","","","","","","","","","","","","","","","",""
"1064","","<div style=""width:500px;"">
  <p>What best describes how you currently feel?</p>
  </div>","0","html-slider-response","68","705384","0.0-5.0-4.11","97","1","2025-07-16 10:12:37","1f75c3e559b7213887762d5229550c2b","85.246.21.29","Mozilla/5.0 (Windows NT 10.0; Win64; x64) AppleWebKit/537.36 (KHTML, like Gecko) Chrome/138.0.0.0 Safari/537.36","WebKit","Chrome","138.0.0.0","Windows","10.0","https://app.prolific.com/","pt-PT,pt;q=0.9,en-US;q=0.8,en;q=0.7","65a93241fc1ee8c40991a861","68764874ac79eee8c1d4cb03","68777b12b50250593a8dda1c","2","0","65a93241fc1ee8c40991a861","2","0","2025-07-16T10:24:23.532Z","","","","","","","","","","","MotivationQ","","50","","","","","","","","","","","","","","","","","","","","","","","","","","","","",""
"","","","","ctl-task-cpt","69","732529","0.0-5.0-0.12","97","1","2025-07-16 10:12:37","1f75c3e559b7213887762d5229550c2b","85.246.21.29","Mozilla/5.0 (Windows NT 10.0; Win64; x64) AppleWebKit/537.36 (KHTML, like Gecko) Chrome/138.0.0.0 Safari/537.36","WebKit","Chrome","138.0.0.0","Windows","10.0","https://app.prolific.com/","pt-PT,pt;q=0.9,en-US;q=0.8,en;q=0.7","65a93241fc1ee8c40991a861","68764874ac79eee8c1d4cb03","68777b12b50250593a8dda1c","2","0","65a93241fc1ee8c40991a861","2","0","2025-07-16T10:24:50.677Z","","","","","","","","","","","","","","win-only","1","g1:NE,g2:SW","0.7","13","0","706489.4","859.6","5862.7","24125.3","1","4","8","6","1","1","1","14","13","0.10606060606060606","1338","3000","1110","[""up"",""right""]","{""num_key_presses"":6,""num_perfect"":4,""num_errors"":0,""num_randdir"":2,""num_randdir_good_moves"":1,""num_whilered"":0,""num_whileblue"":0,""num_blue"":0,""num_good_moves"":5}","[417.57142857142856,420.47767857142856,0.1,418.57142857142856,420.47767857142856,103,418.57142857142856,420.47767857142856,213.8,418.57142857142856,420.47767857142856,320.9,422.57142857142856,420.47767857142856,423.9,665.5714285714286,305.47767857142856,537.1,773.5714285714286,129.47767857142856,654.7,756.5714285714286,109.47767857142857,759,756.5714285714286,109.47767857142857,871.4,756.5714285714286,109.47767857142857,977,756.5714285714286,109.47767857142857,1083.9,756.5714285714286,109.47767857142857,1192.6,756.5714285714286,109.47767857142857,1302.6,756.5714285714286,109.47767857142857,1418,756.5714285714286,109.47767857142857,1527.1,756.5714285714286,109.47767857142857,1636.8,776.5714285714286,111.47767857142857,1745.8,950.5714285714286,163.47767857142856,1874.6,1037.5714285714287,214.47767857142856,1981.1,1053.5714285714287,267.47767857142856,2082.6,1040.5714285714287,299.47767857142856,2189,1007.5714285714286,304.47767857142856,2294.4,1007.5714285714286,304.47767857142856,2395.7,998.5714285714286,303.47767857142856,2501.6,998.5714285714286,301.47767857142856,2609,998.5714285714286,301.47767857142856,2717.9,998.5714285714286,301.47767857142856,2822.2,998.5714285714286,301.47767857142856,2933.9,998.5714285714286,301.47767857142856,3036.4,998.5714285714286,301.47767857142856,3144.5,998.5714285714286,301.47767857142856,3250.2,996.5714285714286,301.47767857142856,3354.8,999.5714285714286,303.47767857142856,3455.1,1003.5714285714286,311.47767857142856,3562.1,1003.5714285714286,314.47767857142856,3665.5,1003.5714285714286,314.47767857142856,3770.5,1003.5714285714286,314.47767857142856,3876,1006.5714285714286,309.47767857142856,3979.8,1006.5714285714286,308.47767857142856,4090.8,1006.5714285714286,308.47767857142856,4194.6,1006.5714285714286,308.47767857142856,4302.3,1007.5714285714286,308.47767857142856,4412.7,1007.5714285714286,308.47767857142856,4524.8,1008.5714285714286,308.47767857142856,4626.7,1009.5714285714286,308.47767857142856,4731.2,1009.5714285714286,308.47767857142856,4835.2,1009.5714285714286,308.47767857142856,4940.1]","[1495.5,1495.5,1000,0,495.5,""oops"",""up"",""down"",""bad_move"",6087.8,4592,2995.5,1495.8,1596.5,""smooth"",""right"",""right"",""good_move"",8824.2,2735.9,2311.6,6088.3,424.3,""smooth"",""up"",""up"",""good_move"",12511.4,3686.3,2626.9,8825.1,1059.4,""oops"",""right"",""right"",""good_move"",15088.3,2576.8,2081,12511.5,495.8,""smooth"",""up"",""up"",""good_move"",18063.7,2975.1,2552.6,15088.6,422.5,""smooth"",""up"",""up"",""good_move""]","",""
"7063","","<div style=""width:500px;"">
  <p>What determined the result of this run?</p>
  </div>","0","html-slider-response","70","739593","0.0-5.0-1.12","97","1","2025-07-16 10:12:37","1f75c3e559b7213887762d5229550c2b","85.246.21.29","Mozilla/5.0 (Windows NT 10.0; Win64; x64) AppleWebKit/537.36 (KHTML, like Gecko) Chrome/138.0.0.0 Safari/537.36","WebKit","Chrome","138.0.0.0","Windows","10.0","https://app.prolific.com/","pt-PT,pt;q=0.9,en-US;q=0.8,en;q=0.7","65a93241fc1ee8c40991a861","68764874ac79eee8c1d4cb03","68777b12b50250593a8dda1c","2","0","65a93241fc1ee8c40991a861","2","0","2025-07-16T10:24:57.741Z","","","","","","","","","","","AttribQ","","50","","","","","","","","","","","","","","","","","","","","","","","","","","","","",""
"1421","","<div style=""width:500px;"">
  <p>How much control did you have over the ball?</p>
  </div>","0","html-slider-response","71","741015","0.0-5.0-2.12","97","1","2025-07-16 10:12:37","1f75c3e559b7213887762d5229550c2b","85.246.21.29","Mozilla/5.0 (Windows NT 10.0; Win64; x64) AppleWebKit/537.36 (KHTML, like Gecko) Chrome/138.0.0.0 Safari/537.36","WebKit","Chrome","138.0.0.0","Windows","10.0","https://app.prolific.com/","pt-PT,pt;q=0.9,en-US;q=0.8,en;q=0.7","65a93241fc1ee8c40991a861","68764874ac79eee8c1d4cb03","68777b12b50250593a8dda1c","2","0","65a93241fc1ee8c40991a861","2","0","2025-07-16T10:24:59.163Z","","","","","","","","","","","ControlQ","","50","","","","","","","","","","","","","","","","","","","","","","","","","","","","",""
"1598","","<div style=""width:500px;"">
  <p>How would you describe your current emotional state?</p>
  </div>","100","html-slider-response","72","742615","0.0-5.0-3.12","97","1","2025-07-16 10:12:37","1f75c3e559b7213887762d5229550c2b","85.246.21.29","Mozilla/5.0 (Windows NT 10.0; Win64; x64) AppleWebKit/537.36 (KHTML, like Gecko) Chrome/138.0.0.0 Safari/537.36","WebKit","Chrome","138.0.0.0","Windows","10.0","https://app.prolific.com/","pt-PT,pt;q=0.9,en-US;q=0.8,en;q=0.7","65a93241fc1ee8c40991a861","68764874ac79eee8c1d4cb03","68777b12b50250593a8dda1c","2","0","65a93241fc1ee8c40991a861","2","0","2025-07-16T10:25:00.764Z","","","","","","","","","","","StressQ","","50","","","","","","","","","","","","","","","","","","","","","","","","","","","","",""
"1314","","<div style=""width:500px;"">
  <p>What best describes how you currently feel?</p>
  </div>","0","html-slider-response","73","743931","0.0-5.0-4.12","97","1","2025-07-16 10:12:37","1f75c3e559b7213887762d5229550c2b","85.246.21.29","Mozilla/5.0 (Windows NT 10.0; Win64; x64) AppleWebKit/537.36 (KHTML, like Gecko) Chrome/138.0.0.0 Safari/537.36","WebKit","Chrome","138.0.0.0","Windows","10.0","https://app.prolific.com/","pt-PT,pt;q=0.9,en-US;q=0.8,en;q=0.7","65a93241fc1ee8c40991a861","68764874ac79eee8c1d4cb03","68777b12b50250593a8dda1c","2","0","65a93241fc1ee8c40991a861","2","0","2025-07-16T10:25:02.079Z","","","","","","","","","","","MotivationQ","","50","","","","","","","","","","","","","","","","","","","","","","","","","","","","",""
