"rt","response_timestamp","stimulus","response","trial_type","trial_index","time_elapsed","internal_node_id","run_id","condition","recorded_at","source_code_version","ip","user_agent","device","browser","browser_version","platform","platform_version","referer","accept_language","PROLIFIC_PID","STUDY_ID","SESSION_ID","WEEK","BATCH","prolific_id","week","batch","realtime","success","responses","item_order","radio_event_ids","radio_event_times","key_event_times","mouse_event_times","straightlining","zigzagging","honeypot","eventType","view_history","slider_start","which_type","canvas_config","goals_layout","control_level","trial_number","tutorial_trial_number","trial_start_time","phase1_start_time","phase2_start_time","phase3_start_time","goal_1_value","goal_1_distance","goal_2_value","goal_2_distance","goal_selected","outcome","outcome_total","participant_final_score","participant_initial_score","participant_final_score_prop","goal_choice_rt","allocated_time","allocated_time_remaining","goal_direction","counts","mouse_movements","key_presses","question_order","question_id"
"2229","1754230248588","<p style='font-size:40px;line-height:1.25'><strong>Welcome to the experiment!</strong></p><p style='font-size:1.1em;line-height:1.25'>Thank you for participanting in our experiment again! You will be asked to play the Dysfunctional Ball Game again. We will briefly recap the rules before we start.</p><p style='font-size:1.1em;line-height:1.25'>Press <strong>Next</strong> to continue.</p>","0","custom-html-button-response","0","2230","0.0-0.0","312","1","2025-08-03 14:10:52","1f75c3e559b7213887762d5229550c2b","89.245.26.245","Mozilla/5.0 (Windows NT 10.0; Win64; x64) AppleWebKit/537.36 (KHTML, like Gecko) Chrome/135.0.0.0 Safari/537.36 OPR/120.0.0.0","WebKit","Opera","120.0.0.0","Windows","10.0","https://app.prolific.com/","de-DE,de;q=0.9,en-US;q=0.8,en;q=0.7,zh-CN;q=0.6,zh;q=0.5,ja;q=0.4","6565f2ba13586fa869dd3b28","6877631c9844ddd5501205fc","688f6de69f171ef93f27494a","3","1","6565f2ba13586fa869dd3b28","3","1","2025-08-03T14:10:48.588Z","","","","","","","","","","","","","","","","","","","","","","","","","","","","","","","","","","","","","","","","","",""
"42814","","","","fullscreen","1","46049","0.0-1.0","312","1","2025-08-03 14:10:52","1f75c3e559b7213887762d5229550c2b","89.245.26.245","Mozilla/5.0 (Windows NT 10.0; Win64; x64) AppleWebKit/537.36 (KHTML, like Gecko) Chrome/135.0.0.0 Safari/537.36 OPR/120.0.0.0","WebKit","Opera","120.0.0.0","Windows","10.0","https://app.prolific.com/","de-DE,de;q=0.9,en-US;q=0.8,en;q=0.7,zh-CN;q=0.6,zh;q=0.5,ja;q=0.4","6565f2ba13586fa869dd3b28","6877631c9844ddd5501205fc","688f6de69f171ef93f27494a","3","1","6565f2ba13586fa869dd3b28","3","1","","true","","","","","","","","","","","","","","","","","","","","","","","","","","","","","","","","","","","","","","","","",""
"1819","1754230294227","<p style='font-size:1.1em;line-height:1.25'>In the following, we will ask you a few questions relating to your feelings in the last 24 hours.<br></p><p style='font-size:1.1em;line-height:1.25'>Press the <strong>Next</strong> button to continue.</p>","0","custom-html-button-response","2","47869","0.0-2.0-0.0","312","1","2025-08-03 14:10:52","1f75c3e559b7213887762d5229550c2b","89.245.26.245","Mozilla/5.0 (Windows NT 10.0; Win64; x64) AppleWebKit/537.36 (KHTML, like Gecko) Chrome/135.0.0.0 Safari/537.36 OPR/120.0.0.0","WebKit","Opera","120.0.0.0","Windows","10.0","https://app.prolific.com/","de-DE,de;q=0.9,en-US;q=0.8,en;q=0.7,zh-CN;q=0.6,zh;q=0.5,ja;q=0.4","6565f2ba13586fa869dd3b28","6877631c9844ddd5501205fc","688f6de69f171ef93f27494a","3","1","6565f2ba13586fa869dd3b28","3","1","2025-08-03T14:11:34.227Z","","","","","","","","","","","","","","","","","","","","","","","","","","","","","","","","","","","","","","","","","",""
"71995","","","","survey-template","3","119868","0.0-2.0-1.0","312","1","2025-08-03 14:10:52","1f75c3e559b7213887762d5229550c2b","89.245.26.245","Mozilla/5.0 (Windows NT 10.0; Win64; x64) AppleWebKit/537.36 (KHTML, like Gecko) Chrome/135.0.0.0 Safari/537.36 OPR/120.0.0.0","WebKit","Opera","120.0.0.0","Windows","10.0","https://app.prolific.com/","de-DE,de;q=0.9,en-US;q=0.8,en;q=0.7,zh-CN;q=0.6,zh;q=0.5,ja;q=0.4","6565f2ba13586fa869dd3b28","6877631c9844ddd5501205fc","688f6de69f171ef93f27494a","3","1","6565f2ba13586fa869dd3b28","3","1","2025-08-03T14:12:46.226Z","","{""Q01"":""2"",""Q02"":""2"",""Q03"":""1"",""Q04"":""2"",""Q05"":""2"",""Q06"":""3"",""Q07"":""2"",""Q08"":""1"",""Q09"":""1"",""Q10"":""2"",""Q11"":""3"",""Q12"":""3"",""Q13"":""5"",""Q14"":""3"",""Q15"":""2"",""Q16"":""1"",""Q17"":""2"",""Q18"":""1"",""Q19"":""2"",""Q20"":""1"",""Q21"":""2"",""Q22"":""2""}","[0,1,2,3,4,5,6,7,8,9,10,11,12,13,14,15,16,17,18,19,20,21]","[""Q01"",""Q02"",""Q03"",""Q04"",""Q05"",""Q06"",""Q07"",""Q08"",""Q08"",""Q09"",""Q10"",""Q11"",""Q12"",""Q13"",""Q14"",""Q15"",""Q16"",""Q17"",""Q18"",""Q19"",""Q20"",""Q20"",""Q21"",""Q22""]","[5495,6129.899999999965,7537.799999999988,8698.799999999988,11018.799999999988,13337.799999999988,14064.700000000012,14832.700000000012,15834.799999999988,18095.79999999999,19425.70000000001,22359.70000000001,23135.79999999999,26292.70000000001,30657.70000000001,31786.599999999977,36075.70000000001,37925.79999999999,38917.59999999998,43438.59999999998,46351.79999999999,47111.59999999998,69099.59999999998,70801.59999999998]","[]","[0.09999999997671694,3830.5,4624.5,5495,6129.899999999965,7537.799999999988,8698.799999999988,9646.899999999965,10771.700000000012,11018.799999999988,11536.700000000012,12217.599999999977,12698.700000000012,13337.799999999988,14064.700000000012,14832.700000000012,15834.799999999988,17547,18095.79999999999,19425.70000000001,20655.899999999965,21448.5,21974.5,22359.70000000001,23135.79999999999,26292.70000000001,28284.70000000001,30657.70000000001,31457.79999999999,31786.599999999977,34493.79999999999,34809.5,35839.5,36075.70000000001,36918.59999999998,37925.79999999999,38577.70000000001,38917.59999999998,42471.70000000001,43438.59999999998,45858.5,46351.79999999999,47111.59999999998,69099.59999999998,70801.59999999998,71992.59999999998]","0.5","0.6666666666666666","0","drsp","","","","","","","","","","","","","","","","","","","","","","","","","","","","","","",""
"16986.79999999999","","","","survey-template","4","136856","0.0-2.0-2.0","312","1","2025-08-03 14:10:52","1f75c3e559b7213887762d5229550c2b","89.245.26.245","Mozilla/5.0 (Windows NT 10.0; Win64; x64) AppleWebKit/537.36 (KHTML, like Gecko) Chrome/135.0.0.0 Safari/537.36 OPR/120.0.0.0","WebKit","Opera","120.0.0.0","Windows","10.0","https://app.prolific.com/","de-DE,de;q=0.9,en-US;q=0.8,en;q=0.7,zh-CN;q=0.6,zh;q=0.5,ja;q=0.4","6565f2ba13586fa869dd3b28","6877631c9844ddd5501205fc","688f6de69f171ef93f27494a","3","1","6565f2ba13586fa869dd3b28","3","1","2025-08-03T14:13:03.214Z","","{""Q01"":""2"",""Q02"":""4"",""Q03"":""1""}","[0,1,2]","[""Q01"",""Q02"",""Q03""]","[12386.299999999988,13394.200000000012,15939.099999999977]","[]","[10035.099999999977,11075.099999999977,11407.099999999977,12386.299999999988,12876.299999999988,13394.200000000012,15939.099999999977,16986.29999999999]","0.6666666666666666","0.5","0","stress","","","","","","","","","","","","","","","","","","","","","","","","","","","","","","",""
"2107","","","","instructions","5","138964","0.0-3.0-0.0","312","1","2025-08-03 14:10:52","1f75c3e559b7213887762d5229550c2b","89.245.26.245","Mozilla/5.0 (Windows NT 10.0; Win64; x64) AppleWebKit/537.36 (KHTML, like Gecko) Chrome/135.0.0.0 Safari/537.36 OPR/120.0.0.0","WebKit","Opera","120.0.0.0","Windows","10.0","https://app.prolific.com/","de-DE,de;q=0.9,en-US;q=0.8,en;q=0.7,zh-CN;q=0.6,zh;q=0.5,ja;q=0.4","6565f2ba13586fa869dd3b28","6877631c9844ddd5501205fc","688f6de69f171ef93f27494a","3","1","6565f2ba13586fa869dd3b28","3","1","","","","","","","","","","","","","[{""page_index"":0,""viewing_time"":2107}]","","","","","","","","","","","","","","","","","","","","","","","","","","","","","",""
"2515","","<p>Before you start with this game please answer the following three questions yourself. </p>
  <p>Through this game, we measure several aspects of your cognitive performance, such as reaction times, multi-tasking capabilities </p>
  <p>and the ability to assess the situation you are in.</p>
  <p></p>
  <p><b>How good do you usually are in such tasks?</b></p>","14","html-slider-response","6","141480","0.0-4.0-0.0","312","1","2025-08-03 14:10:52","1f75c3e559b7213887762d5229550c2b","89.245.26.245","Mozilla/5.0 (Windows NT 10.0; Win64; x64) AppleWebKit/537.36 (KHTML, like Gecko) Chrome/135.0.0.0 Safari/537.36 OPR/120.0.0.0","WebKit","Opera","120.0.0.0","Windows","10.0","https://app.prolific.com/","de-DE,de;q=0.9,en-US;q=0.8,en;q=0.7,zh-CN;q=0.6,zh;q=0.5,ja;q=0.4","6565f2ba13586fa869dd3b28","6877631c9844ddd5501205fc","688f6de69f171ef93f27494a","3","1","6565f2ba13586fa869dd3b28","3","1","2025-08-03T14:13:07.838Z","","","","","","","","","","","PreSkillQ","","50","","","","","","","","","","","","","","","","","","","","","","","","","","","","",""
"2383","","<div style=""width:500px;"">
  <p>How well do you think you will perform in this task compared to other participants?</p>
  </div>","38","html-slider-response","7","143864","0.0-4.0-1.0","312","1","2025-08-03 14:10:52","1f75c3e559b7213887762d5229550c2b","89.245.26.245","Mozilla/5.0 (Windows NT 10.0; Win64; x64) AppleWebKit/537.36 (KHTML, like Gecko) Chrome/135.0.0.0 Safari/537.36 OPR/120.0.0.0","WebKit","Opera","120.0.0.0","Windows","10.0","https://app.prolific.com/","de-DE,de;q=0.9,en-US;q=0.8,en;q=0.7,zh-CN;q=0.6,zh;q=0.5,ja;q=0.4","6565f2ba13586fa869dd3b28","6877631c9844ddd5501205fc","688f6de69f171ef93f27494a","3","1","6565f2ba13586fa869dd3b28","3","1","2025-08-03T14:13:10.222Z","","","","","","","","","","","PrePerfQ","","50","","","","","","","","","","","","","","","","","","","","","","","","","","","","",""
"2589","","<div style=""width:500px;"">
  <p>What best describes how you currently feel?</p>
  </div>","75","html-slider-response","8","146454","0.0-4.0-2.0","312","1","2025-08-03 14:10:52","1f75c3e559b7213887762d5229550c2b","89.245.26.245","Mozilla/5.0 (Windows NT 10.0; Win64; x64) AppleWebKit/537.36 (KHTML, like Gecko) Chrome/135.0.0.0 Safari/537.36 OPR/120.0.0.0","WebKit","Opera","120.0.0.0","Windows","10.0","https://app.prolific.com/","de-DE,de;q=0.9,en-US;q=0.8,en;q=0.7,zh-CN;q=0.6,zh;q=0.5,ja;q=0.4","6565f2ba13586fa869dd3b28","6877631c9844ddd5501205fc","688f6de69f171ef93f27494a","3","1","6565f2ba13586fa869dd3b28","3","1","2025-08-03T14:13:12.812Z","","","","","","","","","","","PreMotivationQ","","50","","","","","","","","","","","","","","","","","","","","","","","","","","","","",""
"","","","","ctl-task-cpt","9","178137","0.0-5.0-0.0","312","1","2025-08-03 14:10:52","1f75c3e559b7213887762d5229550c2b","89.245.26.245","Mozilla/5.0 (Windows NT 10.0; Win64; x64) AppleWebKit/537.36 (KHTML, like Gecko) Chrome/135.0.0.0 Safari/537.36 OPR/120.0.0.0","WebKit","Opera","120.0.0.0","Windows","10.0","https://app.prolific.com/","de-DE,de;q=0.9,en-US;q=0.8,en;q=0.7,zh-CN;q=0.6,zh;q=0.5,ja;q=0.4","6565f2ba13586fa869dd3b28","6877631c9844ddd5501205fc","688f6de69f171ef93f27494a","3","1","6565f2ba13586fa869dd3b28","3","1","2025-08-03T14:13:44.495Z","","","","","","","","","","","","","","win-only","3","g1:SW,g2:NE","1","1","0","147356.8","988","5990.6","28671.8","1","4","4","6","2","4","4","4","0","0.030303030303030304","5002.6","3000","15","[""up"",""right""]","{""num_key_presses"":6,""num_perfect"":6,""num_errors"":0,""num_randdir"":0,""num_randdir_good_moves"":0,""num_whilered"":0,""num_whileblue"":0,""num_blue"":2,""num_good_moves"":6}","[419.57142857142856,416.47767857142856,0.1,419.57142857142856,416.47767857142856,120.8,419.57142857142856,416.47767857142856,222.5,419.57142857142856,416.47767857142856,327.8,419.57142857142856,416.47767857142856,427.8,419.57142857142856,416.47767857142856,527.9,419.57142857142856,416.47767857142856,627.9,419.57142857142856,416.47767857142856,728,419.57142857142856,416.47767857142856,828.2,419.57142857142856,416.47767857142856,932.3,421.57142857142856,416.47767857142856,1032.3,421.57142857142856,416.47767857142856,1132.4,421.57142857142856,416.47767857142856,1232.4,421.57142857142856,414.47767857142856,1332.5,421.57142857142856,414.47767857142856,1438.3,421.57142857142856,414.47767857142856,1538.3,421.57142857142856,414.47767857142856,1638.3,421.57142857142856,414.47767857142856,1743.1,421.57142857142856,414.47767857142856,1844.4,421.57142857142856,414.47767857142856,1947.2,421.57142857142856,414.47767857142856,2047.3,421.57142857142856,414.47767857142856,2147.3,421.57142857142856,414.47767857142856,2247.4,421.57142857142856,414.47767857142856,2347.5,421.57142857142856,414.47767857142856,2467.7,421.57142857142856,412.47767857142856,2579.7,421.57142857142856,412.47767857142856,2682.6,421.57142857142856,412.47767857142856,2782.7,421.57142857142856,412.47767857142856,2882.9,421.57142857142856,412.47767857142856,2982.9,421.57142857142856,412.47767857142856,3083,421.57142857142856,412.47767857142856,3187.3,421.57142857142856,412.47767857142856,3299.5,421.57142857142856,412.47767857142856,3402.2,421.57142857142856,412.47767857142856,3508.2,421.57142857142856,412.47767857142856,3618.2,421.57142857142856,412.47767857142856,3730.1,421.57142857142856,412.47767857142856,3832.2,421.57142857142856,412.47767857142856,3932.4,421.57142857142856,412.47767857142856,4032.5,421.57142857142856,412.47767857142856,4133.6,421.57142857142856,412.47767857142856,4242,421.57142857142856,412.47767857142856,4342.8,421.57142857142856,412.47767857142856,4443,421.57142857142856,412.47767857142856,4543.1,421.57142857142856,412.47767857142856,4648.1,421.57142857142856,412.47767857142856,4752.1,421.57142857142856,412.47767857142856,4852.3,421.57142857142856,412.47767857142856,4953.4]","[3032.5,3032.4,1000,0.1,2032.4,""smooth"",""right"",""right"",""good_move"",4943.4,1910.6,1459.6,3032.9,450.9,""smooth"",""up"",""up"",""good_move"",14998.5,10054.8,3204.9,11432.9,360.7,""smooth"",""up"",""up"",""good_move"",17640.4,2641.8,2234.5,14998.6,407.3,""smooth"",""right"",""right"",""good_move"",20255.4,2614.9,2311.1,17640.6,303.8,""smooth"",""up"",""up"",""good_move"",22547.3,2291.8,2034.6,20255.5,257.2,""smooth"",""right"",""right"",""good_move""]","",""
"2758","","<div style=""width:500px;"">
  <p>What determined the result of this run?</p>
  </div>","21","html-slider-response","10","180896","0.0-5.0-1.0","312","1","2025-08-03 14:10:52","1f75c3e559b7213887762d5229550c2b","89.245.26.245","Mozilla/5.0 (Windows NT 10.0; Win64; x64) AppleWebKit/537.36 (KHTML, like Gecko) Chrome/135.0.0.0 Safari/537.36 OPR/120.0.0.0","WebKit","Opera","120.0.0.0","Windows","10.0","https://app.prolific.com/","de-DE,de;q=0.9,en-US;q=0.8,en;q=0.7,zh-CN;q=0.6,zh;q=0.5,ja;q=0.4","6565f2ba13586fa869dd3b28","6877631c9844ddd5501205fc","688f6de69f171ef93f27494a","3","1","6565f2ba13586fa869dd3b28","3","1","2025-08-03T14:13:47.254Z","","","","","","","","","","","AttribQ","","50","","","","","","","","","","","","","","","","","","","","","","","","","","","","",""
"2308","","<div style=""width:500px;"">
  <p>How much control did you have over the ball?</p>
  </div>","91","html-slider-response","11","183205","0.0-5.0-2.0","312","1","2025-08-03 14:10:52","1f75c3e559b7213887762d5229550c2b","89.245.26.245","Mozilla/5.0 (Windows NT 10.0; Win64; x64) AppleWebKit/537.36 (KHTML, like Gecko) Chrome/135.0.0.0 Safari/537.36 OPR/120.0.0.0","WebKit","Opera","120.0.0.0","Windows","10.0","https://app.prolific.com/","de-DE,de;q=0.9,en-US;q=0.8,en;q=0.7,zh-CN;q=0.6,zh;q=0.5,ja;q=0.4","6565f2ba13586fa869dd3b28","6877631c9844ddd5501205fc","688f6de69f171ef93f27494a","3","1","6565f2ba13586fa869dd3b28","3","1","2025-08-03T14:13:49.563Z","","","","","","","","","","","ControlQ","","50","","","","","","","","","","","","","","","","","","","","","","","","","","","","",""
"1490","","<div style=""width:500px;"">
  <p>How would you describe your current emotional state?</p>
  </div>","22","html-slider-response","12","184696","0.0-5.0-3.0","312","1","2025-08-03 14:10:52","1f75c3e559b7213887762d5229550c2b","89.245.26.245","Mozilla/5.0 (Windows NT 10.0; Win64; x64) AppleWebKit/537.36 (KHTML, like Gecko) Chrome/135.0.0.0 Safari/537.36 OPR/120.0.0.0","WebKit","Opera","120.0.0.0","Windows","10.0","https://app.prolific.com/","de-DE,de;q=0.9,en-US;q=0.8,en;q=0.7,zh-CN;q=0.6,zh;q=0.5,ja;q=0.4","6565f2ba13586fa869dd3b28","6877631c9844ddd5501205fc","688f6de69f171ef93f27494a","3","1","6565f2ba13586fa869dd3b28","3","1","2025-08-03T14:13:51.054Z","","","","","","","","","","","StressQ","","50","","","","","","","","","","","","","","","","","","","","","","","","","","","","",""
"1342","","<div style=""width:500px;"">
  <p>What best describes how you currently feel?</p>
  </div>","87","html-slider-response","13","186039","0.0-5.0-4.0","312","1","2025-08-03 14:10:52","1f75c3e559b7213887762d5229550c2b","89.245.26.245","Mozilla/5.0 (Windows NT 10.0; Win64; x64) AppleWebKit/537.36 (KHTML, like Gecko) Chrome/135.0.0.0 Safari/537.36 OPR/120.0.0.0","WebKit","Opera","120.0.0.0","Windows","10.0","https://app.prolific.com/","de-DE,de;q=0.9,en-US;q=0.8,en;q=0.7,zh-CN;q=0.6,zh;q=0.5,ja;q=0.4","6565f2ba13586fa869dd3b28","6877631c9844ddd5501205fc","688f6de69f171ef93f27494a","3","1","6565f2ba13586fa869dd3b28","3","1","2025-08-03T14:13:52.397Z","","","","","","","","","","","MotivationQ","","50","","","","","","","","","","","","","","","","","","","","","","","","","","","","",""
"","","","","ctl-task-cpt","14","209772","0.0-5.0-0.1","312","1","2025-08-03 14:10:52","1f75c3e559b7213887762d5229550c2b","89.245.26.245","Mozilla/5.0 (Windows NT 10.0; Win64; x64) AppleWebKit/537.36 (KHTML, like Gecko) Chrome/135.0.0.0 Safari/537.36 OPR/120.0.0.0","WebKit","Opera","120.0.0.0","Windows","10.0","https://app.prolific.com/","de-DE,de;q=0.9,en-US;q=0.8,en;q=0.7,zh-CN;q=0.6,zh;q=0.5,ja;q=0.4","6565f2ba13586fa869dd3b28","6877631c9844ddd5501205fc","688f6de69f171ef93f27494a","3","1","6565f2ba13586fa869dd3b28","3","1","2025-08-03T14:14:16.130Z","","","","","","","","","","","","","","win-only","1","g1:NE,g2:SW","0.9","2","0","186940.8","1231.7","6236","20715.9","1","4","8","6","1","1","1","5","4","0.03787878787878788","1474","3000","1660","[""up"",""right""]","{""num_key_presses"":4,""num_perfect"":3,""num_errors"":0,""num_randdir"":1,""num_randdir_good_moves"":1,""num_whilered"":0,""num_whileblue"":0,""num_blue"":1,""num_good_moves"":4}","[419.57142857142856,410.47767857142856,0.3,419.57142857142856,410.47767857142856,103.9,419.57142857142856,410.47767857142856,204,419.57142857142856,410.47767857142856,304.2,419.57142857142856,410.47767857142856,404.2,287.57142857142856,554.4776785714286,504.4,117.57142857142857,696.4776785714286,605.1,161.57142857142856,674.4776785714286,708.6,559.5714285714286,398.47767857142856,808.7,695.5714285714286,248.47767857142856,908.7,745.5714285714286,150.47767857142856,1008.8,757.5714285714286,74.47767857142857,1109.1,757.5714285714286,40.47767857142857,1209.1,745.5714285714286,28.47767857142857,1309.1,727.5714285714286,36.47767857142857,1409.2,727.5714285714286,42.47767857142857,1509.3,727.5714285714286,42.47767857142857,1609.4,727.5714285714286,42.47767857142857,1709.5,727.5714285714286,44.47767857142857,1814,883.5714285714286,148.47767857142856,1914.7,1115.5714285714287,232.47767857142856,2018.9,1137.5714285714287,248.47767857142856,2123.6,1137.5714285714287,248.47767857142856,2223.6,1137.5714285714287,248.47767857142856,2323.7,1137.5714285714287,248.47767857142856,2423.9,1137.5714285714287,248.47767857142856,2524,1137.5714285714287,248.47767857142856,2624,1137.5714285714287,258.47767857142856,2724.1,1137.5714285714287,258.47767857142856,2824.2,1137.5714285714287,258.47767857142856,2924.3,1137.5714285714287,258.47767857142856,3024.4,1137.5714285714287,258.47767857142856,3128.7,1137.5714285714287,258.47767857142856,3228.7,1137.5714285714287,258.47767857142856,3328.7,1137.5714285714287,258.47767857142856,3428.8,1137.5714285714287,258.47767857142856,3533.6,1137.5714285714287,258.47767857142856,3633.7,1137.5714285714287,258.47767857142856,3733.8,1137.5714285714287,258.47767857142856,3833.8,1137.5714285714287,258.47767857142856,3933.9,1137.5714285714287,258.47767857142856,4034.1,1137.5714285714287,258.47767857142856,4134.2,1137.5714285714287,258.47767857142856,4234.3,1137.5714285714287,258.47767857142856,4338.5,1137.5714285714287,258.47767857142856,4438.7,1137.5714285714287,258.47767857142856,4538.8,1137.5714285714287,258.47767857142856,4638.9,1137.5714285714287,258.47767857142856,4738.9,1137.5714285714287,258.47767857142856,4839.1,1137.5714285714287,258.47767857142856,4939.1]","[1394.2,1394.2,1000,0,394.2,""smooth"",""up"",""up"",""good_move"",7972.6,6578.1,2896.7,4784.9,291,""smooth"",""up"",""up"",""good_move"",11243.7,3271,2887.2,7972.7,383.8,""smooth"",""up"",""right"",""good_move"",14393.4,3149.3,2847.9,11244.1,301.4,""oops"",""right"",""right"",""good_move""]","",""
"2926","","<div style=""width:500px;"">
  <p>What determined the result of this run?</p>
  </div>","14","html-slider-response","15","212698","0.0-5.0-1.1","312","1","2025-08-03 14:10:52","1f75c3e559b7213887762d5229550c2b","89.245.26.245","Mozilla/5.0 (Windows NT 10.0; Win64; x64) AppleWebKit/537.36 (KHTML, like Gecko) Chrome/135.0.0.0 Safari/537.36 OPR/120.0.0.0","WebKit","Opera","120.0.0.0","Windows","10.0","https://app.prolific.com/","de-DE,de;q=0.9,en-US;q=0.8,en;q=0.7,zh-CN;q=0.6,zh;q=0.5,ja;q=0.4","6565f2ba13586fa869dd3b28","6877631c9844ddd5501205fc","688f6de69f171ef93f27494a","3","1","6565f2ba13586fa869dd3b28","3","1","2025-08-03T14:14:19.056Z","","","","","","","","","","","AttribQ","","50","","","","","","","","","","","","","","","","","","","","","","","","","","","","",""
"2425","","<div style=""width:500px;"">
  <p>How much control did you have over the ball?</p>
  </div>","86","html-slider-response","16","215124","0.0-5.0-2.1","312","1","2025-08-03 14:10:52","1f75c3e559b7213887762d5229550c2b","89.245.26.245","Mozilla/5.0 (Windows NT 10.0; Win64; x64) AppleWebKit/537.36 (KHTML, like Gecko) Chrome/135.0.0.0 Safari/537.36 OPR/120.0.0.0","WebKit","Opera","120.0.0.0","Windows","10.0","https://app.prolific.com/","de-DE,de;q=0.9,en-US;q=0.8,en;q=0.7,zh-CN;q=0.6,zh;q=0.5,ja;q=0.4","6565f2ba13586fa869dd3b28","6877631c9844ddd5501205fc","688f6de69f171ef93f27494a","3","1","6565f2ba13586fa869dd3b28","3","1","2025-08-03T14:14:21.482Z","","","","","","","","","","","ControlQ","","50","","","","","","","","","","","","","","","","","","","","","","","","","","","","",""
"2193","","<div style=""width:500px;"">
  <p>How would you describe your current emotional state?</p>
  </div>","18","html-slider-response","17","217318","0.0-5.0-3.1","312","1","2025-08-03 14:10:52","1f75c3e559b7213887762d5229550c2b","89.245.26.245","Mozilla/5.0 (Windows NT 10.0; Win64; x64) AppleWebKit/537.36 (KHTML, like Gecko) Chrome/135.0.0.0 Safari/537.36 OPR/120.0.0.0","WebKit","Opera","120.0.0.0","Windows","10.0","https://app.prolific.com/","de-DE,de;q=0.9,en-US;q=0.8,en;q=0.7,zh-CN;q=0.6,zh;q=0.5,ja;q=0.4","6565f2ba13586fa869dd3b28","6877631c9844ddd5501205fc","688f6de69f171ef93f27494a","3","1","6565f2ba13586fa869dd3b28","3","1","2025-08-03T14:14:23.676Z","","","","","","","","","","","StressQ","","50","","","","","","","","","","","","","","","","","","","","","","","","","","","","",""
"1330","","<div style=""width:500px;"">
  <p>What best describes how you currently feel?</p>
  </div>","89","html-slider-response","18","218649","0.0-5.0-4.1","312","1","2025-08-03 14:10:52","1f75c3e559b7213887762d5229550c2b","89.245.26.245","Mozilla/5.0 (Windows NT 10.0; Win64; x64) AppleWebKit/537.36 (KHTML, like Gecko) Chrome/135.0.0.0 Safari/537.36 OPR/120.0.0.0","WebKit","Opera","120.0.0.0","Windows","10.0","https://app.prolific.com/","de-DE,de;q=0.9,en-US;q=0.8,en;q=0.7,zh-CN;q=0.6,zh;q=0.5,ja;q=0.4","6565f2ba13586fa869dd3b28","6877631c9844ddd5501205fc","688f6de69f171ef93f27494a","3","1","6565f2ba13586fa869dd3b28","3","1","2025-08-03T14:14:25.007Z","","","","","","","","","","","MotivationQ","","50","","","","","","","","","","","","","","","","","","","","","","","","","","","","",""
"","","","","ctl-task-cpt","19","250574","0.0-5.0-0.2","312","1","2025-08-03 14:10:52","1f75c3e559b7213887762d5229550c2b","89.245.26.245","Mozilla/5.0 (Windows NT 10.0; Win64; x64) AppleWebKit/537.36 (KHTML, like Gecko) Chrome/135.0.0.0 Safari/537.36 OPR/120.0.0.0","WebKit","Opera","120.0.0.0","Windows","10.0","https://app.prolific.com/","de-DE,de;q=0.9,en-US;q=0.8,en;q=0.7,zh-CN;q=0.6,zh;q=0.5,ja;q=0.4","6565f2ba13586fa869dd3b28","6877631c9844ddd5501205fc","688f6de69f171ef93f27494a","3","1","6565f2ba13586fa869dd3b28","3","1","2025-08-03T14:14:56.932Z","","","","","","","","","","","","","","win-only","2","g1:SE,g2:NW","0.8","3","0","219552.6","721.8","5726","28920.5","1","4","8","6","1","1","1","6","5","0.045454545454545456","2033.7","3000","1660","[""down"",""right""]","{""num_key_presses"":4,""num_perfect"":3,""num_errors"":0,""num_randdir"":1,""num_randdir_good_moves"":1,""num_whilered"":0,""num_whileblue"":0,""num_blue"":3,""num_good_moves"":4}","[419.57142857142856,412.47767857142856,0.2,419.57142857142856,412.47767857142856,104.4,419.57142857142856,412.47767857142856,204.6,419.57142857142856,412.47767857142856,316,419.57142857142856,412.47767857142856,418.4,419.57142857142856,412.47767857142856,519.3,421.57142857142856,412.47767857142856,619.4,429.57142857142856,414.47767857142856,719.6,523.5714285714286,502.47767857142856,823.5,633.5714285714286,622.4776785714286,923.7,681.5714285714286,672.4776785714286,1023.7,709.5714285714286,700.4776785714286,1123.9,733.5714285714286,722.4776785714286,1234,739.5714285714286,732.4776785714286,1338.9,743.5714285714286,736.4776785714286,1439,743.5714285714286,736.4776785714286,1539,743.5714285714286,736.4776785714286,1639.3,743.5714285714286,736.4776785714286,1743.8,743.5714285714286,736.4776785714286,1848.6,743.5714285714286,736.4776785714286,1954.5,743.5714285714286,736.4776785714286,2069.5,743.5714285714286,736.4776785714286,2173.6,743.5714285714286,736.4776785714286,2276.2,743.5714285714286,736.4776785714286,2378.6,743.5714285714286,736.4776785714286,2483.4,743.5714285714286,736.4776785714286,2583.5,745.5714285714286,732.4776785714286,2683.9,745.5714285714286,730.4776785714286,2783.9,745.5714285714286,728.4776785714286,2884.1,749.5714285714286,722.4776785714286,2984.1,751.5714285714286,716.4776785714286,3084.3,751.5714285714286,716.4776785714286,3184.3,755.5714285714286,710.4776785714286,3284.5,705.5714285714286,648.4776785714286,3388.5,705.5714285714286,648.4776785714286,3489.9,705.5714285714286,648.4776785714286,3593.6,705.5714285714286,648.4776785714286,3698.6,705.5714285714286,648.4776785714286,3807.2,705.5714285714286,648.4776785714286,3909,705.5714285714286,648.4776785714286,4009.2,705.5714285714286,648.4776785714286,4109.2,705.5714285714286,648.4776785714286,4209.3,705.5714285714286,648.4776785714286,4309.4,703.5714285714286,648.4776785714286,4417.5,703.5714285714286,648.4776785714286,4518.6,703.5714285714286,646.4776785714286,4618.6,703.5714285714286,646.4776785714286,4718.8,703.5714285714286,646.4776785714286,4818.9,703.5714285714286,646.4776785714286,4918.9]","[1678.6,1678.6,1000,0,678.6,""smooth"",""down"",""down"",""good_move"",3816.2,2137.1,1744.5,1679.1,392.6,""smooth"",""down"",""down"",""good_move"",7176.4,3360.2,3018.6,3816.3,341.6,""oops"",""right"",""right"",""good_move"",23084.3,15907.7,2682.3,20075.5,326.5,""smooth"",""right"",""right"",""good_move""]","",""
"6712","","<div style=""width:500px;"">
  <p>What determined the result of this run?</p>
  </div>","5","html-slider-response","20","257286","0.0-5.0-1.2","312","1","2025-08-03 14:10:52","1f75c3e559b7213887762d5229550c2b","89.245.26.245","Mozilla/5.0 (Windows NT 10.0; Win64; x64) AppleWebKit/537.36 (KHTML, like Gecko) Chrome/135.0.0.0 Safari/537.36 OPR/120.0.0.0","WebKit","Opera","120.0.0.0","Windows","10.0","https://app.prolific.com/","de-DE,de;q=0.9,en-US;q=0.8,en;q=0.7,zh-CN;q=0.6,zh;q=0.5,ja;q=0.4","6565f2ba13586fa869dd3b28","6877631c9844ddd5501205fc","688f6de69f171ef93f27494a","3","1","6565f2ba13586fa869dd3b28","3","1","2025-08-03T14:15:03.645Z","","","","","","","","","","","AttribQ","","50","","","","","","","","","","","","","","","","","","","","","","","","","","","","",""
"2371","","<div style=""width:500px;"">
  <p>How much control did you have over the ball?</p>
  </div>","85","html-slider-response","21","259658","0.0-5.0-2.2","312","1","2025-08-03 14:10:52","1f75c3e559b7213887762d5229550c2b","89.245.26.245","Mozilla/5.0 (Windows NT 10.0; Win64; x64) AppleWebKit/537.36 (KHTML, like Gecko) Chrome/135.0.0.0 Safari/537.36 OPR/120.0.0.0","WebKit","Opera","120.0.0.0","Windows","10.0","https://app.prolific.com/","de-DE,de;q=0.9,en-US;q=0.8,en;q=0.7,zh-CN;q=0.6,zh;q=0.5,ja;q=0.4","6565f2ba13586fa869dd3b28","6877631c9844ddd5501205fc","688f6de69f171ef93f27494a","3","1","6565f2ba13586fa869dd3b28","3","1","2025-08-03T14:15:06.016Z","","","","","","","","","","","ControlQ","","50","","","","","","","","","","","","","","","","","","","","","","","","","","","","",""
"1875","","<div style=""width:500px;"">
  <p>How would you describe your current emotional state?</p>
  </div>","4","html-slider-response","22","261534","0.0-5.0-3.2","312","1","2025-08-03 14:10:52","1f75c3e559b7213887762d5229550c2b","89.245.26.245","Mozilla/5.0 (Windows NT 10.0; Win64; x64) AppleWebKit/537.36 (KHTML, like Gecko) Chrome/135.0.0.0 Safari/537.36 OPR/120.0.0.0","WebKit","Opera","120.0.0.0","Windows","10.0","https://app.prolific.com/","de-DE,de;q=0.9,en-US;q=0.8,en;q=0.7,zh-CN;q=0.6,zh;q=0.5,ja;q=0.4","6565f2ba13586fa869dd3b28","6877631c9844ddd5501205fc","688f6de69f171ef93f27494a","3","1","6565f2ba13586fa869dd3b28","3","1","2025-08-03T14:15:07.892Z","","","","","","","","","","","StressQ","","50","","","","","","","","","","","","","","","","","","","","","","","","","","","","",""
"2340","","<div style=""width:500px;"">
  <p>What best describes how you currently feel?</p>
  </div>","84","html-slider-response","23","263875","0.0-5.0-4.2","312","1","2025-08-03 14:10:52","1f75c3e559b7213887762d5229550c2b","89.245.26.245","Mozilla/5.0 (Windows NT 10.0; Win64; x64) AppleWebKit/537.36 (KHTML, like Gecko) Chrome/135.0.0.0 Safari/537.36 OPR/120.0.0.0","WebKit","Opera","120.0.0.0","Windows","10.0","https://app.prolific.com/","de-DE,de;q=0.9,en-US;q=0.8,en;q=0.7,zh-CN;q=0.6,zh;q=0.5,ja;q=0.4","6565f2ba13586fa869dd3b28","6877631c9844ddd5501205fc","688f6de69f171ef93f27494a","3","1","6565f2ba13586fa869dd3b28","3","1","2025-08-03T14:15:10.233Z","","","","","","","","","","","MotivationQ","","50","","","","","","","","","","","","","","","","","","","","","","","","","","","","",""
"","","","","ctl-task-cpt","24","293543","0.0-5.0-0.3","312","1","2025-08-03 14:10:52","1f75c3e559b7213887762d5229550c2b","89.245.26.245","Mozilla/5.0 (Windows NT 10.0; Win64; x64) AppleWebKit/537.36 (KHTML, like Gecko) Chrome/135.0.0.0 Safari/537.36 OPR/120.0.0.0","WebKit","Opera","120.0.0.0","Windows","10.0","https://app.prolific.com/","de-DE,de;q=0.9,en-US;q=0.8,en;q=0.7,zh-CN;q=0.6,zh;q=0.5,ja;q=0.4","6565f2ba13586fa869dd3b28","6877631c9844ddd5501205fc","688f6de69f171ef93f27494a","3","1","6565f2ba13586fa869dd3b28","3","1","2025-08-03T14:15:39.901Z","","","","","","","","","","","","","","win-only","2","g1:SE,g2:NW","0.7","4","0","264777.9","890.3","5890.6","26650.6","1","4","4","6","2","4","4","10","6","0.07575757575757576","2923.5","3000","685","[""left"",""up""]","{""num_key_presses"":8,""num_perfect"":6,""num_errors"":0,""num_randdir"":2,""num_randdir_good_moves"":1,""num_whilered"":0,""num_whileblue"":0,""num_blue"":0,""num_good_moves"":7}","[427.57142857142856,418.47767857142856,0.2,427.57142857142856,418.47767857142856,100.1,427.57142857142856,418.47767857142856,207.7,427.57142857142856,418.47767857142856,310,429.57142857142856,418.47767857142856,410.1,431.57142857142856,420.47767857142856,510.2,435.57142857142856,422.47767857142856,610.4,437.57142857142856,422.47767857142856,710.5,441.57142857142856,426.47767857142856,810.5,467.57142857142856,452.47767857142856,911.7,553.5714285714286,536.4776785714286,1015.7,635.5714285714286,642.4776785714286,1115.9,701.5714285714286,726.4776785714286,1224.1,729.5714285714286,752.4776785714286,1324.4,703.5714285714286,742.4776785714286,1424.6,173.57142857142856,310.47767857142856,1525.6,33.57142857142857,154.47767857142856,1629.4,27.57142857142857,72.47767857142857,1730.5,45.57142857142857,24.47767857142857,1840.8,53.57142857142857,40.47767857142857,1941,59.57142857142857,64.47767857142857,2044.4,59.57142857142857,64.47767857142857,2145.6,59.57142857142857,66.47767857142857,2249.9,59.57142857142857,66.47767857142857,2350.3,59.57142857142857,66.47767857142857,2450.4,59.57142857142857,64.47767857142857,2557.5,59.57142857142857,64.47767857142857,2660.7,59.57142857142857,64.47767857142857,2765.9,59.57142857142857,64.47767857142857,2874,59.57142857142857,64.47767857142857,2975.3,59.57142857142857,64.47767857142857,3075.4,61.57142857142857,66.47767857142857,3175.8,185.57142857142856,196.47767857142856,3279.8,183.57142857142856,280.47767857142856,3380.7,-100.42857142857143,370.47767857142856,3496.9,-226.42857142857144,382.47767857142856,3600,-226.42857142857144,380.47767857142856,3700.1,-206.42857142857144,366.47767857142856,3800.2,-206.42857142857144,366.47767857142856,3901,-206.42857142857144,366.47767857142856,4008.2,-206.42857142857144,366.47767857142856,4110.3,-206.42857142857144,366.47767857142856,4210.3,-206.42857142857144,366.47767857142856,4310.5,-206.42857142857144,366.47767857142856,4414.8,-206.42857142857144,366.47767857142856,4515.7,-206.42857142857144,366.47767857142856,4619.9,-206.42857142857144,366.47767857142856,4725.6,-206.42857142857144,366.47767857142856,4830.4,-206.42857142857144,366.47767857142856,4930.6]","[1361.4,1361.4,1000,0,361.4,""smooth"",""up"",""up"",""good_move"",3848.3,2486.7,2114.9,1361.6,371.8,""smooth"",""up"",""up"",""good_move"",6508.2,2659.8,2340.2,3848.4,319.6,""oops"",""left"",""down"",""bad_move"",9274.2,2765.7,2416.7,6508.5,349,""smooth"",""left"",""left"",""good_move"",12658.4,3383.9,3083.8,9274.5,300.1,""oops"",""left"",""up"",""good_move"",15545.4,2886.8,2528.2,12658.6,358.6,""smooth"",""left"",""left"",""good_move"",17625.2,2079.7,1744.3,15545.5,335.4,""smooth"",""left"",""left"",""good_move"",20651.3,3025.9,2729.7,17625.4,296.2,""smooth"",""up"",""up"",""good_move""]","",""
"4760","","<div style=""width:500px;"">
  <p>What determined the result of this run?</p>
  </div>","0","html-slider-response","25","298304","0.0-5.0-1.3","312","1","2025-08-03 14:10:52","1f75c3e559b7213887762d5229550c2b","89.245.26.245","Mozilla/5.0 (Windows NT 10.0; Win64; x64) AppleWebKit/537.36 (KHTML, like Gecko) Chrome/135.0.0.0 Safari/537.36 OPR/120.0.0.0","WebKit","Opera","120.0.0.0","Windows","10.0","https://app.prolific.com/","de-DE,de;q=0.9,en-US;q=0.8,en;q=0.7,zh-CN;q=0.6,zh;q=0.5,ja;q=0.4","6565f2ba13586fa869dd3b28","6877631c9844ddd5501205fc","688f6de69f171ef93f27494a","3","1","6565f2ba13586fa869dd3b28","3","1","2025-08-03T14:15:44.662Z","","","","","","","","","","","AttribQ","","50","","","","","","","","","","","","","","","","","","","","","","","","","","","","",""
"1819","","<div style=""width:500px;"">
  <p>How much control did you have over the ball?</p>
  </div>","100","html-slider-response","26","300124","0.0-5.0-2.3","312","1","2025-08-03 14:10:52","1f75c3e559b7213887762d5229550c2b","89.245.26.245","Mozilla/5.0 (Windows NT 10.0; Win64; x64) AppleWebKit/537.36 (KHTML, like Gecko) Chrome/135.0.0.0 Safari/537.36 OPR/120.0.0.0","WebKit","Opera","120.0.0.0","Windows","10.0","https://app.prolific.com/","de-DE,de;q=0.9,en-US;q=0.8,en;q=0.7,zh-CN;q=0.6,zh;q=0.5,ja;q=0.4","6565f2ba13586fa869dd3b28","6877631c9844ddd5501205fc","688f6de69f171ef93f27494a","3","1","6565f2ba13586fa869dd3b28","3","1","2025-08-03T14:15:46.482Z","","","","","","","","","","","ControlQ","","50","","","","","","","","","","","","","","","","","","","","","","","","","","","","",""
"1478","","<div style=""width:500px;"">
  <p>How would you describe your current emotional state?</p>
  </div>","0","html-slider-response","27","301603","0.0-5.0-3.3","312","1","2025-08-03 14:10:52","1f75c3e559b7213887762d5229550c2b","89.245.26.245","Mozilla/5.0 (Windows NT 10.0; Win64; x64) AppleWebKit/537.36 (KHTML, like Gecko) Chrome/135.0.0.0 Safari/537.36 OPR/120.0.0.0","WebKit","Opera","120.0.0.0","Windows","10.0","https://app.prolific.com/","de-DE,de;q=0.9,en-US;q=0.8,en;q=0.7,zh-CN;q=0.6,zh;q=0.5,ja;q=0.4","6565f2ba13586fa869dd3b28","6877631c9844ddd5501205fc","688f6de69f171ef93f27494a","3","1","6565f2ba13586fa869dd3b28","3","1","2025-08-03T14:15:47.961Z","","","","","","","","","","","StressQ","","50","","","","","","","","","","","","","","","","","","","","","","","","","","","","",""
"1575","","<div style=""width:500px;"">
  <p>What best describes how you currently feel?</p>
  </div>","100","html-slider-response","28","303179","0.0-5.0-4.3","312","1","2025-08-03 14:10:52","1f75c3e559b7213887762d5229550c2b","89.245.26.245","Mozilla/5.0 (Windows NT 10.0; Win64; x64) AppleWebKit/537.36 (KHTML, like Gecko) Chrome/135.0.0.0 Safari/537.36 OPR/120.0.0.0","WebKit","Opera","120.0.0.0","Windows","10.0","https://app.prolific.com/","de-DE,de;q=0.9,en-US;q=0.8,en;q=0.7,zh-CN;q=0.6,zh;q=0.5,ja;q=0.4","6565f2ba13586fa869dd3b28","6877631c9844ddd5501205fc","688f6de69f171ef93f27494a","3","1","6565f2ba13586fa869dd3b28","3","1","2025-08-03T14:15:49.537Z","","","","","","","","","","","MotivationQ","","50","","","","","","","","","","","","","","","","","","","","","","","","","","","","",""
"","","","","ctl-task-cpt","29","321993","0.0-5.0-0.4","312","1","2025-08-03 14:10:52","1f75c3e559b7213887762d5229550c2b","89.245.26.245","Mozilla/5.0 (Windows NT 10.0; Win64; x64) AppleWebKit/537.36 (KHTML, like Gecko) Chrome/135.0.0.0 Safari/537.36 OPR/120.0.0.0","WebKit","Opera","120.0.0.0","Windows","10.0","https://app.prolific.com/","de-DE,de;q=0.9,en-US;q=0.8,en;q=0.7,zh-CN;q=0.6,zh;q=0.5,ja;q=0.4","6565f2ba13586fa869dd3b28","6877631c9844ddd5501205fc","688f6de69f171ef93f27494a","3","1","6565f2ba13586fa869dd3b28","3","1","2025-08-03T14:16:08.351Z","","","","","","","","","","","","","","win-only","3","g1:SW,g2:NE","0.6","5","0","304081.8","1539.2","6540.4","15795.1","1","4","8","6","1","1","1","11","10","0.08333333333333333","3006.6","3000","1825","[""down"",""left""]","{""num_key_presses"":4,""num_perfect"":4,""num_errors"":0,""num_randdir"":0,""num_randdir_good_moves"":0,""num_whilered"":0,""num_whileblue"":0,""num_blue"":0,""num_good_moves"":4}","[405.57142857142856,418.47767857142856,0.1,405.57142857142856,420.47767857142856,107.5,405.57142857142856,420.47767857142856,211.5,405.57142857142856,420.47767857142856,311.6,405.57142857142856,420.47767857142856,411.7,405.57142857142856,418.47767857142856,521.8,423.57142857142856,404.47767857142856,627,515.5714285714286,324.47767857142856,729.3,623.5714285714286,214.47767857142856,835.3,671.5714285714286,176.47767857142856,939.6,577.5714285714286,292.47767857142856,1039.8,241.57142857142856,532.4776785714286,1141.3,205.57142857142856,576.4776785714286,1241.4,259.57142857142856,574.4776785714286,1341.5,715.5714285714286,298.47767857142856,1441.6,781.5714285714286,86.47767857142857,1546.6,773.5714285714286,44.47767857142857,1651.2,771.5714285714286,42.47767857142857,1751.2,769.5714285714286,58.47767857142857,1853,765.5714285714286,70.47767857142857,1956.1,765.5714285714286,70.47767857142857,2056.2,765.5714285714286,70.47767857142857,2156.3,765.5714285714286,70.47767857142857,2256.4,765.5714285714286,70.47767857142857,2356.5,763.5714285714286,70.47767857142857,2456.6,725.5714285714286,98.47767857142857,2556.7,181.57142857142856,466.47767857142856,2661,137.57142857142856,566.4776785714286,2761.4,125.57142857142857,644.4776785714286,2861.5,79.57142857142857,706.4776785714286,2961.5,69.57142857142857,718.4776785714286,3061.7,69.57142857142857,718.4776785714286,3166.5,37.57142857142857,666.4776785714286,3270.3,23.57142857142857,630.4776785714286,3371.1,31.57142857142857,622.4776785714286,3471.2,31.57142857142857,622.4776785714286,3571.3,31.57142857142857,622.4776785714286,3671.3,31.57142857142857,622.4776785714286,3771.4,31.57142857142857,622.4776785714286,3871.5,31.57142857142857,622.4776785714286,3971.6,31.57142857142857,622.4776785714286,4071.6,31.57142857142857,622.4776785714286,4175.9,31.57142857142857,622.4776785714286,4276,31.57142857142857,622.4776785714286,4376,31.57142857142857,622.4776785714286,4476.1,31.57142857142857,622.4776785714286,4576.1,31.57142857142857,622.4776785714286,4676.2,31.57142857142857,622.4776785714286,4776.3,31.57142857142857,622.4776785714286,4876.6,31.57142857142857,622.4776785714286,4981.1]","[1320.6,1320.6,1000,0,320.6,""smooth"",""left"",""left"",""good_move"",3359.6,2038.7,1702.4,1320.9,336.3,""smooth"",""down"",""down"",""good_move"",5919.3,2559.4,2199.4,3359.9,360,""smooth"",""left"",""left"",""good_move"",9153.6,3234.1,2904.3,5919.5,329.8,""smooth"",""down"",""down"",""good_move""]","",""
"1830","","<div style=""width:500px;"">
  <p>What determined the result of this run?</p>
  </div>","0","html-slider-response","30","323824","0.0-5.0-1.4","312","1","2025-08-03 14:10:52","1f75c3e559b7213887762d5229550c2b","89.245.26.245","Mozilla/5.0 (Windows NT 10.0; Win64; x64) AppleWebKit/537.36 (KHTML, like Gecko) Chrome/135.0.0.0 Safari/537.36 OPR/120.0.0.0","WebKit","Opera","120.0.0.0","Windows","10.0","https://app.prolific.com/","de-DE,de;q=0.9,en-US;q=0.8,en;q=0.7,zh-CN;q=0.6,zh;q=0.5,ja;q=0.4","6565f2ba13586fa869dd3b28","6877631c9844ddd5501205fc","688f6de69f171ef93f27494a","3","1","6565f2ba13586fa869dd3b28","3","1","2025-08-03T14:16:10.182Z","","","","","","","","","","","AttribQ","","50","","","","","","","","","","","","","","","","","","","","","","","","","","","","",""
"2744","","<div style=""width:500px;"">
  <p>How much control did you have over the ball?</p>
  </div>","100","html-slider-response","31","326569","0.0-5.0-2.4","312","1","2025-08-03 14:10:52","1f75c3e559b7213887762d5229550c2b","89.245.26.245","Mozilla/5.0 (Windows NT 10.0; Win64; x64) AppleWebKit/537.36 (KHTML, like Gecko) Chrome/135.0.0.0 Safari/537.36 OPR/120.0.0.0","WebKit","Opera","120.0.0.0","Windows","10.0","https://app.prolific.com/","de-DE,de;q=0.9,en-US;q=0.8,en;q=0.7,zh-CN;q=0.6,zh;q=0.5,ja;q=0.4","6565f2ba13586fa869dd3b28","6877631c9844ddd5501205fc","688f6de69f171ef93f27494a","3","1","6565f2ba13586fa869dd3b28","3","1","2025-08-03T14:16:12.927Z","","","","","","","","","","","ControlQ","","50","","","","","","","","","","","","","","","","","","","","","","","","","","","","",""
"1531","","<div style=""width:500px;"">
  <p>How would you describe your current emotional state?</p>
  </div>","0","html-slider-response","32","328101","0.0-5.0-3.4","312","1","2025-08-03 14:10:52","1f75c3e559b7213887762d5229550c2b","89.245.26.245","Mozilla/5.0 (Windows NT 10.0; Win64; x64) AppleWebKit/537.36 (KHTML, like Gecko) Chrome/135.0.0.0 Safari/537.36 OPR/120.0.0.0","WebKit","Opera","120.0.0.0","Windows","10.0","https://app.prolific.com/","de-DE,de;q=0.9,en-US;q=0.8,en;q=0.7,zh-CN;q=0.6,zh;q=0.5,ja;q=0.4","6565f2ba13586fa869dd3b28","6877631c9844ddd5501205fc","688f6de69f171ef93f27494a","3","1","6565f2ba13586fa869dd3b28","3","1","2025-08-03T14:16:14.459Z","","","","","","","","","","","StressQ","","50","","","","","","","","","","","","","","","","","","","","","","","","","","","","",""
"1288","","<div style=""width:500px;"">
  <p>What best describes how you currently feel?</p>
  </div>","100","html-slider-response","33","329390","0.0-5.0-4.4","312","1","2025-08-03 14:10:52","1f75c3e559b7213887762d5229550c2b","89.245.26.245","Mozilla/5.0 (Windows NT 10.0; Win64; x64) AppleWebKit/537.36 (KHTML, like Gecko) Chrome/135.0.0.0 Safari/537.36 OPR/120.0.0.0","WebKit","Opera","120.0.0.0","Windows","10.0","https://app.prolific.com/","de-DE,de;q=0.9,en-US;q=0.8,en;q=0.7,zh-CN;q=0.6,zh;q=0.5,ja;q=0.4","6565f2ba13586fa869dd3b28","6877631c9844ddd5501205fc","688f6de69f171ef93f27494a","3","1","6565f2ba13586fa869dd3b28","3","1","2025-08-03T14:16:15.748Z","","","","","","","","","","","MotivationQ","","50","","","","","","","","","","","","","","","","","","","","","","","","","","","","",""
"","","","","ctl-task-cpt","34","366510","0.0-5.0-0.5","312","1","2025-08-03 14:10:52","1f75c3e559b7213887762d5229550c2b","89.245.26.245","Mozilla/5.0 (Windows NT 10.0; Win64; x64) AppleWebKit/537.36 (KHTML, like Gecko) Chrome/135.0.0.0 Safari/537.36 OPR/120.0.0.0","WebKit","Opera","120.0.0.0","Windows","10.0","https://app.prolific.com/","de-DE,de;q=0.9,en-US;q=0.8,en;q=0.7,zh-CN;q=0.6,zh;q=0.5,ja;q=0.4","6565f2ba13586fa869dd3b28","6877631c9844ddd5501205fc","688f6de69f171ef93f27494a","3","1","6565f2ba13586fa869dd3b28","3","1","2025-08-03T14:16:52.868Z","","","","","","","","","","","","","","win-only","1","g1:NE,g2:SW","0.5","6","0","330292.6","821","5826","34102","1","4","4","6","2","-4","-4","7","11","0.05303030303030303","916.9","3000","-2405","[""down"",""left""]","{""num_key_presses"":7,""num_perfect"":4,""num_errors"":0,""num_randdir"":3,""num_randdir_good_moves"":1,""num_whilered"":0,""num_whileblue"":0,""num_blue"":2,""num_good_moves"":5}","[421.57142857142856,420.47767857142856,0.2,421.57142857142856,420.47767857142856,104.5,421.57142857142856,420.47767857142856,204.6,421.57142857142856,420.47767857142856,304.6,421.57142857142856,422.47767857142856,404.7,263.57142857142856,568.4776785714286,515,5.571428571428569,730.4776785714286,616,-2.4285714285714306,736.4776785714286,719.6,49.57142857142857,764.4776785714286,819.7,57.57142857142857,768.4776785714286,923.8,57.57142857142857,768.4776785714286,1031,45.57142857142857,722.4776785714286,1134.6,13.57142857142857,650.4776785714286,1234.6,25.57142857142857,630.4776785714286,1348.8,25.57142857142857,630.4776785714286,1449,25.57142857142857,630.4776785714286,1554.4,25.57142857142857,630.4776785714286,1659.4,25.57142857142857,630.4776785714286,1763,25.57142857142857,630.4776785714286,1863.2,25.57142857142857,630.4776785714286,1964.2,25.57142857142857,630.4776785714286,2064.3,25.57142857142857,630.4776785714286,2164.8,25.57142857142857,630.4776785714286,2269.6,25.57142857142857,630.4776785714286,2383.8,25.57142857142857,630.4776785714286,2484.4,25.57142857142857,630.4776785714286,2584.6,25.57142857142857,630.4776785714286,2684.6,25.57142857142857,630.4776785714286,2784.7,25.57142857142857,630.4776785714286,2889.3,25.57142857142857,630.4776785714286,3005.2,25.57142857142857,630.4776785714286,3117.4,25.57142857142857,630.4776785714286,3220.1,25.57142857142857,630.4776785714286,3323.5,25.57142857142857,630.4776785714286,3424.3,25.57142857142857,630.4776785714286,3529.5,25.57142857142857,630.4776785714286,3629.6,25.57142857142857,630.4776785714286,3735.7,25.57142857142857,630.4776785714286,3839.4,25.57142857142857,630.4776785714286,3939.5,25.57142857142857,630.4776785714286,4053.2,25.57142857142857,630.4776785714286,4154.2,25.57142857142857,630.4776785714286,4254.3,25.57142857142857,630.4776785714286,4354.4,25.57142857142857,630.4776785714286,4454.5,25.57142857142857,630.4776785714286,4556.9,25.57142857142857,630.4776785714286,4663.5,25.57142857142857,630.4776785714286,4764.5,25.57142857142857,630.4776785714286,4864.7,25.57142857142857,630.4776785714286,4964.8]","[1357.3,1357.3,1000,0,357.3,""oops"",""left"",""up"",""bad_move"",3707.7,2350.1,1474.3,1357.6,875.8,""oops"",""down"",""left"",""good_move"",13139.3,9431.3,2282.2,10509.7,347.4,""smooth"",""down"",""down"",""good_move"",15947,2807.6,2443,13139.4,364.6,""smooth"",""down"",""down"",""good_move"",18660.1,2712.8,2359.4,15947.3,353.4,""oops"",""left"",""up"",""bad_move"",21459.2,2798.8,2453.1,18660.4,345.7,""smooth"",""down"",""down"",""good_move"",25033.1,3573.7,2901.8,21459.4,671.9,""smooth"",""down"",""down"",""good_move""]","",""
"5397","","<div style=""width:500px;"">
  <p>What determined the result of this run?</p>
  </div>","0","html-slider-response","35","371908","0.0-5.0-1.5","312","1","2025-08-03 14:10:52","1f75c3e559b7213887762d5229550c2b","89.245.26.245","Mozilla/5.0 (Windows NT 10.0; Win64; x64) AppleWebKit/537.36 (KHTML, like Gecko) Chrome/135.0.0.0 Safari/537.36 OPR/120.0.0.0","WebKit","Opera","120.0.0.0","Windows","10.0","https://app.prolific.com/","de-DE,de;q=0.9,en-US;q=0.8,en;q=0.7,zh-CN;q=0.6,zh;q=0.5,ja;q=0.4","6565f2ba13586fa869dd3b28","6877631c9844ddd5501205fc","688f6de69f171ef93f27494a","3","1","6565f2ba13586fa869dd3b28","3","1","2025-08-03T14:16:58.266Z","","","","","","","","","","","AttribQ","","50","","","","","","","","","","","","","","","","","","","","","","","","","","","","",""
"3492","","<div style=""width:500px;"">
  <p>How much control did you have over the ball?</p>
  </div>","19","html-slider-response","36","375401","0.0-5.0-2.5","312","1","2025-08-03 14:10:52","1f75c3e559b7213887762d5229550c2b","89.245.26.245","Mozilla/5.0 (Windows NT 10.0; Win64; x64) AppleWebKit/537.36 (KHTML, like Gecko) Chrome/135.0.0.0 Safari/537.36 OPR/120.0.0.0","WebKit","Opera","120.0.0.0","Windows","10.0","https://app.prolific.com/","de-DE,de;q=0.9,en-US;q=0.8,en;q=0.7,zh-CN;q=0.6,zh;q=0.5,ja;q=0.4","6565f2ba13586fa869dd3b28","6877631c9844ddd5501205fc","688f6de69f171ef93f27494a","3","1","6565f2ba13586fa869dd3b28","3","1","2025-08-03T14:17:01.759Z","","","","","","","","","","","ControlQ","","50","","","","","","","","","","","","","","","","","","","","","","","","","","","","",""
"2906","","<div style=""width:500px;"">
  <p>How would you describe your current emotional state?</p>
  </div>","7","html-slider-response","37","378308","0.0-5.0-3.5","312","1","2025-08-03 14:10:52","1f75c3e559b7213887762d5229550c2b","89.245.26.245","Mozilla/5.0 (Windows NT 10.0; Win64; x64) AppleWebKit/537.36 (KHTML, like Gecko) Chrome/135.0.0.0 Safari/537.36 OPR/120.0.0.0","WebKit","Opera","120.0.0.0","Windows","10.0","https://app.prolific.com/","de-DE,de;q=0.9,en-US;q=0.8,en;q=0.7,zh-CN;q=0.6,zh;q=0.5,ja;q=0.4","6565f2ba13586fa869dd3b28","6877631c9844ddd5501205fc","688f6de69f171ef93f27494a","3","1","6565f2ba13586fa869dd3b28","3","1","2025-08-03T14:17:04.666Z","","","","","","","","","","","StressQ","","50","","","","","","","","","","","","","","","","","","","","","","","","","","","","",""
"1833","","<div style=""width:500px;"">
  <p>What best describes how you currently feel?</p>
  </div>","84","html-slider-response","38","380142","0.0-5.0-4.5","312","1","2025-08-03 14:10:52","1f75c3e559b7213887762d5229550c2b","89.245.26.245","Mozilla/5.0 (Windows NT 10.0; Win64; x64) AppleWebKit/537.36 (KHTML, like Gecko) Chrome/135.0.0.0 Safari/537.36 OPR/120.0.0.0","WebKit","Opera","120.0.0.0","Windows","10.0","https://app.prolific.com/","de-DE,de;q=0.9,en-US;q=0.8,en;q=0.7,zh-CN;q=0.6,zh;q=0.5,ja;q=0.4","6565f2ba13586fa869dd3b28","6877631c9844ddd5501205fc","688f6de69f171ef93f27494a","3","1","6565f2ba13586fa869dd3b28","3","1","2025-08-03T14:17:06.500Z","","","","","","","","","","","MotivationQ","","50","","","","","","","","","","","","","","","","","","","","","","","","","","","","",""
"","","","","ctl-task-cpt","39","430147","0.0-5.0-0.6","312","1","2025-08-03 14:10:52","1f75c3e559b7213887762d5229550c2b","89.245.26.245","Mozilla/5.0 (Windows NT 10.0; Win64; x64) AppleWebKit/537.36 (KHTML, like Gecko) Chrome/135.0.0.0 Safari/537.36 OPR/120.0.0.0","WebKit","Opera","120.0.0.0","Windows","10.0","https://app.prolific.com/","de-DE,de;q=0.9,en-US;q=0.8,en;q=0.7,zh-CN;q=0.6,zh;q=0.5,ja;q=0.4","6565f2ba13586fa869dd3b28","6877631c9844ddd5501205fc","688f6de69f171ef93f27494a","3","1","6565f2ba13586fa869dd3b28","3","1","2025-08-03T14:17:56.505Z","","","","","","","","","","","","","","win-only","2","g1:SE,g2:NW","0.4","7","0","381044.5","786.2","5790.6","46975.9","1","4","4","6","2","-4","-4","3","7","0.022727272727272728","3179.9","3000","-2685","[""left"",""up""]","{""num_key_presses"":9,""num_perfect"":3,""num_errors"":0,""num_randdir"":6,""num_randdir_good_moves"":4,""num_whilered"":0,""num_whileblue"":0,""num_blue"":4,""num_good_moves"":7}","[413.57142857142856,416.47767857142856,0,413.57142857142856,416.47767857142856,104.2,413.57142857142856,416.47767857142856,204.3,413.57142857142856,416.47767857142856,304.4,413.57142857142856,416.47767857142856,404.5,413.57142857142856,416.47767857142856,504.6,333.57142857142856,344.47767857142856,604.6,57.57142857142857,152.47767857142856,704.7,35.57142857142857,128.47767857142856,804.9,79.57142857142857,96.47767857142857,904.9,87.57142857142857,90.47767857142857,1009.1,87.57142857142857,90.47767857142857,1109.2,87.57142857142857,90.47767857142857,1209.3,87.57142857142857,90.47767857142857,1309.3,87.57142857142857,90.47767857142857,1409.3,87.57142857142857,90.47767857142857,1509.4,87.57142857142857,90.47767857142857,1612.1,87.57142857142857,90.47767857142857,1714.6,87.57142857142857,90.47767857142857,1815.4,87.57142857142857,90.47767857142857,1919.8,87.57142857142857,90.47767857142857,2019.9,87.57142857142857,90.47767857142857,2124.3,87.57142857142857,90.47767857142857,2224.9,87.57142857142857,90.47767857142857,2329.6,87.57142857142857,90.47767857142857,2429.7,87.57142857142857,90.47767857142857,2534.4,87.57142857142857,90.47767857142857,2634.5,87.57142857142857,90.47767857142857,2734.6,87.57142857142857,90.47767857142857,2834.7,87.57142857142857,88.47767857142857,2936.3,87.57142857142857,88.47767857142857,3039.9,87.57142857142857,88.47767857142857,3139.9,87.57142857142857,88.47767857142857,3244.2,87.57142857142857,88.47767857142857,3345.2,87.57142857142857,88.47767857142857,3449.8,87.57142857142857,88.47767857142857,3550,87.57142857142857,88.47767857142857,3653.3,87.57142857142857,88.47767857142857,3755.6,87.57142857142857,88.47767857142857,3864.3,87.57142857142857,88.47767857142857,3969.1,-12.42857142857143,70.47767857142857,4069.3,-278.42857142857144,70.47767857142857,4169.3,-280.42857142857144,70.47767857142857,4279.2,-276.42857142857144,74.47767857142857,4390,-266.42857142857144,84.47767857142857,4495.2,-266.42857142857144,84.47767857142857,4596.6,-264.42857142857144,84.47767857142857,4697.8,-264.42857142857144,86.47767857142857,4803.9,-262.42857142857144,86.47767857142857,4904.1]","[1324.7,1324.7,1000,0,324.7,""smooth"",""up"",""up"",""good_move"",4461.7,3136.7,2806.4,1325,330.3,""smooth"",""up"",""up"",""good_move"",13812.8,9350.8,2896.8,10604.6,311.4,""oops"",""left"",""left"",""good_move"",16274.6,2461.6,2100.4,13813,361.2,""oops"",""left"",""up"",""good_move"",19318.6,3043.8,2721.4,16274.8,322.4,""oops"",""left"",""down"",""bad_move"",21877.5,2558.6,2259.1,19318.9,299.5,""oops"",""left"",""left"",""good_move"",24692.7,2814.9,2512.3,21877.8,302.6,""oops"",""left"",""down"",""bad_move"",35190.6,10497.7,2522.4,32325.1,343.1,""smooth"",""up"",""up"",""good_move"",38324.6,3133.8,2864.9,35190.8,268.9,""oops"",""left"",""up"",""good_move""]","",""
"2551","","<div style=""width:500px;"">
  <p>What determined the result of this run?</p>
  </div>","7","html-slider-response","40","432698","0.0-5.0-1.6","312","1","2025-08-03 14:10:52","1f75c3e559b7213887762d5229550c2b","89.245.26.245","Mozilla/5.0 (Windows NT 10.0; Win64; x64) AppleWebKit/537.36 (KHTML, like Gecko) Chrome/135.0.0.0 Safari/537.36 OPR/120.0.0.0","WebKit","Opera","120.0.0.0","Windows","10.0","https://app.prolific.com/","de-DE,de;q=0.9,en-US;q=0.8,en;q=0.7,zh-CN;q=0.6,zh;q=0.5,ja;q=0.4","6565f2ba13586fa869dd3b28","6877631c9844ddd5501205fc","688f6de69f171ef93f27494a","3","1","6565f2ba13586fa869dd3b28","3","1","2025-08-03T14:17:59.057Z","","","","","","","","","","","AttribQ","","50","","","","","","","","","","","","","","","","","","","","","","","","","","","","",""
"2238","","<div style=""width:500px;"">
  <p>How much control did you have over the ball?</p>
  </div>","13","html-slider-response","41","434937","0.0-5.0-2.6","312","1","2025-08-03 14:10:52","1f75c3e559b7213887762d5229550c2b","89.245.26.245","Mozilla/5.0 (Windows NT 10.0; Win64; x64) AppleWebKit/537.36 (KHTML, like Gecko) Chrome/135.0.0.0 Safari/537.36 OPR/120.0.0.0","WebKit","Opera","120.0.0.0","Windows","10.0","https://app.prolific.com/","de-DE,de;q=0.9,en-US;q=0.8,en;q=0.7,zh-CN;q=0.6,zh;q=0.5,ja;q=0.4","6565f2ba13586fa869dd3b28","6877631c9844ddd5501205fc","688f6de69f171ef93f27494a","3","1","6565f2ba13586fa869dd3b28","3","1","2025-08-03T14:18:01.295Z","","","","","","","","","","","ControlQ","","50","","","","","","","","","","","","","","","","","","","","","","","","","","","","",""
"1698","","<div style=""width:500px;"">
  <p>How would you describe your current emotional state?</p>
  </div>","74","html-slider-response","42","436636","0.0-5.0-3.6","312","1","2025-08-03 14:10:52","1f75c3e559b7213887762d5229550c2b","89.245.26.245","Mozilla/5.0 (Windows NT 10.0; Win64; x64) AppleWebKit/537.36 (KHTML, like Gecko) Chrome/135.0.0.0 Safari/537.36 OPR/120.0.0.0","WebKit","Opera","120.0.0.0","Windows","10.0","https://app.prolific.com/","de-DE,de;q=0.9,en-US;q=0.8,en;q=0.7,zh-CN;q=0.6,zh;q=0.5,ja;q=0.4","6565f2ba13586fa869dd3b28","6877631c9844ddd5501205fc","688f6de69f171ef93f27494a","3","1","6565f2ba13586fa869dd3b28","3","1","2025-08-03T14:18:02.994Z","","","","","","","","","","","StressQ","","50","","","","","","","","","","","","","","","","","","","","","","","","","","","","",""
"2958","","<div style=""width:500px;"">
  <p>What best describes how you currently feel?</p>
  </div>","65","html-slider-response","43","439595","0.0-5.0-4.6","312","1","2025-08-03 14:10:52","1f75c3e559b7213887762d5229550c2b","89.245.26.245","Mozilla/5.0 (Windows NT 10.0; Win64; x64) AppleWebKit/537.36 (KHTML, like Gecko) Chrome/135.0.0.0 Safari/537.36 OPR/120.0.0.0","WebKit","Opera","120.0.0.0","Windows","10.0","https://app.prolific.com/","de-DE,de;q=0.9,en-US;q=0.8,en;q=0.7,zh-CN;q=0.6,zh;q=0.5,ja;q=0.4","6565f2ba13586fa869dd3b28","6877631c9844ddd5501205fc","688f6de69f171ef93f27494a","3","1","6565f2ba13586fa869dd3b28","3","1","2025-08-03T14:18:05.953Z","","","","","","","","","","","MotivationQ","","50","","","","","","","","","","","","","","","","","","","","","","","","","","","","",""
"","","","","ctl-task-cpt","44","483438","0.0-5.0-0.7","312","1","2025-08-03 14:10:52","1f75c3e559b7213887762d5229550c2b","89.245.26.245","Mozilla/5.0 (Windows NT 10.0; Win64; x64) AppleWebKit/537.36 (KHTML, like Gecko) Chrome/135.0.0.0 Safari/537.36 OPR/120.0.0.0","WebKit","Opera","120.0.0.0","Windows","10.0","https://app.prolific.com/","de-DE,de;q=0.9,en-US;q=0.8,en;q=0.7,zh-CN;q=0.6,zh;q=0.5,ja;q=0.4","6565f2ba13586fa869dd3b28","6877631c9844ddd5501205fc","688f6de69f171ef93f27494a","3","1","6565f2ba13586fa869dd3b28","3","1","2025-08-03T14:18:49.796Z","","","","","","","","","","","","","","win-only","1","g1:NE,g2:SW","0.3","8","0","440497.5","665","5665.5","40825.6","1","4","8","6","2","-8","-9","0","3","0","1282.8","3000","-3015","[""down"",""left""]","{""num_key_presses"":11,""num_perfect"":3,""num_errors"":1,""num_randdir"":7,""num_randdir_good_moves"":4,""num_whilered"":0,""num_whileblue"":1,""num_blue"":2,""num_good_moves"":7}","[419.57142857142856,414.47767857142856,0.1,419.57142857142856,414.47767857142856,100.4,419.57142857142856,414.47767857142856,200.6,419.57142857142856,414.47767857142856,300.6,419.57142857142856,414.47767857142856,400.7,419.57142857142856,414.47767857142856,500.8,399.57142857142856,440.47767857142856,605.4,119.57142857142857,650.4776785714286,708.6,99.57142857142857,662.4776785714286,810.6,91.57142857142857,664.4776785714286,917.6,87.57142857142857,682.4776785714286,1020.2,77.57142857142857,704.4776785714286,1124.2,65.57142857142857,730.4776785714286,1225.6,63.57142857142857,732.4776785714286,1334.5,63.57142857142857,732.4776785714286,1435.8,51.57142857142857,732.4776785714286,1535.9,-22.42857142857143,724.4776785714286,1640.3,-22.42857142857143,724.4776785714286,1740.4,-22.42857142857143,724.4776785714286,1840.7,-22.42857142857143,724.4776785714286,1940.8,-22.42857142857143,724.4776785714286,2040.8,-22.42857142857143,724.4776785714286,2150,-22.42857142857143,724.4776785714286,2258.6,-22.42857142857143,724.4776785714286,2361.1,-22.42857142857143,724.4776785714286,2466.7,-22.42857142857143,724.4776785714286,2567.4,-22.42857142857143,724.4776785714286,2675.2,-22.42857142857143,724.4776785714286,2775.5,-22.42857142857143,724.4776785714286,2875.5,-22.42857142857143,724.4776785714286,2975.7,-22.42857142857143,724.4776785714286,3075.7,-22.42857142857143,724.4776785714286,3186.7,-22.42857142857143,724.4776785714286,3290.2,-22.42857142857143,724.4776785714286,3390.3,-22.42857142857143,724.4776785714286,3491.1,-22.42857142857143,724.4776785714286,3595.5,-22.42857142857143,724.4776785714286,3699.5,-22.42857142857143,724.4776785714286,3800.1,-22.42857142857143,724.4776785714286,3901.1,-22.42857142857143,724.4776785714286,4005.5,-22.42857142857143,724.4776785714286,4105.6,-22.42857142857143,724.4776785714286,4205.7,-22.42857142857143,724.4776785714286,4305.8,-22.42857142857143,724.4776785714286,4410.9,-22.42857142857143,724.4776785714286,4516.3,-22.42857142857143,724.4776785714286,4620.3,-22.42857142857143,724.4776785714286,4720.5,-22.42857142857143,724.4776785714286,4833.9,-22.42857142857143,724.4776785714286,4935.4]","[1361.8,1361.8,1000,0,361.8,""smooth"",""left"",""left"",""good_move"",4302.6,2940.5,2645.4,1362.1,295.1,""oops"",""down"",""up"",""bad_move"",6295.8,1992.9,1703.5,4302.9,289.4,""oops"",""down"",""down"",""good_move"",9373.5,3077.6,2772.9,6295.9,304.7,""smooth"",""down"",""down"",""good_move"",11550.8,2177,1919,9373.8,258,""oops"",""down"",""up"",""bad_move"",14607,3056,2795.2,11551,260.8,""oops"",""down"",""left"",""good_move"",18013.7,3406.5,3154.8,14607.2,251.7,""oops"",""down"",""left"",""good_move"",21444.8,3430.8,3177.5,18014,253.3,""smooth"",""down"",""down"",""good_move"",24234.9,2789.6,2502.2,21445.3,287.4,""oops"",""down"",""down"",""good_move"",26846.7,2611.7,2364.8,24235,246.9,""oops"",""down"",""right"",""bad_move"",29266.6,2419.6,2188.2,26847,231.4,""while_blue"",""down"",""right"",""bad_move""]","",""
"1803","","<div style=""width:500px;"">
  <p>What determined the result of this run?</p>
  </div>","2","html-slider-response","45","485242","0.0-5.0-1.7","312","1","2025-08-03 14:10:52","1f75c3e559b7213887762d5229550c2b","89.245.26.245","Mozilla/5.0 (Windows NT 10.0; Win64; x64) AppleWebKit/537.36 (KHTML, like Gecko) Chrome/135.0.0.0 Safari/537.36 OPR/120.0.0.0","WebKit","Opera","120.0.0.0","Windows","10.0","https://app.prolific.com/","de-DE,de;q=0.9,en-US;q=0.8,en;q=0.7,zh-CN;q=0.6,zh;q=0.5,ja;q=0.4","6565f2ba13586fa869dd3b28","6877631c9844ddd5501205fc","688f6de69f171ef93f27494a","3","1","6565f2ba13586fa869dd3b28","3","1","2025-08-03T14:18:51.600Z","","","","","","","","","","","AttribQ","","50","","","","","","","","","","","","","","","","","","","","","","","","","","","","",""
"2237","","<div style=""width:500px;"">
  <p>How much control did you have over the ball?</p>
  </div>","11","html-slider-response","46","487480","0.0-5.0-2.7","312","1","2025-08-03 14:10:52","1f75c3e559b7213887762d5229550c2b","89.245.26.245","Mozilla/5.0 (Windows NT 10.0; Win64; x64) AppleWebKit/537.36 (KHTML, like Gecko) Chrome/135.0.0.0 Safari/537.36 OPR/120.0.0.0","WebKit","Opera","120.0.0.0","Windows","10.0","https://app.prolific.com/","de-DE,de;q=0.9,en-US;q=0.8,en;q=0.7,zh-CN;q=0.6,zh;q=0.5,ja;q=0.4","6565f2ba13586fa869dd3b28","6877631c9844ddd5501205fc","688f6de69f171ef93f27494a","3","1","6565f2ba13586fa869dd3b28","3","1","2025-08-03T14:18:53.838Z","","","","","","","","","","","ControlQ","","50","","","","","","","","","","","","","","","","","","","","","","","","","","","","",""
"2053","","<div style=""width:500px;"">
  <p>How would you describe your current emotional state?</p>
  </div>","59","html-slider-response","47","489534","0.0-5.0-3.7","312","1","2025-08-03 14:10:52","1f75c3e559b7213887762d5229550c2b","89.245.26.245","Mozilla/5.0 (Windows NT 10.0; Win64; x64) AppleWebKit/537.36 (KHTML, like Gecko) Chrome/135.0.0.0 Safari/537.36 OPR/120.0.0.0","WebKit","Opera","120.0.0.0","Windows","10.0","https://app.prolific.com/","de-DE,de;q=0.9,en-US;q=0.8,en;q=0.7,zh-CN;q=0.6,zh;q=0.5,ja;q=0.4","6565f2ba13586fa869dd3b28","6877631c9844ddd5501205fc","688f6de69f171ef93f27494a","3","1","6565f2ba13586fa869dd3b28","3","1","2025-08-03T14:18:55.892Z","","","","","","","","","","","StressQ","","50","","","","","","","","","","","","","","","","","","","","","","","","","","","","",""
"1702","","<div style=""width:500px;"">
  <p>What best describes how you currently feel?</p>
  </div>","54","html-slider-response","48","491237","0.0-5.0-4.7","312","1","2025-08-03 14:10:52","1f75c3e559b7213887762d5229550c2b","89.245.26.245","Mozilla/5.0 (Windows NT 10.0; Win64; x64) AppleWebKit/537.36 (KHTML, like Gecko) Chrome/135.0.0.0 Safari/537.36 OPR/120.0.0.0","WebKit","Opera","120.0.0.0","Windows","10.0","https://app.prolific.com/","de-DE,de;q=0.9,en-US;q=0.8,en;q=0.7,zh-CN;q=0.6,zh;q=0.5,ja;q=0.4","6565f2ba13586fa869dd3b28","6877631c9844ddd5501205fc","688f6de69f171ef93f27494a","3","1","6565f2ba13586fa869dd3b28","3","1","2025-08-03T14:18:57.595Z","","","","","","","","","","","MotivationQ","","50","","","","","","","","","","","","","","","","","","","","","","","","","","","","",""
"","","","","ctl-task-cpt","49","515062","0.0-5.0-0.8","312","1","2025-08-03 14:10:52","1f75c3e559b7213887762d5229550c2b","89.245.26.245","Mozilla/5.0 (Windows NT 10.0; Win64; x64) AppleWebKit/537.36 (KHTML, like Gecko) Chrome/135.0.0.0 Safari/537.36 OPR/120.0.0.0","WebKit","Opera","120.0.0.0","Windows","10.0","https://app.prolific.com/","de-DE,de;q=0.9,en-US;q=0.8,en;q=0.7,zh-CN;q=0.6,zh;q=0.5,ja;q=0.4","6565f2ba13586fa869dd3b28","6877631c9844ddd5501205fc","688f6de69f171ef93f27494a","3","1","6565f2ba13586fa869dd3b28","3","1","2025-08-03T14:19:21.420Z","","","","","","","","","","","","","","win-only","3","g1:SW,g2:NE","0.2","9","0","492140","794.5","5795.9","20805.8","1","4","4","6","1","1","1","1","0","0.007575757575757576","1818.8","3000","1835","[""down"",""left""]","{""num_key_presses"":4,""num_perfect"":2,""num_errors"":0,""num_randdir"":2,""num_randdir_good_moves"":2,""num_whilered"":0,""num_whileblue"":0,""num_blue"":1,""num_good_moves"":4}","[419.57142857142856,410.47767857142856,0.2,419.57142857142856,410.47767857142856,101.3,419.57142857142856,410.47767857142856,201.4,419.57142857142856,410.47767857142856,318.1,419.57142857142856,410.47767857142856,420.7,423.57142857142856,414.47767857142856,520.8,425.57142857142856,418.47767857142856,622,459.57142857142856,420.47767857142856,725.9,685.5714285714286,236.47767857142856,826.5,813.5714285714286,98.47767857142857,930.9,821.5714285714286,60.47767857142857,1031.3,803.5714285714286,60.47767857142857,1136.2,773.5714285714286,60.47767857142857,1241.4,773.5714285714286,64.47767857142857,1346.3,393.57142857142856,358.47767857142856,1451.7,1.5714285714285694,690.4776785714286,1555.8,13.57142857142857,708.4776785714286,1655.8,59.57142857142857,756.4776785714286,1760.7,59.57142857142857,758.4776785714286,1860.7,59.57142857142857,758.4776785714286,1960.9,59.57142857142857,758.4776785714286,2064.2,59.57142857142857,754.4776785714286,2172.5,59.57142857142857,752.4776785714286,2275.9,59.57142857142857,750.4776785714286,2381.8,59.57142857142857,734.4776785714286,2486,55.57142857142857,718.4776785714286,2586.3,51.57142857142857,710.4776785714286,2686.3,51.57142857142857,710.4776785714286,2786.3,51.57142857142857,710.4776785714286,2886.4,51.57142857142857,710.4776785714286,2988.9,51.57142857142857,710.4776785714286,3091.3,51.57142857142857,710.4776785714286,3191.6,51.57142857142857,710.4776785714286,3296.4,51.57142857142857,710.4776785714286,3400.7,51.57142857142857,710.4776785714286,3500.8,51.57142857142857,710.4776785714286,3600.9,51.57142857142857,710.4776785714286,3701,53.57142857142857,710.4776785714286,3805.9,53.57142857142857,708.4776785714286,3906,53.57142857142857,708.4776785714286,4013.6,53.57142857142857,708.4776785714286,4116.4,53.57142857142857,708.4776785714286,4221.2,53.57142857142857,708.4776785714286,4321.4,57.57142857142857,700.4776785714286,4421.4,51.57142857142857,566.4776785714286,4529.9,-2.4285714285714306,426.47767857142856,4630.9,-148.42857142857144,318.47767857142856,4731,-204.42857142857144,296.47767857142856,4831,-204.42857142857144,296.47767857142856,4931]","[1361.6,1361.6,1000,0,361.6,""oops"",""left"",""left"",""good_move"",4485,3123.1,2751.1,1361.9,372,""smooth"",""down"",""down"",""good_move"",7647.6,3162.4,2787.3,4485.2,375.1,""oops"",""left"",""down"",""good_move"",14923.8,7276,2623.8,11929.2,370.8,""smooth"",""left"",""left"",""good_move""]","",""
"2224","","<div style=""width:500px;"">
  <p>What determined the result of this run?</p>
  </div>","6","html-slider-response","50","517287","0.0-5.0-1.8","312","1","2025-08-03 14:10:52","1f75c3e559b7213887762d5229550c2b","89.245.26.245","Mozilla/5.0 (Windows NT 10.0; Win64; x64) AppleWebKit/537.36 (KHTML, like Gecko) Chrome/135.0.0.0 Safari/537.36 OPR/120.0.0.0","WebKit","Opera","120.0.0.0","Windows","10.0","https://app.prolific.com/","de-DE,de;q=0.9,en-US;q=0.8,en;q=0.7,zh-CN;q=0.6,zh;q=0.5,ja;q=0.4","6565f2ba13586fa869dd3b28","6877631c9844ddd5501205fc","688f6de69f171ef93f27494a","3","1","6565f2ba13586fa869dd3b28","3","1","2025-08-03T14:19:23.645Z","","","","","","","","","","","AttribQ","","50","","","","","","","","","","","","","","","","","","","","","","","","","","","","",""
"2140","","<div style=""width:500px;"">
  <p>How much control did you have over the ball?</p>
  </div>","62","html-slider-response","51","519428","0.0-5.0-2.8","312","1","2025-08-03 14:10:52","1f75c3e559b7213887762d5229550c2b","89.245.26.245","Mozilla/5.0 (Windows NT 10.0; Win64; x64) AppleWebKit/537.36 (KHTML, like Gecko) Chrome/135.0.0.0 Safari/537.36 OPR/120.0.0.0","WebKit","Opera","120.0.0.0","Windows","10.0","https://app.prolific.com/","de-DE,de;q=0.9,en-US;q=0.8,en;q=0.7,zh-CN;q=0.6,zh;q=0.5,ja;q=0.4","6565f2ba13586fa869dd3b28","6877631c9844ddd5501205fc","688f6de69f171ef93f27494a","3","1","6565f2ba13586fa869dd3b28","3","1","2025-08-03T14:19:25.786Z","","","","","","","","","","","ControlQ","","50","","","","","","","","","","","","","","","","","","","","","","","","","","","","",""
"2867","","<div style=""width:500px;"">
  <p>How would you describe your current emotional state?</p>
  </div>","22","html-slider-response","52","522296","0.0-5.0-3.8","312","1","2025-08-03 14:10:52","1f75c3e559b7213887762d5229550c2b","89.245.26.245","Mozilla/5.0 (Windows NT 10.0; Win64; x64) AppleWebKit/537.36 (KHTML, like Gecko) Chrome/135.0.0.0 Safari/537.36 OPR/120.0.0.0","WebKit","Opera","120.0.0.0","Windows","10.0","https://app.prolific.com/","de-DE,de;q=0.9,en-US;q=0.8,en;q=0.7,zh-CN;q=0.6,zh;q=0.5,ja;q=0.4","6565f2ba13586fa869dd3b28","6877631c9844ddd5501205fc","688f6de69f171ef93f27494a","3","1","6565f2ba13586fa869dd3b28","3","1","2025-08-03T14:19:28.654Z","","","","","","","","","","","StressQ","","50","","","","","","","","","","","","","","","","","","","","","","","","","","","","",""
"1366","","<div style=""width:500px;"">
  <p>What best describes how you currently feel?</p>
  </div>","77","html-slider-response","53","523663","0.0-5.0-4.8","312","1","2025-08-03 14:10:52","1f75c3e559b7213887762d5229550c2b","89.245.26.245","Mozilla/5.0 (Windows NT 10.0; Win64; x64) AppleWebKit/537.36 (KHTML, like Gecko) Chrome/135.0.0.0 Safari/537.36 OPR/120.0.0.0","WebKit","Opera","120.0.0.0","Windows","10.0","https://app.prolific.com/","de-DE,de;q=0.9,en-US;q=0.8,en;q=0.7,zh-CN;q=0.6,zh;q=0.5,ja;q=0.4","6565f2ba13586fa869dd3b28","6877631c9844ddd5501205fc","688f6de69f171ef93f27494a","3","1","6565f2ba13586fa869dd3b28","3","1","2025-08-03T14:19:30.021Z","","","","","","","","","","","MotivationQ","","50","","","","","","","","","","","","","","","","","","","","","","","","","","","","",""
"","","","","ctl-task-cpt","54","549367","0.0-5.0-0.9","312","1","2025-08-03 14:10:52","1f75c3e559b7213887762d5229550c2b","89.245.26.245","Mozilla/5.0 (Windows NT 10.0; Win64; x64) AppleWebKit/537.36 (KHTML, like Gecko) Chrome/135.0.0.0 Safari/537.36 OPR/120.0.0.0","WebKit","Opera","120.0.0.0","Windows","10.0","https://app.prolific.com/","de-DE,de;q=0.9,en-US;q=0.8,en;q=0.7,zh-CN;q=0.6,zh;q=0.5,ja;q=0.4","6565f2ba13586fa869dd3b28","6877631c9844ddd5501205fc","688f6de69f171ef93f27494a","3","1","6565f2ba13586fa869dd3b28","3","1","2025-08-03T14:19:55.725Z","","","","","","","","","","","","","","win-only","0","g1:NW,g2:SE","0.4","10","0","524565.9","1987.5","7000.4","22685.6","1","4","8","6","1","1","0","1","1","0.007575757575757576","1394.2","3000","1550","[""left"",""up""]","{""num_key_presses"":6,""num_perfect"":2,""num_errors"":1,""num_randdir"":3,""num_randdir_good_moves"":2,""num_whilered"":0,""num_whileblue"":1,""num_blue"":1,""num_good_moves"":5}","[407.57142857142856,420.47767857142856,0.2,407.57142857142856,420.47767857142856,102.8,407.57142857142856,420.47767857142856,218.7,407.57142857142856,420.47767857142856,323,407.57142857142856,420.47767857142856,423,409.57142857142856,422.47767857142856,528.2,409.57142857142856,422.47767857142856,628.2,409.57142857142856,422.47767857142856,728.3,407.57142857142856,422.47767857142856,832.7,187.57142857142856,254.47767857142856,954.4,171.57142857142856,200.47767857142856,1057.8,129.57142857142856,134.47767857142856,1162.9,115.57142857142857,120.47767857142857,1263.5,95.57142857142857,100.47767857142857,1368.3,95.57142857142857,100.47767857142857,1468.5,105.57142857142857,114.47767857142857,1580.9,159.57142857142856,208.47767857142856,1683.1,177.57142857142856,228.47767857142856,1783.2,179.57142857142856,228.47767857142856,1883.3,179.57142857142856,228.47767857142856,1983.4,181.57142857142856,228.47767857142856,2096.3,185.57142857142856,228.47767857142856,2198.5,185.57142857142856,228.47767857142856,2302.8,189.57142857142856,228.47767857142856,2402.8,193.57142857142856,228.47767857142856,2511.1,195.57142857142856,228.47767857142856,2612.7,199.57142857142856,228.47767857142856,2713.6,201.57142857142856,228.47767857142856,2817.7,201.57142857142856,228.47767857142856,2918.8,203.57142857142856,228.47767857142856,3023,207.57142857142856,228.47767857142856,3123.5,211.57142857142856,228.47767857142856,3228.2,211.57142857142856,228.47767857142856,3330.1,213.57142857142856,228.47767857142856,3430.7,215.57142857142856,228.47767857142856,3532.6,217.57142857142856,228.47767857142856,3632.8,217.57142857142856,228.47767857142856,3739,219.57142857142856,228.47767857142856,3842.7,219.57142857142856,228.47767857142856,3942.8,219.57142857142856,228.47767857142856,4045.6,221.57142857142856,228.47767857142856,4148,221.57142857142856,228.47767857142856,4248.2,221.57142857142856,228.47767857142856,4349.6,221.57142857142856,228.47767857142856,4452.7,221.57142857142856,228.47767857142856,4565.2,221.57142857142856,228.47767857142856,4668.3,221.57142857142856,228.47767857142856,4779,221.57142857142856,228.47767857142856,4881.4,221.57142857142856,228.47767857142856,4982.8]","[1404.5,1404.5,1000,0,404.5,""oops"",""up"",""down"",""bad_move"",3866.5,2461.7,2074.6,1404.8,387.1,""smooth"",""up"",""up"",""good_move"",6267.2,2400.4,2034.1,3866.8,366.3,""while_blue"",""up"",""left"",""good_move"",9773.3,3505.8,3124.2,6267.5,381.6,""smooth"",""up"",""up"",""good_move"",12470.4,2696.9,2237,9773.5,459.9,""oops"",""up"",""up"",""good_move"",15574.3,3103.7,2749.8,12470.6,353.9,""oops"",""left"",""left"",""good_move""]","",""
"2015","","<div style=""width:500px;"">
  <p>What determined the result of this run?</p>
  </div>","14","html-slider-response","55","551383","0.0-5.0-1.9","312","1","2025-08-03 14:10:52","1f75c3e559b7213887762d5229550c2b","89.245.26.245","Mozilla/5.0 (Windows NT 10.0; Win64; x64) AppleWebKit/537.36 (KHTML, like Gecko) Chrome/135.0.0.0 Safari/537.36 OPR/120.0.0.0","WebKit","Opera","120.0.0.0","Windows","10.0","https://app.prolific.com/","de-DE,de;q=0.9,en-US;q=0.8,en;q=0.7,zh-CN;q=0.6,zh;q=0.5,ja;q=0.4","6565f2ba13586fa869dd3b28","6877631c9844ddd5501205fc","688f6de69f171ef93f27494a","3","1","6565f2ba13586fa869dd3b28","3","1","2025-08-03T14:19:57.741Z","","","","","","","","","","","AttribQ","","50","","","","","","","","","","","","","","","","","","","","","","","","","","","","",""
"3227","","<div style=""width:500px;"">
  <p>How much control did you have over the ball?</p>
  </div>","77","html-slider-response","56","554611","0.0-5.0-2.9","312","1","2025-08-03 14:10:52","1f75c3e559b7213887762d5229550c2b","89.245.26.245","Mozilla/5.0 (Windows NT 10.0; Win64; x64) AppleWebKit/537.36 (KHTML, like Gecko) Chrome/135.0.0.0 Safari/537.36 OPR/120.0.0.0","WebKit","Opera","120.0.0.0","Windows","10.0","https://app.prolific.com/","de-DE,de;q=0.9,en-US;q=0.8,en;q=0.7,zh-CN;q=0.6,zh;q=0.5,ja;q=0.4","6565f2ba13586fa869dd3b28","6877631c9844ddd5501205fc","688f6de69f171ef93f27494a","3","1","6565f2ba13586fa869dd3b28","3","1","2025-08-03T14:20:00.969Z","","","","","","","","","","","ControlQ","","50","","","","","","","","","","","","","","","","","","","","","","","","","","","","",""
"1119","","<div style=""width:500px;"">
  <p>How would you describe your current emotional state?</p>
  </div>","18","html-slider-response","57","555731","0.0-5.0-3.9","312","1","2025-08-03 14:10:52","1f75c3e559b7213887762d5229550c2b","89.245.26.245","Mozilla/5.0 (Windows NT 10.0; Win64; x64) AppleWebKit/537.36 (KHTML, like Gecko) Chrome/135.0.0.0 Safari/537.36 OPR/120.0.0.0","WebKit","Opera","120.0.0.0","Windows","10.0","https://app.prolific.com/","de-DE,de;q=0.9,en-US;q=0.8,en;q=0.7,zh-CN;q=0.6,zh;q=0.5,ja;q=0.4","6565f2ba13586fa869dd3b28","6877631c9844ddd5501205fc","688f6de69f171ef93f27494a","3","1","6565f2ba13586fa869dd3b28","3","1","2025-08-03T14:20:02.089Z","","","","","","","","","","","StressQ","","50","","","","","","","","","","","","","","","","","","","","","","","","","","","","",""
"1426","","<div style=""width:500px;"">
  <p>What best describes how you currently feel?</p>
  </div>","62","html-slider-response","58","557157","0.0-5.0-4.9","312","1","2025-08-03 14:10:52","1f75c3e559b7213887762d5229550c2b","89.245.26.245","Mozilla/5.0 (Windows NT 10.0; Win64; x64) AppleWebKit/537.36 (KHTML, like Gecko) Chrome/135.0.0.0 Safari/537.36 OPR/120.0.0.0","WebKit","Opera","120.0.0.0","Windows","10.0","https://app.prolific.com/","de-DE,de;q=0.9,en-US;q=0.8,en;q=0.7,zh-CN;q=0.6,zh;q=0.5,ja;q=0.4","6565f2ba13586fa869dd3b28","6877631c9844ddd5501205fc","688f6de69f171ef93f27494a","3","1","6565f2ba13586fa869dd3b28","3","1","2025-08-03T14:20:03.515Z","","","","","","","","","","","MotivationQ","","50","","","","","","","","","","","","","","","","","","","","","","","","","","","","",""
"","","","","ctl-task-cpt","59","580176","0.0-5.0-0.10","312","1","2025-08-03 14:10:52","1f75c3e559b7213887762d5229550c2b","89.245.26.245","Mozilla/5.0 (Windows NT 10.0; Win64; x64) AppleWebKit/537.36 (KHTML, like Gecko) Chrome/135.0.0.0 Safari/537.36 OPR/120.0.0.0","WebKit","Opera","120.0.0.0","Windows","10.0","https://app.prolific.com/","de-DE,de;q=0.9,en-US;q=0.8,en;q=0.7,zh-CN;q=0.6,zh;q=0.5,ja;q=0.4","6565f2ba13586fa869dd3b28","6877631c9844ddd5501205fc","688f6de69f171ef93f27494a","3","1","6565f2ba13586fa869dd3b28","3","1","2025-08-03T14:20:26.534Z","","","","","","","","","","","","","","win-only","1","g1:NE,g2:SW","0.5","11","0","558060","714.5","5715.4","20000.7","1","4","8","6","1","1","1","2","1","0.015151515151515152","1589.1","3000","810","[""up"",""right""]","{""num_key_presses"":6,""num_perfect"":4,""num_errors"":0,""num_randdir"":2,""num_randdir_good_moves"":1,""num_whilered"":0,""num_whileblue"":0,""num_blue"":0,""num_good_moves"":5}","[419.57142857142856,414.47767857142856,0.1,419.57142857142856,412.47767857142856,109.5,419.57142857142856,412.47767857142856,211.3,419.57142857142856,412.47767857142856,326.3,419.57142857142856,412.47767857142856,426.5,421.57142857142856,412.47767857142856,526.8,421.57142857142856,412.47767857142856,628.9,421.57142857142856,412.47767857142856,730.9,421.57142857142856,412.47767857142856,831.1,421.57142857142856,412.47767857142856,931.1,421.57142857142856,412.47767857142856,1031.2,421.57142857142856,412.47767857142856,1131.3,499.57142857142856,352.47767857142856,1231.4,695.5714285714286,122.47767857142857,1348.7,725.5714285714286,74.47767857142857,1451.4,733.5714285714286,64.47767857142857,1559.9,733.5714285714286,64.47767857142857,1667,737.5714285714286,128.47767857142856,1770.8,731.5714285714286,240.47767857142856,1875.6,731.5714285714286,246.47767857142856,1976.9,731.5714285714286,246.47767857142856,2081.1,731.5714285714286,244.47767857142856,2181.2,731.5714285714286,242.47767857142856,2281.3,733.5714285714286,242.47767857142856,2381.4,737.5714285714286,242.47767857142856,2497.5,791.5714285714286,278.47767857142856,2609.8,879.5714285714286,326.47767857142856,2710.7,913.5714285714286,346.47767857142856,2818.1,921.5714285714286,350.47767857142856,2920.6,923.5714285714286,350.47767857142856,3021.4,925.5714285714286,350.47767857142856,3125,927.5714285714286,350.47767857142856,3226,945.5714285714286,356.47767857142856,3326.3,967.5714285714286,364.47767857142856,3426.3,967.5714285714286,364.47767857142856,3526.3,967.5714285714286,364.47767857142856,3631.2,967.5714285714286,364.47767857142856,3731.3,967.5714285714286,364.47767857142856,3835.6,967.5714285714286,364.47767857142856,3935.7,967.5714285714286,364.47767857142856,4035.8,967.5714285714286,364.47767857142856,4135.9,967.5714285714286,364.47767857142856,4236,967.5714285714286,364.47767857142856,4336.4,967.5714285714286,364.47767857142856,4441.1,975.5714285714286,366.47767857142856,4541.1,987.5714285714286,366.47767857142856,4641.4,989.5714285714286,368.47767857142856,4741.6,991.5714285714286,368.47767857142856,4846.3,991.5714285714286,368.47767857142856,4946.4]","[1364.6,1364.6,1000,0,364.6,""smooth"",""right"",""right"",""good_move"",4423.3,3058.3,2667.5,1365,390.8,""oops"",""up"",""down"",""bad_move"",6523.1,2099.5,1669.2,4423.6,430.3,""oops"",""up"",""right"",""good_move"",9310.1,2786.6,2405.9,6523.5,380.7,""smooth"",""up"",""up"",""good_move"",12138.4,2828.1,2490.8,9310.3,337.3,""smooth"",""up"",""up"",""good_move"",14188.3,2049.8,1727.9,12138.5,321.9,""smooth"",""up"",""up"",""good_move""]","",""
"1699","","<div style=""width:500px;"">
  <p>What determined the result of this run?</p>
  </div>","6","html-slider-response","60","581876","0.0-5.0-1.10","312","1","2025-08-03 14:10:52","1f75c3e559b7213887762d5229550c2b","89.245.26.245","Mozilla/5.0 (Windows NT 10.0; Win64; x64) AppleWebKit/537.36 (KHTML, like Gecko) Chrome/135.0.0.0 Safari/537.36 OPR/120.0.0.0","WebKit","Opera","120.0.0.0","Windows","10.0","https://app.prolific.com/","de-DE,de;q=0.9,en-US;q=0.8,en;q=0.7,zh-CN;q=0.6,zh;q=0.5,ja;q=0.4","6565f2ba13586fa869dd3b28","6877631c9844ddd5501205fc","688f6de69f171ef93f27494a","3","1","6565f2ba13586fa869dd3b28","3","1","2025-08-03T14:20:28.234Z","","","","","","","","","","","AttribQ","","50","","","","","","","","","","","","","","","","","","","","","","","","","","","","",""
"2930","","<div style=""width:500px;"">
  <p>How much control did you have over the ball?</p>
  </div>","70","html-slider-response","61","584807","0.0-5.0-2.10","312","1","2025-08-03 14:10:52","1f75c3e559b7213887762d5229550c2b","89.245.26.245","Mozilla/5.0 (Windows NT 10.0; Win64; x64) AppleWebKit/537.36 (KHTML, like Gecko) Chrome/135.0.0.0 Safari/537.36 OPR/120.0.0.0","WebKit","Opera","120.0.0.0","Windows","10.0","https://app.prolific.com/","de-DE,de;q=0.9,en-US;q=0.8,en;q=0.7,zh-CN;q=0.6,zh;q=0.5,ja;q=0.4","6565f2ba13586fa869dd3b28","6877631c9844ddd5501205fc","688f6de69f171ef93f27494a","3","1","6565f2ba13586fa869dd3b28","3","1","2025-08-03T14:20:31.165Z","","","","","","","","","","","ControlQ","","50","","","","","","","","","","","","","","","","","","","","","","","","","","","","",""
"1088","","<div style=""width:500px;"">
  <p>How would you describe your current emotional state?</p>
  </div>","13","html-slider-response","62","585896","0.0-5.0-3.10","312","1","2025-08-03 14:10:52","1f75c3e559b7213887762d5229550c2b","89.245.26.245","Mozilla/5.0 (Windows NT 10.0; Win64; x64) AppleWebKit/537.36 (KHTML, like Gecko) Chrome/135.0.0.0 Safari/537.36 OPR/120.0.0.0","WebKit","Opera","120.0.0.0","Windows","10.0","https://app.prolific.com/","de-DE,de;q=0.9,en-US;q=0.8,en;q=0.7,zh-CN;q=0.6,zh;q=0.5,ja;q=0.4","6565f2ba13586fa869dd3b28","6877631c9844ddd5501205fc","688f6de69f171ef93f27494a","3","1","6565f2ba13586fa869dd3b28","3","1","2025-08-03T14:20:32.254Z","","","","","","","","","","","StressQ","","50","","","","","","","","","","","","","","","","","","","","","","","","","","","","",""
"1092","","<div style=""width:500px;"">
  <p>What best describes how you currently feel?</p>
  </div>","81","html-slider-response","63","586989","0.0-5.0-4.10","312","1","2025-08-03 14:10:52","1f75c3e559b7213887762d5229550c2b","89.245.26.245","Mozilla/5.0 (Windows NT 10.0; Win64; x64) AppleWebKit/537.36 (KHTML, like Gecko) Chrome/135.0.0.0 Safari/537.36 OPR/120.0.0.0","WebKit","Opera","120.0.0.0","Windows","10.0","https://app.prolific.com/","de-DE,de;q=0.9,en-US;q=0.8,en;q=0.7,zh-CN;q=0.6,zh;q=0.5,ja;q=0.4","6565f2ba13586fa869dd3b28","6877631c9844ddd5501205fc","688f6de69f171ef93f27494a","3","1","6565f2ba13586fa869dd3b28","3","1","2025-08-03T14:20:33.347Z","","","","","","","","","","","MotivationQ","","50","","","","","","","","","","","","","","","","","","","","","","","","","","","","",""
"","","","","ctl-task-cpt","64","614743","0.0-5.0-0.11","312","1","2025-08-03 14:10:52","1f75c3e559b7213887762d5229550c2b","89.245.26.245","Mozilla/5.0 (Windows NT 10.0; Win64; x64) AppleWebKit/537.36 (KHTML, like Gecko) Chrome/135.0.0.0 Safari/537.36 OPR/120.0.0.0","WebKit","Opera","120.0.0.0","Windows","10.0","https://app.prolific.com/","de-DE,de;q=0.9,en-US;q=0.8,en;q=0.7,zh-CN;q=0.6,zh;q=0.5,ja;q=0.4","6565f2ba13586fa869dd3b28","6877631c9844ddd5501205fc","688f6de69f171ef93f27494a","3","1","6565f2ba13586fa869dd3b28","3","1","2025-08-03T14:21:01.101Z","","","","","","","","","","","","","","win-only","2","g1:SE,g2:NW","0.6","12","0","587891.6","701.9","5706.1","24736.1","1","4","4","6","2","4","4","6","2","0.045454545454545456","2295.3","3000","780","[""left"",""up""]","{""num_key_presses"":8,""num_perfect"":6,""num_errors"":0,""num_randdir"":2,""num_randdir_good_moves"":1,""num_whilered"":0,""num_whileblue"":0,""num_blue"":0,""num_good_moves"":7}","[411.57142857142856,422.47767857142856,0.2,411.57142857142856,422.47767857142856,103.5,411.57142857142856,422.47767857142856,203.7,411.57142857142856,422.47767857142856,303.7,411.57142857142856,422.47767857142856,403.8,411.57142857142856,422.47767857142856,503.9,413.57142857142856,422.47767857142856,604,413.57142857142856,420.47767857142856,704.1,413.57142857142856,420.47767857142856,804.2,407.57142857142856,414.47767857142856,904.3,195.57142857142856,246.47767857142856,1008.3,115.57142857142857,150.47767857142856,1108.4,97.57142857142857,106.47767857142857,1208.6,69.57142857142857,72.47767857142857,1308.7,69.57142857142857,72.47767857142857,1408.7,69.57142857142857,72.47767857142857,1508.8,69.57142857142857,72.47767857142857,1608.9,69.57142857142857,72.47767857142857,1709.1,71.57142857142857,72.47767857142857,1809.1,71.57142857142857,72.47767857142857,1909.2,71.57142857142857,72.47767857142857,2014.6,71.57142857142857,72.47767857142857,2118.4,71.57142857142857,72.47767857142857,2218.5,71.57142857142857,72.47767857142857,2318.6,71.57142857142857,72.47767857142857,2418.6,81.57142857142857,76.47767857142857,2518.7,175.57142857142856,154.47767857142856,2618.9,219.57142857142856,196.47767857142856,2719,219.57142857142856,196.47767857142856,2819,219.57142857142856,196.47767857142856,2919.2,221.57142857142856,196.47767857142856,3019.2,221.57142857142856,196.47767857142856,3123.4,221.57142857142856,196.47767857142856,3228.8,221.57142857142856,196.47767857142856,3333.4,221.57142857142856,194.47767857142856,3435.9,221.57142857142856,194.47767857142856,3539.2,221.57142857142856,194.47767857142856,3644,221.57142857142856,194.47767857142856,3744.1,221.57142857142856,194.47767857142856,3844.1,225.57142857142856,192.47767857142856,3944.2,227.57142857142856,192.47767857142856,4048.7,227.57142857142856,192.47767857142856,4153.5,227.57142857142856,192.47767857142856,4253.6,227.57142857142856,192.47767857142856,4353.6,227.57142857142856,192.47767857142856,4453.7,227.57142857142856,192.47767857142856,4553.8,227.57142857142856,192.47767857142856,4653.9,227.57142857142856,192.47767857142856,4754,227.57142857142856,192.47767857142856,4854,227.57142857142856,192.47767857142856,4954.1]","[1323.9,1323.9,1000,0,323.9,""oops"",""left"",""right"",""bad_move"",3439.9,2115.7,1802.3,1324.2,313.4,""smooth"",""left"",""left"",""good_move"",5949.9,2509.7,2209.2,3440.3,300.5,""smooth"",""left"",""left"",""good_move"",8081.1,2131,1818.6,5950.2,312.4,""oops"",""up"",""up"",""good_move"",11258.9,3177.3,2920.4,8081.6,256.9,""smooth"",""up"",""up"",""good_move"",14129.3,2870.3,2612,11259,258.3,""smooth"",""left"",""left"",""good_move"",16519,2389.3,2112.4,14129.7,276.9,""smooth"",""up"",""up"",""good_move"",18944.5,2425,2157,16519.5,268,""smooth"",""left"",""left"",""good_move""]","",""
"1491","","<div style=""width:500px;"">
  <p>What determined the result of this run?</p>
  </div>","1","html-slider-response","65","616235","0.0-5.0-1.11","312","1","2025-08-03 14:10:52","1f75c3e559b7213887762d5229550c2b","89.245.26.245","Mozilla/5.0 (Windows NT 10.0; Win64; x64) AppleWebKit/537.36 (KHTML, like Gecko) Chrome/135.0.0.0 Safari/537.36 OPR/120.0.0.0","WebKit","Opera","120.0.0.0","Windows","10.0","https://app.prolific.com/","de-DE,de;q=0.9,en-US;q=0.8,en;q=0.7,zh-CN;q=0.6,zh;q=0.5,ja;q=0.4","6565f2ba13586fa869dd3b28","6877631c9844ddd5501205fc","688f6de69f171ef93f27494a","3","1","6565f2ba13586fa869dd3b28","3","1","2025-08-03T14:21:02.594Z","","","","","","","","","","","AttribQ","","50","","","","","","","","","","","","","","","","","","","","","","","","","","","","",""
"2592","","<div style=""width:500px;"">
  <p>How much control did you have over the ball?</p>
  </div>","100","html-slider-response","66","618828","0.0-5.0-2.11","312","1","2025-08-03 14:10:52","1f75c3e559b7213887762d5229550c2b","89.245.26.245","Mozilla/5.0 (Windows NT 10.0; Win64; x64) AppleWebKit/537.36 (KHTML, like Gecko) Chrome/135.0.0.0 Safari/537.36 OPR/120.0.0.0","WebKit","Opera","120.0.0.0","Windows","10.0","https://app.prolific.com/","de-DE,de;q=0.9,en-US;q=0.8,en;q=0.7,zh-CN;q=0.6,zh;q=0.5,ja;q=0.4","6565f2ba13586fa869dd3b28","6877631c9844ddd5501205fc","688f6de69f171ef93f27494a","3","1","6565f2ba13586fa869dd3b28","3","1","2025-08-03T14:21:05.187Z","","","","","","","","","","","ControlQ","","50","","","","","","","","","","","","","","","","","","","","","","","","","","","","",""
"1156","","<div style=""width:500px;"">
  <p>How would you describe your current emotional state?</p>
  </div>","16","html-slider-response","67","619985","0.0-5.0-3.11","312","1","2025-08-03 14:10:52","1f75c3e559b7213887762d5229550c2b","89.245.26.245","Mozilla/5.0 (Windows NT 10.0; Win64; x64) AppleWebKit/537.36 (KHTML, like Gecko) Chrome/135.0.0.0 Safari/537.36 OPR/120.0.0.0","WebKit","Opera","120.0.0.0","Windows","10.0","https://app.prolific.com/","de-DE,de;q=0.9,en-US;q=0.8,en;q=0.7,zh-CN;q=0.6,zh;q=0.5,ja;q=0.4","6565f2ba13586fa869dd3b28","6877631c9844ddd5501205fc","688f6de69f171ef93f27494a","3","1","6565f2ba13586fa869dd3b28","3","1","2025-08-03T14:21:06.344Z","","","","","","","","","","","StressQ","","50","","","","","","","","","","","","","","","","","","","","","","","","","","","","",""
"1275","","<div style=""width:500px;"">
  <p>What best describes how you currently feel?</p>
  </div>","84","html-slider-response","68","621262","0.0-5.0-4.11","312","1","2025-08-03 14:10:52","1f75c3e559b7213887762d5229550c2b","89.245.26.245","Mozilla/5.0 (Windows NT 10.0; Win64; x64) AppleWebKit/537.36 (KHTML, like Gecko) Chrome/135.0.0.0 Safari/537.36 OPR/120.0.0.0","WebKit","Opera","120.0.0.0","Windows","10.0","https://app.prolific.com/","de-DE,de;q=0.9,en-US;q=0.8,en;q=0.7,zh-CN;q=0.6,zh;q=0.5,ja;q=0.4","6565f2ba13586fa869dd3b28","6877631c9844ddd5501205fc","688f6de69f171ef93f27494a","3","1","6565f2ba13586fa869dd3b28","3","1","2025-08-03T14:21:07.620Z","","","","","","","","","","","MotivationQ","","50","","","","","","","","","","","","","","","","","","","","","","","","","","","","",""
"","","","","ctl-task-cpt","69","650261","0.0-5.0-0.12","312","1","2025-08-03 14:10:52","1f75c3e559b7213887762d5229550c2b","89.245.26.245","Mozilla/5.0 (Windows NT 10.0; Win64; x64) AppleWebKit/537.36 (KHTML, like Gecko) Chrome/135.0.0.0 Safari/537.36 OPR/120.0.0.0","WebKit","Opera","120.0.0.0","Windows","10.0","https://app.prolific.com/","de-DE,de;q=0.9,en-US;q=0.8,en;q=0.7,zh-CN;q=0.6,zh;q=0.5,ja;q=0.4","6565f2ba13586fa869dd3b28","6877631c9844ddd5501205fc","688f6de69f171ef93f27494a","3","1","6565f2ba13586fa869dd3b28","3","1","2025-08-03T14:21:36.619Z","","","","","","","","","","","","","","win-only","0","g1:NW,g2:SE","0.7","13","0","622165","1215.2","6215.8","25980.5","1","4","8","6","1","1","1","7","6","0.05303030303030303","1313.1","3000","590","[""left"",""up""]","{""num_key_presses"":8,""num_perfect"":5,""num_errors"":0,""num_randdir"":3,""num_randdir_good_moves"":1,""num_whilered"":0,""num_whileblue"":0,""num_blue"":0,""num_good_moves"":6}","[413.57142857142856,412.47767857142856,0.2,413.57142857142856,412.47767857142856,101.3,413.57142857142856,412.47767857142856,205.7,413.57142857142856,412.47767857142856,307,413.57142857142856,412.47767857142856,407.2,413.57142857142856,412.47767857142856,510.4,415.57142857142856,414.47767857142856,610.4,415.57142857142856,414.47767857142856,710.5,397.57142857142856,396.47767857142856,810.8,207.57142857142856,188.47767857142856,915.4,149.57142857142856,90.47767857142857,1015.7,141.57142857142856,76.47767857142857,1116,139.57142857142856,76.47767857142857,1216.1,123.57142857142857,76.47767857142857,1316.1,123.57142857142857,78.47767857142857,1420.3,195.57142857142856,204.47767857142856,1522.3,303.57142857142856,326.47767857142856,1626.1,303.57142857142856,326.47767857142856,1730.4,307.57142857142856,326.47767857142856,1830.6,-168.42857142857144,386.47767857142856,1930.9,-530.4285714285714,432.47767857142856,2035.8,-530.4285714285714,432.47767857142856,2140.5,-530.4285714285714,432.47767857142856,2240.7,-530.4285714285714,432.47767857142856,2345.9,-530.4285714285714,432.47767857142856,2450.6,-530.4285714285714,432.47767857142856,2550.9,-530.4285714285714,432.47767857142856,2656.8,-530.4285714285714,432.47767857142856,2760.1,-530.4285714285714,432.47767857142856,2860.1,-530.4285714285714,432.47767857142856,2960.2,-530.4285714285714,432.47767857142856,3065.2,-382.42857142857144,410.47767857142856,3165.5,-274.42857142857144,392.47767857142856,3265.6,-246.42857142857144,388.47767857142856,3365.6,-246.42857142857144,388.47767857142856,3465.7,-246.42857142857144,388.47767857142856,3566,-246.42857142857144,388.47767857142856,3666,-246.42857142857144,388.47767857142856,3770.6,-244.42857142857144,388.47767857142856,3870.8,-236.42857142857144,390.47767857142856,3975.1,-232.42857142857144,390.47767857142856,4075.2,-226.42857142857144,390.47767857142856,4175.2,-220.42857142857144,392.47767857142856,4275.5,-208.42857142857144,396.47767857142856,4380.2,-206.42857142857144,396.47767857142856,4481.1,-206.42857142857144,396.47767857142856,4585.7,-206.42857142857144,396.47767857142856,4685.9,-206.42857142857144,396.47767857142856,4785.9,-202.42857142857144,396.47767857142856,4898.4]","[1328.2,1328.2,1000,0,328.2,""smooth"",""up"",""up"",""good_move"",3893.8,2565.1,2219.1,1328.7,346,""smooth"",""left"",""left"",""good_move"",6498,2603.9,2284.4,3894.1,319.5,""smooth"",""up"",""up"",""good_move"",8968,2469.6,2169.5,6498.4,300.1,""oops"",""left"",""right"",""bad_move"",11494.1,2525.9,2185.2,8968.3,340.6,""oops"",""left"",""left"",""good_move"",14332,2837.5,2537.7,11494.5,299.8,""oops"",""left"",""right"",""bad_move"",16637.9,2305.6,1981.3,14332.3,324.3,""smooth"",""left"",""left"",""good_move"",19641.9,3003.8,2766.3,16638.2,237.5,""smooth"",""left"",""left"",""good_move""]","",""
"6400","","<div style=""width:500px;"">
  <p>What determined the result of this run?</p>
  </div>","7","html-slider-response","70","656661","0.0-5.0-1.12","312","1","2025-08-03 14:10:52","1f75c3e559b7213887762d5229550c2b","89.245.26.245","Mozilla/5.0 (Windows NT 10.0; Win64; x64) AppleWebKit/537.36 (KHTML, like Gecko) Chrome/135.0.0.0 Safari/537.36 OPR/120.0.0.0","WebKit","Opera","120.0.0.0","Windows","10.0","https://app.prolific.com/","de-DE,de;q=0.9,en-US;q=0.8,en;q=0.7,zh-CN;q=0.6,zh;q=0.5,ja;q=0.4","6565f2ba13586fa869dd3b28","6877631c9844ddd5501205fc","688f6de69f171ef93f27494a","3","1","6565f2ba13586fa869dd3b28","3","1","2025-08-03T14:21:43.019Z","","","","","","","","","","","AttribQ","","50","","","","","","","","","","","","","","","","","","","","","","","","","","","","",""
"1777","","<div style=""width:500px;"">
  <p>How much control did you have over the ball?</p>
  </div>","27","html-slider-response","71","658439","0.0-5.0-2.12","312","1","2025-08-03 14:10:52","1f75c3e559b7213887762d5229550c2b","89.245.26.245","Mozilla/5.0 (Windows NT 10.0; Win64; x64) AppleWebKit/537.36 (KHTML, like Gecko) Chrome/135.0.0.0 Safari/537.36 OPR/120.0.0.0","WebKit","Opera","120.0.0.0","Windows","10.0","https://app.prolific.com/","de-DE,de;q=0.9,en-US;q=0.8,en;q=0.7,zh-CN;q=0.6,zh;q=0.5,ja;q=0.4","6565f2ba13586fa869dd3b28","6877631c9844ddd5501205fc","688f6de69f171ef93f27494a","3","1","6565f2ba13586fa869dd3b28","3","1","2025-08-03T14:21:44.797Z","","","","","","","","","","","ControlQ","","50","","","","","","","","","","","","","","","","","","","","","","","","","","","","",""
"1713","","<div style=""width:500px;"">
  <p>How would you describe your current emotional state?</p>
  </div>","30","html-slider-response","72","660153","0.0-5.0-3.12","312","1","2025-08-03 14:10:52","1f75c3e559b7213887762d5229550c2b","89.245.26.245","Mozilla/5.0 (Windows NT 10.0; Win64; x64) AppleWebKit/537.36 (KHTML, like Gecko) Chrome/135.0.0.0 Safari/537.36 OPR/120.0.0.0","WebKit","Opera","120.0.0.0","Windows","10.0","https://app.prolific.com/","de-DE,de;q=0.9,en-US;q=0.8,en;q=0.7,zh-CN;q=0.6,zh;q=0.5,ja;q=0.4","6565f2ba13586fa869dd3b28","6877631c9844ddd5501205fc","688f6de69f171ef93f27494a","3","1","6565f2ba13586fa869dd3b28","3","1","2025-08-03T14:21:46.511Z","","","","","","","","","","","StressQ","","50","","","","","","","","","","","","","","","","","","","","","","","","","","","","",""
"1854","","<div style=""width:500px;"">
  <p>What best describes how you currently feel?</p>
  </div>","72","html-slider-response","73","662008","0.0-5.0-4.12","312","1","2025-08-03 14:10:52","1f75c3e559b7213887762d5229550c2b","89.245.26.245","Mozilla/5.0 (Windows NT 10.0; Win64; x64) AppleWebKit/537.36 (KHTML, like Gecko) Chrome/135.0.0.0 Safari/537.36 OPR/120.0.0.0","WebKit","Opera","120.0.0.0","Windows","10.0","https://app.prolific.com/","de-DE,de;q=0.9,en-US;q=0.8,en;q=0.7,zh-CN;q=0.6,zh;q=0.5,ja;q=0.4","6565f2ba13586fa869dd3b28","6877631c9844ddd5501205fc","688f6de69f171ef93f27494a","3","1","6565f2ba13586fa869dd3b28","3","1","2025-08-03T14:21:48.366Z","","","","","","","","","","","MotivationQ","","50","","","","","","","","","","","","","","","","","","","","","","","","","","","","",""
