"rt","response_timestamp","stimulus","response","trial_type","trial_index","time_elapsed","internal_node_id","run_id","condition","recorded_at","source_code_version","ip","user_agent","device","browser","browser_version","platform","platform_version","referer","accept_language","PROLIFIC_PID","STUDY_ID","SESSION_ID","WEEK","BATCH","prolific_id","week","batch","realtime","success","responses","item_order","radio_event_ids","radio_event_times","key_event_times","mouse_event_times","straightlining","zigzagging","honeypot","eventType","view_history","slider_start","which_type","canvas_config","goals_layout","control_level","trial_number","tutorial_trial_number","trial_start_time","phase1_start_time","phase2_start_time","phase3_start_time","goal_1_value","goal_1_distance","goal_2_value","goal_2_distance","goal_selected","outcome","outcome_total","participant_final_score","participant_initial_score","participant_final_score_prop","goal_choice_rt","allocated_time","allocated_time_remaining","goal_direction","counts","mouse_movements","key_presses","question_order","question_id"
"3552","1753390185183","<p style='font-size:40px;line-height:1.25'><strong>Welcome to the experiment!</strong></p><p style='font-size:1.1em;line-height:1.25'>Thank you for participanting in our experiment again! You will be asked to play the Dysfunctional Ball Game again. We will briefly recap the rules before we start.</p><p style='font-size:1.1em;line-height:1.25'>Press <strong>Next</strong> to continue.</p>","0","custom-html-button-response","0","3559","0.0-0.0","239","1","2025-07-24 20:49:38","1f75c3e559b7213887762d5229550c2b","91.140.28.110","Mozilla/5.0 (Windows NT 10.0; Win64; x64; rv:141.0) Gecko/20100101 Firefox/141.0","","Firefox","141.0","Windows","10.0","https://app.prolific.com/","en-US,en;q=0.5","56e4b2e044b184000b894159","683db9eb0562dbf637994deb","68829c4d484a9cb26c340092","2","1","56e4b2e044b184000b894159","2","1","2025-07-24T20:49:45.184Z","","","","","","","","","","","","","","","","","","","","","","","","","","","","","","","","","","","","","","","","","",""
"4694","","","","fullscreen","1","9256","0.0-1.0","239","1","2025-07-24 20:49:38","1f75c3e559b7213887762d5229550c2b","91.140.28.110","Mozilla/5.0 (Windows NT 10.0; Win64; x64; rv:141.0) Gecko/20100101 Firefox/141.0","","Firefox","141.0","Windows","10.0","https://app.prolific.com/","en-US,en;q=0.5","56e4b2e044b184000b894159","683db9eb0562dbf637994deb","68829c4d484a9cb26c340092","2","1","56e4b2e044b184000b894159","2","1","","true","","","","","","","","","","","","","","","","","","","","","","","","","","","","","","","","","","","","","","","","",""
"3349","1753390194232","<p style='font-size:1.1em;line-height:1.25'>In the following, we will ask you a few questions relating to your feelings in the last 24 hours.<br></p><p style='font-size:1.1em;line-height:1.25'>Press the <strong>Next</strong> button to continue.</p>","0","custom-html-button-response","2","12608","0.0-2.0-0.0","239","1","2025-07-24 20:49:38","1f75c3e559b7213887762d5229550c2b","91.140.28.110","Mozilla/5.0 (Windows NT 10.0; Win64; x64; rv:141.0) Gecko/20100101 Firefox/141.0","","Firefox","141.0","Windows","10.0","https://app.prolific.com/","en-US,en;q=0.5","56e4b2e044b184000b894159","683db9eb0562dbf637994deb","68829c4d484a9cb26c340092","2","1","56e4b2e044b184000b894159","2","1","2025-07-24T20:49:54.233Z","","","","","","","","","","","","","","","","","","","","","","","","","","","","","","","","","","","","","","","","","",""
"101710","","","","survey-template","3","114320","0.0-2.0-1.0","239","1","2025-07-24 20:49:38","1f75c3e559b7213887762d5229550c2b","91.140.28.110","Mozilla/5.0 (Windows NT 10.0; Win64; x64; rv:141.0) Gecko/20100101 Firefox/141.0","","Firefox","141.0","Windows","10.0","https://app.prolific.com/","en-US,en;q=0.5","56e4b2e044b184000b894159","683db9eb0562dbf637994deb","68829c4d484a9cb26c340092","2","1","56e4b2e044b184000b894159","2","1","2025-07-24T20:51:35.945Z","","{""Q01"":""1"",""Q02"":""0"",""Q03"":""0"",""Q04"":""1"",""Q05"":""0"",""Q06"":""0"",""Q07"":""1"",""Q08"":""0"",""Q09"":""0"",""Q10"":""0"",""Q11"":""3"",""Q12"":""1"",""Q13"":""5"",""Q14"":""0"",""Q15"":""0"",""Q16"":""5"",""Q17"":""0"",""Q18"":""0"",""Q19"":""1"",""Q20"":""0"",""Q21"":""0"",""Q22"":""0""}","[0,1,2,3,4,5,6,7,8,9,10,11,12,13,14,15,16,17,18,19,20,21]","[""Q01"",""Q02"",""Q03"",""Q04"",""Q05"",""Q06"",""Q07"",""Q08"",""Q09"",""Q10"",""Q11"",""Q12"",""Q13"",""Q14"",""Q15"",""Q16"",""Q17"",""Q18"",""Q19"",""Q20"",""Q21"",""Q22""]","[4084,6336,7986,12504,16706,19038,21780,24028,30602,31352,37460,44845,48049,53454,56168,58967,63098,64342,77385,82300,86160,90353]","[]","[0,4084,6336,7986,12504,16706,19038,21780,24028,30602,31352,37460,44845,48049,53454,56168,58967,63098,64342,77385,82300,86160,90353,101708]","0.6363636363636364","0.47619047619047616","0","drsp","","","","","","","","","","","","","","","","","","","","","","","","","","","","","","",""
"18464","","","","survey-template","4","132787","0.0-2.0-2.0","239","1","2025-07-24 20:49:38","1f75c3e559b7213887762d5229550c2b","91.140.28.110","Mozilla/5.0 (Windows NT 10.0; Win64; x64; rv:141.0) Gecko/20100101 Firefox/141.0","","Firefox","141.0","Windows","10.0","https://app.prolific.com/","en-US,en;q=0.5","56e4b2e044b184000b894159","683db9eb0562dbf637994deb","68829c4d484a9cb26c340092","2","1","56e4b2e044b184000b894159","2","1","2025-07-24T20:51:54.412Z","","{""Q01"":""1"",""Q02"":""2"",""Q03"":""0""}","[0,1,2]","[""Q01"",""Q02"",""Q03""]","[6240,10373,16171]","[]","[6240,10373,16171,18463]","0.3333333333333333","0","0","stress","","","","","","","","","","","","","","","","","","","","","","","","","","","","","","",""
"23914","","","","instructions","5","156703","0.0-3.0-0.0","239","1","2025-07-24 20:49:38","1f75c3e559b7213887762d5229550c2b","91.140.28.110","Mozilla/5.0 (Windows NT 10.0; Win64; x64; rv:141.0) Gecko/20100101 Firefox/141.0","","Firefox","141.0","Windows","10.0","https://app.prolific.com/","en-US,en;q=0.5","56e4b2e044b184000b894159","683db9eb0562dbf637994deb","68829c4d484a9cb26c340092","2","1","56e4b2e044b184000b894159","2","1","","","","","","","","","","","","","[{""page_index"":0,""viewing_time"":23913}]","","","","","","","","","","","","","","","","","","","","","","","","","","","","","",""
"12182","","<p>Before you start with this game please answer the following three questions yourself. </p>
  <p>Through this game, we measure several aspects of your cognitive performance, such as reaction times, multi-tasking capabilities </p>
  <p>and the ability to assess the situation you are in.</p>
  <p></p>
  <p><b>How good do you usually are in such tasks?</b></p>","90","html-slider-response","6","168887","0.0-4.0-0.0","239","1","2025-07-24 20:49:38","1f75c3e559b7213887762d5229550c2b","91.140.28.110","Mozilla/5.0 (Windows NT 10.0; Win64; x64; rv:141.0) Gecko/20100101 Firefox/141.0","","Firefox","141.0","Windows","10.0","https://app.prolific.com/","en-US,en;q=0.5","56e4b2e044b184000b894159","683db9eb0562dbf637994deb","68829c4d484a9cb26c340092","2","1","56e4b2e044b184000b894159","2","1","2025-07-24T20:52:30.512Z","","","","","","","","","","","PreSkillQ","","50","","","","","","","","","","","","","","","","","","","","","","","","","","","","",""
"10153","","<div style=""width:500px;"">
  <p>How well do you think you will perform in this task compared to other participants?</p>
  </div>","55","html-slider-response","7","179041","0.0-4.0-1.0","239","1","2025-07-24 20:49:38","1f75c3e559b7213887762d5229550c2b","91.140.28.110","Mozilla/5.0 (Windows NT 10.0; Win64; x64; rv:141.0) Gecko/20100101 Firefox/141.0","","Firefox","141.0","Windows","10.0","https://app.prolific.com/","en-US,en;q=0.5","56e4b2e044b184000b894159","683db9eb0562dbf637994deb","68829c4d484a9cb26c340092","2","1","56e4b2e044b184000b894159","2","1","2025-07-24T20:52:40.666Z","","","","","","","","","","","PrePerfQ","","50","","","","","","","","","","","","","","","","","","","","","","","","","","","","",""
"15758","","<div style=""width:500px;"">
  <p>What best describes how you currently feel?</p>
  </div>","81","html-slider-response","8","194800","0.0-4.0-2.0","239","1","2025-07-24 20:49:38","1f75c3e559b7213887762d5229550c2b","91.140.28.110","Mozilla/5.0 (Windows NT 10.0; Win64; x64; rv:141.0) Gecko/20100101 Firefox/141.0","","Firefox","141.0","Windows","10.0","https://app.prolific.com/","en-US,en;q=0.5","56e4b2e044b184000b894159","683db9eb0562dbf637994deb","68829c4d484a9cb26c340092","2","1","56e4b2e044b184000b894159","2","1","2025-07-24T20:52:56.425Z","","","","","","","","","","","PreMotivationQ","","50","","","","","","","","","","","","","","","","","","","","","","","","","","","","",""
"","","","","ctl-task-cpt","9","229054","0.0-5.0-0.0","239","1","2025-07-24 20:49:38","1f75c3e559b7213887762d5229550c2b","91.140.28.110","Mozilla/5.0 (Windows NT 10.0; Win64; x64; rv:141.0) Gecko/20100101 Firefox/141.0","","Firefox","141.0","Windows","10.0","https://app.prolific.com/","en-US,en;q=0.5","56e4b2e044b184000b894159","683db9eb0562dbf637994deb","68829c4d484a9cb26c340092","2","1","56e4b2e044b184000b894159","2","1","2025-07-24T20:53:30.679Z","","","","","","","","","","","","","","win-only","2","g1:SE,g2:NW","1","1","0","199927","1386","6390","31239","1","4","8","6","2","8","8","8","0","0.06060606060606061","845","3000","2200","[""left"",""up""]","{""num_key_presses"":6,""num_perfect"":6,""num_errors"":0,""num_randdir"":0,""num_randdir_good_moves"":0,""num_whilered"":0,""num_whileblue"":0,""num_blue"":2,""num_good_moves"":6}","[416.5714133126395,413.8214362008231,0,416.5714133126395,413.8214362008231,114,416.5714133126395,413.8214362008231,224,417.8214133126395,413.8214362008231,337,316.5714133126395,341.3214362008231,449,165.3214133126395,195.0714362008231,561,144.0714133126395,136.3214362008231,672,67.8214133126395,27.5714362008231,784,52.82141331263951,18.8214362008231,895,56.57141331263951,21.3214362008231,1006,64.0714133126395,48.8214362008231,1117,-63.42858668736049,230.0714362008231,1228,-127.1785866873605,275.0714362008231,1340,-210.9285866873605,321.3214362008231,1443,-255.9285866873605,338.8214362008231,1555,-260.9285866873605,341.3214362008231,1666,-262.1785866873605,342.5714362008231,1776,-263.4285866873605,341.3214362008231,1877,-203.4285866873605,328.8214362008231,1988,-198.4285866873605,333.8214362008231,2100,-197.1785866873605,333.8214362008231,2210,-197.1785866873605,333.8214362008231,2322,-195.9285866873605,335.0714362008231,2432,-192.1785866873605,338.8214362008231,2544,-192.1785866873605,338.8214362008231,2655,-192.1785866873605,338.8214362008231,2768,-190.9285866873605,338.8214362008231,2878,-190.9285866873605,338.8214362008231,2990,-190.9285866873605,338.8214362008231,3101,-190.9285866873605,338.8214362008231,3214,-190.9285866873605,338.8214362008231,3324,-189.6785866873605,340.0714362008231,3436,-189.6785866873605,340.0714362008231,3545,-189.6785866873605,340.0714362008231,3652,-189.6785866873605,340.0714362008231,3764,-189.6785866873605,340.0714362008231,3869,-189.6785866873605,340.0714362008231,3977,-189.6785866873605,340.0714362008231,4086,-189.6785866873605,340.0714362008231,4194,-189.6785866873605,340.0714362008231,4302,-189.6785866873605,340.0714362008231,4411,-189.6785866873605,340.0714362008231,4520,-189.6785866873605,340.0714362008231,4629,-189.6785866873605,340.0714362008231,4738,-189.6785866873605,340.0714362008231,4848,-189.6785866873605,340.0714362008231,4957]","[1442,1442,1000,0,442,""smooth"",""left"",""left"",""good_move"",8265,6823,2779.7,5042,443.3,""smooth"",""left"",""left"",""good_move"",15245,6980,2917.5,11879,448.5,""smooth"",""left"",""left"",""good_move"",18319,3074,1887.9,15245,1186.1,""smooth"",""up"",""up"",""good_move"",21431,3111,2127.3,18320,983.7,""smooth"",""up"",""up"",""good_move"",24553,3122,2222.5,21431,899.5,""smooth"",""up"",""up"",""good_move""]","",""
"7215","","<div style=""width:500px;"">
  <p>What determined the result of this run?</p>
  </div>","62","html-slider-response","10","236271","0.0-5.0-1.0","239","1","2025-07-24 20:49:38","1f75c3e559b7213887762d5229550c2b","91.140.28.110","Mozilla/5.0 (Windows NT 10.0; Win64; x64; rv:141.0) Gecko/20100101 Firefox/141.0","","Firefox","141.0","Windows","10.0","https://app.prolific.com/","en-US,en;q=0.5","56e4b2e044b184000b894159","683db9eb0562dbf637994deb","68829c4d484a9cb26c340092","2","1","56e4b2e044b184000b894159","2","1","2025-07-24T20:53:37.896Z","","","","","","","","","","","AttribQ","","50","","","","","","","","","","","","","","","","","","","","","","","","","","","","",""
"3384","","<div style=""width:500px;"">
  <p>How much control did you have over the ball?</p>
  </div>","100","html-slider-response","11","239656","0.0-5.0-2.0","239","1","2025-07-24 20:49:38","1f75c3e559b7213887762d5229550c2b","91.140.28.110","Mozilla/5.0 (Windows NT 10.0; Win64; x64; rv:141.0) Gecko/20100101 Firefox/141.0","","Firefox","141.0","Windows","10.0","https://app.prolific.com/","en-US,en;q=0.5","56e4b2e044b184000b894159","683db9eb0562dbf637994deb","68829c4d484a9cb26c340092","2","1","56e4b2e044b184000b894159","2","1","2025-07-24T20:53:41.281Z","","","","","","","","","","","ControlQ","","50","","","","","","","","","","","","","","","","","","","","","","","","","","","","",""
"7191","","<div style=""width:500px;"">
  <p>How would you describe your current emotional state?</p>
  </div>","2","html-slider-response","12","246848","0.0-5.0-3.0","239","1","2025-07-24 20:49:38","1f75c3e559b7213887762d5229550c2b","91.140.28.110","Mozilla/5.0 (Windows NT 10.0; Win64; x64; rv:141.0) Gecko/20100101 Firefox/141.0","","Firefox","141.0","Windows","10.0","https://app.prolific.com/","en-US,en;q=0.5","56e4b2e044b184000b894159","683db9eb0562dbf637994deb","68829c4d484a9cb26c340092","2","1","56e4b2e044b184000b894159","2","1","2025-07-24T20:53:48.473Z","","","","","","","","","","","StressQ","","50","","","","","","","","","","","","","","","","","","","","","","","","","","","","",""
"11712","","<div style=""width:500px;"">
  <p>What best describes how you currently feel?</p>
  </div>","92","html-slider-response","13","258563","0.0-5.0-4.0","239","1","2025-07-24 20:49:38","1f75c3e559b7213887762d5229550c2b","91.140.28.110","Mozilla/5.0 (Windows NT 10.0; Win64; x64; rv:141.0) Gecko/20100101 Firefox/141.0","","Firefox","141.0","Windows","10.0","https://app.prolific.com/","en-US,en;q=0.5","56e4b2e044b184000b894159","683db9eb0562dbf637994deb","68829c4d484a9cb26c340092","2","1","56e4b2e044b184000b894159","2","1","2025-07-24T20:54:00.188Z","","","","","","","","","","","MotivationQ","","50","","","","","","","","","","","","","","","","","","","","","","","","","","","","",""
"","","","","ctl-task-cpt","14","285882","0.0-5.0-0.1","239","1","2025-07-24 20:49:38","1f75c3e559b7213887762d5229550c2b","91.140.28.110","Mozilla/5.0 (Windows NT 10.0; Win64; x64; rv:141.0) Gecko/20100101 Firefox/141.0","","Firefox","141.0","Windows","10.0","https://app.prolific.com/","en-US,en;q=0.5","56e4b2e044b184000b894159","683db9eb0562dbf637994deb","68829c4d484a9cb26c340092","2","1","56e4b2e044b184000b894159","2","1","2025-07-24T20:54:27.507Z","","","","","","","","","","","","","","win-only","0","g1:NW,g2:SE","0.9","2","0","263689","1654","6664","24314","1","4","4","6","2","4","4","12","8","0.09090909090909091","947","3000","2180","[""down"",""right""]","{""num_key_presses"":6,""num_perfect"":5,""num_errors"":0,""num_randdir"":1,""num_randdir_good_moves"":1,""num_whilered"":0,""num_whileblue"":0,""num_blue"":0,""num_good_moves"":6}","[411.5714133126395,422.5714362008231,0,411.5714133126395,422.5714362008231,115,411.5714133126395,422.5714362008231,220,411.5714133126395,422.5714362008231,329,411.5714133126395,422.5714362008231,436,411.5714133126395,427.5714362008231,545,644.0714133126395,723.8214362008231,653,701.5714133126395,742.5714362008231,763,800.3214133126395,783.8214362008231,872,815.3214133126395,791.3214362008231,980,814.0714133126395,793.8214362008231,1087,814.0714133126395,793.8214362008231,1197,1156.5714133126396,587.5714362008231,1307,1231.5714133126396,540.0714362008231,1416,1231.5714133126396,540.0714362008231,1525,1232.8214133126396,533.8214362008231,1633,1232.8214133126396,533.8214362008231,1742,1232.8214133126396,533.8214362008231,1853,1232.8214133126396,533.8214362008231,1963,1232.8214133126396,533.8214362008231,2073,1232.8214133126396,533.8214362008231,2181,1232.8214133126396,533.8214362008231,2291,1232.8214133126396,533.8214362008231,2399,1232.8214133126396,533.8214362008231,2509,1232.8214133126396,533.8214362008231,2620,1232.8214133126396,533.8214362008231,2729,1232.8214133126396,533.8214362008231,2837,1232.8214133126396,533.8214362008231,2944,1232.8214133126396,533.8214362008231,3055,1232.8214133126396,533.8214362008231,3164,1232.8214133126396,533.8214362008231,3274,1232.8214133126396,533.8214362008231,3383,1232.8214133126396,533.8214362008231,3492,1232.8214133126396,533.8214362008231,3600,1232.8214133126396,533.8214362008231,3711,1232.8214133126396,533.8214362008231,3818,1232.8214133126396,533.8214362008231,3926,1232.8214133126396,533.8214362008231,4034,1232.8214133126396,533.8214362008231,4144,1232.8214133126396,533.8214362008231,4255,1232.8214133126396,533.8214362008231,4362,1232.8214133126396,533.8214362008231,4471,1232.8214133126396,533.8214362008231,4578,1232.8214133126396,533.8214362008231,4687,1232.8214133126396,533.8214362008231,4795,1232.8214133126396,533.8214362008231,4903]","[1434,1434,1000,0,434,""smooth"",""down"",""down"",""good_move"",4817,3383,2967.9,1434,415.1,""smooth"",""down"",""down"",""good_move"",8058,3241,2816.8,4817,424.2,""oops"",""down"",""down"",""good_move"",11149,3091,2674.9,8058,416.1,""smooth"",""right"",""right"",""good_move"",14071,2922,2528,11149,394,""smooth"",""right"",""right"",""good_move"",17365,3294,2742,14071,552,""smooth"",""right"",""right"",""good_move""]","",""
"9465","","<div style=""width:500px;"">
  <p>What determined the result of this run?</p>
  </div>","60","html-slider-response","15","295349","0.0-5.0-1.1","239","1","2025-07-24 20:49:38","1f75c3e559b7213887762d5229550c2b","91.140.28.110","Mozilla/5.0 (Windows NT 10.0; Win64; x64; rv:141.0) Gecko/20100101 Firefox/141.0","","Firefox","141.0","Windows","10.0","https://app.prolific.com/","en-US,en;q=0.5","56e4b2e044b184000b894159","683db9eb0562dbf637994deb","68829c4d484a9cb26c340092","2","1","56e4b2e044b184000b894159","2","1","2025-07-24T20:54:36.974Z","","","","","","","","","","","AttribQ","","50","","","","","","","","","","","","","","","","","","","","","","","","","","","","",""
"5105","","<div style=""width:500px;"">
  <p>How much control did you have over the ball?</p>
  </div>","97","html-slider-response","16","300455","0.0-5.0-2.1","239","1","2025-07-24 20:49:38","1f75c3e559b7213887762d5229550c2b","91.140.28.110","Mozilla/5.0 (Windows NT 10.0; Win64; x64; rv:141.0) Gecko/20100101 Firefox/141.0","","Firefox","141.0","Windows","10.0","https://app.prolific.com/","en-US,en;q=0.5","56e4b2e044b184000b894159","683db9eb0562dbf637994deb","68829c4d484a9cb26c340092","2","1","56e4b2e044b184000b894159","2","1","2025-07-24T20:54:42.080Z","","","","","","","","","","","ControlQ","","50","","","","","","","","","","","","","","","","","","","","","","","","","","","","",""
"5459","","<div style=""width:500px;"">
  <p>How would you describe your current emotional state?</p>
  </div>","1","html-slider-response","17","305915","0.0-5.0-3.1","239","1","2025-07-24 20:49:38","1f75c3e559b7213887762d5229550c2b","91.140.28.110","Mozilla/5.0 (Windows NT 10.0; Win64; x64; rv:141.0) Gecko/20100101 Firefox/141.0","","Firefox","141.0","Windows","10.0","https://app.prolific.com/","en-US,en;q=0.5","56e4b2e044b184000b894159","683db9eb0562dbf637994deb","68829c4d484a9cb26c340092","2","1","56e4b2e044b184000b894159","2","1","2025-07-24T20:54:47.540Z","","","","","","","","","","","StressQ","","50","","","","","","","","","","","","","","","","","","","","","","","","","","","","",""
"8349","","<div style=""width:500px;"">
  <p>What best describes how you currently feel?</p>
  </div>","91","html-slider-response","18","314266","0.0-5.0-4.1","239","1","2025-07-24 20:49:38","1f75c3e559b7213887762d5229550c2b","91.140.28.110","Mozilla/5.0 (Windows NT 10.0; Win64; x64; rv:141.0) Gecko/20100101 Firefox/141.0","","Firefox","141.0","Windows","10.0","https://app.prolific.com/","en-US,en;q=0.5","56e4b2e044b184000b894159","683db9eb0562dbf637994deb","68829c4d484a9cb26c340092","2","1","56e4b2e044b184000b894159","2","1","2025-07-24T20:54:55.891Z","","","","","","","","","","","MotivationQ","","50","","","","","","","","","","","","","","","","","","","","","","","","","","","","",""
"","","","","ctl-task-cpt","19","360763","0.0-5.0-0.2","239","1","2025-07-24 20:49:38","1f75c3e559b7213887762d5229550c2b","91.140.28.110","Mozilla/5.0 (Windows NT 10.0; Win64; x64; rv:141.0) Gecko/20100101 Firefox/141.0","","Firefox","141.0","Windows","10.0","https://app.prolific.com/","en-US,en;q=0.5","56e4b2e044b184000b894159","683db9eb0562dbf637994deb","68829c4d484a9cb26c340092","2","1","56e4b2e044b184000b894159","2","1","2025-07-24T20:55:42.389Z","","","","","","","","","","","","","","win-only","1","g1:NE,g2:SW","0.8","3","0","319392","1219","6231","43494","1","4","8","6","2","8","8","20","12","0.15151515151515152","856","3000","1760","[""down"",""left""]","{""num_key_presses"":8,""num_perfect"":6,""num_errors"":0,""num_randdir"":2,""num_randdir_good_moves"":1,""num_whilered"":0,""num_whileblue"":0,""num_blue"":4,""num_good_moves"":7}","[419.0714133126395,417.5714362008231,0,419.0714133126395,418.8214362008231,100,419.0714133126395,421.3214362008231,207,419.0714133126395,421.3214362008231,314,384.0714133126395,478.8214362008231,423,202.8214133126395,708.8214362008231,531,154.0714133126395,743.8214362008231,641,124.0714133126395,750.0714362008231,752,34.07141331263951,780.0714362008231,857,34.07141331263951,780.0714362008231,964,34.07141331263951,780.0714362008231,1074,-109.6785866873605,773.8214362008231,1186,-543.4285866873605,750.0714362008231,1297,-509.6785866873605,665.0714362008231,1403,-454.6785866873605,536.3214362008231,1509,-485.9285866873605,506.3214362008231,1618,-522.1785866873605,495.0714362008231,1726,-503.4285866873605,511.3214362008231,1835,-490.9285866873605,528.8214362008231,1942,-487.1785866873605,533.8214362008231,2053,-480.9285866873605,543.8214362008231,2162,-480.9285866873605,545.0714362008231,2271,-477.1785866873605,548.8214362008231,2379,-474.6785866873605,551.3214362008231,2486,-474.6785866873605,551.3214362008231,2594,-469.6785866873605,551.3214362008231,2702,-467.1785866873605,553.8214362008231,2812,-464.6785866873605,555.0714362008231,2920,-464.6785866873605,555.0714362008231,3028,-462.1785866873605,557.5714362008231,3136,-460.9285866873605,557.5714362008231,3244,-457.1785866873605,558.8214362008231,3355,-457.1785866873605,558.8214362008231,3463,-454.6785866873605,561.3214362008231,3572,-454.6785866873605,561.3214362008231,3680,-454.6785866873605,561.3214362008231,3791,-452.1785866873605,562.5714362008231,3900,-452.1785866873605,562.5714362008231,4008,-452.1785866873605,562.5714362008231,4115,-450.9285866873605,563.8214362008231,4223,-450.9285866873605,563.8214362008231,4331,-450.9285866873605,563.8214362008231,4441,-449.6785866873605,563.8214362008231,4548,-449.6785866873605,563.8214362008231,4657,-449.6785866873605,563.8214362008231,4765,-449.6785866873605,563.8214362008231,4874,-449.6785866873605,563.8214362008231,4982]","[1409,1409,1000,0,409,""smooth"",""down"",""down"",""good_move"",3958,2550,2187.4,1409,362.6,""oops"",""down"",""down"",""good_move"",9827,5868,2010.3,7344,472.7,""oops"",""down"",""up"",""bad_move"",13034,3207,2369.9,9827,837.1,""smooth"",""down"",""down"",""good_move"",24137,11103,2424.2,21279,433.8,""smooth"",""down"",""down"",""good_move"",27713,3576,3209.8,24137,366.2,""smooth"",""left"",""left"",""good_move"",33722,6009,1534.7,31582,605.3,""smooth"",""left"",""left"",""good_move"",36989,3267,1988.2,33722,1278.8,""smooth"",""left"",""left"",""good_move""]","",""
"5289","","<div style=""width:500px;"">
  <p>What determined the result of this run?</p>
  </div>","57","html-slider-response","20","366055","0.0-5.0-1.2","239","1","2025-07-24 20:49:38","1f75c3e559b7213887762d5229550c2b","91.140.28.110","Mozilla/5.0 (Windows NT 10.0; Win64; x64; rv:141.0) Gecko/20100101 Firefox/141.0","","Firefox","141.0","Windows","10.0","https://app.prolific.com/","en-US,en;q=0.5","56e4b2e044b184000b894159","683db9eb0562dbf637994deb","68829c4d484a9cb26c340092","2","1","56e4b2e044b184000b894159","2","1","2025-07-24T20:55:47.680Z","","","","","","","","","","","AttribQ","","50","","","","","","","","","","","","","","","","","","","","","","","","","","","","",""
"5394","","<div style=""width:500px;"">
  <p>How much control did you have over the ball?</p>
  </div>","93","html-slider-response","21","371450","0.0-5.0-2.2","239","1","2025-07-24 20:49:38","1f75c3e559b7213887762d5229550c2b","91.140.28.110","Mozilla/5.0 (Windows NT 10.0; Win64; x64; rv:141.0) Gecko/20100101 Firefox/141.0","","Firefox","141.0","Windows","10.0","https://app.prolific.com/","en-US,en;q=0.5","56e4b2e044b184000b894159","683db9eb0562dbf637994deb","68829c4d484a9cb26c340092","2","1","56e4b2e044b184000b894159","2","1","2025-07-24T20:55:53.076Z","","","","","","","","","","","ControlQ","","50","","","","","","","","","","","","","","","","","","","","","","","","","","","","",""
"4466","","<div style=""width:500px;"">
  <p>How would you describe your current emotional state?</p>
  </div>","4","html-slider-response","22","375917","0.0-5.0-3.2","239","1","2025-07-24 20:49:38","1f75c3e559b7213887762d5229550c2b","91.140.28.110","Mozilla/5.0 (Windows NT 10.0; Win64; x64; rv:141.0) Gecko/20100101 Firefox/141.0","","Firefox","141.0","Windows","10.0","https://app.prolific.com/","en-US,en;q=0.5","56e4b2e044b184000b894159","683db9eb0562dbf637994deb","68829c4d484a9cb26c340092","2","1","56e4b2e044b184000b894159","2","1","2025-07-24T20:55:57.542Z","","","","","","","","","","","StressQ","","50","","","","","","","","","","","","","","","","","","","","","","","","","","","","",""
"4667","","<div style=""width:500px;"">
  <p>What best describes how you currently feel?</p>
  </div>","92","html-slider-response","23","380585","0.0-5.0-4.2","239","1","2025-07-24 20:49:38","1f75c3e559b7213887762d5229550c2b","91.140.28.110","Mozilla/5.0 (Windows NT 10.0; Win64; x64; rv:141.0) Gecko/20100101 Firefox/141.0","","Firefox","141.0","Windows","10.0","https://app.prolific.com/","en-US,en;q=0.5","56e4b2e044b184000b894159","683db9eb0562dbf637994deb","68829c4d484a9cb26c340092","2","1","56e4b2e044b184000b894159","2","1","2025-07-24T20:56:02.210Z","","","","","","","","","","","MotivationQ","","50","","","","","","","","","","","","","","","","","","","","","","","","","","","","",""
"","","","","ctl-task-cpt","24","429194","0.0-5.0-0.3","239","1","2025-07-24 20:49:38","1f75c3e559b7213887762d5229550c2b","91.140.28.110","Mozilla/5.0 (Windows NT 10.0; Win64; x64; rv:141.0) Gecko/20100101 Firefox/141.0","","Firefox","141.0","Windows","10.0","https://app.prolific.com/","en-US,en;q=0.5","56e4b2e044b184000b894159","683db9eb0562dbf637994deb","68829c4d484a9cb26c340092","2","1","56e4b2e044b184000b894159","2","1","2025-07-24T20:56:50.819Z","","","","","","","","","","","","","","win-only","1","g1:NE,g2:SW","0.7","4","0","385712","1091","6096","45599","1","4","4","6","2","4","4","24","20","0.18181818181818182","980","3000","1535","[""down"",""left""]","{""num_key_presses"":10,""num_perfect"":7,""num_errors"":0,""num_randdir"":3,""num_randdir_good_moves"":1,""num_whilered"":0,""num_whileblue"":0,""num_blue"":2,""num_good_moves"":8}","[421.5714133126395,411.3214362008231,0,421.5714133126395,411.3214362008231,112,421.5714133126395,411.3214362008231,221,421.5714133126395,411.3214362008231,329,431.5714133126395,421.3214362008231,436,430.3214133126395,460.0714362008231,546,214.0714133126395,681.3214362008231,656,160.3214133126395,742.5714362008231,764,107.8214133126395,768.8214362008231,874,94.0714133126395,773.8214362008231,984,94.0714133126395,773.8214362008231,1093,94.0714133126395,773.8214362008231,1201,100.3214133126395,753.8214362008231,1311,150.3214133126395,692.5714362008231,1419,169.0714133126395,632.5714362008231,1528,186.5714133126395,621.3214362008231,1638,264.0714133126395,495.0714362008231,1747,304.0714133126395,437.5714362008231,1857,314.0714133126395,428.8214362008231,1965,315.3214133126395,431.3214362008231,2074,289.0714133126395,458.8214362008231,2183,239.0714133126395,528.8214362008231,2291,202.8214133126395,588.8214362008231,2402,179.0714133126395,687.5714362008231,2514,174.0714133126395,736.3214362008231,2626,174.0714133126395,751.3214362008231,2736,181.5714133126395,783.8214362008231,2849,189.0714133126395,792.5714362008231,2958,196.5714133126395,798.8214362008231,3069,197.8214133126395,798.8214362008231,3180,197.8214133126395,806.3214362008231,3290,200.3214133126395,807.5714362008231,3402,200.3214133126395,807.5714362008231,3513,214.0714133126395,801.3214362008231,3625,215.3214133126395,797.5714362008231,3734,215.3214133126395,797.5714362008231,3847,262.8214133126395,761.3214362008231,3959,344.0714133126395,638.8214362008231,4068,347.8214133126395,632.5714362008231,4179,346.5714133126395,631.3214362008231,4292,346.5714133126395,631.3214362008231,4402,346.5714133126395,631.3214362008231,4510,346.5714133126395,631.3214362008231,4619,346.5714133126395,631.3214362008231,4727,346.5714133126395,631.3214362008231,4835,346.5714133126395,631.3214362008231,4944]","[1462,1462,1000,0,462,""smooth"",""down"",""down"",""good_move"",5751,4289,3878,1462,411,""oops"",""down"",""left"",""good_move"",8835,3084,2198.2,5751,885.8,""smooth"",""down"",""down"",""good_move"",12296,3461,3024.7,8835,436.3,""oops"",""down"",""up"",""bad_move"",15344,3048,2389.6,12296,658.4,""smooth"",""down"",""down"",""good_move"",18438,3094,2705.2,15344,388.8,""smooth"",""down"",""down"",""good_move"",25075,6637,2827.2,21810,437.8,""smooth"",""left"",""left"",""good_move"",28160,3085,2587.6,25075,497.4,""oops"",""left"",""right"",""bad_move"",35974,7814,2838,32653,483,""smooth"",""left"",""left"",""good_move"",39223,3249,2150.6,35974,1098.4,""smooth"",""left"",""left"",""good_move""]","",""
"9754","","<div style=""width:500px;"">
  <p>What determined the result of this run?</p>
  </div>","60","html-slider-response","25","438949","0.0-5.0-1.3","239","1","2025-07-24 20:49:38","1f75c3e559b7213887762d5229550c2b","91.140.28.110","Mozilla/5.0 (Windows NT 10.0; Win64; x64; rv:141.0) Gecko/20100101 Firefox/141.0","","Firefox","141.0","Windows","10.0","https://app.prolific.com/","en-US,en;q=0.5","56e4b2e044b184000b894159","683db9eb0562dbf637994deb","68829c4d484a9cb26c340092","2","1","56e4b2e044b184000b894159","2","1","2025-07-24T20:57:00.574Z","","","","","","","","","","","AttribQ","","50","","","","","","","","","","","","","","","","","","","","","","","","","","","","",""
"5290","","<div style=""width:500px;"">
  <p>How much control did you have over the ball?</p>
  </div>","85","html-slider-response","26","444240","0.0-5.0-2.3","239","1","2025-07-24 20:49:38","1f75c3e559b7213887762d5229550c2b","91.140.28.110","Mozilla/5.0 (Windows NT 10.0; Win64; x64; rv:141.0) Gecko/20100101 Firefox/141.0","","Firefox","141.0","Windows","10.0","https://app.prolific.com/","en-US,en;q=0.5","56e4b2e044b184000b894159","683db9eb0562dbf637994deb","68829c4d484a9cb26c340092","2","1","56e4b2e044b184000b894159","2","1","2025-07-24T20:57:05.865Z","","","","","","","","","","","ControlQ","","50","","","","","","","","","","","","","","","","","","","","","","","","","","","","",""
"5081","","<div style=""width:500px;"">
  <p>How would you describe your current emotional state?</p>
  </div>","2","html-slider-response","27","449323","0.0-5.0-3.3","239","1","2025-07-24 20:49:38","1f75c3e559b7213887762d5229550c2b","91.140.28.110","Mozilla/5.0 (Windows NT 10.0; Win64; x64; rv:141.0) Gecko/20100101 Firefox/141.0","","Firefox","141.0","Windows","10.0","https://app.prolific.com/","en-US,en;q=0.5","56e4b2e044b184000b894159","683db9eb0562dbf637994deb","68829c4d484a9cb26c340092","2","1","56e4b2e044b184000b894159","2","1","2025-07-24T20:57:10.948Z","","","","","","","","","","","StressQ","","50","","","","","","","","","","","","","","","","","","","","","","","","","","","","",""
"3295","","<div style=""width:500px;"">
  <p>What best describes how you currently feel?</p>
  </div>","91","html-slider-response","28","452620","0.0-5.0-4.3","239","1","2025-07-24 20:49:38","1f75c3e559b7213887762d5229550c2b","91.140.28.110","Mozilla/5.0 (Windows NT 10.0; Win64; x64; rv:141.0) Gecko/20100101 Firefox/141.0","","Firefox","141.0","Windows","10.0","https://app.prolific.com/","en-US,en;q=0.5","56e4b2e044b184000b894159","683db9eb0562dbf637994deb","68829c4d484a9cb26c340092","2","1","56e4b2e044b184000b894159","2","1","2025-07-24T20:57:14.245Z","","","","","","","","","","","MotivationQ","","50","","","","","","","","","","","","","","","","","","","","","","","","","","","","",""
"","","","","ctl-task-cpt","29","489562","0.0-5.0-0.4","239","1","2025-07-24 20:49:38","1f75c3e559b7213887762d5229550c2b","91.140.28.110","Mozilla/5.0 (Windows NT 10.0; Win64; x64; rv:141.0) Gecko/20100101 Firefox/141.0","","Firefox","141.0","Windows","10.0","https://app.prolific.com/","en-US,en;q=0.5","56e4b2e044b184000b894159","683db9eb0562dbf637994deb","68829c4d484a9cb26c340092","2","1","56e4b2e044b184000b894159","2","1","2025-07-24T20:57:51.187Z","","","","","","","","","","","","","","win-only","1","g1:NE,g2:SW","0.6","5","0","457746","1818","6821","33934","1","4","8","6","2","8","8","32","24","0.24242424242424243","950","3000","1970","[""down"",""left""]","{""num_key_presses"":8,""num_perfect"":6,""num_errors"":0,""num_randdir"":2,""num_randdir_good_moves"":1,""num_whilered"":0,""num_whileblue"":0,""num_blue"":1,""num_good_moves"":7}","[419.0714133126395,413.8214362008231,0,419.0714133126395,413.8214362008231,108,419.0714133126395,413.8214362008231,220,419.0714133126395,413.8214362008231,329,330.3214133126395,497.5714362008231,438,191.5714133126395,695.0714362008231,548,164.0714133126395,730.0714362008231,659,137.8214133126395,762.5714362008231,766,105.3214133126395,777.5714362008231,877,89.0714133126395,778.8214362008231,986,112.8214133126395,775.0714362008231,1097,880.3214133126395,547.5714362008231,1207,1049.0714133126396,515.0714362008231,1316,1142.8214133126396,508.8214362008231,1424,1142.8214133126396,508.8214362008231,1532,1142.8214133126396,508.8214362008231,1640,1142.8214133126396,508.8214362008231,1748,1142.8214133126396,508.8214362008231,1856,1142.8214133126396,508.8214362008231,1964,1142.8214133126396,508.8214362008231,2073,1142.8214133126396,508.8214362008231,2180,1142.8214133126396,508.8214362008231,2289,1142.8214133126396,508.8214362008231,2396,1142.8214133126396,508.8214362008231,2504,1142.8214133126396,508.8214362008231,2613,1142.8214133126396,508.8214362008231,2721,1142.8214133126396,508.8214362008231,2829,1142.8214133126396,508.8214362008231,2937,1142.8214133126396,508.8214362008231,3045,1142.8214133126396,508.8214362008231,3154,1142.8214133126396,508.8214362008231,3263,1142.8214133126396,508.8214362008231,3372,1142.8214133126396,508.8214362008231,3480,1142.8214133126396,508.8214362008231,3589,1142.8214133126396,508.8214362008231,3695,1142.8214133126396,508.8214362008231,3805,1142.8214133126396,508.8214362008231,3914,1142.8214133126396,508.8214362008231,4021,1142.8214133126396,508.8214362008231,4130,1142.8214133126396,508.8214362008231,4238,1142.8214133126396,508.8214362008231,4347,1142.8214133126396,508.8214362008231,4456,1142.8214133126396,508.8214362008231,4565,1142.8214133126396,508.8214362008231,4674,1142.8214133126396,508.8214362008231,4785,1142.8214133126396,508.8214362008231,4894]","[1391,1391,1000,0,391,""smooth"",""down"",""down"",""good_move"",4047,2656,2179.1,1391,476.9,""oops"",""down"",""up"",""bad_move"",7643,3596,3241.2,4047,354.8,""oops"",""down"",""left"",""good_move"",10742,3098,2700.5,7644,397.5,""smooth"",""down"",""down"",""good_move"",13874,3132,2732.1,10742,399.9,""smooth"",""down"",""down"",""good_move"",20985,7110,2594.8,17917,473.2,""smooth"",""down"",""down"",""good_move"",23458,2473,2023.8,20985,449.2,""smooth"",""left"",""left"",""good_move"",26818,3360,2958.1,23458,401.9,""smooth"",""left"",""left"",""good_move""]","",""
"12514","","<div style=""width:500px;"">
  <p>What determined the result of this run?</p>
  </div>","56","html-slider-response","30","502079","0.0-5.0-1.4","239","1","2025-07-24 20:49:38","1f75c3e559b7213887762d5229550c2b","91.140.28.110","Mozilla/5.0 (Windows NT 10.0; Win64; x64; rv:141.0) Gecko/20100101 Firefox/141.0","","Firefox","141.0","Windows","10.0","https://app.prolific.com/","en-US,en;q=0.5","56e4b2e044b184000b894159","683db9eb0562dbf637994deb","68829c4d484a9cb26c340092","2","1","56e4b2e044b184000b894159","2","1","2025-07-24T20:58:03.704Z","","","","","","","","","","","AttribQ","","50","","","","","","","","","","","","","","","","","","","","","","","","","","","","",""
"7268","","<div style=""width:500px;"">
  <p>How much control did you have over the ball?</p>
  </div>","78","html-slider-response","31","509348","0.0-5.0-2.4","239","1","2025-07-24 20:49:38","1f75c3e559b7213887762d5229550c2b","91.140.28.110","Mozilla/5.0 (Windows NT 10.0; Win64; x64; rv:141.0) Gecko/20100101 Firefox/141.0","","Firefox","141.0","Windows","10.0","https://app.prolific.com/","en-US,en;q=0.5","56e4b2e044b184000b894159","683db9eb0562dbf637994deb","68829c4d484a9cb26c340092","2","1","56e4b2e044b184000b894159","2","1","2025-07-24T20:58:10.973Z","","","","","","","","","","","ControlQ","","50","","","","","","","","","","","","","","","","","","","","","","","","","","","","",""
"3243","","<div style=""width:500px;"">
  <p>How would you describe your current emotional state?</p>
  </div>","3","html-slider-response","32","512593","0.0-5.0-3.4","239","1","2025-07-24 20:49:38","1f75c3e559b7213887762d5229550c2b","91.140.28.110","Mozilla/5.0 (Windows NT 10.0; Win64; x64; rv:141.0) Gecko/20100101 Firefox/141.0","","Firefox","141.0","Windows","10.0","https://app.prolific.com/","en-US,en;q=0.5","56e4b2e044b184000b894159","683db9eb0562dbf637994deb","68829c4d484a9cb26c340092","2","1","56e4b2e044b184000b894159","2","1","2025-07-24T20:58:14.218Z","","","","","","","","","","","StressQ","","50","","","","","","","","","","","","","","","","","","","","","","","","","","","","",""
"4636","","<div style=""width:500px;"">
  <p>What best describes how you currently feel?</p>
  </div>","90","html-slider-response","33","517230","0.0-5.0-4.4","239","1","2025-07-24 20:49:38","1f75c3e559b7213887762d5229550c2b","91.140.28.110","Mozilla/5.0 (Windows NT 10.0; Win64; x64; rv:141.0) Gecko/20100101 Firefox/141.0","","Firefox","141.0","Windows","10.0","https://app.prolific.com/","en-US,en;q=0.5","56e4b2e044b184000b894159","683db9eb0562dbf637994deb","68829c4d484a9cb26c340092","2","1","56e4b2e044b184000b894159","2","1","2025-07-24T20:58:18.855Z","","","","","","","","","","","MotivationQ","","50","","","","","","","","","","","","","","","","","","","","","","","","","","","","",""
"","","","","ctl-task-cpt","34","559016","0.0-5.0-0.5","239","1","2025-07-24 20:49:38","1f75c3e559b7213887762d5229550c2b","91.140.28.110","Mozilla/5.0 (Windows NT 10.0; Win64; x64; rv:141.0) Gecko/20100101 Firefox/141.0","","Firefox","141.0","Windows","10.0","https://app.prolific.com/","en-US,en;q=0.5","56e4b2e044b184000b894159","683db9eb0562dbf637994deb","68829c4d484a9cb26c340092","2","1","56e4b2e044b184000b894159","2","1","2025-07-24T20:59:00.642Z","","","","","","","","","","","","","","win-only","2","g1:SE,g2:NW","0.5","6","0","522357","1662","6672","38783","1","4","4","6","2","4","4","36","32","0.2727272727272727","896","3000","1985","[""left"",""up""]","{""num_key_presses"":8,""num_perfect"":5,""num_errors"":0,""num_randdir"":3,""num_randdir_good_moves"":2,""num_whilered"":0,""num_whileblue"":0,""num_blue"":3,""num_good_moves"":7}","[419.0714133126395,410.0714362008231,0,419.0714133126395,418.8214362008231,110,416.5714133126395,430.0714362008231,219,416.5714133126395,430.0714362008231,327,414.0714133126395,422.5714362008231,436,89.0714133126395,148.8214362008231,547,54.07141331263951,136.3214362008231,657,45.32141331263951,126.3214362008231,765,47.82141331263951,97.5714362008231,873,49.07141331263951,95.0714362008231,982,76.5714133126395,183.8214362008231,1090,121.5714133126395,355.0714362008231,1198,-214.6785866873605,568.8214362008231,1307,-365.9285866873605,593.8214362008231,1416,-397.1785866873605,578.8214362008231,1525,-378.4285866873605,548.8214362008231,1633,-370.9285866873605,563.8214362008231,1743,-368.4285866873605,573.8214362008231,1851,-365.9285866873605,580.0714362008231,1961,-363.4285866873605,583.8214362008231,2069,-359.6785866873605,588.8214362008231,2180,-359.6785866873605,588.8214362008231,2287,-359.6785866873605,591.3214362008231,2395,-357.1785866873605,595.0714362008231,2501,-357.1785866873605,595.0714362008231,2611,-357.1785866873605,595.0714362008231,2718,-355.9285866873605,598.8214362008231,2828,-355.9285866873605,598.8214362008231,2937,-355.9285866873605,598.8214362008231,3046,-355.9285866873605,598.8214362008231,3161,-355.9285866873605,598.8214362008231,3266,-355.9285866873605,598.8214362008231,3371,-355.9285866873605,598.8214362008231,3475,-355.9285866873605,598.8214362008231,3575,-355.9285866873605,598.8214362008231,3675,-355.9285866873605,598.8214362008231,3784,-355.9285866873605,598.8214362008231,3887,-355.9285866873605,598.8214362008231,3997,-355.9285866873605,598.8214362008231,4108,-355.9285866873605,598.8214362008231,4213,-355.9285866873605,598.8214362008231,4326,-355.9285866873605,598.8214362008231,4432,-355.9285866873605,598.8214362008231,4533,-355.9285866873605,598.8214362008231,4634,-355.9285866873605,598.8214362008231,4734,-355.9285866873605,598.8214362008231,4836,-355.9285866873605,598.8214362008231,4951]","[1389,1389,1000,0,389,""smooth"",""left"",""left"",""good_move"",4389,3000,2508.3,1389,491.7,""smooth"",""left"",""left"",""good_move"",13809,9420,1898.1,11498,412.9,""oops"",""left"",""up"",""good_move"",16873,3064,2385.1,13809,678.9,""oops"",""left"",""down"",""bad_move"",22502,5629,1933.8,20137,431.2,""oops"",""left"",""up"",""good_move"",25513,3011,2590.7,22502,420.3,""smooth"",""left"",""left"",""good_move"",28841,3328,2948.7,25513,379.3,""smooth"",""up"",""up"",""good_move"",31820,2979,2348.3,28841,630.7,""smooth"",""up"",""up"",""good_move""]","",""
"8995","","<div style=""width:500px;"">
  <p>What determined the result of this run?</p>
  </div>","56","html-slider-response","35","568012","0.0-5.0-1.5","239","1","2025-07-24 20:49:38","1f75c3e559b7213887762d5229550c2b","91.140.28.110","Mozilla/5.0 (Windows NT 10.0; Win64; x64; rv:141.0) Gecko/20100101 Firefox/141.0","","Firefox","141.0","Windows","10.0","https://app.prolific.com/","en-US,en;q=0.5","56e4b2e044b184000b894159","683db9eb0562dbf637994deb","68829c4d484a9cb26c340092","2","1","56e4b2e044b184000b894159","2","1","2025-07-24T20:59:09.637Z","","","","","","","","","","","AttribQ","","50","","","","","","","","","","","","","","","","","","","","","","","","","","","","",""
"7311","","<div style=""width:500px;"">
  <p>How much control did you have over the ball?</p>
  </div>","73","html-slider-response","36","575324","0.0-5.0-2.5","239","1","2025-07-24 20:49:38","1f75c3e559b7213887762d5229550c2b","91.140.28.110","Mozilla/5.0 (Windows NT 10.0; Win64; x64; rv:141.0) Gecko/20100101 Firefox/141.0","","Firefox","141.0","Windows","10.0","https://app.prolific.com/","en-US,en;q=0.5","56e4b2e044b184000b894159","683db9eb0562dbf637994deb","68829c4d484a9cb26c340092","2","1","56e4b2e044b184000b894159","2","1","2025-07-24T20:59:16.949Z","","","","","","","","","","","ControlQ","","50","","","","","","","","","","","","","","","","","","","","","","","","","","","","",""
"4366","","<div style=""width:500px;"">
  <p>How would you describe your current emotional state?</p>
  </div>","2","html-slider-response","37","579692","0.0-5.0-3.5","239","1","2025-07-24 20:49:38","1f75c3e559b7213887762d5229550c2b","91.140.28.110","Mozilla/5.0 (Windows NT 10.0; Win64; x64; rv:141.0) Gecko/20100101 Firefox/141.0","","Firefox","141.0","Windows","10.0","https://app.prolific.com/","en-US,en;q=0.5","56e4b2e044b184000b894159","683db9eb0562dbf637994deb","68829c4d484a9cb26c340092","2","1","56e4b2e044b184000b894159","2","1","2025-07-24T20:59:21.317Z","","","","","","","","","","","StressQ","","50","","","","","","","","","","","","","","","","","","","","","","","","","","","","",""
"4718","","<div style=""width:500px;"">
  <p>What best describes how you currently feel?</p>
  </div>","89","html-slider-response","38","584412","0.0-5.0-4.5","239","1","2025-07-24 20:49:38","1f75c3e559b7213887762d5229550c2b","91.140.28.110","Mozilla/5.0 (Windows NT 10.0; Win64; x64; rv:141.0) Gecko/20100101 Firefox/141.0","","Firefox","141.0","Windows","10.0","https://app.prolific.com/","en-US,en;q=0.5","56e4b2e044b184000b894159","683db9eb0562dbf637994deb","68829c4d484a9cb26c340092","2","1","56e4b2e044b184000b894159","2","1","2025-07-24T20:59:26.037Z","","","","","","","","","","","MotivationQ","","50","","","","","","","","","","","","","","","","","","","","","","","","","","","","",""
"","","","","ctl-task-cpt","39","617605","0.0-5.0-0.6","239","1","2025-07-24 20:49:38","1f75c3e559b7213887762d5229550c2b","91.140.28.110","Mozilla/5.0 (Windows NT 10.0; Win64; x64; rv:141.0) Gecko/20100101 Firefox/141.0","","Firefox","141.0","Windows","10.0","https://app.prolific.com/","en-US,en;q=0.5","56e4b2e044b184000b894159","683db9eb0562dbf637994deb","68829c4d484a9cb26c340092","2","1","56e4b2e044b184000b894159","2","1","2025-07-24T20:59:59.230Z","","","","","","","","","","","","","","win-only","3","g1:SW,g2:NE","0.4","7","0","589538","1541","6554","30190","1","4","8","6","2","8","8","44","36","0.3333333333333333","855","3000","2135","[""up"",""right""]","{""num_key_presses"":6,""num_perfect"":4,""num_errors"":0,""num_randdir"":2,""num_randdir_good_moves"":2,""num_whilered"":0,""num_whileblue"":0,""num_blue"":2,""num_good_moves"":6}","[414.0714133126395,405.0714362008231,0,414.0714133126395,405.0714362008231,112,414.0714133126395,405.0714362008231,220,414.0714133126395,405.0714362008231,329,445.3214133126395,396.3214362008231,439,739.0714133126395,246.3214362008231,545,755.3214133126395,221.3214362008231,653,782.8214133126395,121.3214362008231,762,785.3214133126395,93.8214362008231,872,785.3214133126395,93.8214362008231,980,757.8214133126395,158.8214362008231,1089,702.8214133126395,312.5714362008231,1196,882.8214133126395,408.8214362008231,1303,1079.0714133126396,423.8214362008231,1411,1079.0714133126396,423.8214362008231,1520,1079.0714133126396,425.0714362008231,1628,1084.0714133126396,421.3214362008231,1737,1084.0714133126396,420.0714362008231,1845,1070.3214133126396,423.8214362008231,1954,1070.3214133126396,423.8214362008231,2060,1070.3214133126396,423.8214362008231,2169,1070.3214133126396,423.8214362008231,2279,1070.3214133126396,423.8214362008231,2387,1070.3214133126396,423.8214362008231,2496,1070.3214133126396,423.8214362008231,2604,1070.3214133126396,423.8214362008231,2713,1070.3214133126396,423.8214362008231,2823,1070.3214133126396,423.8214362008231,2933,1070.3214133126396,423.8214362008231,3042,1070.3214133126396,423.8214362008231,3151,1070.3214133126396,423.8214362008231,3259,1070.3214133126396,423.8214362008231,3367,1070.3214133126396,423.8214362008231,3476,1070.3214133126396,423.8214362008231,3586,1070.3214133126396,423.8214362008231,3694,1070.3214133126396,423.8214362008231,3805,1070.3214133126396,423.8214362008231,3911,1070.3214133126396,423.8214362008231,4019,1070.3214133126396,423.8214362008231,4127,1070.3214133126396,423.8214362008231,4236,1070.3214133126396,423.8214362008231,4343,1070.3214133126396,423.8214362008231,4452,1070.3214133126396,423.8214362008231,4563,1070.3214133126396,423.8214362008231,4672,1070.3214133126396,423.8214362008231,4781,1070.3214133126396,423.8214362008231,4890,1070.3214133126396,423.8214362008231,4997]","[4595,4595,2083.9,2011,500.1,""oops"",""right"",""up"",""good_move"",7713,3118,2588.5,4595,529.5,""oops"",""right"",""up"",""good_move"",13760,6047,2038,11318,404,""smooth"",""right"",""right"",""good_move"",17630,3869,3476.6,13761,392.4,""smooth"",""right"",""right"",""good_move"",20308,2678,2257.2,17630,420.8,""smooth"",""right"",""right"",""good_move"",23367,3059,2549.5,20308,509.5,""smooth"",""up"",""up"",""good_move""]","",""
"7113","","<div style=""width:500px;"">
  <p>What determined the result of this run?</p>
  </div>","59","html-slider-response","40","624719","0.0-5.0-1.6","239","1","2025-07-24 20:49:38","1f75c3e559b7213887762d5229550c2b","91.140.28.110","Mozilla/5.0 (Windows NT 10.0; Win64; x64; rv:141.0) Gecko/20100101 Firefox/141.0","","Firefox","141.0","Windows","10.0","https://app.prolific.com/","en-US,en;q=0.5","56e4b2e044b184000b894159","683db9eb0562dbf637994deb","68829c4d484a9cb26c340092","2","1","56e4b2e044b184000b894159","2","1","2025-07-24T21:00:06.345Z","","","","","","","","","","","AttribQ","","50","","","","","","","","","","","","","","","","","","","","","","","","","","","","",""
"8791","","<div style=""width:500px;"">
  <p>How much control did you have over the ball?</p>
  </div>","85","html-slider-response","41","633511","0.0-5.0-2.6","239","1","2025-07-24 20:49:38","1f75c3e559b7213887762d5229550c2b","91.140.28.110","Mozilla/5.0 (Windows NT 10.0; Win64; x64; rv:141.0) Gecko/20100101 Firefox/141.0","","Firefox","141.0","Windows","10.0","https://app.prolific.com/","en-US,en;q=0.5","56e4b2e044b184000b894159","683db9eb0562dbf637994deb","68829c4d484a9cb26c340092","2","1","56e4b2e044b184000b894159","2","1","2025-07-24T21:00:15.136Z","","","","","","","","","","","ControlQ","","50","","","","","","","","","","","","","","","","","","","","","","","","","","","","",""
"4621","","<div style=""width:500px;"">
  <p>How would you describe your current emotional state?</p>
  </div>","3","html-slider-response","42","638134","0.0-5.0-3.6","239","1","2025-07-24 20:49:38","1f75c3e559b7213887762d5229550c2b","91.140.28.110","Mozilla/5.0 (Windows NT 10.0; Win64; x64; rv:141.0) Gecko/20100101 Firefox/141.0","","Firefox","141.0","Windows","10.0","https://app.prolific.com/","en-US,en;q=0.5","56e4b2e044b184000b894159","683db9eb0562dbf637994deb","68829c4d484a9cb26c340092","2","1","56e4b2e044b184000b894159","2","1","2025-07-24T21:00:19.759Z","","","","","","","","","","","StressQ","","50","","","","","","","","","","","","","","","","","","","","","","","","","","","","",""
"8264","","<div style=""width:500px;"">
  <p>What best describes how you currently feel?</p>
  </div>","89","html-slider-response","43","646398","0.0-5.0-4.6","239","1","2025-07-24 20:49:38","1f75c3e559b7213887762d5229550c2b","91.140.28.110","Mozilla/5.0 (Windows NT 10.0; Win64; x64; rv:141.0) Gecko/20100101 Firefox/141.0","","Firefox","141.0","Windows","10.0","https://app.prolific.com/","en-US,en;q=0.5","56e4b2e044b184000b894159","683db9eb0562dbf637994deb","68829c4d484a9cb26c340092","2","1","56e4b2e044b184000b894159","2","1","2025-07-24T21:00:28.023Z","","","","","","","","","","","MotivationQ","","50","","","","","","","","","","","","","","","","","","","","","","","","","","","","",""
"","","","","ctl-task-cpt","44","736879","0.0-5.0-0.7","239","1","2025-07-24 20:49:38","1f75c3e559b7213887762d5229550c2b","91.140.28.110","Mozilla/5.0 (Windows NT 10.0; Win64; x64; rv:141.0) Gecko/20100101 Firefox/141.0","","Firefox","141.0","Windows","10.0","https://app.prolific.com/","en-US,en;q=0.5","56e4b2e044b184000b894159","683db9eb0562dbf637994deb","68829c4d484a9cb26c340092","2","1","56e4b2e044b184000b894159","2","1","2025-07-24T21:01:58.504Z","","","","","","","","","","","","","","win-only","2","g1:SE,g2:NW","0.3","8","0","651523","1221","6232","87466","1","4","4","6","2","4","4","48","44","0.36363636363636365","708","3000","15","[""left"",""up""]","{""num_key_presses"":22,""num_perfect"":7,""num_errors"":0,""num_randdir"":15,""num_randdir_good_moves"":7,""num_whilered"":0,""num_whileblue"":0,""num_blue"":4,""num_good_moves"":14}","[419.0714133126395,410.0714362008231,0,419.0714133126395,410.0714362008231,110,424.0714133126395,413.8214362008231,219,424.0714133126395,413.8214362008231,327,257.8214133126395,280.0714362008231,434,125.3214133126395,120.0714362008231,540,99.0714133126395,88.8214362008231,642,96.5714133126395,86.3214362008231,744,96.5714133126395,86.3214362008231,848,191.5714133126395,185.0714362008231,948,766.5714133126395,371.3214362008231,1060,816.5714133126395,358.8214362008231,1168,802.8214133126395,338.8214362008231,1270,794.0714133126395,328.8214362008231,1376,790.3214133126395,326.3214362008231,1478,781.5714133126395,301.3214362008231,1587,781.5714133126395,298.8214362008231,1701,752.8214133126395,178.8214362008231,1816,749.0714133126395,143.8214362008231,1925,749.0714133126395,143.8214362008231,2031,749.0714133126395,143.8214362008231,2136,749.0714133126395,143.8214362008231,2242,749.0714133126395,143.8214362008231,2356,749.0714133126395,143.8214362008231,2462,749.0714133126395,143.8214362008231,2574,749.0714133126395,143.8214362008231,2686,749.0714133126395,143.8214362008231,2796,749.0714133126395,143.8214362008231,2908,749.0714133126395,143.8214362008231,3019,749.0714133126395,143.8214362008231,3130,749.0714133126395,143.8214362008231,3242,749.0714133126395,143.8214362008231,3353,749.0714133126395,143.8214362008231,3463,749.0714133126395,143.8214362008231,3576,749.0714133126395,143.8214362008231,3688,749.0714133126395,143.8214362008231,3800,749.0714133126395,143.8214362008231,3910,749.0714133126395,143.8214362008231,4023,744.0714133126395,142.5714362008231,4133,744.0714133126395,142.5714362008231,4244,744.0714133126395,142.5714362008231,4356,744.0714133126395,142.5714362008231,4469,739.0714133126395,145.0714362008231,4578,744.0714133126395,145.0714362008231,4686,744.0714133126395,145.0714362008231,4793,744.0714133126395,145.0714362008231,4902]","[9103,9103,2773.5,5872,457.5,""oops"",""left"",""down"",""bad_move"",12451,3348,2871.8,9103,476.2,""oops"",""left"",""up"",""good_move"",15577,3126,2584,12451,542,""smooth"",""left"",""left"",""good_move"",19354,3777,3336.5,15577,440.5,""oops"",""left"",""right"",""bad_move"",22384,3030,2540.1,19354,489.9,""smooth"",""up"",""up"",""good_move"",25405,3021,1816.2,22384,1204.8,""oops"",""up"",""down"",""bad_move"",27950,2545,2095.1,25405,449.9,""smooth"",""left"",""left"",""good_move"",30984,3034,2344,27950,690,""oops"",""left"",""right"",""bad_move"",34103,3119,2735,30984,384,""oops"",""left"",""up"",""good_move"",37451,3348,2777.5,34103,570.5,""oops"",""left"",""right"",""bad_move"",40175,2724,2226.2,37451,497.8,""oops"",""up"",""down"",""bad_move"",43192,3017,2634,40175,383,""oops"",""left"",""down"",""bad_move"",46370,3178,2745.5,43192,432.5,""oops"",""left"",""left"",""good_move"",55752,9381,2379.4,52893,479.6,""oops"",""left"",""up"",""good_move"",58896,3144,2667,55752,477,""smooth"",""left"",""left"",""good_move"",62051,3155,2556.3,58897,597.7,""oops"",""left"",""left"",""good_move"",65417,3366,2893.4,62051,472.6,""smooth"",""left"",""left"",""good_move"",68576,3159,2790,65417,369,""smooth"",""up"",""up"",""good_move"",71887,3312,2965.6,68576,346.4,""oops"",""up"",""up"",""good_move"",74900,3012,2475.4,71888,536.6,""oops"",""up"",""down"",""bad_move"",78007,3107,2771.9,74900,335.1,""smooth"",""up"",""up"",""good_move"",80967,2960,2251.9,78007,708.1,""oops"",""up"",""up"",""good_move""]","",""
"5842","","<div style=""width:500px;"">
  <p>What determined the result of this run?</p>
  </div>","56","html-slider-response","45","742723","0.0-5.0-1.7","239","1","2025-07-24 20:49:38","1f75c3e559b7213887762d5229550c2b","91.140.28.110","Mozilla/5.0 (Windows NT 10.0; Win64; x64; rv:141.0) Gecko/20100101 Firefox/141.0","","Firefox","141.0","Windows","10.0","https://app.prolific.com/","en-US,en;q=0.5","56e4b2e044b184000b894159","683db9eb0562dbf637994deb","68829c4d484a9cb26c340092","2","1","56e4b2e044b184000b894159","2","1","2025-07-24T21:02:04.348Z","","","","","","","","","","","AttribQ","","50","","","","","","","","","","","","","","","","","","","","","","","","","","","","",""
"8237","","<div style=""width:500px;"">
  <p>How much control did you have over the ball?</p>
  </div>","21","html-slider-response","46","750962","0.0-5.0-2.7","239","1","2025-07-24 20:49:38","1f75c3e559b7213887762d5229550c2b","91.140.28.110","Mozilla/5.0 (Windows NT 10.0; Win64; x64; rv:141.0) Gecko/20100101 Firefox/141.0","","Firefox","141.0","Windows","10.0","https://app.prolific.com/","en-US,en;q=0.5","56e4b2e044b184000b894159","683db9eb0562dbf637994deb","68829c4d484a9cb26c340092","2","1","56e4b2e044b184000b894159","2","1","2025-07-24T21:02:12.587Z","","","","","","","","","","","ControlQ","","50","","","","","","","","","","","","","","","","","","","","","","","","","","","","",""
"4034","","<div style=""width:500px;"">
  <p>How would you describe your current emotional state?</p>
  </div>","1","html-slider-response","47","754997","0.0-5.0-3.7","239","1","2025-07-24 20:49:38","1f75c3e559b7213887762d5229550c2b","91.140.28.110","Mozilla/5.0 (Windows NT 10.0; Win64; x64; rv:141.0) Gecko/20100101 Firefox/141.0","","Firefox","141.0","Windows","10.0","https://app.prolific.com/","en-US,en;q=0.5","56e4b2e044b184000b894159","683db9eb0562dbf637994deb","68829c4d484a9cb26c340092","2","1","56e4b2e044b184000b894159","2","1","2025-07-24T21:02:16.622Z","","","","","","","","","","","StressQ","","50","","","","","","","","","","","","","","","","","","","","","","","","","","","","",""
"3169","","<div style=""width:500px;"">
  <p>What best describes how you currently feel?</p>
  </div>","95","html-slider-response","48","758167","0.0-5.0-4.7","239","1","2025-07-24 20:49:38","1f75c3e559b7213887762d5229550c2b","91.140.28.110","Mozilla/5.0 (Windows NT 10.0; Win64; x64; rv:141.0) Gecko/20100101 Firefox/141.0","","Firefox","141.0","Windows","10.0","https://app.prolific.com/","en-US,en;q=0.5","56e4b2e044b184000b894159","683db9eb0562dbf637994deb","68829c4d484a9cb26c340092","2","1","56e4b2e044b184000b894159","2","1","2025-07-24T21:02:19.792Z","","","","","","","","","","","MotivationQ","","50","","","","","","","","","","","","","","","","","","","","","","","","","","","","",""
"","","","","ctl-task-cpt","49","847800","0.0-5.0-0.8","239","1","2025-07-24 20:49:38","1f75c3e559b7213887762d5229550c2b","91.140.28.110","Mozilla/5.0 (Windows NT 10.0; Win64; x64; rv:141.0) Gecko/20100101 Firefox/141.0","","Firefox","141.0","Windows","10.0","https://app.prolific.com/","en-US,en;q=0.5","56e4b2e044b184000b894159","683db9eb0562dbf637994deb","68829c4d484a9cb26c340092","2","1","56e4b2e044b184000b894159","2","1","2025-07-24T21:03:49.425Z","","","","","","","","","","","","","","win-only","3","g1:SW,g2:NE","0.2","9","0","763294","1396","6408","86619","1","4","4","6","2","-4","-5","43","48","0.32575757575757575","827","3000","-960","[""up"",""right""]","{""num_key_presses"":21,""num_perfect"":4,""num_errors"":1,""num_randdir"":16,""num_randdir_good_moves"":6,""num_whilered"":0,""num_whileblue"":1,""num_blue"":6,""num_good_moves"":10}","[416.5714133126395,415.0714362008231,0,414.0714133126395,415.0714362008231,115,414.0714133126395,415.0714362008231,223,414.0714133126395,415.0714362008231,332,414.0714133126395,411.3214362008231,440,649.0714133126395,121.3214362008231,548,741.5714133126395,67.5714362008231,659,781.5714133126395,48.8214362008231,766,782.8214133126395,48.8214362008231,877,782.8214133126395,51.3214362008231,984,756.5714133126395,158.8214362008231,1093,900.3214133126395,217.5714362008231,1203,1281.5714133126396,233.8214362008231,1312,1345.3214133126396,258.8214362008231,1421,1362.8214133126396,266.3214362008231,1530,1362.8214133126396,266.3214362008231,1637,1362.8214133126396,266.3214362008231,1744,1362.8214133126396,266.3214362008231,1853,1362.8214133126396,266.3214362008231,1961,1362.8214133126396,266.3214362008231,2069,1362.8214133126396,266.3214362008231,2178,1362.8214133126396,266.3214362008231,2285,1362.8214133126396,266.3214362008231,2395,1362.8214133126396,266.3214362008231,2502,1362.8214133126396,266.3214362008231,2610,1362.8214133126396,266.3214362008231,2719,1362.8214133126396,266.3214362008231,2827,1362.8214133126396,266.3214362008231,2934,1362.8214133126396,266.3214362008231,3045,1362.8214133126396,266.3214362008231,3154,1362.8214133126396,266.3214362008231,3262,1362.8214133126396,266.3214362008231,3371,1362.8214133126396,266.3214362008231,3480,1362.8214133126396,266.3214362008231,3589,1362.8214133126396,266.3214362008231,3698,1362.8214133126396,266.3214362008231,3805,1362.8214133126396,266.3214362008231,3915,1362.8214133126396,266.3214362008231,4023,1362.8214133126396,266.3214362008231,4132,1362.8214133126396,266.3214362008231,4239,1362.8214133126396,266.3214362008231,4347,1362.8214133126396,266.3214362008231,4457,1362.8214133126396,266.3214362008231,4565,1362.8214133126396,266.3214362008231,4675,1362.8214133126396,266.3214362008231,4781,1362.8214133126396,266.3214362008231,4890,1362.8214133126396,266.3214362008231,4996]","[1404,1404,1000,0,404,""smooth"",""right"",""right"",""good_move"",4053,2649,2113.4,1404,535.6,""smooth"",""right"",""right"",""good_move"",6819,2766,2331,4053,435,""oops"",""right"",""right"",""good_move"",22024,15205,2122.9,19379,522.1,""oops"",""up"",""down"",""bad_move"",25615,3591,2978.5,22024,612.5,""oops"",""up"",""up"",""good_move"",28608,2993,2161.1,25615,831.9,""oops"",""up"",""down"",""bad_move"",31323,2715,2291.4,28608,423.6,""oops"",""up"",""down"",""bad_move"",38178,6855,2705,34997,476,""oops"",""up"",""left"",""bad_move"",41500,3322,2889.4,38178,432.6,""oops"",""up"",""right"",""good_move"",45160,3660,3285.7,41500,374.3,""oops"",""up"",""up"",""good_move"",48276,3116,1910.6,45160,1205.4,""oops"",""up"",""down"",""bad_move"",50954,2678,2130.9,48276,547.1,""oops"",""up"",""up"",""good_move"",54068,3114,2329.9,50954,784.1,""oops"",""up"",""down"",""bad_move"",57038,2970,2494,54068,476,""smooth"",""up"",""up"",""good_move"",60070,3032,2603.5,57038,428.5,""smooth"",""up"",""up"",""good_move"",63159,3089,2530.5,60070,558.5,""oops"",""up"",""down"",""bad_move"",65750,2591,2065.7,63159,525.3,""oops"",""up"",""left"",""bad_move"",68905,3155,2389.7,65750,765.3,""oops"",""up"",""right"",""good_move"",71667,2762,2340,68905,422,""while_blue"",""up"",""down"",""bad_move"",74084,2416,1825.7,71668,590.3,""oops"",""up"",""left"",""bad_move"",77497,3412,2965.3,74085,446.7,""oops"",""up"",""left"",""bad_move""]","",""
"6803","","<div style=""width:500px;"">
  <p>What determined the result of this run?</p>
  </div>","33","html-slider-response","50","854604","0.0-5.0-1.8","239","1","2025-07-24 20:49:38","1f75c3e559b7213887762d5229550c2b","91.140.28.110","Mozilla/5.0 (Windows NT 10.0; Win64; x64; rv:141.0) Gecko/20100101 Firefox/141.0","","Firefox","141.0","Windows","10.0","https://app.prolific.com/","en-US,en;q=0.5","56e4b2e044b184000b894159","683db9eb0562dbf637994deb","68829c4d484a9cb26c340092","2","1","56e4b2e044b184000b894159","2","1","2025-07-24T21:03:56.229Z","","","","","","","","","","","AttribQ","","50","","","","","","","","","","","","","","","","","","","","","","","","","","","","",""
"8694","","<div style=""width:500px;"">
  <p>How much control did you have over the ball?</p>
  </div>","6","html-slider-response","51","863299","0.0-5.0-2.8","239","1","2025-07-24 20:49:38","1f75c3e559b7213887762d5229550c2b","91.140.28.110","Mozilla/5.0 (Windows NT 10.0; Win64; x64; rv:141.0) Gecko/20100101 Firefox/141.0","","Firefox","141.0","Windows","10.0","https://app.prolific.com/","en-US,en;q=0.5","56e4b2e044b184000b894159","683db9eb0562dbf637994deb","68829c4d484a9cb26c340092","2","1","56e4b2e044b184000b894159","2","1","2025-07-24T21:04:04.925Z","","","","","","","","","","","ControlQ","","50","","","","","","","","","","","","","","","","","","","","","","","","","","","","",""
"4522","","<div style=""width:500px;"">
  <p>How would you describe your current emotional state?</p>
  </div>","4","html-slider-response","52","867822","0.0-5.0-3.8","239","1","2025-07-24 20:49:38","1f75c3e559b7213887762d5229550c2b","91.140.28.110","Mozilla/5.0 (Windows NT 10.0; Win64; x64; rv:141.0) Gecko/20100101 Firefox/141.0","","Firefox","141.0","Windows","10.0","https://app.prolific.com/","en-US,en;q=0.5","56e4b2e044b184000b894159","683db9eb0562dbf637994deb","68829c4d484a9cb26c340092","2","1","56e4b2e044b184000b894159","2","1","2025-07-24T21:04:09.447Z","","","","","","","","","","","StressQ","","50","","","","","","","","","","","","","","","","","","","","","","","","","","","","",""
"4906","","<div style=""width:500px;"">
  <p>What best describes how you currently feel?</p>
  </div>","92","html-slider-response","53","872728","0.0-5.0-4.8","239","1","2025-07-24 20:49:38","1f75c3e559b7213887762d5229550c2b","91.140.28.110","Mozilla/5.0 (Windows NT 10.0; Win64; x64; rv:141.0) Gecko/20100101 Firefox/141.0","","Firefox","141.0","Windows","10.0","https://app.prolific.com/","en-US,en;q=0.5","56e4b2e044b184000b894159","683db9eb0562dbf637994deb","68829c4d484a9cb26c340092","2","1","56e4b2e044b184000b894159","2","1","2025-07-24T21:04:14.353Z","","","","","","","","","","","MotivationQ","","50","","","","","","","","","","","","","","","","","","","","","","","","","","","","",""
"","","","","ctl-task-cpt","54","955057","0.0-5.0-0.9","239","1","2025-07-24 20:49:38","1f75c3e559b7213887762d5229550c2b","91.140.28.110","Mozilla/5.0 (Windows NT 10.0; Win64; x64; rv:141.0) Gecko/20100101 Firefox/141.0","","Firefox","141.0","Windows","10.0","https://app.prolific.com/","en-US,en;q=0.5","56e4b2e044b184000b894159","683db9eb0562dbf637994deb","68829c4d484a9cb26c340092","2","1","56e4b2e044b184000b894159","2","1","2025-07-24T21:05:36.682Z","","","","","","","","","","","","","","win-only","2","g1:SE,g2:NW","0.4","10","0","877855","1538","6547","79322","1","4","8","6","2","8","7","50","43","0.3787878787878788","856","3000","605","[""left"",""up""]","{""num_key_presses"":18,""num_perfect"":8,""num_errors"":1,""num_randdir"":9,""num_randdir_good_moves"":4,""num_whilered"":0,""num_whileblue"":1,""num_blue"":6,""num_good_moves"":12}","[424.0714133126395,422.5714362008231,0,424.0714133126395,422.5714362008231,101,424.0714133126395,422.5714362008231,208,424.0714133126395,422.5714362008231,315,424.0714133126395,422.5714362008231,423,180.3214133126395,192.5714362008231,533,134.0714133126395,156.3214362008231,642,117.8214133126395,127.5714362008231,751,95.3214133126395,78.8214362008231,859,95.3214133126395,78.8214362008231,970,109.0714133126395,107.5714362008231,1078,55.32141331263951,232.5714362008231,1188,-92.1785866873605,402.5714362008231,1296,-265.9285866873605,496.3214362008231,1406,-289.6785866873605,485.0714362008231,1513,-93.4285866873605,666.3214362008231,1623,-74.6785866873605,682.5714362008231,1730,-69.6785866873605,687.5714362008231,1845,-64.6785866873605,692.5714362008231,1956,-59.67858668736049,695.0714362008231,2067,-57.17858668736049,700.0714362008231,2178,-55.92858668736049,702.5714362008231,2291,-55.92858668736049,703.8214362008231,2402,-55.92858668736049,703.8214362008231,2513,-50.92858668736049,708.8214362008231,2624,-50.92858668736049,708.8214362008231,2737,-49.67858668736049,708.8214362008231,2847,-49.67858668736049,710.0714362008231,2958,-48.42858668736049,710.0714362008231,3071,-48.42858668736049,710.0714362008231,3182,-45.92858668736049,712.5714362008231,3295,-45.92858668736049,712.5714362008231,3406,-45.92858668736049,712.5714362008231,3518,-43.42858668736049,712.5714362008231,3630,-42.17858668736049,715.0714362008231,3741,-42.17858668736049,715.0714362008231,3851,-42.17858668736049,715.0714362008231,3958,-42.17858668736049,715.0714362008231,4065,-42.17858668736049,715.0714362008231,4172,-42.17858668736049,715.0714362008231,4281,-42.17858668736049,715.0714362008231,4393,-42.17858668736049,715.0714362008231,4501,-42.17858668736049,715.0714362008231,4609,-42.17858668736049,715.0714362008231,4716,-42.17858668736049,715.0714362008231,4825,-42.17858668736049,715.0714362008231,4931]","[1364,1364,1000,0,364,""oops"",""left"",""right"",""bad_move"",4407,3043,2700.9,1364,342.1,""smooth"",""left"",""left"",""good_move"",11148,6741,2648.7,8067,432.3,""oops"",""left"",""right"",""bad_move"",17734,6586,2956,14432,346,""while_blue"",""up"",""down"",""bad_move"",21177,3443,2896.9,17734,546.1,""smooth"",""up"",""up"",""good_move"",24310,3133,2708.9,21177,424.1,""smooth"",""up"",""up"",""good_move"",27451,3141,2427.1,24310,713.9,""smooth"",""up"",""up"",""good_move"",30545,3094,2323.6,27451,770.4,""oops"",""left"",""left"",""good_move"",33809,3264,2598.4,30545,665.6,""oops"",""left"",""right"",""bad_move"",36906,3097,2676,33809,421,""oops"",""left"",""right"",""bad_move"",39849,2943,2514,36906,429,""oops"",""left"",""up"",""good_move"",42889,3039,2580.3,39850,458.7,""oops"",""left"",""down"",""bad_move"",45474,2584,2087.5,42890,496.5,""smooth"",""left"",""left"",""good_move"",52664,7190,3117.7,49088,458.3,""smooth"",""left"",""left"",""good_move"",55805,3141,1942.3,52664,1198.7,""smooth"",""left"",""left"",""good_move"",58883,3078,2456.8,55805,621.2,""oops"",""left"",""left"",""good_move"",61977,3094,2333.8,58883,760.2,""smooth"",""left"",""left"",""good_move"",72511,10534,2070.3,69949,491.7,""oops"",""up"",""up"",""good_move""]","",""
"9329","","<div style=""width:500px;"">
  <p>What determined the result of this run?</p>
  </div>","60","html-slider-response","55","964387","0.0-5.0-1.9","239","1","2025-07-24 20:49:38","1f75c3e559b7213887762d5229550c2b","91.140.28.110","Mozilla/5.0 (Windows NT 10.0; Win64; x64; rv:141.0) Gecko/20100101 Firefox/141.0","","Firefox","141.0","Windows","10.0","https://app.prolific.com/","en-US,en;q=0.5","56e4b2e044b184000b894159","683db9eb0562dbf637994deb","68829c4d484a9cb26c340092","2","1","56e4b2e044b184000b894159","2","1","2025-07-24T21:05:46.012Z","","","","","","","","","","","AttribQ","","50","","","","","","","","","","","","","","","","","","","","","","","","","","","","",""
"6424","","<div style=""width:500px;"">
  <p>How much control did you have over the ball?</p>
  </div>","67","html-slider-response","56","970813","0.0-5.0-2.9","239","1","2025-07-24 20:49:38","1f75c3e559b7213887762d5229550c2b","91.140.28.110","Mozilla/5.0 (Windows NT 10.0; Win64; x64; rv:141.0) Gecko/20100101 Firefox/141.0","","Firefox","141.0","Windows","10.0","https://app.prolific.com/","en-US,en;q=0.5","56e4b2e044b184000b894159","683db9eb0562dbf637994deb","68829c4d484a9cb26c340092","2","1","56e4b2e044b184000b894159","2","1","2025-07-24T21:05:52.438Z","","","","","","","","","","","ControlQ","","50","","","","","","","","","","","","","","","","","","","","","","","","","","","","",""
"4162","","<div style=""width:500px;"">
  <p>How would you describe your current emotional state?</p>
  </div>","3","html-slider-response","57","974975","0.0-5.0-3.9","239","1","2025-07-24 20:49:38","1f75c3e559b7213887762d5229550c2b","91.140.28.110","Mozilla/5.0 (Windows NT 10.0; Win64; x64; rv:141.0) Gecko/20100101 Firefox/141.0","","Firefox","141.0","Windows","10.0","https://app.prolific.com/","en-US,en;q=0.5","56e4b2e044b184000b894159","683db9eb0562dbf637994deb","68829c4d484a9cb26c340092","2","1","56e4b2e044b184000b894159","2","1","2025-07-24T21:05:56.600Z","","","","","","","","","","","StressQ","","50","","","","","","","","","","","","","","","","","","","","","","","","","","","","",""
"12591","","<div style=""width:500px;"">
  <p>What best describes how you currently feel?</p>
  </div>","91","html-slider-response","58","987568","0.0-5.0-4.9","239","1","2025-07-24 20:49:38","1f75c3e559b7213887762d5229550c2b","91.140.28.110","Mozilla/5.0 (Windows NT 10.0; Win64; x64; rv:141.0) Gecko/20100101 Firefox/141.0","","Firefox","141.0","Windows","10.0","https://app.prolific.com/","en-US,en;q=0.5","56e4b2e044b184000b894159","683db9eb0562dbf637994deb","68829c4d484a9cb26c340092","2","1","56e4b2e044b184000b894159","2","1","2025-07-24T21:06:09.193Z","","","","","","","","","","","MotivationQ","","50","","","","","","","","","","","","","","","","","","","","","","","","","","","","",""
"","","","","ctl-task-cpt","59","1041563","0.0-5.0-0.10","239","1","2025-07-24 20:49:38","1f75c3e559b7213887762d5229550c2b","91.140.28.110","Mozilla/5.0 (Windows NT 10.0; Win64; x64; rv:141.0) Gecko/20100101 Firefox/141.0","","Firefox","141.0","Windows","10.0","https://app.prolific.com/","en-US,en;q=0.5","56e4b2e044b184000b894159","683db9eb0562dbf637994deb","68829c4d484a9cb26c340092","2","1","56e4b2e044b184000b894159","2","1","2025-07-24T21:07:03.188Z","","","","","","","","","","","","","","win-only","3","g1:SW,g2:NE","0.5","11","0","992695","2682","7691","50991","1","4","8","6","2","8","7","57","50","0.4318181818181818","847","3000","1295","[""up"",""right""]","{""num_key_presses"":14,""num_perfect"":7,""num_errors"":1,""num_randdir"":6,""num_randdir_good_moves"":2,""num_whilered"":0,""num_whileblue"":1,""num_blue"":2,""num_good_moves"":10}","[409.0714133126395,423.8214362008231,1,409.0714133126395,423.8214362008231,111,409.0714133126395,423.8214362008231,219,409.0714133126395,423.8214362008231,327,504.0714133126395,370.0714362008231,437,695.3214133126395,223.8214362008231,546,727.8214133126395,173.8214362008231,653,756.5714133126395,95.0714362008231,764,762.8214133126395,78.8214362008231,871,765.3214133126395,91.3214362008231,980,799.0714133126395,335.0714362008231,1089,799.0714133126395,337.5714362008231,1197,799.0714133126395,337.5714362008231,1305,799.0714133126395,337.5714362008231,1413,794.0714133126395,338.8214362008231,1521,794.0714133126395,338.8214362008231,1631,1046.5714133126396,285.0714362008231,1743,1146.5714133126396,258.8214362008231,1853,1146.5714133126396,258.8214362008231,1962,1146.5714133126396,258.8214362008231,2069,1146.5714133126396,258.8214362008231,2179,1146.5714133126396,258.8214362008231,2287,1146.5714133126396,258.8214362008231,2395,1146.5714133126396,258.8214362008231,2503,1146.5714133126396,258.8214362008231,2611,1146.5714133126396,258.8214362008231,2718,1146.5714133126396,258.8214362008231,2827,1146.5714133126396,258.8214362008231,2937,1146.5714133126396,258.8214362008231,3046,1146.5714133126396,258.8214362008231,3154,1146.5714133126396,258.8214362008231,3264,1146.5714133126396,258.8214362008231,3373,1146.5714133126396,258.8214362008231,3481,1146.5714133126396,258.8214362008231,3588,1146.5714133126396,258.8214362008231,3698,1146.5714133126396,258.8214362008231,3807,1146.5714133126396,258.8214362008231,3915,1146.5714133126396,258.8214362008231,4025,1146.5714133126396,258.8214362008231,4132,1146.5714133126396,258.8214362008231,4242,1146.5714133126396,258.8214362008231,4350,1146.5714133126396,258.8214362008231,4460,1146.5714133126396,258.8214362008231,4569,1146.5714133126396,258.8214362008231,4680,1146.5714133126396,258.8214362008231,4789,1146.5714133126396,258.8214362008231,4898]","[1345,1345,1000,0,345,""oops"",""right"",""down"",""bad_move"",7134,5789,2031.2,4707,395.8,""smooth"",""right"",""right"",""good_move"",9688,2554,2211.1,7134,342.9,""oops"",""right"",""down"",""bad_move"",13340,3652,3275.2,9688,376.8,""oops"",""right"",""left"",""bad_move"",16154,2814,2623,13340,191,""while_blue"",""right"",""up"",""good_move"",19560,3406,2907.5,16154,498.5,""smooth"",""right"",""right"",""good_move"",21793,2233,1688.6,19560,544.4,""oops"",""right"",""right"",""good_move"",24549,2756,2319.2,21793,436.8,""oops"",""right"",""right"",""good_move"",27613,3064,2638.7,24549,425.3,""smooth"",""up"",""up"",""good_move"",30646,3033,2648,27613,385,""smooth"",""up"",""up"",""good_move"",33651,3005,1632.6,30646,1372.4,""smooth"",""up"",""up"",""good_move"",36706,3055,2426.9,33651,628.1,""oops"",""up"",""left"",""bad_move"",39749,3043,2024.9,36706,1018.1,""smooth"",""up"",""up"",""good_move"",43028,3279,2855.2,39749,423.8,""smooth"",""right"",""right"",""good_move""]","",""
"5905","","<div style=""width:500px;"">
  <p>What determined the result of this run?</p>
  </div>","65","html-slider-response","60","1047470","0.0-5.0-1.10","239","1","2025-07-24 20:49:38","1f75c3e559b7213887762d5229550c2b","91.140.28.110","Mozilla/5.0 (Windows NT 10.0; Win64; x64; rv:141.0) Gecko/20100101 Firefox/141.0","","Firefox","141.0","Windows","10.0","https://app.prolific.com/","en-US,en;q=0.5","56e4b2e044b184000b894159","683db9eb0562dbf637994deb","68829c4d484a9cb26c340092","2","1","56e4b2e044b184000b894159","2","1","2025-07-24T21:07:09.095Z","","","","","","","","","","","AttribQ","","50","","","","","","","","","","","","","","","","","","","","","","","","","","","","",""
"6797","","<div style=""width:500px;"">
  <p>How much control did you have over the ball?</p>
  </div>","83","html-slider-response","61","1054268","0.0-5.0-2.10","239","1","2025-07-24 20:49:38","1f75c3e559b7213887762d5229550c2b","91.140.28.110","Mozilla/5.0 (Windows NT 10.0; Win64; x64; rv:141.0) Gecko/20100101 Firefox/141.0","","Firefox","141.0","Windows","10.0","https://app.prolific.com/","en-US,en;q=0.5","56e4b2e044b184000b894159","683db9eb0562dbf637994deb","68829c4d484a9cb26c340092","2","1","56e4b2e044b184000b894159","2","1","2025-07-24T21:07:15.893Z","","","","","","","","","","","ControlQ","","50","","","","","","","","","","","","","","","","","","","","","","","","","","","","",""
"3950","","<div style=""width:500px;"">
  <p>How would you describe your current emotional state?</p>
  </div>","10","html-slider-response","62","1058219","0.0-5.0-3.10","239","1","2025-07-24 20:49:38","1f75c3e559b7213887762d5229550c2b","91.140.28.110","Mozilla/5.0 (Windows NT 10.0; Win64; x64; rv:141.0) Gecko/20100101 Firefox/141.0","","Firefox","141.0","Windows","10.0","https://app.prolific.com/","en-US,en;q=0.5","56e4b2e044b184000b894159","683db9eb0562dbf637994deb","68829c4d484a9cb26c340092","2","1","56e4b2e044b184000b894159","2","1","2025-07-24T21:07:19.844Z","","","","","","","","","","","StressQ","","50","","","","","","","","","","","","","","","","","","","","","","","","","","","","",""
"6987","","<div style=""width:500px;"">
  <p>What best describes how you currently feel?</p>
  </div>","90","html-slider-response","63","1065207","0.0-5.0-4.10","239","1","2025-07-24 20:49:38","1f75c3e559b7213887762d5229550c2b","91.140.28.110","Mozilla/5.0 (Windows NT 10.0; Win64; x64; rv:141.0) Gecko/20100101 Firefox/141.0","","Firefox","141.0","Windows","10.0","https://app.prolific.com/","en-US,en;q=0.5","56e4b2e044b184000b894159","683db9eb0562dbf637994deb","68829c4d484a9cb26c340092","2","1","56e4b2e044b184000b894159","2","1","2025-07-24T21:07:26.832Z","","","","","","","","","","","MotivationQ","","50","","","","","","","","","","","","","","","","","","","","","","","","","","","","",""
"","","","","ctl-task-cpt","64","1122380","0.0-5.0-0.11","239","1","2025-07-24 20:49:38","1f75c3e559b7213887762d5229550c2b","91.140.28.110","Mozilla/5.0 (Windows NT 10.0; Win64; x64; rv:141.0) Gecko/20100101 Firefox/141.0","","Firefox","141.0","Windows","10.0","https://app.prolific.com/","en-US,en;q=0.5","56e4b2e044b184000b894159","683db9eb0562dbf637994deb","68829c4d484a9cb26c340092","2","1","56e4b2e044b184000b894159","2","1","2025-07-24T21:08:24.005Z","","","","","","","","","","","","","","win-only","2","g1:SE,g2:NW","0.6","12","0","1070333","1149","6161","54165","1","4","4","6","2","4","4","61","57","0.4621212121212121","819","3000","955","[""left"",""up""]","{""num_key_presses"":14,""num_perfect"":8,""num_errors"":0,""num_randdir"":6,""num_randdir_good_moves"":2,""num_whilered"":0,""num_whileblue"":0,""num_blue"":2,""num_good_moves"":10}","[422.8214133126395,413.8214362008231,0,422.8214133126395,413.8214362008231,109,422.8214133126395,413.8214362008231,210,422.8214133126395,413.8214362008231,317,422.8214133126395,413.8214362008231,421,230.3214133126395,158.8214362008231,521,150.3214133126395,96.3214362008231,630,109.0714133126395,73.8214362008231,740,89.0714133126395,65.0714362008231,842,87.8214133126395,68.8214362008231,943,280.3214133126395,285.0714362008231,1056,1250.3214133126396,550.0714362008231,1161,1375.3214133126396,463.8214362008231,1271,1375.3214133126396,408.8214362008231,1374,1375.3214133126396,388.8214362008231,1477,1375.3214133126396,388.8214362008231,1582,1375.3214133126396,388.8214362008231,1691,1375.3214133126396,388.8214362008231,1792,1375.3214133126396,388.8214362008231,1905,1375.3214133126396,388.8214362008231,2005,1375.3214133126396,388.8214362008231,2112,1375.3214133126396,388.8214362008231,2212,1375.3214133126396,388.8214362008231,2321,1375.3214133126396,388.8214362008231,2432,1375.3214133126396,388.8214362008231,2544,1375.3214133126396,388.8214362008231,2653,1375.3214133126396,388.8214362008231,2765,1375.3214133126396,388.8214362008231,2865,1375.3214133126396,388.8214362008231,2972,1375.3214133126396,388.8214362008231,3072,1375.3214133126396,388.8214362008231,3174,1375.3214133126396,388.8214362008231,3282,1375.3214133126396,388.8214362008231,3383,1375.3214133126396,388.8214362008231,3497,1375.3214133126396,388.8214362008231,3607,1375.3214133126396,388.8214362008231,3709,1375.3214133126396,388.8214362008231,3820,1375.3214133126396,388.8214362008231,3925,1375.3214133126396,388.8214362008231,4034,1375.3214133126396,388.8214362008231,4143,1375.3214133126396,388.8214362008231,4252,1375.3214133126396,388.8214362008231,4361,1375.3214133126396,388.8214362008231,4470,1375.3214133126396,388.8214362008231,4579,1375.3214133126396,388.8214362008231,4687,1375.3214133126396,388.8214362008231,4795,1375.3214133126396,388.8214362008231,4904]","[4797,4797,2241.1,2015,540.9,""smooth"",""left"",""left"",""good_move"",8121,3324,2860.7,4797,463.3,""smooth"",""left"",""left"",""good_move"",11154,3033,2144.7,8121,888.3,""oops"",""left"",""right"",""bad_move"",14118,2964,2452.9,11154,511.1,""oops"",""left"",""down"",""bad_move"",20045,5926,2400.5,17070,574.5,""smooth"",""left"",""left"",""good_move"",23338,3292,2838.3,20046,453.7,""smooth"",""left"",""left"",""good_move"",26376,3038,2557.9,23338,480.1,""oops"",""up"",""up"",""good_move"",29564,3188,2686.2,26376,501.8,""oops"",""up"",""down"",""bad_move"",32354,2790,2329.2,29564,460.8,""smooth"",""up"",""up"",""good_move"",35652,3298,2576.4,32354,721.6,""smooth"",""up"",""up"",""good_move"",38818,3166,2714.9,35652,451.1,""oops"",""up"",""right"",""bad_move"",41920,3102,2723.2,38818,378.8,""smooth"",""up"",""up"",""good_move"",44829,2909,2033.2,41920,875.8,""oops"",""up"",""left"",""good_move"",47747,2917,1699.5,44830,1217.5,""smooth"",""up"",""up"",""good_move""]","",""
"7150","","<div style=""width:500px;"">
  <p>What determined the result of this run?</p>
  </div>","60","html-slider-response","65","1129530","0.0-5.0-1.11","239","1","2025-07-24 20:49:38","1f75c3e559b7213887762d5229550c2b","91.140.28.110","Mozilla/5.0 (Windows NT 10.0; Win64; x64; rv:141.0) Gecko/20100101 Firefox/141.0","","Firefox","141.0","Windows","10.0","https://app.prolific.com/","en-US,en;q=0.5","56e4b2e044b184000b894159","683db9eb0562dbf637994deb","68829c4d484a9cb26c340092","2","1","56e4b2e044b184000b894159","2","1","2025-07-24T21:08:31.155Z","","","","","","","","","","","AttribQ","","50","","","","","","","","","","","","","","","","","","","","","","","","","","","","",""
"8460","","<div style=""width:500px;"">
  <p>How much control did you have over the ball?</p>
  </div>","84","html-slider-response","66","1137992","0.0-5.0-2.11","239","1","2025-07-24 20:49:38","1f75c3e559b7213887762d5229550c2b","91.140.28.110","Mozilla/5.0 (Windows NT 10.0; Win64; x64; rv:141.0) Gecko/20100101 Firefox/141.0","","Firefox","141.0","Windows","10.0","https://app.prolific.com/","en-US,en;q=0.5","56e4b2e044b184000b894159","683db9eb0562dbf637994deb","68829c4d484a9cb26c340092","2","1","56e4b2e044b184000b894159","2","1","2025-07-24T21:08:39.617Z","","","","","","","","","","","ControlQ","","50","","","","","","","","","","","","","","","","","","","","","","","","","","","","",""
"3729","","<div style=""width:500px;"">
  <p>How would you describe your current emotional state?</p>
  </div>","6","html-slider-response","67","1141721","0.0-5.0-3.11","239","1","2025-07-24 20:49:38","1f75c3e559b7213887762d5229550c2b","91.140.28.110","Mozilla/5.0 (Windows NT 10.0; Win64; x64; rv:141.0) Gecko/20100101 Firefox/141.0","","Firefox","141.0","Windows","10.0","https://app.prolific.com/","en-US,en;q=0.5","56e4b2e044b184000b894159","683db9eb0562dbf637994deb","68829c4d484a9cb26c340092","2","1","56e4b2e044b184000b894159","2","1","2025-07-24T21:08:43.346Z","","","","","","","","","","","StressQ","","50","","","","","","","","","","","","","","","","","","","","","","","","","","","","",""
"4022","","<div style=""width:500px;"">
  <p>What best describes how you currently feel?</p>
  </div>","90","html-slider-response","68","1145745","0.0-5.0-4.11","239","1","2025-07-24 20:49:38","1f75c3e559b7213887762d5229550c2b","91.140.28.110","Mozilla/5.0 (Windows NT 10.0; Win64; x64; rv:141.0) Gecko/20100101 Firefox/141.0","","Firefox","141.0","Windows","10.0","https://app.prolific.com/","en-US,en;q=0.5","56e4b2e044b184000b894159","683db9eb0562dbf637994deb","68829c4d484a9cb26c340092","2","1","56e4b2e044b184000b894159","2","1","2025-07-24T21:08:47.370Z","","","","","","","","","","","MotivationQ","","50","","","","","","","","","","","","","","","","","","","","","","","","","","","","",""
"","","","","ctl-task-cpt","69","1183371","0.0-5.0-0.12","239","1","2025-07-24 20:49:38","1f75c3e559b7213887762d5229550c2b","91.140.28.110","Mozilla/5.0 (Windows NT 10.0; Win64; x64; rv:141.0) Gecko/20100101 Firefox/141.0","","Firefox","141.0","Windows","10.0","https://app.prolific.com/","en-US,en;q=0.5","56e4b2e044b184000b894159","683db9eb0562dbf637994deb","68829c4d484a9cb26c340092","2","1","56e4b2e044b184000b894159","2","1","2025-07-24T21:09:24.996Z","","","","","","","","","","","","","","win-only","2","g1:SE,g2:NW","0.7","13","0","1150871","1601","6607","34620","1","4","8","6","2","8","8","69","61","0.5227272727272727","898","3000","1790","[""left"",""up""]","{""num_key_presses"":8,""num_perfect"":7,""num_errors"":0,""num_randdir"":1,""num_randdir_good_moves"":0,""num_whilered"":0,""num_whileblue"":0,""num_blue"":1,""num_good_moves"":7}","[414.0714133126395,410.0714362008231,0,414.0714133126395,410.0714362008231,102,414.0714133126395,408.8214362008231,214,414.0714133126395,408.8214362008231,325,357.8214133126395,358.8214362008231,437,227.8214133126395,222.5714362008231,548,176.5714133126395,136.3214362008231,659,122.8214133126395,98.8214362008231,768,55.32141331263951,58.8214362008231,876,54.07141331263951,57.5714362008231,986,12.821413312639507,146.3214362008231,1093,-132.1785866873605,290.0714362008231,1202,-190.9285866873605,348.8214362008231,1311,-192.1785866873605,353.8214362008231,1420,-195.9285866873605,351.3214362008231,1528,-192.1785866873605,350.0714362008231,1636,-174.6785866873605,363.8214362008231,1743,-174.6785866873605,363.8214362008231,1851,-174.6785866873605,363.8214362008231,1960,-174.6785866873605,363.8214362008231,2067,-173.4285866873605,363.8214362008231,2175,-173.4285866873605,363.8214362008231,2282,-173.4285866873605,363.8214362008231,2389,-173.4285866873605,363.8214362008231,2497,-173.4285866873605,363.8214362008231,2604,-173.4285866873605,363.8214362008231,2718,-173.4285866873605,363.8214362008231,2831,-173.4285866873605,363.8214362008231,2942,-173.4285866873605,363.8214362008231,3054,-173.4285866873605,363.8214362008231,3166,-173.4285866873605,363.8214362008231,3278,-173.4285866873605,363.8214362008231,3388,-173.4285866873605,363.8214362008231,3500,-173.4285866873605,363.8214362008231,3612,-173.4285866873605,363.8214362008231,3723,-173.4285866873605,363.8214362008231,3834,-173.4285866873605,363.8214362008231,3947,-173.4285866873605,363.8214362008231,4058,-173.4285866873605,363.8214362008231,4169,-173.4285866873605,363.8214362008231,4282,-173.4285866873605,363.8214362008231,4395,-173.4285866873605,363.8214362008231,4506,-173.4285866873605,363.8214362008231,4618,-173.4285866873605,363.8214362008231,4718,-173.4285866873605,363.8214362008231,4831,-173.4285866873605,363.8214362008231,4942]","[1478,1478,1000,0,478,""smooth"",""left"",""left"",""good_move"",4573,3095,2279.2,1478,815.8,""smooth"",""left"",""left"",""good_move"",8042,3469,3049.7,4573,419.3,""smooth"",""left"",""left"",""good_move"",11415,3373,2776.2,8042,596.8,""smooth"",""up"",""up"",""good_move"",18242,6827,2316,15328,598,""smooth"",""up"",""up"",""good_move"",21350,3108,1939.4,18242,1168.6,""oops"",""up"",""right"",""bad_move"",24554,3204,2722,21350,482,""smooth"",""left"",""left"",""good_move"",27741,3187,2580.4,24554,606.6,""smooth"",""up"",""up"",""good_move""]","",""
"8216","","<div style=""width:500px;"">
  <p>What determined the result of this run?</p>
  </div>","59","html-slider-response","70","1191588","0.0-5.0-1.12","239","1","2025-07-24 20:49:38","1f75c3e559b7213887762d5229550c2b","91.140.28.110","Mozilla/5.0 (Windows NT 10.0; Win64; x64; rv:141.0) Gecko/20100101 Firefox/141.0","","Firefox","141.0","Windows","10.0","https://app.prolific.com/","en-US,en;q=0.5","56e4b2e044b184000b894159","683db9eb0562dbf637994deb","68829c4d484a9cb26c340092","2","1","56e4b2e044b184000b894159","2","1","2025-07-24T21:09:33.213Z","","","","","","","","","","","AttribQ","","50","","","","","","","","","","","","","","","","","","","","","","","","","","","","",""
"4767","","<div style=""width:500px;"">
  <p>How much control did you have over the ball?</p>
  </div>","92","html-slider-response","71","1196356","0.0-5.0-2.12","239","1","2025-07-24 20:49:38","1f75c3e559b7213887762d5229550c2b","91.140.28.110","Mozilla/5.0 (Windows NT 10.0; Win64; x64; rv:141.0) Gecko/20100101 Firefox/141.0","","Firefox","141.0","Windows","10.0","https://app.prolific.com/","en-US,en;q=0.5","56e4b2e044b184000b894159","683db9eb0562dbf637994deb","68829c4d484a9cb26c340092","2","1","56e4b2e044b184000b894159","2","1","2025-07-24T21:09:37.981Z","","","","","","","","","","","ControlQ","","50","","","","","","","","","","","","","","","","","","","","","","","","","","","","",""
"4688","","<div style=""width:500px;"">
  <p>How would you describe your current emotional state?</p>
  </div>","4","html-slider-response","72","1201045","0.0-5.0-3.12","239","1","2025-07-24 20:49:38","1f75c3e559b7213887762d5229550c2b","91.140.28.110","Mozilla/5.0 (Windows NT 10.0; Win64; x64; rv:141.0) Gecko/20100101 Firefox/141.0","","Firefox","141.0","Windows","10.0","https://app.prolific.com/","en-US,en;q=0.5","56e4b2e044b184000b894159","683db9eb0562dbf637994deb","68829c4d484a9cb26c340092","2","1","56e4b2e044b184000b894159","2","1","2025-07-24T21:09:42.670Z","","","","","","","","","","","StressQ","","50","","","","","","","","","","","","","","","","","","","","","","","","","","","","",""
"7484","","<div style=""width:500px;"">
  <p>What best describes how you currently feel?</p>
  </div>","92","html-slider-response","73","1208531","0.0-5.0-4.12","239","1","2025-07-24 20:49:38","1f75c3e559b7213887762d5229550c2b","91.140.28.110","Mozilla/5.0 (Windows NT 10.0; Win64; x64; rv:141.0) Gecko/20100101 Firefox/141.0","","Firefox","141.0","Windows","10.0","https://app.prolific.com/","en-US,en;q=0.5","56e4b2e044b184000b894159","683db9eb0562dbf637994deb","68829c4d484a9cb26c340092","2","1","56e4b2e044b184000b894159","2","1","2025-07-24T21:09:50.156Z","","","","","","","","","","","MotivationQ","","50","","","","","","","","","","","","","","","","","","","","","","","","","","","","",""
"","","","","ctl-task-cpt","74","1258745","0.0-5.0-0.13","239","1","2025-07-24 20:49:38","1f75c3e559b7213887762d5229550c2b","91.140.28.110","Mozilla/5.0 (Windows NT 10.0; Win64; x64; rv:141.0) Gecko/20100101 Firefox/141.0","","Firefox","141.0","Windows","10.0","https://app.prolific.com/","en-US,en;q=0.5","56e4b2e044b184000b894159","683db9eb0562dbf637994deb","68829c4d484a9cb26c340092","2","1","56e4b2e044b184000b894159","2","1","2025-07-24T21:10:40.371Z","","","","","","","","","","","","","","win-only","1","g1:NE,g2:SW","0.8","14","0","1213658","1790","6792","47204","1","4","4","6","2","4","4","73","69","0.553030303030303","783","3000","1585","[""down"",""left""]","{""num_key_presses"":10,""num_perfect"":8,""num_errors"":0,""num_randdir"":2,""num_randdir_good_moves"":0,""num_whilered"":0,""num_whileblue"":0,""num_blue"":3,""num_good_moves"":8}","[417.8214133126395,426.3214362008231,0,417.8214133126395,426.3214362008231,109,417.8214133126395,426.3214362008231,221,417.8214133126395,426.3214362008231,332,379.0714133126395,488.8214362008231,443,192.8214133126395,712.5714362008231,554,107.8214133126395,777.5714362008231,665,89.0714133126395,787.5714362008231,777,89.0714133126395,787.5714362008231,888,521.5714133126395,638.8214362008231,1000,1129.0714133126396,458.8214362008231,1110,1375.3214133126396,553.8214362008231,1221,1375.3214133126396,557.5714362008231,1333,1375.3214133126396,580.0714362008231,1444,1375.3214133126396,592.5714362008231,1556,1375.3214133126396,600.0714362008231,1667,1375.3214133126396,605.0714362008231,1775,1375.3214133126396,611.3214362008231,1884,1375.3214133126396,613.8214362008231,1991,1375.3214133126396,620.0714362008231,2100,1375.3214133126396,623.8214362008231,2208,1375.3214133126396,630.0714362008231,2317,1375.3214133126396,630.0714362008231,2424,1375.3214133126396,631.3214362008231,2532,1375.3214133126396,633.8214362008231,2641,1375.3214133126396,633.8214362008231,2747,1375.3214133126396,636.3214362008231,2858,1375.3214133126396,638.8214362008231,2966,1375.3214133126396,638.8214362008231,3074,1375.3214133126396,638.8214362008231,3183,1375.3214133126396,640.0714362008231,3291,1375.3214133126396,640.0714362008231,3399,1375.3214133126396,640.0714362008231,3508,1375.3214133126396,642.5714362008231,3615,1375.3214133126396,642.5714362008231,3727,1375.3214133126396,642.5714362008231,3842,1375.3214133126396,642.5714362008231,3950,1375.3214133126396,642.5714362008231,4060,1375.3214133126396,642.5714362008231,4176,1375.3214133126396,642.5714362008231,4287,1375.3214133126396,642.5714362008231,4398,1375.3214133126396,642.5714362008231,4509,1375.3214133126396,642.5714362008231,4621,1375.3214133126396,642.5714362008231,4732,1375.3214133126396,642.5714362008231,4843,1375.3214133126396,642.5714362008231,4954]","[1395,1395,1000,0,395,""oops"",""left"",""right"",""bad_move"",4776,3381,2982,1395,399,""oops"",""left"",""up"",""bad_move"",11261,6485,2453.3,8434,373.7,""smooth"",""down"",""down"",""good_move"",14278,3017,2560.1,11261,456.9,""smooth"",""down"",""down"",""good_move"",17033,2755,2189.9,14278,565.1,""smooth"",""down"",""down"",""good_move"",19548,2514,1985.1,17034,528.9,""smooth"",""down"",""down"",""good_move"",22732,3184,2812.9,19548,371.1,""smooth"",""left"",""left"",""good_move"",26632,3900,3442,22732,458,""smooth"",""left"",""left"",""good_move"",30134,3502,2980.5,26632,521.5,""smooth"",""left"",""left"",""good_move"",40148,10014,2525.4,37098,524.6,""smooth"",""left"",""left"",""good_move""]","",""
"5406","","<div style=""width:500px;"">
  <p>What determined the result of this run?</p>
  </div>","58","html-slider-response","75","1264152","0.0-5.0-1.13","239","1","2025-07-24 20:49:38","1f75c3e559b7213887762d5229550c2b","91.140.28.110","Mozilla/5.0 (Windows NT 10.0; Win64; x64; rv:141.0) Gecko/20100101 Firefox/141.0","","Firefox","141.0","Windows","10.0","https://app.prolific.com/","en-US,en;q=0.5","56e4b2e044b184000b894159","683db9eb0562dbf637994deb","68829c4d484a9cb26c340092","2","1","56e4b2e044b184000b894159","2","1","2025-07-24T21:10:45.778Z","","","","","","","","","","","AttribQ","","50","","","","","","","","","","","","","","","","","","","","","","","","","","","","",""
"4828","","<div style=""width:500px;"">
  <p>How much control did you have over the ball?</p>
  </div>","92","html-slider-response","76","1268982","0.0-5.0-2.13","239","1","2025-07-24 20:49:38","1f75c3e559b7213887762d5229550c2b","91.140.28.110","Mozilla/5.0 (Windows NT 10.0; Win64; x64; rv:141.0) Gecko/20100101 Firefox/141.0","","Firefox","141.0","Windows","10.0","https://app.prolific.com/","en-US,en;q=0.5","56e4b2e044b184000b894159","683db9eb0562dbf637994deb","68829c4d484a9cb26c340092","2","1","56e4b2e044b184000b894159","2","1","2025-07-24T21:10:50.607Z","","","","","","","","","","","ControlQ","","50","","","","","","","","","","","","","","","","","","","","","","","","","","","","",""
"5916","","<div style=""width:500px;"">
  <p>How would you describe your current emotional state?</p>
  </div>","6","html-slider-response","77","1274899","0.0-5.0-3.13","239","1","2025-07-24 20:49:38","1f75c3e559b7213887762d5229550c2b","91.140.28.110","Mozilla/5.0 (Windows NT 10.0; Win64; x64; rv:141.0) Gecko/20100101 Firefox/141.0","","Firefox","141.0","Windows","10.0","https://app.prolific.com/","en-US,en;q=0.5","56e4b2e044b184000b894159","683db9eb0562dbf637994deb","68829c4d484a9cb26c340092","2","1","56e4b2e044b184000b894159","2","1","2025-07-24T21:10:56.524Z","","","","","","","","","","","StressQ","","50","","","","","","","","","","","","","","","","","","","","","","","","","","","","",""
"4979","","<div style=""width:500px;"">
  <p>What best describes how you currently feel?</p>
  </div>","90","html-slider-response","78","1279879","0.0-5.0-4.13","239","1","2025-07-24 20:49:38","1f75c3e559b7213887762d5229550c2b","91.140.28.110","Mozilla/5.0 (Windows NT 10.0; Win64; x64; rv:141.0) Gecko/20100101 Firefox/141.0","","Firefox","141.0","Windows","10.0","https://app.prolific.com/","en-US,en;q=0.5","56e4b2e044b184000b894159","683db9eb0562dbf637994deb","68829c4d484a9cb26c340092","2","1","56e4b2e044b184000b894159","2","1","2025-07-24T21:11:01.504Z","","","","","","","","","","","MotivationQ","","50","","","","","","","","","","","","","","","","","","","","","","","","","","","","",""
