"rt","response_timestamp","stimulus","response","trial_type","trial_index","time_elapsed","internal_node_id","run_id","condition","recorded_at","source_code_version","ip","user_agent","device","browser","browser_version","platform","platform_version","referer","accept_language","PROLIFIC_PID","STUDY_ID","SESSION_ID","WEEK","BATCH","prolific_id","week","batch","realtime","success","responses","item_order","radio_event_ids","radio_event_times","key_event_times","mouse_event_times","straightlining","zigzagging","honeypot","eventType","view_history","slider_start","which_type","canvas_config","goals_layout","control_level","trial_number","tutorial_trial_number","trial_start_time","phase1_start_time","phase2_start_time","phase3_start_time","goal_1_value","goal_1_distance","goal_2_value","goal_2_distance","goal_selected","outcome","outcome_total","participant_final_score","participant_initial_score","participant_final_score_prop","goal_choice_rt","allocated_time","allocated_time_remaining","goal_direction","counts","mouse_movements","key_presses","question_order","question_id"
"8061","1753350156276","<p style='font-size:40px;line-height:1.25'><strong>Welcome to the experiment!</strong></p><p style='font-size:1.1em;line-height:1.25'>Thank you for participanting in our experiment again! You will be asked to play the Dysfunctional Ball Game again. We will briefly recap the rules before we start.</p><p style='font-size:1.1em;line-height:1.25'>Press <strong>Next</strong> to continue.</p>","0","custom-html-button-response","0","8063","0.0-0.0","238","1","2025-07-24 09:42:26","1f75c3e559b7213887762d5229550c2b","217.42.208.88","Mozilla/5.0 (Macintosh; Intel Mac OS X 10_15_7) AppleWebKit/537.36 (KHTML, like Gecko) Chrome/137.0.0.0 Safari/537.36","Macintosh","Chrome","137.0.0.0","OS X","10_15_7","https://app.prolific.com/","en-GB,en-US;q=0.9,en;q=0.8","6760580745ecb73102f83f3d","683dba2a8a9dda3513610c04","6881fffbed16c146ee566cec","3","0","6760580745ecb73102f83f3d","3","0","2025-07-24T09:42:36.277Z","","","","","","","","","","","","","","","","","","","","","","","","","","","","","","","","","","","","","","","","","",""
"962","","","","fullscreen","1","10029","0.0-1.0","238","1","2025-07-24 09:42:26","1f75c3e559b7213887762d5229550c2b","217.42.208.88","Mozilla/5.0 (Macintosh; Intel Mac OS X 10_15_7) AppleWebKit/537.36 (KHTML, like Gecko) Chrome/137.0.0.0 Safari/537.36","Macintosh","Chrome","137.0.0.0","OS X","10_15_7","https://app.prolific.com/","en-GB,en-US;q=0.9,en;q=0.8","6760580745ecb73102f83f3d","683dba2a8a9dda3513610c04","6881fffbed16c146ee566cec","3","0","6760580745ecb73102f83f3d","3","0","","true","","","","","","","","","","","","","","","","","","","","","","","","","","","","","","","","","","","","","","","","",""
"1653","1753350159897","<p style='font-size:1.1em;line-height:1.25'>In the following, we will ask you a few questions relating to your feelings in the last 24 hours.<br></p><p style='font-size:1.1em;line-height:1.25'>Press the <strong>Next</strong> button to continue.</p>","0","custom-html-button-response","2","11683","0.0-2.0-0.0","238","1","2025-07-24 09:42:26","1f75c3e559b7213887762d5229550c2b","217.42.208.88","Mozilla/5.0 (Macintosh; Intel Mac OS X 10_15_7) AppleWebKit/537.36 (KHTML, like Gecko) Chrome/137.0.0.0 Safari/537.36","Macintosh","Chrome","137.0.0.0","OS X","10_15_7","https://app.prolific.com/","en-GB,en-US;q=0.9,en;q=0.8","6760580745ecb73102f83f3d","683dba2a8a9dda3513610c04","6881fffbed16c146ee566cec","3","0","6760580745ecb73102f83f3d","3","0","2025-07-24T09:42:39.897Z","","","","","","","","","","","","","","","","","","","","","","","","","","","","","","","","","","","","","","","","","",""
"44435.39999997616","","","","survey-template","3","56124","0.0-2.0-1.0","238","1","2025-07-24 09:42:26","1f75c3e559b7213887762d5229550c2b","217.42.208.88","Mozilla/5.0 (Macintosh; Intel Mac OS X 10_15_7) AppleWebKit/537.36 (KHTML, like Gecko) Chrome/137.0.0.0 Safari/537.36","Macintosh","Chrome","137.0.0.0","OS X","10_15_7","https://app.prolific.com/","en-GB,en-US;q=0.9,en;q=0.8","6760580745ecb73102f83f3d","683dba2a8a9dda3513610c04","6881fffbed16c146ee566cec","3","0","6760580745ecb73102f83f3d","3","0","2025-07-24T09:43:24.338Z","","{""Q01"":""0"",""Q02"":""0"",""Q03"":""0"",""Q04"":""2"",""Q05"":""3"",""Q06"":""4"",""Q07"":""3"",""Q08"":""2"",""Q09"":""1"",""Q10"":""2"",""Q11"":""3"",""Q12"":""3"",""Q13"":""5"",""Q14"":""3"",""Q15"":""2"",""Q16"":""2"",""Q17"":""4"",""Q18"":""3"",""Q19"":""4"",""Q20"":""3"",""Q21"":""4"",""Q22"":""2""}","[0,1,2,3,4,5,6,7,8,9,10,11,12,13,14,15,16,17,18,19,20,21]","[""Q02"",""Q01"",""Q03"",""Q04"",""Q05"",""Q06"",""Q07"",""Q08"",""Q09"",""Q10"",""Q11"",""Q12"",""Q13"",""Q14"",""Q15"",""Q16"",""Q17"",""Q18"",""Q19"",""Q20"",""Q21"",""Q22""]","[4292.700000047684,5110.399999976158,6473.399999976158,7438.299999952316,8856.200000047684,9976.399999976158,11763.100000023842,12849.899999976158,15720.399999976158,16808.299999952316,17774.700000047684,19994.899999976158,22727.299999952316,26421.799999952316,27709.200000047684,31047.700000047684,32049.600000023842,33125.200000047684,37085,39455.89999997616,41133.39999997616,43257.60000002384]","[]","[0.10000002384185791,3292.5,4292.700000047684,5110.399999976158,6473.399999976158,7438.299999952316,8856.200000047684,9976.399999976158,11763.100000023842,12849.899999976158,14370,15720.399999976158,16808.299999952316,17774.700000047684,18956.200000047684,19994.899999976158,20998.700000047684,22727.299999952316,25522.700000047684,26421.799999952316,27709.200000047684,28862.600000023842,30279.399999976158,31047.700000047684,32049.600000023842,33125.200000047684,35200,36287.200000047684,37085,38206.700000047684,39455.89999997616,40492.799999952316,41133.39999997616,43257.60000002384,44429.200000047684]","0.3181818181818182","0.5714285714285714","0","drsp","","","","","","","","","","","","","","","","","","","","","","","","","","","","","","",""
"6191.299999952316","","","","survey-template","4","62317","0.0-2.0-2.0","238","1","2025-07-24 09:42:26","1f75c3e559b7213887762d5229550c2b","217.42.208.88","Mozilla/5.0 (Macintosh; Intel Mac OS X 10_15_7) AppleWebKit/537.36 (KHTML, like Gecko) Chrome/137.0.0.0 Safari/537.36","Macintosh","Chrome","137.0.0.0","OS X","10_15_7","https://app.prolific.com/","en-GB,en-US;q=0.9,en;q=0.8","6760580745ecb73102f83f3d","683dba2a8a9dda3513610c04","6881fffbed16c146ee566cec","3","0","6760580745ecb73102f83f3d","3","0","2025-07-24T09:43:30.531Z","","{""Q01"":""3"",""Q02"":""4"",""Q03"":""4""}","[0,1,2]","[""Q01"",""Q02"",""Q03""]","[1999.3999999761581,4583.699999928474,5532.5]","[]","[1999.3999999761581,3198.7999999523163,4583.699999928474,5532.5,6190.600000023842]","0.3333333333333333","0","0","stress","","","","","","","","","","","","","","","","","","","","","","","","","","","","","","",""
"2340","","","","instructions","5","64657","0.0-3.0-0.0","238","1","2025-07-24 09:42:26","1f75c3e559b7213887762d5229550c2b","217.42.208.88","Mozilla/5.0 (Macintosh; Intel Mac OS X 10_15_7) AppleWebKit/537.36 (KHTML, like Gecko) Chrome/137.0.0.0 Safari/537.36","Macintosh","Chrome","137.0.0.0","OS X","10_15_7","https://app.prolific.com/","en-GB,en-US;q=0.9,en;q=0.8","6760580745ecb73102f83f3d","683dba2a8a9dda3513610c04","6881fffbed16c146ee566cec","3","0","6760580745ecb73102f83f3d","3","0","","","","","","","","","","","","","[{""page_index"":0,""viewing_time"":2339}]","","","","","","","","","","","","","","","","","","","","","","","","","","","","","",""
"2791","","<p>Before you start with this game please answer the following three questions yourself. </p>
  <p>Through this game, we measure several aspects of your cognitive performance, such as reaction times, multi-tasking capabilities </p>
  <p>and the ability to assess the situation you are in.</p>
  <p></p>
  <p><b>How good do you usually are in such tasks?</b></p>","66","html-slider-response","6","67451","0.0-4.0-0.0","238","1","2025-07-24 09:42:26","1f75c3e559b7213887762d5229550c2b","217.42.208.88","Mozilla/5.0 (Macintosh; Intel Mac OS X 10_15_7) AppleWebKit/537.36 (KHTML, like Gecko) Chrome/137.0.0.0 Safari/537.36","Macintosh","Chrome","137.0.0.0","OS X","10_15_7","https://app.prolific.com/","en-GB,en-US;q=0.9,en;q=0.8","6760580745ecb73102f83f3d","683dba2a8a9dda3513610c04","6881fffbed16c146ee566cec","3","0","6760580745ecb73102f83f3d","3","0","2025-07-24T09:43:35.665Z","","","","","","","","","","","PreSkillQ","","50","","","","","","","","","","","","","","","","","","","","","","","","","","","","",""
"2932","","<div style=""width:500px;"">
  <p>How well do you think you will perform in this task compared to other participants?</p>
  </div>","58","html-slider-response","7","70383","0.0-4.0-1.0","238","1","2025-07-24 09:42:26","1f75c3e559b7213887762d5229550c2b","217.42.208.88","Mozilla/5.0 (Macintosh; Intel Mac OS X 10_15_7) AppleWebKit/537.36 (KHTML, like Gecko) Chrome/137.0.0.0 Safari/537.36","Macintosh","Chrome","137.0.0.0","OS X","10_15_7","https://app.prolific.com/","en-GB,en-US;q=0.9,en;q=0.8","6760580745ecb73102f83f3d","683dba2a8a9dda3513610c04","6881fffbed16c146ee566cec","3","0","6760580745ecb73102f83f3d","3","0","2025-07-24T09:43:38.597Z","","","","","","","","","","","PrePerfQ","","50","","","","","","","","","","","","","","","","","","","","","","","","","","","","",""
"4024","","<div style=""width:500px;"">
  <p>What best describes how you currently feel?</p>
  </div>","33","html-slider-response","8","74409","0.0-4.0-2.0","238","1","2025-07-24 09:42:26","1f75c3e559b7213887762d5229550c2b","217.42.208.88","Mozilla/5.0 (Macintosh; Intel Mac OS X 10_15_7) AppleWebKit/537.36 (KHTML, like Gecko) Chrome/137.0.0.0 Safari/537.36","Macintosh","Chrome","137.0.0.0","OS X","10_15_7","https://app.prolific.com/","en-GB,en-US;q=0.9,en;q=0.8","6760580745ecb73102f83f3d","683dba2a8a9dda3513610c04","6881fffbed16c146ee566cec","3","0","6760580745ecb73102f83f3d","3","0","2025-07-24T09:43:42.623Z","","","","","","","","","","","PreMotivationQ","","50","","","","","","","","","","","","","","","","","","","","","","","","","","","","",""
"","","","","ctl-task-cpt","9","119729","0.0-5.0-0.0","238","1","2025-07-24 09:42:26","1f75c3e559b7213887762d5229550c2b","217.42.208.88","Mozilla/5.0 (Macintosh; Intel Mac OS X 10_15_7) AppleWebKit/537.36 (KHTML, like Gecko) Chrome/137.0.0.0 Safari/537.36","Macintosh","Chrome","137.0.0.0","OS X","10_15_7","https://app.prolific.com/","en-GB,en-US;q=0.9,en;q=0.8","6760580745ecb73102f83f3d","683dba2a8a9dda3513610c04","6881fffbed16c146ee566cec","3","0","6760580745ecb73102f83f3d","3","0","2025-07-24T09:44:27.943Z","","","","","","","","","","","","","","win-only","0","g1:NW,g2:SE","1","1","0","76149.5","2778.4","7793.7","42314.5","1","4","4","6","2","4","4","4","0","0.030303030303030304","3352.5","3000","1305","[""down"",""right""]","{""num_key_presses"":6,""num_perfect"":6,""num_errors"":0,""num_randdir"":0,""num_randdir_good_moves"":0,""num_whilered"":0,""num_whileblue"":0,""num_blue"":5,""num_good_moves"":6}","[814,797.796875,0.4,814,797.796875,115.8,814,797.796875,218.2,814,797.796875,322.8,1430,389.796875,427.8,1592,279.796875,528.4,1592,279.796875,634.2,1592,279.796875,753.9,1592,279.796875,872.1,1592,279.796875,1005.8,1592,279.796875,1115.4,1592,279.796875,1218,1592,279.796875,1348.4,1592,279.796875,1466,1592,279.796875,1567.8,1592,279.796875,1683.8,1592,279.796875,1801.2,1592,279.796875,1902.4,1592,279.796875,2016.1,1592,279.796875,2120,1592,279.796875,2222.4,1592,279.796875,2336.6,1592,279.796875,2451.5,1592,279.796875,2574.4,1632,417.796875,2677.8,1704,567.796875,2782.1,1704,567.796875,2882.2,1458,1277.796875,2983.3,1394,1463.796875,3084.7,1406,1473.796875,3201.4,1416,1475.796875,3316.5,1416,1475.796875,3417.8,1416,1475.796875,3551.3,1550,1389.796875,3652.2,1926,1157.796875,3766,1926,1157.796875,3869.3,1926,1157.796875,3973.3,1926,1157.796875,4100.8,1926,1157.796875,4202.1,1926,1157.796875,4303.1,1926,1157.796875,4421.4,1926,1157.796875,4523.4,1926,1157.796875,4651.7,1926,1157.796875,4768.5,1926,1157.796875,4873.5,1926,1157.796875,4977.8]","[1417.3,1417.3,1000,0,417.3,""smooth"",""down"",""down"",""good_move"",4669.5,3251.9,2820.4,1417.6,431.5,""smooth"",""down"",""down"",""good_move"",14251.4,9581.7,2389.6,11392.4,469.5,""smooth"",""down"",""down"",""good_move"",17705.4,3453.9,3036.5,14251.5,417.4,""smooth"",""right"",""right"",""good_move"",24243.5,6537.6,2491.6,21301.9,450,""smooth"",""right"",""right"",""good_move"",34416.3,10172.7,2592.3,31287.2,536.8,""smooth"",""right"",""right"",""good_move""]","",""
"10496","","<div style=""width:500px;"">
  <p>What determined the result of this run?</p>
  </div>","79","html-slider-response","10","130225","0.0-5.0-1.0","238","1","2025-07-24 09:42:26","1f75c3e559b7213887762d5229550c2b","217.42.208.88","Mozilla/5.0 (Macintosh; Intel Mac OS X 10_15_7) AppleWebKit/537.36 (KHTML, like Gecko) Chrome/137.0.0.0 Safari/537.36","Macintosh","Chrome","137.0.0.0","OS X","10_15_7","https://app.prolific.com/","en-GB,en-US;q=0.9,en;q=0.8","6760580745ecb73102f83f3d","683dba2a8a9dda3513610c04","6881fffbed16c146ee566cec","3","0","6760580745ecb73102f83f3d","3","0","2025-07-24T09:44:38.439Z","","","","","","","","","","","AttribQ","","50","","","","","","","","","","","","","","","","","","","","","","","","","","","","",""
"2803","","<div style=""width:500px;"">
  <p>How much control did you have over the ball?</p>
  </div>","89","html-slider-response","11","133030","0.0-5.0-2.0","238","1","2025-07-24 09:42:26","1f75c3e559b7213887762d5229550c2b","217.42.208.88","Mozilla/5.0 (Macintosh; Intel Mac OS X 10_15_7) AppleWebKit/537.36 (KHTML, like Gecko) Chrome/137.0.0.0 Safari/537.36","Macintosh","Chrome","137.0.0.0","OS X","10_15_7","https://app.prolific.com/","en-GB,en-US;q=0.9,en;q=0.8","6760580745ecb73102f83f3d","683dba2a8a9dda3513610c04","6881fffbed16c146ee566cec","3","0","6760580745ecb73102f83f3d","3","0","2025-07-24T09:44:41.244Z","","","","","","","","","","","ControlQ","","50","","","","","","","","","","","","","","","","","","","","","","","","","","","","",""
"3396","","<div style=""width:500px;"">
  <p>How would you describe your current emotional state?</p>
  </div>","34","html-slider-response","12","136427","0.0-5.0-3.0","238","1","2025-07-24 09:42:26","1f75c3e559b7213887762d5229550c2b","217.42.208.88","Mozilla/5.0 (Macintosh; Intel Mac OS X 10_15_7) AppleWebKit/537.36 (KHTML, like Gecko) Chrome/137.0.0.0 Safari/537.36","Macintosh","Chrome","137.0.0.0","OS X","10_15_7","https://app.prolific.com/","en-GB,en-US;q=0.9,en;q=0.8","6760580745ecb73102f83f3d","683dba2a8a9dda3513610c04","6881fffbed16c146ee566cec","3","0","6760580745ecb73102f83f3d","3","0","2025-07-24T09:44:44.641Z","","","","","","","","","","","StressQ","","50","","","","","","","","","","","","","","","","","","","","","","","","","","","","",""
"3670","","<div style=""width:500px;"">
  <p>What best describes how you currently feel?</p>
  </div>","58","html-slider-response","13","140097","0.0-5.0-4.0","238","1","2025-07-24 09:42:26","1f75c3e559b7213887762d5229550c2b","217.42.208.88","Mozilla/5.0 (Macintosh; Intel Mac OS X 10_15_7) AppleWebKit/537.36 (KHTML, like Gecko) Chrome/137.0.0.0 Safari/537.36","Macintosh","Chrome","137.0.0.0","OS X","10_15_7","https://app.prolific.com/","en-GB,en-US;q=0.9,en;q=0.8","6760580745ecb73102f83f3d","683dba2a8a9dda3513610c04","6881fffbed16c146ee566cec","3","0","6760580745ecb73102f83f3d","3","0","2025-07-24T09:44:48.311Z","","","","","","","","","","","MotivationQ","","50","","","","","","","","","","","","","","","","","","","","","","","","","","","","",""
"","","","","ctl-task-cpt","14","185785","0.0-5.0-0.1","238","1","2025-07-24 09:42:26","1f75c3e559b7213887762d5229550c2b","217.42.208.88","Mozilla/5.0 (Macintosh; Intel Mac OS X 10_15_7) AppleWebKit/537.36 (KHTML, like Gecko) Chrome/137.0.0.0 Safari/537.36","Macintosh","Chrome","137.0.0.0","OS X","10_15_7","https://app.prolific.com/","en-GB,en-US;q=0.9,en;q=0.8","6760580745ecb73102f83f3d","683dba2a8a9dda3513610c04","6881fffbed16c146ee566cec","3","0","6760580745ecb73102f83f3d","3","0","2025-07-24T09:45:33.999Z","","","","","","","","","","","","","","win-only","1","g1:NE,g2:SW","0.9","2","0","141835.7","1200.7","6202.2","42680.7","1","4","8","6","2","-8","-8","0","4","0","1289.2","3000","-2375","[""down"",""left""]","{""num_key_presses"":7,""num_perfect"":6,""num_errors"":0,""num_randdir"":1,""num_randdir_good_moves"":0,""num_whilered"":0,""num_whileblue"":0,""num_blue"":4,""num_good_moves"":6}","[818,785.796875,0.1,818,785.796875,101.3,818,785.796875,206.3,818,785.796875,307,818,785.796875,413,818,785.796875,515.1,440,1413.796875,615.2,368,1541.796875,718.4,368,1541.796875,822.4,272,1571.796875,923.3,110,1519.796875,1032.4,110,1519.796875,1136.4,110,1519.796875,1240.5,110,1519.796875,1350.7,110,1519.796875,1459.7,110,1519.796875,1564.1,-66,1521.796875,1665.8,-430,1455.796875,1771.3,-430,1455.796875,1877.9,-430,1455.796875,1980.8,-430,1455.796875,2080.8,-430,1455.796875,2187.4,-430,1455.796875,2290.6,-430,1455.796875,2391.7,-430,1455.796875,2494.9,-430,1455.796875,2608.6,-430,1455.796875,2709.3,-430,1455.796875,2815.9,-430,1455.796875,2921.1,-430,1455.796875,3021.2,-430,1455.796875,3131.5,-430,1455.796875,3231.7,-430,1455.796875,3332,-430,1455.796875,3436.2,-430,1455.796875,3537.1,-430,1455.796875,3641.4,-430,1455.796875,3742.7,-430,1455.796875,3845.3,-430,1455.796875,3952.1,-430,1455.796875,4056.4,-430,1455.796875,4159.5,-430,1455.796875,4263.7,-430,1455.796875,4365.9,-430,1455.796875,4467.6,-430,1455.796875,4571.8,-430,1455.796875,4675.2,-430,1455.796875,4778.5,-430,1455.796875,4880.3,-430,1455.796875,4980.5]","[1405.9,1405.9,1000,0,405.9,""smooth"",""left"",""left"",""good_move"",4217,2810.8,2379.6,1406.2,431.2,""smooth"",""left"",""left"",""good_move"",7416.3,3199.1,2792.5,4217.2,406.6,""smooth"",""left"",""left"",""good_move"",16998.2,9581.8,2457.9,13915.7,624.6,""oops"",""down"",""right"",""bad_move"",23799.7,6801.2,2675.5,20749.8,374.4,""smooth"",""down"",""down"",""good_move"",27096.7,3296.7,2911.5,23800,385.2,""smooth"",""down"",""down"",""good_move"",33834.4,6737.5,2851,30563.7,419.7,""smooth"",""down"",""down"",""good_move""]","",""
"5546","","<div style=""width:500px;"">
  <p>What determined the result of this run?</p>
  </div>","18","html-slider-response","15","191332","0.0-5.0-1.1","238","1","2025-07-24 09:42:26","1f75c3e559b7213887762d5229550c2b","217.42.208.88","Mozilla/5.0 (Macintosh; Intel Mac OS X 10_15_7) AppleWebKit/537.36 (KHTML, like Gecko) Chrome/137.0.0.0 Safari/537.36","Macintosh","Chrome","137.0.0.0","OS X","10_15_7","https://app.prolific.com/","en-GB,en-US;q=0.9,en;q=0.8","6760580745ecb73102f83f3d","683dba2a8a9dda3513610c04","6881fffbed16c146ee566cec","3","0","6760580745ecb73102f83f3d","3","0","2025-07-24T09:45:39.546Z","","","","","","","","","","","AttribQ","","50","","","","","","","","","","","","","","","","","","","","","","","","","","","","",""
"2750","","<div style=""width:500px;"">
  <p>How much control did you have over the ball?</p>
  </div>","27","html-slider-response","16","194083","0.0-5.0-2.1","238","1","2025-07-24 09:42:26","1f75c3e559b7213887762d5229550c2b","217.42.208.88","Mozilla/5.0 (Macintosh; Intel Mac OS X 10_15_7) AppleWebKit/537.36 (KHTML, like Gecko) Chrome/137.0.0.0 Safari/537.36","Macintosh","Chrome","137.0.0.0","OS X","10_15_7","https://app.prolific.com/","en-GB,en-US;q=0.9,en;q=0.8","6760580745ecb73102f83f3d","683dba2a8a9dda3513610c04","6881fffbed16c146ee566cec","3","0","6760580745ecb73102f83f3d","3","0","2025-07-24T09:45:42.298Z","","","","","","","","","","","ControlQ","","50","","","","","","","","","","","","","","","","","","","","","","","","","","","","",""
"2748","","<div style=""width:500px;"">
  <p>How would you describe your current emotional state?</p>
  </div>","73","html-slider-response","17","196833","0.0-5.0-3.1","238","1","2025-07-24 09:42:26","1f75c3e559b7213887762d5229550c2b","217.42.208.88","Mozilla/5.0 (Macintosh; Intel Mac OS X 10_15_7) AppleWebKit/537.36 (KHTML, like Gecko) Chrome/137.0.0.0 Safari/537.36","Macintosh","Chrome","137.0.0.0","OS X","10_15_7","https://app.prolific.com/","en-GB,en-US;q=0.9,en;q=0.8","6760580745ecb73102f83f3d","683dba2a8a9dda3513610c04","6881fffbed16c146ee566cec","3","0","6760580745ecb73102f83f3d","3","0","2025-07-24T09:45:45.047Z","","","","","","","","","","","StressQ","","50","","","","","","","","","","","","","","","","","","","","","","","","","","","","",""
"3265","","<div style=""width:500px;"">
  <p>What best describes how you currently feel?</p>
  </div>","32","html-slider-response","18","200099","0.0-5.0-4.1","238","1","2025-07-24 09:42:26","1f75c3e559b7213887762d5229550c2b","217.42.208.88","Mozilla/5.0 (Macintosh; Intel Mac OS X 10_15_7) AppleWebKit/537.36 (KHTML, like Gecko) Chrome/137.0.0.0 Safari/537.36","Macintosh","Chrome","137.0.0.0","OS X","10_15_7","https://app.prolific.com/","en-GB,en-US;q=0.9,en;q=0.8","6760580745ecb73102f83f3d","683dba2a8a9dda3513610c04","6881fffbed16c146ee566cec","3","0","6760580745ecb73102f83f3d","3","0","2025-07-24T09:45:48.313Z","","","","","","","","","","","MotivationQ","","50","","","","","","","","","","","","","","","","","","","","","","","","","","","","",""
"","","","","ctl-task-cpt","19","228308","0.0-5.0-0.2","238","1","2025-07-24 09:42:26","1f75c3e559b7213887762d5229550c2b","217.42.208.88","Mozilla/5.0 (Macintosh; Intel Mac OS X 10_15_7) AppleWebKit/537.36 (KHTML, like Gecko) Chrome/137.0.0.0 Safari/537.36","Macintosh","Chrome","137.0.0.0","OS X","10_15_7","https://app.prolific.com/","en-GB,en-US;q=0.9,en;q=0.8","6760580745ecb73102f83f3d","683dba2a8a9dda3513610c04","6881fffbed16c146ee566cec","3","0","6760580745ecb73102f83f3d","3","0","2025-07-24T09:46:16.522Z","","","","","","","","","","","","","","win-only","3","g1:SW,g2:NE","0.8","3","0","201839.9","810.7","5817.8","25193.1","1","4","8","6","2","8","8","8","0","0.06060606060606061","1552","3000","1460","[""up"",""right""]","{""num_key_presses"":6,""num_perfect"":5,""num_errors"":0,""num_randdir"":1,""num_randdir_good_moves"":1,""num_whilered"":0,""num_whileblue"":0,""num_blue"":1,""num_good_moves"":6}","[802,789.796875,0.1,802,789.796875,101.2,802,789.796875,204.7,802,789.796875,308.6,802,789.796875,411.2,802,789.796875,511.9,802,789.796875,615.6,532,1199.796875,725.4,412,1421.796875,826.5,412,1425.796875,931.5,554,1135.796875,1034.8,1258,211.796875,1135.3,1258,211.796875,1236.2,1310,185.796875,1337.2,1468,135.796875,1437.5,1468,135.796875,1545.2,1468,135.796875,1648.4,1468,135.796875,1752.2,1706,29.796875,1855.2,2488,-232.203125,1958.5,2488,-232.203125,2069.1,2488,-232.203125,2169.5,2488,-232.203125,2271,2488,-232.203125,2375.7,2488,-232.203125,2479.7,2488,-232.203125,2584.3,2488,-232.203125,2698.9,2488,-232.203125,2802.7,2488,-232.203125,2910.4,2488,-232.203125,3010.7,2488,-232.203125,3114.8,2488,-232.203125,3229.3,2488,-232.203125,3332.2,2488,-232.203125,3437.4,2488,-232.203125,3543.3,2488,-232.203125,3647.8,2420,77.796875,3752.4,2432,109.796875,3853.3,2432,109.796875,3954.2,2432,109.796875,4060.5,2432,109.796875,4170,2432,109.796875,4272,2432,109.796875,4377,2432,109.796875,4493.5,2432,109.796875,4596.3,2432,109.796875,4697.1,2432,109.796875,4803.8,2432,109.796875,4904.2]","[1318.4,1318.4,1000,0,318.4,""smooth"",""up"",""up"",""good_move"",4657,3338.3,2911.8,1318.7,426.5,""smooth"",""up"",""up"",""good_move"",7930.9,3273.6,2935.1,4657.3,338.5,""smooth"",""up"",""up"",""good_move"",10059.7,2128.5,1728.8,7931.2,399.7,""oops"",""right"",""right"",""good_move"",16494.4,6434.4,2746,13333.3,415.1,""smooth"",""right"",""right"",""good_move"",19250.7,2756,2370,16494.7,386,""smooth"",""right"",""right"",""good_move""]","",""
"2319","","<div style=""width:500px;"">
  <p>What determined the result of this run?</p>
  </div>","67","html-slider-response","20","230628","0.0-5.0-1.2","238","1","2025-07-24 09:42:26","1f75c3e559b7213887762d5229550c2b","217.42.208.88","Mozilla/5.0 (Macintosh; Intel Mac OS X 10_15_7) AppleWebKit/537.36 (KHTML, like Gecko) Chrome/137.0.0.0 Safari/537.36","Macintosh","Chrome","137.0.0.0","OS X","10_15_7","https://app.prolific.com/","en-GB,en-US;q=0.9,en;q=0.8","6760580745ecb73102f83f3d","683dba2a8a9dda3513610c04","6881fffbed16c146ee566cec","3","0","6760580745ecb73102f83f3d","3","0","2025-07-24T09:46:18.842Z","","","","","","","","","","","AttribQ","","50","","","","","","","","","","","","","","","","","","","","","","","","","","","","",""
"1916","","<div style=""width:500px;"">
  <p>How much control did you have over the ball?</p>
  </div>","67","html-slider-response","21","232545","0.0-5.0-2.2","238","1","2025-07-24 09:42:26","1f75c3e559b7213887762d5229550c2b","217.42.208.88","Mozilla/5.0 (Macintosh; Intel Mac OS X 10_15_7) AppleWebKit/537.36 (KHTML, like Gecko) Chrome/137.0.0.0 Safari/537.36","Macintosh","Chrome","137.0.0.0","OS X","10_15_7","https://app.prolific.com/","en-GB,en-US;q=0.9,en;q=0.8","6760580745ecb73102f83f3d","683dba2a8a9dda3513610c04","6881fffbed16c146ee566cec","3","0","6760580745ecb73102f83f3d","3","0","2025-07-24T09:46:20.759Z","","","","","","","","","","","ControlQ","","50","","","","","","","","","","","","","","","","","","","","","","","","","","","","",""
"2134","","<div style=""width:500px;"">
  <p>How would you describe your current emotional state?</p>
  </div>","56","html-slider-response","22","234680","0.0-5.0-3.2","238","1","2025-07-24 09:42:26","1f75c3e559b7213887762d5229550c2b","217.42.208.88","Mozilla/5.0 (Macintosh; Intel Mac OS X 10_15_7) AppleWebKit/537.36 (KHTML, like Gecko) Chrome/137.0.0.0 Safari/537.36","Macintosh","Chrome","137.0.0.0","OS X","10_15_7","https://app.prolific.com/","en-GB,en-US;q=0.9,en;q=0.8","6760580745ecb73102f83f3d","683dba2a8a9dda3513610c04","6881fffbed16c146ee566cec","3","0","6760580745ecb73102f83f3d","3","0","2025-07-24T09:46:22.894Z","","","","","","","","","","","StressQ","","50","","","","","","","","","","","","","","","","","","","","","","","","","","","","",""
"2165","","<div style=""width:500px;"">
  <p>What best describes how you currently feel?</p>
  </div>","42","html-slider-response","23","236847","0.0-5.0-4.2","238","1","2025-07-24 09:42:26","1f75c3e559b7213887762d5229550c2b","217.42.208.88","Mozilla/5.0 (Macintosh; Intel Mac OS X 10_15_7) AppleWebKit/537.36 (KHTML, like Gecko) Chrome/137.0.0.0 Safari/537.36","Macintosh","Chrome","137.0.0.0","OS X","10_15_7","https://app.prolific.com/","en-GB,en-US;q=0.9,en;q=0.8","6760580745ecb73102f83f3d","683dba2a8a9dda3513610c04","6881fffbed16c146ee566cec","3","0","6760580745ecb73102f83f3d","3","0","2025-07-24T09:46:25.062Z","","","","","","","","","","","MotivationQ","","50","","","","","","","","","","","","","","","","","","","","","","","","","","","","",""
"","","","","ctl-task-cpt","24","271772","0.0-5.0-0.3","238","1","2025-07-24 09:42:26","1f75c3e559b7213887762d5229550c2b","217.42.208.88","Mozilla/5.0 (Macintosh; Intel Mac OS X 10_15_7) AppleWebKit/537.36 (KHTML, like Gecko) Chrome/137.0.0.0 Safari/537.36","Macintosh","Chrome","137.0.0.0","OS X","10_15_7","https://app.prolific.com/","en-GB,en-US;q=0.9,en;q=0.8","6760580745ecb73102f83f3d","683dba2a8a9dda3513610c04","6881fffbed16c146ee566cec","3","0","6760580745ecb73102f83f3d","3","0","2025-07-24T09:46:59.986Z","","","","","","","","","","","","","","win-only","1","g1:NE,g2:SW","0.7","4","0","238588.9","814","5819.1","31906.9","1","4","4","6","2","4","4","12","8","0.09090909090909091","1217.4","3000","1310","[""down"",""left""]","{""num_key_presses"":8,""num_perfect"":6,""num_errors"":0,""num_randdir"":2,""num_randdir_good_moves"":1,""num_whilered"":0,""num_whileblue"":0,""num_blue"":1,""num_good_moves"":7}","[808,817.796875,0.4,808,817.796875,106.1,808,817.796875,216.6,808,817.796875,316.8,808,817.796875,416.9,808,817.796875,526.3,628,1153.796875,627.5,526,1467.796875,748.8,526,1467.796875,849.3,416,1523.796875,951.8,138,1569.796875,1053.4,104,1547.796875,1164.1,104,1547.796875,1269.2,104,1547.796875,1375.3,104,1545.796875,1496.8,48,1547.796875,1609.5,-406,1491.796875,1731.4,-412,1481.796875,1831.6,-412,1481.796875,1940.9,-560,1123.796875,2043.9,-572,1045.796875,2150.6,-572,1045.796875,2253.1,-572,1045.796875,2367.4,-572,1045.796875,2468.9,-572,1045.796875,2577.7,-572,1045.796875,2683.5,-572,1045.796875,2787.6,-572,1045.796875,2907.8,-572,1045.796875,3013.4,-572,1045.796875,3119.3,-572,1045.796875,3224.2,-572,1045.796875,3328.3,-572,1045.796875,3428.8,-572,1045.796875,3531.9,-572,1045.796875,3641.8,-572,1045.796875,3742.2,-572,1045.796875,3842.7,-572,1045.796875,3946.9,-572,1045.796875,4058.7,-572,1045.796875,4176,-572,1045.796875,4279.5,-572,1045.796875,4385.5,-572,1045.796875,4495,-572,1045.796875,4610.7,-572,1045.796875,4715.1,-572,1045.796875,4825.6,-572,1045.796875,4934.4]","[1351.4,1351.4,1000,0,351.4,""smooth"",""left"",""left"",""good_move"",4216.6,2864.9,2457.8,1351.7,407.1,""oops"",""left"",""up"",""bad_move"",6786.3,2569.5,2196.6,4216.8,372.9,""oops"",""left"",""down"",""good_move"",9952.5,3165.9,2812.8,6786.6,353.1,""smooth"",""left"",""left"",""good_move"",13185,3232.3,2876.5,9952.7,355.8,""smooth"",""left"",""left"",""good_move"",15974.4,2789.2,2463.8,13185.2,325.4,""smooth"",""down"",""down"",""good_move"",22459.8,6485.2,2193.5,19912.8,353.5,""smooth"",""down"",""down"",""good_move"",25964.4,3504.5,3146.4,22459.9,358.1,""smooth"",""down"",""down"",""good_move""]","",""
"2774","","<div style=""width:500px;"">
  <p>What determined the result of this run?</p>
  </div>","42","html-slider-response","25","274547","0.0-5.0-1.3","238","1","2025-07-24 09:42:26","1f75c3e559b7213887762d5229550c2b","217.42.208.88","Mozilla/5.0 (Macintosh; Intel Mac OS X 10_15_7) AppleWebKit/537.36 (KHTML, like Gecko) Chrome/137.0.0.0 Safari/537.36","Macintosh","Chrome","137.0.0.0","OS X","10_15_7","https://app.prolific.com/","en-GB,en-US;q=0.9,en;q=0.8","6760580745ecb73102f83f3d","683dba2a8a9dda3513610c04","6881fffbed16c146ee566cec","3","0","6760580745ecb73102f83f3d","3","0","2025-07-24T09:47:02.761Z","","","","","","","","","","","AttribQ","","50","","","","","","","","","","","","","","","","","","","","","","","","","","","","",""
"2212","","<div style=""width:500px;"">
  <p>How much control did you have over the ball?</p>
  </div>","60","html-slider-response","26","276761","0.0-5.0-2.3","238","1","2025-07-24 09:42:26","1f75c3e559b7213887762d5229550c2b","217.42.208.88","Mozilla/5.0 (Macintosh; Intel Mac OS X 10_15_7) AppleWebKit/537.36 (KHTML, like Gecko) Chrome/137.0.0.0 Safari/537.36","Macintosh","Chrome","137.0.0.0","OS X","10_15_7","https://app.prolific.com/","en-GB,en-US;q=0.9,en;q=0.8","6760580745ecb73102f83f3d","683dba2a8a9dda3513610c04","6881fffbed16c146ee566cec","3","0","6760580745ecb73102f83f3d","3","0","2025-07-24T09:47:04.975Z","","","","","","","","","","","ControlQ","","50","","","","","","","","","","","","","","","","","","","","","","","","","","","","",""
"2032","","<div style=""width:500px;"">
  <p>How would you describe your current emotional state?</p>
  </div>","59","html-slider-response","27","278793","0.0-5.0-3.3","238","1","2025-07-24 09:42:26","1f75c3e559b7213887762d5229550c2b","217.42.208.88","Mozilla/5.0 (Macintosh; Intel Mac OS X 10_15_7) AppleWebKit/537.36 (KHTML, like Gecko) Chrome/137.0.0.0 Safari/537.36","Macintosh","Chrome","137.0.0.0","OS X","10_15_7","https://app.prolific.com/","en-GB,en-US;q=0.9,en;q=0.8","6760580745ecb73102f83f3d","683dba2a8a9dda3513610c04","6881fffbed16c146ee566cec","3","0","6760580745ecb73102f83f3d","3","0","2025-07-24T09:47:07.007Z","","","","","","","","","","","StressQ","","50","","","","","","","","","","","","","","","","","","","","","","","","","","","","",""
"1983","","<div style=""width:500px;"">
  <p>What best describes how you currently feel?</p>
  </div>","35","html-slider-response","28","280776","0.0-5.0-4.3","238","1","2025-07-24 09:42:26","1f75c3e559b7213887762d5229550c2b","217.42.208.88","Mozilla/5.0 (Macintosh; Intel Mac OS X 10_15_7) AppleWebKit/537.36 (KHTML, like Gecko) Chrome/137.0.0.0 Safari/537.36","Macintosh","Chrome","137.0.0.0","OS X","10_15_7","https://app.prolific.com/","en-GB,en-US;q=0.9,en;q=0.8","6760580745ecb73102f83f3d","683dba2a8a9dda3513610c04","6881fffbed16c146ee566cec","3","0","6760580745ecb73102f83f3d","3","0","2025-07-24T09:47:08.991Z","","","","","","","","","","","MotivationQ","","50","","","","","","","","","","","","","","","","","","","","","","","","","","","","",""
"","","","","ctl-task-cpt","29","314276","0.0-5.0-0.4","238","1","2025-07-24 09:42:26","1f75c3e559b7213887762d5229550c2b","217.42.208.88","Mozilla/5.0 (Macintosh; Intel Mac OS X 10_15_7) AppleWebKit/537.36 (KHTML, like Gecko) Chrome/137.0.0.0 Safari/537.36","Macintosh","Chrome","137.0.0.0","OS X","10_15_7","https://app.prolific.com/","en-GB,en-US;q=0.9,en;q=0.8","6760580745ecb73102f83f3d","683dba2a8a9dda3513610c04","6881fffbed16c146ee566cec","3","0","6760580745ecb73102f83f3d","3","0","2025-07-24T09:47:42.490Z","","","","","","","","","","","","","","win-only","0","g1:NW,g2:SE","0.6","5","0","282518.9","869.5","5879.2","30479.7","1","4","8","6","2","8","8","20","12","0.15151515151515152","1364.9","3000","1455","[""down"",""right""]","{""num_key_presses"":8,""num_perfect"":6,""num_errors"":0,""num_randdir"":2,""num_randdir_good_moves"":1,""num_whilered"":0,""num_whileblue"":0,""num_blue"":1,""num_good_moves"":7}","[816,799.796875,0.3,816,799.796875,100.2,816,799.796875,214.5,816,799.796875,317.7,816,799.796875,417.7,830,823.796875,518.6,984,1193.796875,635.5,984,1193.796875,737,1010,1199.796875,847.7,1390,1367.796875,954.6,1448,1409.796875,1062.8,1460,1435.796875,1177.2,1460,1435.796875,1280,1460,1435.796875,1387,1460,1435.796875,1493.4,1460,1435.796875,1615.5,1550,1287.796875,1728.4,1670,1059.796875,1833.1,1670,1059.796875,1942.2,1670,1059.796875,2058.7,1670,1059.796875,2167.1,1670,1059.796875,2270,1670,1059.796875,2381.7,1670,1059.796875,2483.8,1670,1059.796875,2585.1,1670,1059.796875,2713.9,1670,1059.796875,2819.7,1670,1059.796875,2922.7,1670,1059.796875,3034.5,1670,1059.796875,3141.6,1670,1059.796875,3252.9,1670,1059.796875,3359.7,1670,1059.796875,3461.4,1670,1059.796875,3573.8,1670,1059.796875,3682.5,1670,1059.796875,3787.8,1670,1059.796875,3892.4,1670,1059.796875,3999,1670,1059.796875,4115.1,1670,1059.796875,4216.8,1670,1059.796875,4318.3,1670,1059.796875,4427,1670,1059.796875,4532.3,1670,1059.796875,4634.3,1670,1059.796875,4742.5,1670,1059.796875,4843.2,1670,1059.796875,4956.5]","[4850.6,4850.6,2358.6,2026.4,465.6,""smooth"",""right"",""right"",""good_move"",7285.7,2434.8,1857.3,4850.9,577.5,""smooth"",""right"",""right"",""good_move"",9905.3,2619.5,2224.9,7285.8,394.6,""oops"",""right"",""right"",""good_move"",12619.1,2713.7,2330.4,9905.4,383.3,""smooth"",""down"",""down"",""good_move"",15288.2,2668.8,2278.3,12619.4,390.5,""oops"",""down"",""up"",""bad_move"",18402,3113.5,2775.7,15288.5,337.8,""smooth"",""down"",""down"",""good_move"",21574.6,3172.3,2787.8,18402.3,384.5,""smooth"",""down"",""down"",""good_move"",24369.1,2794.3,2445.6,21574.8,348.7,""smooth"",""down"",""down"",""good_move""]","",""
"9448","","<div style=""width:500px;"">
  <p>What determined the result of this run?</p>
  </div>","59","html-slider-response","30","323794","0.0-5.0-1.4","238","1","2025-07-24 09:42:26","1f75c3e559b7213887762d5229550c2b","217.42.208.88","Mozilla/5.0 (Macintosh; Intel Mac OS X 10_15_7) AppleWebKit/537.36 (KHTML, like Gecko) Chrome/137.0.0.0 Safari/537.36","Macintosh","Chrome","137.0.0.0","OS X","10_15_7","https://app.prolific.com/","en-GB,en-US;q=0.9,en;q=0.8","6760580745ecb73102f83f3d","683dba2a8a9dda3513610c04","6881fffbed16c146ee566cec","3","0","6760580745ecb73102f83f3d","3","0","2025-07-24T09:47:52.008Z","","","","","","","","","","","AttribQ","","50","","","","","","","","","","","","","","","","","","","","","","","","","","","","",""
"2781","","<div style=""width:500px;"">
  <p>How much control did you have over the ball?</p>
  </div>","64","html-slider-response","31","326577","0.0-5.0-2.4","238","1","2025-07-24 09:42:26","1f75c3e559b7213887762d5229550c2b","217.42.208.88","Mozilla/5.0 (Macintosh; Intel Mac OS X 10_15_7) AppleWebKit/537.36 (KHTML, like Gecko) Chrome/137.0.0.0 Safari/537.36","Macintosh","Chrome","137.0.0.0","OS X","10_15_7","https://app.prolific.com/","en-GB,en-US;q=0.9,en;q=0.8","6760580745ecb73102f83f3d","683dba2a8a9dda3513610c04","6881fffbed16c146ee566cec","3","0","6760580745ecb73102f83f3d","3","0","2025-07-24T09:47:54.792Z","","","","","","","","","","","ControlQ","","50","","","","","","","","","","","","","","","","","","","","","","","","","","","","",""
"2329","","<div style=""width:500px;"">
  <p>How would you describe your current emotional state?</p>
  </div>","42","html-slider-response","32","328908","0.0-5.0-3.4","238","1","2025-07-24 09:42:26","1f75c3e559b7213887762d5229550c2b","217.42.208.88","Mozilla/5.0 (Macintosh; Intel Mac OS X 10_15_7) AppleWebKit/537.36 (KHTML, like Gecko) Chrome/137.0.0.0 Safari/537.36","Macintosh","Chrome","137.0.0.0","OS X","10_15_7","https://app.prolific.com/","en-GB,en-US;q=0.9,en;q=0.8","6760580745ecb73102f83f3d","683dba2a8a9dda3513610c04","6881fffbed16c146ee566cec","3","0","6760580745ecb73102f83f3d","3","0","2025-07-24T09:47:57.122Z","","","","","","","","","","","StressQ","","50","","","","","","","","","","","","","","","","","","","","","","","","","","","","",""
"1895","","<div style=""width:500px;"">
  <p>What best describes how you currently feel?</p>
  </div>","41","html-slider-response","33","330804","0.0-5.0-4.4","238","1","2025-07-24 09:42:26","1f75c3e559b7213887762d5229550c2b","217.42.208.88","Mozilla/5.0 (Macintosh; Intel Mac OS X 10_15_7) AppleWebKit/537.36 (KHTML, like Gecko) Chrome/137.0.0.0 Safari/537.36","Macintosh","Chrome","137.0.0.0","OS X","10_15_7","https://app.prolific.com/","en-GB,en-US;q=0.9,en;q=0.8","6760580745ecb73102f83f3d","683dba2a8a9dda3513610c04","6881fffbed16c146ee566cec","3","0","6760580745ecb73102f83f3d","3","0","2025-07-24T09:47:59.018Z","","","","","","","","","","","MotivationQ","","50","","","","","","","","","","","","","","","","","","","","","","","","","","","","",""
"","","","","ctl-task-cpt","34","431248","0.0-5.0-0.5","238","1","2025-07-24 09:42:26","1f75c3e559b7213887762d5229550c2b","217.42.208.88","Mozilla/5.0 (Macintosh; Intel Mac OS X 10_15_7) AppleWebKit/537.36 (KHTML, like Gecko) Chrome/137.0.0.0 Safari/537.36","Macintosh","Chrome","137.0.0.0","OS X","10_15_7","https://app.prolific.com/","en-GB,en-US;q=0.9,en;q=0.8","6760580745ecb73102f83f3d","683dba2a8a9dda3513610c04","6881fffbed16c146ee566cec","3","0","6760580745ecb73102f83f3d","3","0","2025-07-24T09:49:39.462Z","","","","","","","","","","","","","","win-only","1","g1:NE,g2:SW","0.5","6","0","332479.4","1132.5","6148","97417.8","1","4","4","6","2","4","3","23","20","0.17424242424242425","1102.1","3000","175","[""down"",""left""]","{""num_key_presses"":18,""num_perfect"":10,""num_errors"":1,""num_randdir"":7,""num_randdir_good_moves"":2,""num_whilered"":0,""num_whileblue"":1,""num_blue"":12,""num_good_moves"":12}","[808,811.796875,0.1,808,811.796875,109.3,808,811.796875,217.5,808,811.796875,323.4,808,811.796875,441.9,658,1107.796875,544.6,546,1297.796875,645.8,546,1297.796875,748.3,350,1395.796875,851.9,108,1509.796875,953.5,100,1509.796875,1057.9,100,1509.796875,1175.7,100,1509.796875,1282.8,100,1509.796875,1390.7,-160,1567.796875,1492.7,-522,1327.796875,1597.6,-522,1327.796875,1699.7,-522,1327.796875,1804.2,-522,1327.796875,1905.6,-522,1327.796875,2024.2,-522,1327.796875,2139.5,-522,1327.796875,2245.7,-522,1327.796875,2352.9,-522,1327.796875,2457.4,-522,1327.796875,2565.3,-522,1327.796875,2671.1,-522,1327.796875,2775.8,-522,1327.796875,2880.9,-522,1327.796875,2987.6,-522,1327.796875,3099.2,-522,1327.796875,3205.4,-522,1327.796875,3315,-522,1327.796875,3418.8,-522,1327.796875,3519.3,-522,1327.796875,3625.3,-522,1327.796875,3731.6,-522,1327.796875,3844.3,-522,1327.796875,3952,-522,1327.796875,4056.7,-522,1327.796875,4162.7,-522,1327.796875,4299.8,-522,1327.796875,4415.7,-522,1327.796875,4528.4,-522,1327.796875,4628.8,-522,1327.796875,4742.1,-522,1327.796875,4844.1,-522,1327.796875,4947.6]","[1402.7,1402.7,1000,0,402.7,""smooth"",""left"",""left"",""good_move"",5279.3,3876.2,3487.2,1403.1,389,""oops"",""left"",""right"",""bad_move"",8029.3,2749.8,2325.1,5279.6,424.6,""oops"",""left"",""right"",""bad_move"",13614.3,5584.9,1820.3,11379.4,414.6,""smooth"",""left"",""left"",""good_move"",16418.5,2804,2241.6,13614.5,562.4,""oops"",""left"",""right"",""bad_move"",19291.1,2872.5,2412.4,16418.6,460.1,""smooth"",""left"",""left"",""good_move"",25488.4,6197.1,1985.3,23121.5,381.6,""smooth"",""left"",""left"",""good_move"",28549.6,3061.1,2604.9,25488.6,456.2,""oops"",""left"",""down"",""good_move"",31034.5,2484.5,2087,28550,397.6,""oops"",""left"",""right"",""bad_move"",41047.3,10012.6,2320.9,38293.2,433.2,""smooth"",""left"",""left"",""good_move"",44114.2,3066.6,2730.5,41047.6,336.2,""oops"",""left"",""up"",""bad_move"",46986,2871.5,2482.2,44114.5,389.3,""smooth"",""left"",""left"",""good_move"",53528.6,6542.5,1995.4,51144.8,388.4,""smooth"",""down"",""down"",""good_move"",60637.4,7108.5,2723.9,57545.4,368.1,""while_blue"",""down"",""up"",""bad_move"",63217,2579.3,1825.2,60637.7,754.1,""smooth"",""down"",""down"",""good_move"",81058.3,17841.3,2352.1,78244.9,461.4,""smooth"",""down"",""down"",""good_move"",84617.9,3559.3,3208.9,81058.6,350.4,""smooth"",""down"",""down"",""good_move"",91001.5,6383.4,2918.7,87678.7,404.1,""oops"",""left"",""left"",""good_move""]","",""
"2786","","<div style=""width:500px;"">
  <p>What determined the result of this run?</p>
  </div>","27","html-slider-response","35","434035","0.0-5.0-1.5","238","1","2025-07-24 09:42:26","1f75c3e559b7213887762d5229550c2b","217.42.208.88","Mozilla/5.0 (Macintosh; Intel Mac OS X 10_15_7) AppleWebKit/537.36 (KHTML, like Gecko) Chrome/137.0.0.0 Safari/537.36","Macintosh","Chrome","137.0.0.0","OS X","10_15_7","https://app.prolific.com/","en-GB,en-US;q=0.9,en;q=0.8","6760580745ecb73102f83f3d","683dba2a8a9dda3513610c04","6881fffbed16c146ee566cec","3","0","6760580745ecb73102f83f3d","3","0","2025-07-24T09:49:42.249Z","","","","","","","","","","","AttribQ","","50","","","","","","","","","","","","","","","","","","","","","","","","","","","","",""
"2783","","<div style=""width:500px;"">
  <p>How much control did you have over the ball?</p>
  </div>","29","html-slider-response","36","436819","0.0-5.0-2.5","238","1","2025-07-24 09:42:26","1f75c3e559b7213887762d5229550c2b","217.42.208.88","Mozilla/5.0 (Macintosh; Intel Mac OS X 10_15_7) AppleWebKit/537.36 (KHTML, like Gecko) Chrome/137.0.0.0 Safari/537.36","Macintosh","Chrome","137.0.0.0","OS X","10_15_7","https://app.prolific.com/","en-GB,en-US;q=0.9,en;q=0.8","6760580745ecb73102f83f3d","683dba2a8a9dda3513610c04","6881fffbed16c146ee566cec","3","0","6760580745ecb73102f83f3d","3","0","2025-07-24T09:49:45.033Z","","","","","","","","","","","ControlQ","","50","","","","","","","","","","","","","","","","","","","","","","","","","","","","",""
"2317","","<div style=""width:500px;"">
  <p>How would you describe your current emotional state?</p>
  </div>","76","html-slider-response","37","439137","0.0-5.0-3.5","238","1","2025-07-24 09:42:26","1f75c3e559b7213887762d5229550c2b","217.42.208.88","Mozilla/5.0 (Macintosh; Intel Mac OS X 10_15_7) AppleWebKit/537.36 (KHTML, like Gecko) Chrome/137.0.0.0 Safari/537.36","Macintosh","Chrome","137.0.0.0","OS X","10_15_7","https://app.prolific.com/","en-GB,en-US;q=0.9,en;q=0.8","6760580745ecb73102f83f3d","683dba2a8a9dda3513610c04","6881fffbed16c146ee566cec","3","0","6760580745ecb73102f83f3d","3","0","2025-07-24T09:49:47.351Z","","","","","","","","","","","StressQ","","50","","","","","","","","","","","","","","","","","","","","","","","","","","","","",""
"1509","","<div style=""width:500px;"">
  <p>What best describes how you currently feel?</p>
  </div>","24","html-slider-response","38","440649","0.0-5.0-4.5","238","1","2025-07-24 09:42:26","1f75c3e559b7213887762d5229550c2b","217.42.208.88","Mozilla/5.0 (Macintosh; Intel Mac OS X 10_15_7) AppleWebKit/537.36 (KHTML, like Gecko) Chrome/137.0.0.0 Safari/537.36","Macintosh","Chrome","137.0.0.0","OS X","10_15_7","https://app.prolific.com/","en-GB,en-US;q=0.9,en;q=0.8","6760580745ecb73102f83f3d","683dba2a8a9dda3513610c04","6881fffbed16c146ee566cec","3","0","6760580745ecb73102f83f3d","3","0","2025-07-24T09:49:48.863Z","","","","","","","","","","","MotivationQ","","50","","","","","","","","","","","","","","","","","","","","","","","","","","","","",""
"","","","","ctl-task-cpt","39","512442","0.0-5.0-0.6","238","1","2025-07-24 09:42:26","1f75c3e559b7213887762d5229550c2b","217.42.208.88","Mozilla/5.0 (Macintosh; Intel Mac OS X 10_15_7) AppleWebKit/537.36 (KHTML, like Gecko) Chrome/137.0.0.0 Safari/537.36","Macintosh","Chrome","137.0.0.0","OS X","10_15_7","https://app.prolific.com/","en-GB,en-US;q=0.9,en;q=0.8","6760580745ecb73102f83f3d","683dba2a8a9dda3513610c04","6881fffbed16c146ee566cec","3","0","6760580745ecb73102f83f3d","3","0","2025-07-24T09:51:00.656Z","","","","","","","","","","","","","","win-only","2","g1:SE,g2:NW","0.4","7","0","442324","1201.2","6211.2","68767.4","1","4","8","6","2","8","8","31","23","0.23484848484848486","1134.3","3000","415","[""left"",""up""]","{""num_key_presses"":16,""num_perfect"":7,""num_errors"":0,""num_randdir"":9,""num_randdir_good_moves"":4,""num_whilered"":0,""num_whileblue"":0,""num_blue"":4,""num_good_moves"":11}","[808,815.796875,0.2,808,815.796875,105.7,808,815.796875,205.7,808,815.796875,310.4,808,819.796875,419,340,331.796875,590.7,340,309.796875,693.3,352,337.796875,793.5,138,235.796875,894.4,114,219.796875,1000.1,114,219.796875,1103.9,114,219.796875,1204.9,114,219.796875,1310,112,219.796875,1412,-374,463.796875,1517,-472,505.796875,1617.4,-472,505.796875,1721.7,-472,505.796875,1831.3,-472,505.796875,1947.9,-472,505.796875,2064.6,-472,505.796875,2179.3,-472,505.796875,2280.6,-472,505.796875,2391.5,-472,505.796875,2505.5,-472,505.796875,2608.4,-472,505.796875,2733.4,-472,505.796875,2839.8,-472,505.796875,2967.3,-472,505.796875,3076.4,-472,505.796875,3193.3,-472,505.796875,3299.3,-472,505.796875,3403.5,-472,505.796875,3511.8,-472,505.796875,3631.9,-472,505.796875,3735,-472,505.796875,3838.9,-472,505.796875,3938.9,-472,505.796875,4053.4,-472,505.796875,4191.9,-472,505.796875,4299,-472,505.796875,4408.8,-472,505.796875,4524,-472,505.796875,4628.4,-472,505.796875,4734.6,-472,505.796875,4866.5,-472,505.796875,4991.6]","[1414.5,1414.5,1000,0,414.5,""oops"",""up"",""down"",""bad_move"",10302.6,8886.8,1637.7,8184.5,480.4,""smooth"",""up"",""up"",""good_move"",13533.2,3230.3,2495.8,10302.9,734.5,""oops"",""up"",""up"",""good_move"",16738.3,3204.8,2772,13533.5,432.8,""smooth"",""up"",""up"",""good_move"",20197.5,3458.5,2917,16739.1,541.4,""oops"",""up"",""down"",""bad_move"",22887.9,2690.2,2285.4,20197.7,404.8,""smooth"",""up"",""up"",""good_move"",29685.4,6797.3,2284.7,26892.8,507.9,""oops"",""up"",""down"",""bad_move"",32958.8,3273.3,2710,29685.6,563.2,""smooth"",""up"",""up"",""good_move"",36155.1,3195.8,2815.6,32959.4,380.1,""oops"",""up"",""down"",""bad_move"",43832.5,7677.2,2939.4,40356.9,536.2,""oops"",""up"",""left"",""good_move"",47077.7,3244.9,2814.8,43832.8,430.1,""oops"",""up"",""right"",""bad_move"",49827.9,2749.9,2359.6,47078,390.3,""smooth"",""up"",""up"",""good_move"",53206.1,3377.9,2913.2,49828.2,464.7,""smooth"",""up"",""up"",""good_move"",56566.6,3360.3,3001.9,53206.3,358.4,""oops"",""left"",""left"",""good_move"",59637.7,3070.9,2668.1,56566.8,402.8,""smooth"",""left"",""left"",""good_move"",62313.1,2675.3,2112,59637.8,563.3,""oops"",""left"",""left"",""good_move""]","",""
"2841","","<div style=""width:500px;"">
  <p>What determined the result of this run?</p>
  </div>","38","html-slider-response","40","515285","0.0-5.0-1.6","238","1","2025-07-24 09:42:26","1f75c3e559b7213887762d5229550c2b","217.42.208.88","Mozilla/5.0 (Macintosh; Intel Mac OS X 10_15_7) AppleWebKit/537.36 (KHTML, like Gecko) Chrome/137.0.0.0 Safari/537.36","Macintosh","Chrome","137.0.0.0","OS X","10_15_7","https://app.prolific.com/","en-GB,en-US;q=0.9,en;q=0.8","6760580745ecb73102f83f3d","683dba2a8a9dda3513610c04","6881fffbed16c146ee566cec","3","0","6760580745ecb73102f83f3d","3","0","2025-07-24T09:51:03.499Z","","","","","","","","","","","AttribQ","","50","","","","","","","","","","","","","","","","","","","","","","","","","","","","",""
"3077","","<div style=""width:500px;"">
  <p>How much control did you have over the ball?</p>
  </div>","35","html-slider-response","41","518364","0.0-5.0-2.6","238","1","2025-07-24 09:42:26","1f75c3e559b7213887762d5229550c2b","217.42.208.88","Mozilla/5.0 (Macintosh; Intel Mac OS X 10_15_7) AppleWebKit/537.36 (KHTML, like Gecko) Chrome/137.0.0.0 Safari/537.36","Macintosh","Chrome","137.0.0.0","OS X","10_15_7","https://app.prolific.com/","en-GB,en-US;q=0.9,en;q=0.8","6760580745ecb73102f83f3d","683dba2a8a9dda3513610c04","6881fffbed16c146ee566cec","3","0","6760580745ecb73102f83f3d","3","0","2025-07-24T09:51:06.578Z","","","","","","","","","","","ControlQ","","50","","","","","","","","","","","","","","","","","","","","","","","","","","","","",""
"2615","","<div style=""width:500px;"">
  <p>How would you describe your current emotional state?</p>
  </div>","57","html-slider-response","42","520980","0.0-5.0-3.6","238","1","2025-07-24 09:42:26","1f75c3e559b7213887762d5229550c2b","217.42.208.88","Mozilla/5.0 (Macintosh; Intel Mac OS X 10_15_7) AppleWebKit/537.36 (KHTML, like Gecko) Chrome/137.0.0.0 Safari/537.36","Macintosh","Chrome","137.0.0.0","OS X","10_15_7","https://app.prolific.com/","en-GB,en-US;q=0.9,en;q=0.8","6760580745ecb73102f83f3d","683dba2a8a9dda3513610c04","6881fffbed16c146ee566cec","3","0","6760580745ecb73102f83f3d","3","0","2025-07-24T09:51:09.195Z","","","","","","","","","","","StressQ","","50","","","","","","","","","","","","","","","","","","","","","","","","","","","","",""
"1787","","<div style=""width:500px;"">
  <p>What best describes how you currently feel?</p>
  </div>","45","html-slider-response","43","522770","0.0-5.0-4.6","238","1","2025-07-24 09:42:26","1f75c3e559b7213887762d5229550c2b","217.42.208.88","Mozilla/5.0 (Macintosh; Intel Mac OS X 10_15_7) AppleWebKit/537.36 (KHTML, like Gecko) Chrome/137.0.0.0 Safari/537.36","Macintosh","Chrome","137.0.0.0","OS X","10_15_7","https://app.prolific.com/","en-GB,en-US;q=0.9,en;q=0.8","6760580745ecb73102f83f3d","683dba2a8a9dda3513610c04","6881fffbed16c146ee566cec","3","0","6760580745ecb73102f83f3d","3","0","2025-07-24T09:51:10.985Z","","","","","","","","","","","MotivationQ","","50","","","","","","","","","","","","","","","","","","","","","","","","","","","","",""
"","","","","ctl-task-cpt","44","570784","0.0-5.0-0.7","238","1","2025-07-24 09:42:26","1f75c3e559b7213887762d5229550c2b","217.42.208.88","Mozilla/5.0 (Macintosh; Intel Mac OS X 10_15_7) AppleWebKit/537.36 (KHTML, like Gecko) Chrome/137.0.0.0 Safari/537.36","Macintosh","Chrome","137.0.0.0","OS X","10_15_7","https://app.prolific.com/","en-GB,en-US;q=0.9,en;q=0.8","6760580745ecb73102f83f3d","683dba2a8a9dda3513610c04","6881fffbed16c146ee566cec","3","0","6760580745ecb73102f83f3d","3","0","2025-07-24T09:51:58.999Z","","","","","","","","","","","","","","win-only","3","g1:SW,g2:NE","0.3","8","0","524449.5","1110.4","6119.1","44969.1","1","4","4","6","2","4","4","35","31","0.26515151515151514","1486.1","3000","1700","[""up"",""right""]","{""num_key_presses"":10,""num_perfect"":3,""num_errors"":0,""num_randdir"":7,""num_randdir_good_moves"":5,""num_whilered"":0,""num_whileblue"":0,""num_blue"":3,""num_good_moves"":8}","[820,803.796875,0.3,820,803.796875,100.2,820,803.796875,200.9,820,803.796875,304.3,820,803.796875,424.2,788,859.796875,534.9,782,871.796875,636.4,1294,409.796875,740.5,1322,367.796875,849.3,1310,377.796875,967.2,1194,453.796875,1067.8,1244,373.796875,1173.7,1472,141.796875,1280.6,1480,137.796875,1384.3,1480,137.796875,1511,1480,137.796875,1623.6,1996,27.796875,1750.4,2488,-194.203125,1852.9,2488,-194.203125,1955.7,2488,-194.203125,2058.3,2488,-194.203125,2183,2488,-194.203125,2286.2,2488,-194.203125,2390.6,2488,-194.203125,2508.2,2488,-194.203125,2614.9,2488,-194.203125,2718.4,2488,-194.203125,2835.7,2488,-194.203125,2937.9,2488,-194.203125,3040.6,2488,-194.203125,3150.6,2488,-194.203125,3254.1,2488,-194.203125,3371.9,2488,-194.203125,3482.2,2488,-194.203125,3593.7,2488,-194.203125,3697.7,2488,-194.203125,3810.2,2488,-194.203125,3915.3,2488,-194.203125,4033.8,2488,-194.203125,4142.3,2488,-194.203125,4254.2,2488,-194.203125,4364.8,2488,-194.203125,4466.5,2488,-194.203125,4583.5,2488,-194.203125,4689,2488,-194.203125,4797.5,2488,-194.203125,4902.9]","[1398.5,1398.5,1000,0,398.5,""smooth"",""up"",""up"",""good_move"",4545.4,3146.6,1826.3,1398.8,1320.3,""oops"",""up"",""up"",""good_move"",7660,3114.5,2622,4545.5,492.6,""oops"",""up"",""down"",""bad_move"",10303.3,2643.1,2248.5,7660.3,394.5,""oops"",""up"",""left"",""bad_move"",16694.3,6390.8,2207.8,14080.5,406,""oops"",""up"",""right"",""good_move"",22673.7,5979,1973.1,20333.5,367.1,""oops"",""up"",""right"",""good_move"",26050.4,3376.5,2935.6,22673.9,440.9,""smooth"",""up"",""up"",""good_move"",32300.5,6249.9,2087.9,29802.9,409.7,""oops"",""up"",""right"",""good_move"",35346.3,3045.6,2555.2,32300.7,490.4,""oops"",""up"",""up"",""good_move"",38480.7,3134.2,1803.1,35346.5,1331.1,""smooth"",""right"",""right"",""good_move""]","",""
"2668","","<div style=""width:500px;"">
  <p>What determined the result of this run?</p>
  </div>","42","html-slider-response","45","573455","0.0-5.0-1.7","238","1","2025-07-24 09:42:26","1f75c3e559b7213887762d5229550c2b","217.42.208.88","Mozilla/5.0 (Macintosh; Intel Mac OS X 10_15_7) AppleWebKit/537.36 (KHTML, like Gecko) Chrome/137.0.0.0 Safari/537.36","Macintosh","Chrome","137.0.0.0","OS X","10_15_7","https://app.prolific.com/","en-GB,en-US;q=0.9,en;q=0.8","6760580745ecb73102f83f3d","683dba2a8a9dda3513610c04","6881fffbed16c146ee566cec","3","0","6760580745ecb73102f83f3d","3","0","2025-07-24T09:52:01.669Z","","","","","","","","","","","AttribQ","","50","","","","","","","","","","","","","","","","","","","","","","","","","","","","",""
"3306","","<div style=""width:500px;"">
  <p>How much control did you have over the ball?</p>
  </div>","60","html-slider-response","46","576762","0.0-5.0-2.7","238","1","2025-07-24 09:42:26","1f75c3e559b7213887762d5229550c2b","217.42.208.88","Mozilla/5.0 (Macintosh; Intel Mac OS X 10_15_7) AppleWebKit/537.36 (KHTML, like Gecko) Chrome/137.0.0.0 Safari/537.36","Macintosh","Chrome","137.0.0.0","OS X","10_15_7","https://app.prolific.com/","en-GB,en-US;q=0.9,en;q=0.8","6760580745ecb73102f83f3d","683dba2a8a9dda3513610c04","6881fffbed16c146ee566cec","3","0","6760580745ecb73102f83f3d","3","0","2025-07-24T09:52:04.976Z","","","","","","","","","","","ControlQ","","50","","","","","","","","","","","","","","","","","","","","","","","","","","","","",""
"4858","","<div style=""width:500px;"">
  <p>How would you describe your current emotional state?</p>
  </div>","36","html-slider-response","47","581623","0.0-5.0-3.7","238","1","2025-07-24 09:42:26","1f75c3e559b7213887762d5229550c2b","217.42.208.88","Mozilla/5.0 (Macintosh; Intel Mac OS X 10_15_7) AppleWebKit/537.36 (KHTML, like Gecko) Chrome/137.0.0.0 Safari/537.36","Macintosh","Chrome","137.0.0.0","OS X","10_15_7","https://app.prolific.com/","en-GB,en-US;q=0.9,en;q=0.8","6760580745ecb73102f83f3d","683dba2a8a9dda3513610c04","6881fffbed16c146ee566cec","3","0","6760580745ecb73102f83f3d","3","0","2025-07-24T09:52:09.837Z","","","","","","","","","","","StressQ","","50","","","","","","","","","","","","","","","","","","","","","","","","","","","","",""
"2363","","<div style=""width:500px;"">
  <p>What best describes how you currently feel?</p>
  </div>","60","html-slider-response","48","583988","0.0-5.0-4.7","238","1","2025-07-24 09:42:26","1f75c3e559b7213887762d5229550c2b","217.42.208.88","Mozilla/5.0 (Macintosh; Intel Mac OS X 10_15_7) AppleWebKit/537.36 (KHTML, like Gecko) Chrome/137.0.0.0 Safari/537.36","Macintosh","Chrome","137.0.0.0","OS X","10_15_7","https://app.prolific.com/","en-GB,en-US;q=0.9,en;q=0.8","6760580745ecb73102f83f3d","683dba2a8a9dda3513610c04","6881fffbed16c146ee566cec","3","0","6760580745ecb73102f83f3d","3","0","2025-07-24T09:52:12.202Z","","","","","","","","","","","MotivationQ","","50","","","","","","","","","","","","","","","","","","","","","","","","","","","","",""
"","","","","ctl-task-cpt","49","679558","0.0-5.0-0.8","238","1","2025-07-24 09:42:26","1f75c3e559b7213887762d5229550c2b","217.42.208.88","Mozilla/5.0 (Macintosh; Intel Mac OS X 10_15_7) AppleWebKit/537.36 (KHTML, like Gecko) Chrome/137.0.0.0 Safari/537.36","Macintosh","Chrome","137.0.0.0","OS X","10_15_7","https://app.prolific.com/","en-GB,en-US;q=0.9,en;q=0.8","6760580745ecb73102f83f3d","683dba2a8a9dda3513610c04","6881fffbed16c146ee566cec","3","0","6760580745ecb73102f83f3d","3","0","2025-07-24T09:53:47.772Z","","","","","","","","","","","","","","win-only","0","g1:NW,g2:SE","0.2","9","0","585665.2","1619","6652.4","92537.5","1","4","8","6","2","8","7","42","35","0.3181818181818182","1117.2","3000","210","[""down"",""right""]","{""num_key_presses"":24,""num_perfect"":6,""num_errors"":1,""num_randdir"":17,""num_randdir_good_moves"":8,""num_whilered"":0,""num_whileblue"":1,""num_blue"":4,""num_good_moves"":15}","[810,807.796875,0.2,810,807.796875,140.1,810,807.796875,249.9,810,807.796875,355.8,810,807.796875,462.5,1048,1147.796875,578.3,1080,1219.796875,691.8,1094,1223.796875,802.4,1462,1411.796875,927.6,1500,1431.796875,1028.1,1500,1431.796875,1131,1500,1431.796875,1231.8,1500,1431.796875,1337.3,1550,1387.796875,1466.4,1654,1275.796875,1578.5,1654,1275.796875,1678.9,1654,1275.796875,1792.8,1654,1275.796875,1898.8,1654,1275.796875,2018.4,1654,1275.796875,2136.8,1654,1275.796875,2239.7,1654,1275.796875,2346.6,1654,1275.796875,2483.3,1654,1275.796875,2609.3,1654,1275.796875,2735.3,1654,1275.796875,2854.3,1654,1275.796875,2963.7,1654,1275.796875,3065.7,1654,1275.796875,3168.4,1654,1275.796875,3285.1,1654,1275.796875,3389.6,1654,1275.796875,3489.8,1654,1275.796875,3593.7,1654,1275.796875,3696.2,1654,1275.796875,3893.9,1654,1275.796875,4008.2,1654,1275.796875,4114.7,1654,1275.796875,4221.5,1654,1275.796875,4386.8,1654,1275.796875,4489.9,1654,1275.796875,4591.6,1654,1275.796875,4694.5,1654,1275.796875,4800.7,1654,1275.796875,4905.1]","[1388.3,1388.4,1000,0,388.4,""oops"",""right"",""right"",""good_move"",4033.9,2645.3,2196.4,1388.6,448.9,""oops"",""right"",""up"",""bad_move"",7592.6,3558.4,2303.9,4034.2,1254.5,""oops"",""right"",""down"",""good_move"",14600,7006.9,2004.6,12023.8,571.6,""oops"",""right"",""left"",""bad_move"",17978.5,3378.2,2330.9,14600.3,1047.3,""oops"",""right"",""left"",""bad_move"",21549,3570.4,2670.9,17978.6,899.5,""oops"",""right"",""right"",""good_move"",25117.8,3568.7,3178,21549.3,390.6,""smooth"",""right"",""right"",""good_move"",28782.4,3664.1,3293.2,25118.3,370.9,""oops"",""right"",""up"",""bad_move"",32197.5,3414.8,2463.8,28782.7,951,""oops"",""right"",""right"",""good_move"",35377.6,3179.9,2750.8,32197.7,429.1,""smooth"",""right"",""right"",""good_move"",38421.6,3043.8,2704.4,35377.8,339.4,""while_blue"",""down"",""down"",""good_move"",41478.8,3056.9,2340.8,38421.9,716.1,""smooth"",""down"",""down"",""good_move"",47816.6,6337.5,2446.4,44959.6,410.6,""smooth"",""down"",""down"",""good_move"",50956.5,3139.8,2700.7,47816.7,439.1,""oops"",""down"",""left"",""bad_move"",54552,3595.2,2359.7,50956.8,1235.5,""oops"",""down"",""left"",""bad_move"",58174.2,3622,1520.6,54552.3,2101.3,""oops"",""right"",""up"",""bad_move"",65244.3,7069.8,2461.3,62300.7,482.3,""oops"",""right"",""right"",""good_move"",67642.1,2396.5,1958.9,65245.6,437.6,""oops"",""right"",""left"",""bad_move"",70972,3329.7,2658,67642.3,671.7,""oops"",""right"",""up"",""bad_move"",74394.3,3422.1,2151.7,70972.2,1270.4,""oops"",""down"",""down"",""good_move"",77368.2,2973.6,2623.4,74394.6,350.2,""oops"",""right"",""right"",""good_move"",80544.8,3176.5,2765.4,77368.4,411,""smooth"",""down"",""down"",""good_move"",82943.8,2398.7,1995.1,80545.1,403.6,""oops"",""down"",""right"",""good_move"",85521.9,2577.9,2143,82944,434.9,""smooth"",""down"",""down"",""good_move""]","",""
"14139","","<div style=""width:500px;"">
  <p>What determined the result of this run?</p>
  </div>","28","html-slider-response","50","693698","0.0-5.0-1.8","238","1","2025-07-24 09:42:26","1f75c3e559b7213887762d5229550c2b","217.42.208.88","Mozilla/5.0 (Macintosh; Intel Mac OS X 10_15_7) AppleWebKit/537.36 (KHTML, like Gecko) Chrome/137.0.0.0 Safari/537.36","Macintosh","Chrome","137.0.0.0","OS X","10_15_7","https://app.prolific.com/","en-GB,en-US;q=0.9,en;q=0.8","6760580745ecb73102f83f3d","683dba2a8a9dda3513610c04","6881fffbed16c146ee566cec","3","0","6760580745ecb73102f83f3d","3","0","2025-07-24T09:54:01.912Z","","","","","","","","","","","AttribQ","","50","","","","","","","","","","","","","","","","","","","","","","","","","","","","",""
"2151","","<div style=""width:500px;"">
  <p>How much control did you have over the ball?</p>
  </div>","36","html-slider-response","51","695850","0.0-5.0-2.8","238","1","2025-07-24 09:42:26","1f75c3e559b7213887762d5229550c2b","217.42.208.88","Mozilla/5.0 (Macintosh; Intel Mac OS X 10_15_7) AppleWebKit/537.36 (KHTML, like Gecko) Chrome/137.0.0.0 Safari/537.36","Macintosh","Chrome","137.0.0.0","OS X","10_15_7","https://app.prolific.com/","en-GB,en-US;q=0.9,en;q=0.8","6760580745ecb73102f83f3d","683dba2a8a9dda3513610c04","6881fffbed16c146ee566cec","3","0","6760580745ecb73102f83f3d","3","0","2025-07-24T09:54:04.064Z","","","","","","","","","","","ControlQ","","50","","","","","","","","","","","","","","","","","","","","","","","","","","","","",""
"2282","","<div style=""width:500px;"">
  <p>How would you describe your current emotional state?</p>
  </div>","63","html-slider-response","52","698132","0.0-5.0-3.8","238","1","2025-07-24 09:42:26","1f75c3e559b7213887762d5229550c2b","217.42.208.88","Mozilla/5.0 (Macintosh; Intel Mac OS X 10_15_7) AppleWebKit/537.36 (KHTML, like Gecko) Chrome/137.0.0.0 Safari/537.36","Macintosh","Chrome","137.0.0.0","OS X","10_15_7","https://app.prolific.com/","en-GB,en-US;q=0.9,en;q=0.8","6760580745ecb73102f83f3d","683dba2a8a9dda3513610c04","6881fffbed16c146ee566cec","3","0","6760580745ecb73102f83f3d","3","0","2025-07-24T09:54:06.346Z","","","","","","","","","","","StressQ","","50","","","","","","","","","","","","","","","","","","","","","","","","","","","","",""
"2587","","<div style=""width:500px;"">
  <p>What best describes how you currently feel?</p>
  </div>","40","html-slider-response","53","700720","0.0-5.0-4.8","238","1","2025-07-24 09:42:26","1f75c3e559b7213887762d5229550c2b","217.42.208.88","Mozilla/5.0 (Macintosh; Intel Mac OS X 10_15_7) AppleWebKit/537.36 (KHTML, like Gecko) Chrome/137.0.0.0 Safari/537.36","Macintosh","Chrome","137.0.0.0","OS X","10_15_7","https://app.prolific.com/","en-GB,en-US;q=0.9,en;q=0.8","6760580745ecb73102f83f3d","683dba2a8a9dda3513610c04","6881fffbed16c146ee566cec","3","0","6760580745ecb73102f83f3d","3","0","2025-07-24T09:54:08.934Z","","","","","","","","","","","MotivationQ","","50","","","","","","","","","","","","","","","","","","","","","","","","","","","","",""
"","","","","ctl-task-cpt","54","767453","0.0-5.0-0.9","238","1","2025-07-24 09:42:26","1f75c3e559b7213887762d5229550c2b","217.42.208.88","Mozilla/5.0 (Macintosh; Intel Mac OS X 10_15_7) AppleWebKit/537.36 (KHTML, like Gecko) Chrome/137.0.0.0 Safari/537.36","Macintosh","Chrome","137.0.0.0","OS X","10_15_7","https://app.prolific.com/","en-GB,en-US;q=0.9,en;q=0.8","6760580745ecb73102f83f3d","683dba2a8a9dda3513610c04","6881fffbed16c146ee566cec","3","0","6760580745ecb73102f83f3d","3","0","2025-07-24T09:55:15.667Z","","","","","","","","","","","","","","win-only","3","g1:SW,g2:NE","0.4","10","0","702398.3","984.1","5994","63693","1","4","4","6","2","4","3","45","42","0.3409090909090909","1969.2","3000","1280","[""up"",""right""]","{""num_key_presses"":16,""num_perfect"":6,""num_errors"":1,""num_randdir"":9,""num_randdir_good_moves"":5,""num_whilered"":0,""num_whileblue"":1,""num_blue"":4,""num_good_moves"":11}","[804,807.796875,0.2,804,807.796875,103.4,804,807.796875,235.7,804,807.796875,335.8,804,807.796875,450.5,1144,549.796875,558.1,1302,363.796875,665.4,1120,543.796875,773.3,446,1253.796875,889.7,426,1271.796875,999.3,438,1259.796875,1115.3,520,1165.796875,1218.5,508,1165.796875,1321.1,714,857.796875,1423.1,960,571.796875,1534.2,964,567.796875,1640.6,1414,199.796875,1756.2,1470,177.796875,1867.5,1470,175.796875,1981.9,1470,175.796875,2124.9,1630,61.796875,2250.2,1876,-72.203125,2352.2,1876,-72.203125,2453.6,1876,-72.203125,2564.9,1876,-72.203125,2670.7,1876,-72.203125,2781.8,1876,-72.203125,2891.2,1876,-72.203125,3000.9,1876,-72.203125,3107.2,1876,-72.203125,3217.9,1876,-72.203125,3405.6,1876,-72.203125,3508.8,1876,-72.203125,3620,1876,-72.203125,3725.2,1876,-72.203125,3882.1,1876,-72.203125,4008.7,1876,-72.203125,4120.2,1876,-72.203125,4223,1876,-72.203125,4340.4,1876,-72.203125,4542.5,1876,-72.203125,4660,1876,-72.203125,4760.2,1876,-72.203125,4865.6,1876,-72.203125,4966.5]","[1828.7,1828.7,1000,0,828.7,""smooth"",""up"",""up"",""good_move"",5137.9,3308.6,1213,1829.3,2095.6,""oops"",""up"",""right"",""good_move"",7379.1,2241,1857.2,5138.1,383.8,""oops"",""up"",""left"",""bad_move"",10687.5,3308.1,2589.2,7379.4,718.9,""oops"",""up"",""down"",""bad_move"",13118.7,2430.6,1996.1,10688.1,434.5,""smooth"",""up"",""up"",""good_move"",16547.7,3428.8,2249.3,13118.9,1179.5,""smooth"",""up"",""up"",""good_move"",19961.4,3413.5,3070.8,16547.9,342.7,""while_blue"",""up"",""left"",""bad_move"",30057.8,10096.2,2180.5,27405.9,471.4,""smooth"",""up"",""up"",""good_move"",33590.3,3531.8,2360.8,30058.5,1171,""oops"",""right"",""right"",""good_move"",35829.1,2238.7,1776.4,33590.5,462.3,""oops"",""right"",""down"",""bad_move"",38486.9,2656.9,2281.6,35830,375.3,""oops"",""right"",""down"",""bad_move"",44714.6,6227.2,2453,41874.8,386.9,""oops"",""right"",""up"",""good_move"",48182.8,3467.8,1975.4,44715,1492.4,""smooth"",""right"",""right"",""good_move"",51216.8,3033.9,2671,48183,362.8,""oops"",""right"",""right"",""good_move"",53952,2735,2339.9,51217,395.1,""oops"",""up"",""up"",""good_move"",57284.4,3332.2,2155.1,53952.2,1177.1,""smooth"",""right"",""right"",""good_move""]","",""
"4401","","<div style=""width:500px;"">
  <p>What determined the result of this run?</p>
  </div>","33","html-slider-response","55","771856","0.0-5.0-1.9","238","1","2025-07-24 09:42:26","1f75c3e559b7213887762d5229550c2b","217.42.208.88","Mozilla/5.0 (Macintosh; Intel Mac OS X 10_15_7) AppleWebKit/537.36 (KHTML, like Gecko) Chrome/137.0.0.0 Safari/537.36","Macintosh","Chrome","137.0.0.0","OS X","10_15_7","https://app.prolific.com/","en-GB,en-US;q=0.9,en;q=0.8","6760580745ecb73102f83f3d","683dba2a8a9dda3513610c04","6881fffbed16c146ee566cec","3","0","6760580745ecb73102f83f3d","3","0","2025-07-24T09:55:20.070Z","","","","","","","","","","","AttribQ","","50","","","","","","","","","","","","","","","","","","","","","","","","","","","","",""
"2424","","<div style=""width:500px;"">
  <p>How much control did you have over the ball?</p>
  </div>","35","html-slider-response","56","774283","0.0-5.0-2.9","238","1","2025-07-24 09:42:26","1f75c3e559b7213887762d5229550c2b","217.42.208.88","Mozilla/5.0 (Macintosh; Intel Mac OS X 10_15_7) AppleWebKit/537.36 (KHTML, like Gecko) Chrome/137.0.0.0 Safari/537.36","Macintosh","Chrome","137.0.0.0","OS X","10_15_7","https://app.prolific.com/","en-GB,en-US;q=0.9,en;q=0.8","6760580745ecb73102f83f3d","683dba2a8a9dda3513610c04","6881fffbed16c146ee566cec","3","0","6760580745ecb73102f83f3d","3","0","2025-07-24T09:55:22.497Z","","","","","","","","","","","ControlQ","","50","","","","","","","","","","","","","","","","","","","","","","","","","","","","",""
"2041","","<div style=""width:500px;"">
  <p>How would you describe your current emotional state?</p>
  </div>","67","html-slider-response","57","776325","0.0-5.0-3.9","238","1","2025-07-24 09:42:26","1f75c3e559b7213887762d5229550c2b","217.42.208.88","Mozilla/5.0 (Macintosh; Intel Mac OS X 10_15_7) AppleWebKit/537.36 (KHTML, like Gecko) Chrome/137.0.0.0 Safari/537.36","Macintosh","Chrome","137.0.0.0","OS X","10_15_7","https://app.prolific.com/","en-GB,en-US;q=0.9,en;q=0.8","6760580745ecb73102f83f3d","683dba2a8a9dda3513610c04","6881fffbed16c146ee566cec","3","0","6760580745ecb73102f83f3d","3","0","2025-07-24T09:55:24.539Z","","","","","","","","","","","StressQ","","50","","","","","","","","","","","","","","","","","","","","","","","","","","","","",""
"1522","","<div style=""width:500px;"">
  <p>What best describes how you currently feel?</p>
  </div>","40","html-slider-response","58","777848","0.0-5.0-4.9","238","1","2025-07-24 09:42:26","1f75c3e559b7213887762d5229550c2b","217.42.208.88","Mozilla/5.0 (Macintosh; Intel Mac OS X 10_15_7) AppleWebKit/537.36 (KHTML, like Gecko) Chrome/137.0.0.0 Safari/537.36","Macintosh","Chrome","137.0.0.0","OS X","10_15_7","https://app.prolific.com/","en-GB,en-US;q=0.9,en;q=0.8","6760580745ecb73102f83f3d","683dba2a8a9dda3513610c04","6881fffbed16c146ee566cec","3","0","6760580745ecb73102f83f3d","3","0","2025-07-24T09:55:26.062Z","","","","","","","","","","","MotivationQ","","50","","","","","","","","","","","","","","","","","","","","","","","","","","","","",""
"","","","","ctl-task-cpt","59","806952","0.0-5.0-0.10","238","1","2025-07-24 09:42:26","1f75c3e559b7213887762d5229550c2b","217.42.208.88","Mozilla/5.0 (Macintosh; Intel Mac OS X 10_15_7) AppleWebKit/537.36 (KHTML, like Gecko) Chrome/137.0.0.0 Safari/537.36","Macintosh","Chrome","137.0.0.0","OS X","10_15_7","https://app.prolific.com/","en-GB,en-US;q=0.9,en;q=0.8","6760580745ecb73102f83f3d","683dba2a8a9dda3513610c04","6881fffbed16c146ee566cec","3","0","6760580745ecb73102f83f3d","3","0","2025-07-24T09:55:55.166Z","","","","","","","","","","","","","","win-only","3","g1:SW,g2:NE","0.5","11","0","779529.9","845.1","5849.1","26066.4","1","4","4","6","1","1","1","46","45","0.3484848484848485","1392.4","3000","2540","[""down"",""left""]","{""num_key_presses"":4,""num_perfect"":1,""num_errors"":0,""num_randdir"":3,""num_randdir_good_moves"":3,""num_whilered"":0,""num_whileblue"":0,""num_blue"":3,""num_good_moves"":4}","[812,803.796875,0.2,812,803.796875,120.4,812,803.796875,236.1,812,803.796875,351,812,803.796875,464,812,803.796875,601.3,1000,519.796875,707.8,650,1009.796875,812.3,454,1387.796875,918.9,454,1387.796875,1029.2,316,1461.796875,1138.4,96,1483.796875,1256.9,96,1483.796875,1377.9,96,1483.796875,1483.8,96,1483.796875,1585.9,92,1483.796875,1696.9,-220,1383.796875,1834.1,-220,1383.796875,1951,-220,1383.796875,2057,-220,1383.796875,2167.3,-220,1383.796875,2267.8,-220,1383.796875,2396.9,-220,1383.796875,2506.5,-220,1383.796875,2631.5,-220,1383.796875,2751.9,-220,1383.796875,2864.2,-220,1383.796875,2980,-220,1383.796875,3103.7,-220,1383.796875,3229.6,-220,1383.796875,3344.8,-220,1383.796875,3456,-220,1383.796875,3562.1,-220,1383.796875,3686.7,-220,1383.796875,3820,-220,1383.796875,3928.9,-220,1383.796875,4031.1,-220,1383.796875,4138.2,-220,1383.796875,4261.1,-220,1383.796875,4399.3,-220,1383.796875,4504,-220,1383.796875,4609,-220,1383.796875,4710.2,-220,1383.796875,4940.7]","[8022,8022,1938.8,5564.5,518.7,""smooth"",""left"",""left"",""good_move"",12021.2,3998.9,2857,8022.3,1141.9,""oops"",""left"",""down"",""good_move"",17420.3,5398.3,2323.1,14623.4,473.9,""oops"",""left"",""down"",""good_move"",19802.5,2381.7,1902.8,17420.9,478.9,""oops"",""left"",""left"",""good_move""]","",""
"3267","","<div style=""width:500px;"">
  <p>What determined the result of this run?</p>
  </div>","36","html-slider-response","60","810220","0.0-5.0-1.10","238","1","2025-07-24 09:42:26","1f75c3e559b7213887762d5229550c2b","217.42.208.88","Mozilla/5.0 (Macintosh; Intel Mac OS X 10_15_7) AppleWebKit/537.36 (KHTML, like Gecko) Chrome/137.0.0.0 Safari/537.36","Macintosh","Chrome","137.0.0.0","OS X","10_15_7","https://app.prolific.com/","en-GB,en-US;q=0.9,en;q=0.8","6760580745ecb73102f83f3d","683dba2a8a9dda3513610c04","6881fffbed16c146ee566cec","3","0","6760580745ecb73102f83f3d","3","0","2025-07-24T09:55:58.434Z","","","","","","","","","","","AttribQ","","50","","","","","","","","","","","","","","","","","","","","","","","","","","","","",""
"3198","","<div style=""width:500px;"">
  <p>How much control did you have over the ball?</p>
  </div>","40","html-slider-response","61","813419","0.0-5.0-2.10","238","1","2025-07-24 09:42:26","1f75c3e559b7213887762d5229550c2b","217.42.208.88","Mozilla/5.0 (Macintosh; Intel Mac OS X 10_15_7) AppleWebKit/537.36 (KHTML, like Gecko) Chrome/137.0.0.0 Safari/537.36","Macintosh","Chrome","137.0.0.0","OS X","10_15_7","https://app.prolific.com/","en-GB,en-US;q=0.9,en;q=0.8","6760580745ecb73102f83f3d","683dba2a8a9dda3513610c04","6881fffbed16c146ee566cec","3","0","6760580745ecb73102f83f3d","3","0","2025-07-24T09:56:01.634Z","","","","","","","","","","","ControlQ","","50","","","","","","","","","","","","","","","","","","","","","","","","","","","","",""
"2941","","<div style=""width:500px;"">
  <p>How would you describe your current emotional state?</p>
  </div>","57","html-slider-response","62","816363","0.0-5.0-3.10","238","1","2025-07-24 09:42:26","1f75c3e559b7213887762d5229550c2b","217.42.208.88","Mozilla/5.0 (Macintosh; Intel Mac OS X 10_15_7) AppleWebKit/537.36 (KHTML, like Gecko) Chrome/137.0.0.0 Safari/537.36","Macintosh","Chrome","137.0.0.0","OS X","10_15_7","https://app.prolific.com/","en-GB,en-US;q=0.9,en;q=0.8","6760580745ecb73102f83f3d","683dba2a8a9dda3513610c04","6881fffbed16c146ee566cec","3","0","6760580745ecb73102f83f3d","3","0","2025-07-24T09:56:04.577Z","","","","","","","","","","","StressQ","","50","","","","","","","","","","","","","","","","","","","","","","","","","","","","",""
"4476","","<div style=""width:500px;"">
  <p>What best describes how you currently feel?</p>
  </div>","39","html-slider-response","63","820840","0.0-5.0-4.10","238","1","2025-07-24 09:42:26","1f75c3e559b7213887762d5229550c2b","217.42.208.88","Mozilla/5.0 (Macintosh; Intel Mac OS X 10_15_7) AppleWebKit/537.36 (KHTML, like Gecko) Chrome/137.0.0.0 Safari/537.36","Macintosh","Chrome","137.0.0.0","OS X","10_15_7","https://app.prolific.com/","en-GB,en-US;q=0.9,en;q=0.8","6760580745ecb73102f83f3d","683dba2a8a9dda3513610c04","6881fffbed16c146ee566cec","3","0","6760580745ecb73102f83f3d","3","0","2025-07-24T09:56:09.054Z","","","","","","","","","","","MotivationQ","","50","","","","","","","","","","","","","","","","","","","","","","","","","","","","",""
"","","","","ctl-task-cpt","64","868896","0.0-5.0-0.11","238","1","2025-07-24 09:42:26","1f75c3e559b7213887762d5229550c2b","217.42.208.88","Mozilla/5.0 (Macintosh; Intel Mac OS X 10_15_7) AppleWebKit/537.36 (KHTML, like Gecko) Chrome/137.0.0.0 Safari/537.36","Macintosh","Chrome","137.0.0.0","OS X","10_15_7","https://app.prolific.com/","en-GB,en-US;q=0.9,en;q=0.8","6760580745ecb73102f83f3d","683dba2a8a9dda3513610c04","6881fffbed16c146ee566cec","3","0","6760580745ecb73102f83f3d","3","0","2025-07-24T09:56:57.110Z","","","","","","","","","","","","","","win-only","2","g1:SE,g2:NW","0.6","12","0","822522.6","1049.5","6050.7","45034.5","1","4","8","6","2","8","8","54","46","0.4090909090909091","1203.2","3000","1960","[""left"",""up""]","{""num_key_presses"":10,""num_perfect"":6,""num_errors"":0,""num_randdir"":4,""num_randdir_good_moves"":2,""num_whilered"":0,""num_whileblue"":0,""num_blue"":1,""num_good_moves"":8}","[810,825.796875,0.2,810,825.796875,128.9,810,825.796875,266.7,810,825.796875,370.1,810,825.796875,471.3,626,689.796875,594.8,544,501.796875,716,516,495.796875,841.7,94,153.796875,946.7,82,137.796875,1049.5,82,139.796875,1161.9,82,139.796875,1263.8,82,139.796875,1395.1,-56,245.796875,1499.6,-532,531.796875,1615.6,-532,531.796875,1722.4,-532,531.796875,1830.8,-532,531.796875,1930.8,-532,531.796875,2040.7,-532,531.796875,2175.8,-532,531.796875,2282.7,-532,531.796875,2391.9,-532,531.796875,2499,-532,531.796875,2620.3,-532,531.796875,2724,-532,531.796875,2833.8,-532,531.796875,2948.8,-532,531.796875,3070.9,-532,531.796875,3203.5,-532,531.796875,3332.3,-532,531.796875,3448.2,-532,531.796875,3551.7,-532,531.796875,3664.2,-532,531.796875,3894.1,-532,531.796875,3995.6,-532,531.796875,4106.5,-532,531.796875,4212.5,-532,531.796875,4421.7,-532,531.796875,4531.2,-532,531.796875,4634.9,-532,531.796875,4742.9,-532,531.796875,4844.8,-532,531.796875,4948.8]","[1389.9,1389.9,1000,0,389.9,""oops"",""up"",""up"",""good_move"",5420.8,4030.7,2539.6,1390.1,1491.1,""oops"",""up"",""down"",""bad_move"",11427.6,6006.5,2652,8294.9,480.7,""smooth"",""up"",""up"",""good_move"",15505.8,4078.1,2358.6,11427.7,1719.5,""oops"",""up"",""right"",""bad_move"",18311.1,2804.8,2185.7,15506.4,619.1,""oops"",""up"",""up"",""good_move"",22492.8,4181,2149.8,18311.8,2031.2,""smooth"",""up"",""up"",""good_move"",26692,4198.9,2547.8,22493.1,1651.1,""smooth"",""left"",""left"",""good_move"",30716.2,4023.9,2774.2,26692.3,1249.7,""smooth"",""left"",""left"",""good_move"",34746.8,4030.1,2717.2,30716.7,1312.9,""smooth"",""left"",""left"",""good_move"",38737,3990.1,2613.3,34746.9,1376.8,""smooth"",""left"",""left"",""good_move""]","",""
"2902","","<div style=""width:500px;"">
  <p>What determined the result of this run?</p>
  </div>","40","html-slider-response","65","871799","0.0-5.0-1.11","238","1","2025-07-24 09:42:26","1f75c3e559b7213887762d5229550c2b","217.42.208.88","Mozilla/5.0 (Macintosh; Intel Mac OS X 10_15_7) AppleWebKit/537.36 (KHTML, like Gecko) Chrome/137.0.0.0 Safari/537.36","Macintosh","Chrome","137.0.0.0","OS X","10_15_7","https://app.prolific.com/","en-GB,en-US;q=0.9,en;q=0.8","6760580745ecb73102f83f3d","683dba2a8a9dda3513610c04","6881fffbed16c146ee566cec","3","0","6760580745ecb73102f83f3d","3","0","2025-07-24T09:57:00.013Z","","","","","","","","","","","AttribQ","","50","","","","","","","","","","","","","","","","","","","","","","","","","","","","",""
"1987","","<div style=""width:500px;"">
  <p>How much control did you have over the ball?</p>
  </div>","66","html-slider-response","66","873787","0.0-5.0-2.11","238","1","2025-07-24 09:42:26","1f75c3e559b7213887762d5229550c2b","217.42.208.88","Mozilla/5.0 (Macintosh; Intel Mac OS X 10_15_7) AppleWebKit/537.36 (KHTML, like Gecko) Chrome/137.0.0.0 Safari/537.36","Macintosh","Chrome","137.0.0.0","OS X","10_15_7","https://app.prolific.com/","en-GB,en-US;q=0.9,en;q=0.8","6760580745ecb73102f83f3d","683dba2a8a9dda3513610c04","6881fffbed16c146ee566cec","3","0","6760580745ecb73102f83f3d","3","0","2025-07-24T09:57:02.001Z","","","","","","","","","","","ControlQ","","50","","","","","","","","","","","","","","","","","","","","","","","","","","","","",""
"1699","","<div style=""width:500px;"">
  <p>How would you describe your current emotional state?</p>
  </div>","44","html-slider-response","67","875487","0.0-5.0-3.11","238","1","2025-07-24 09:42:26","1f75c3e559b7213887762d5229550c2b","217.42.208.88","Mozilla/5.0 (Macintosh; Intel Mac OS X 10_15_7) AppleWebKit/537.36 (KHTML, like Gecko) Chrome/137.0.0.0 Safari/537.36","Macintosh","Chrome","137.0.0.0","OS X","10_15_7","https://app.prolific.com/","en-GB,en-US;q=0.9,en;q=0.8","6760580745ecb73102f83f3d","683dba2a8a9dda3513610c04","6881fffbed16c146ee566cec","3","0","6760580745ecb73102f83f3d","3","0","2025-07-24T09:57:03.701Z","","","","","","","","","","","StressQ","","50","","","","","","","","","","","","","","","","","","","","","","","","","","","","",""
"2136","","<div style=""width:500px;"">
  <p>What best describes how you currently feel?</p>
  </div>","55","html-slider-response","68","877624","0.0-5.0-4.11","238","1","2025-07-24 09:42:26","1f75c3e559b7213887762d5229550c2b","217.42.208.88","Mozilla/5.0 (Macintosh; Intel Mac OS X 10_15_7) AppleWebKit/537.36 (KHTML, like Gecko) Chrome/137.0.0.0 Safari/537.36","Macintosh","Chrome","137.0.0.0","OS X","10_15_7","https://app.prolific.com/","en-GB,en-US;q=0.9,en;q=0.8","6760580745ecb73102f83f3d","683dba2a8a9dda3513610c04","6881fffbed16c146ee566cec","3","0","6760580745ecb73102f83f3d","3","0","2025-07-24T09:57:05.838Z","","","","","","","","","","","MotivationQ","","50","","","","","","","","","","","","","","","","","","","","","","","","","","","","",""
"","","","","ctl-task-cpt","69","910743","0.0-5.0-0.12","238","1","2025-07-24 09:42:26","1f75c3e559b7213887762d5229550c2b","217.42.208.88","Mozilla/5.0 (Macintosh; Intel Mac OS X 10_15_7) AppleWebKit/537.36 (KHTML, like Gecko) Chrome/137.0.0.0 Safari/537.36","Macintosh","Chrome","137.0.0.0","OS X","10_15_7","https://app.prolific.com/","en-GB,en-US;q=0.9,en;q=0.8","6760580745ecb73102f83f3d","683dba2a8a9dda3513610c04","6881fffbed16c146ee566cec","3","0","6760580745ecb73102f83f3d","3","0","2025-07-24T09:57:38.957Z","","","","","","","","","","","","","","win-only","3","g1:SW,g2:NE","0.7","13","0","879307.6","1080.2","6114.5","30080.6","1","4","4","6","1","1","1","55","54","0.4166666666666667","1116.7","3000","2420","[""down"",""left""]","{""num_key_presses"":6,""num_perfect"":4,""num_errors"":0,""num_randdir"":2,""num_randdir_good_moves"":1,""num_whilered"":0,""num_whileblue"":0,""num_blue"":1,""num_good_moves"":5}","[812,805.796875,0.1,812,805.796875,102.5,812,805.796875,204.2,812,805.796875,305.8,812,805.796875,415.6,812,805.796875,522.2,566,1241.796875,639.1,404,1517.796875,753.4,404,1517.796875,857.8,276,1517.796875,969.4,196,1507.796875,1083.2,196,1507.796875,1188.9,196,1507.796875,1299.1,196,1507.796875,1403.6,86,1469.796875,1516.7,-46,1357.796875,1659.6,-46,1357.796875,1778.3,-46,1357.796875,1885.2,-46,1357.796875,1986.1,-46,1357.796875,2086.5,-46,1357.796875,2203.1,-262,1453.796875,2317.7,-454,1425.796875,2419.6,-454,1425.796875,2530,-454,1425.796875,2636.5,-454,1425.796875,2747.7,-454,1425.796875,2851.5,-454,1425.796875,2970.6,-454,1425.796875,3082,-454,1425.796875,3187.7,-454,1425.796875,3288.2,-454,1425.796875,3397.2,-454,1425.796875,3517.1,-454,1425.796875,3619,-454,1425.796875,3723.9,-454,1425.796875,3834.4,-454,1425.796875,3938.3,-454,1425.796875,4108.2,-454,1425.796875,4227.4,-454,1425.796875,4328.2,-454,1425.796875,4431,-454,1425.796875,4535.6,-454,1425.796875,4714,-454,1425.796875,4817.4,-454,1425.796875,4926.3]","[1556.7,1556.7,1000,0,556.7,""smooth"",""left"",""left"",""good_move"",6011,4454,2708.1,1557,1745.9,""smooth"",""left"",""left"",""good_move"",13273.5,7261.7,2107.9,10731.2,434.4,""oops"",""down"",""up"",""bad_move"",17414.3,4139.9,2514.7,13274.4,1625.2,""smooth"",""down"",""down"",""good_move"",20218,2803.4,2326.8,17414.6,476.6,""smooth"",""down"",""down"",""good_move"",23460.2,3241.9,2711.5,20218.3,530.5,""oops"",""down"",""down"",""good_move""]","",""
"2962","","<div style=""width:500px;"">
  <p>What determined the result of this run?</p>
  </div>","55","html-slider-response","70","913706","0.0-5.0-1.12","238","1","2025-07-24 09:42:26","1f75c3e559b7213887762d5229550c2b","217.42.208.88","Mozilla/5.0 (Macintosh; Intel Mac OS X 10_15_7) AppleWebKit/537.36 (KHTML, like Gecko) Chrome/137.0.0.0 Safari/537.36","Macintosh","Chrome","137.0.0.0","OS X","10_15_7","https://app.prolific.com/","en-GB,en-US;q=0.9,en;q=0.8","6760580745ecb73102f83f3d","683dba2a8a9dda3513610c04","6881fffbed16c146ee566cec","3","0","6760580745ecb73102f83f3d","3","0","2025-07-24T09:57:41.920Z","","","","","","","","","","","AttribQ","","50","","","","","","","","","","","","","","","","","","","","","","","","","","","","",""
"3575","","<div style=""width:500px;"">
  <p>How much control did you have over the ball?</p>
  </div>","67","html-slider-response","71","917283","0.0-5.0-2.12","238","1","2025-07-24 09:42:26","1f75c3e559b7213887762d5229550c2b","217.42.208.88","Mozilla/5.0 (Macintosh; Intel Mac OS X 10_15_7) AppleWebKit/537.36 (KHTML, like Gecko) Chrome/137.0.0.0 Safari/537.36","Macintosh","Chrome","137.0.0.0","OS X","10_15_7","https://app.prolific.com/","en-GB,en-US;q=0.9,en;q=0.8","6760580745ecb73102f83f3d","683dba2a8a9dda3513610c04","6881fffbed16c146ee566cec","3","0","6760580745ecb73102f83f3d","3","0","2025-07-24T09:57:45.497Z","","","","","","","","","","","ControlQ","","50","","","","","","","","","","","","","","","","","","","","","","","","","","","","",""
"2094","","<div style=""width:500px;"">
  <p>How would you describe your current emotional state?</p>
  </div>","56","html-slider-response","72","919380","0.0-5.0-3.12","238","1","2025-07-24 09:42:26","1f75c3e559b7213887762d5229550c2b","217.42.208.88","Mozilla/5.0 (Macintosh; Intel Mac OS X 10_15_7) AppleWebKit/537.36 (KHTML, like Gecko) Chrome/137.0.0.0 Safari/537.36","Macintosh","Chrome","137.0.0.0","OS X","10_15_7","https://app.prolific.com/","en-GB,en-US;q=0.9,en;q=0.8","6760580745ecb73102f83f3d","683dba2a8a9dda3513610c04","6881fffbed16c146ee566cec","3","0","6760580745ecb73102f83f3d","3","0","2025-07-24T09:57:47.594Z","","","","","","","","","","","StressQ","","50","","","","","","","","","","","","","","","","","","","","","","","","","","","","",""
"1662","","<div style=""width:500px;"">
  <p>What best describes how you currently feel?</p>
  </div>","42","html-slider-response","73","921045","0.0-5.0-4.12","238","1","2025-07-24 09:42:26","1f75c3e559b7213887762d5229550c2b","217.42.208.88","Mozilla/5.0 (Macintosh; Intel Mac OS X 10_15_7) AppleWebKit/537.36 (KHTML, like Gecko) Chrome/137.0.0.0 Safari/537.36","Macintosh","Chrome","137.0.0.0","OS X","10_15_7","https://app.prolific.com/","en-GB,en-US;q=0.9,en;q=0.8","6760580745ecb73102f83f3d","683dba2a8a9dda3513610c04","6881fffbed16c146ee566cec","3","0","6760580745ecb73102f83f3d","3","0","2025-07-24T09:57:49.259Z","","","","","","","","","","","MotivationQ","","50","","","","","","","","","","","","","","","","","","","","","","","","","","","","",""
"","","","","ctl-task-cpt","74","962326","0.0-5.0-0.13","238","1","2025-07-24 09:42:26","1f75c3e559b7213887762d5229550c2b","217.42.208.88","Mozilla/5.0 (Macintosh; Intel Mac OS X 10_15_7) AppleWebKit/537.36 (KHTML, like Gecko) Chrome/137.0.0.0 Safari/537.36","Macintosh","Chrome","137.0.0.0","OS X","10_15_7","https://app.prolific.com/","en-GB,en-US;q=0.9,en;q=0.8","6760580745ecb73102f83f3d","683dba2a8a9dda3513610c04","6881fffbed16c146ee566cec","3","0","6760580745ecb73102f83f3d","3","0","2025-07-24T09:58:30.540Z","","","","","","","","","","","","","","win-only","3","g1:SW,g2:NE","0.8","14","0","922729.1","1309.5","6323.5","38244.2","1","4","8","6","2","8","8","63","55","0.4772727272727273","1032.7","3000","2290","[""up"",""right""]","{""num_key_presses"":8,""num_perfect"":6,""num_errors"":0,""num_randdir"":2,""num_randdir_good_moves"":1,""num_whilered"":0,""num_whileblue"":0,""num_blue"":1,""num_good_moves"":7}","[806,805.796875,0.3,806,805.796875,117.2,806,805.796875,217.7,806,805.796875,338.5,806,805.796875,449.8,1300,147.796875,561.5,1380,49.796875,680.2,1402,99.796875,827.6,1434,139.796875,940.6,1434,139.796875,1052.5,1434,139.796875,1158.7,1468,135.796875,1271.2,1794,95.796875,1377.1,2176,25.796875,1494.6,2176,25.796875,1611,2122,181.796875,1725.9,2100,351.796875,1828.3,2100,351.796875,1936.2,2100,351.796875,2079.6,2100,351.796875,2195.5,2100,351.796875,2311,2100,351.796875,2414.6,2100,351.796875,2533.1,2100,351.796875,2667.9,2100,351.796875,2784.3,2100,351.796875,2901.9,2100,351.796875,3013.9,2100,351.796875,3130.5,2100,351.796875,3254.8,2100,351.796875,3366.1,2100,351.796875,3483.2,2100,351.796875,3588.9,2100,351.796875,3693.9,2100,351.796875,3796,2100,351.796875,3916.4,2100,351.796875,4041.8,2100,351.796875,4160.4,2100,351.796875,4264.8,2100,351.796875,4369,2100,351.796875,4514.8,2100,351.796875,4615.3,2100,351.796875,4739.1,2100,351.796875,4854.9,2100,351.796875,4955.7]","[1424,1424,1000,0,424,""smooth"",""up"",""up"",""good_move"",6520.4,5095.6,2093,1424.9,3002.6,""smooth"",""up"",""up"",""good_move"",11247.3,4726.4,2865.9,6520.9,1860.5,""oops"",""up"",""left"",""bad_move"",15960.9,4712.9,2627.3,11248,2085.6,""smooth"",""up"",""up"",""good_move"",20339.9,4378.9,1413.7,15961,2965.2,""smooth"",""right"",""right"",""good_move"",22939,2598.9,2103.2,20340.1,495.7,""smooth"",""right"",""right"",""good_move"",26085.6,3146.4,2705.3,22939.2,441.1,""smooth"",""right"",""right"",""good_move"",31390.7,5304.9,1779.8,29133,477.9,""oops"",""right"",""right"",""good_move""]","",""
"3679","","<div style=""width:500px;"">
  <p>What determined the result of this run?</p>
  </div>","30","html-slider-response","75","966008","0.0-5.0-1.13","238","1","2025-07-24 09:42:26","1f75c3e559b7213887762d5229550c2b","217.42.208.88","Mozilla/5.0 (Macintosh; Intel Mac OS X 10_15_7) AppleWebKit/537.36 (KHTML, like Gecko) Chrome/137.0.0.0 Safari/537.36","Macintosh","Chrome","137.0.0.0","OS X","10_15_7","https://app.prolific.com/","en-GB,en-US;q=0.9,en;q=0.8","6760580745ecb73102f83f3d","683dba2a8a9dda3513610c04","6881fffbed16c146ee566cec","3","0","6760580745ecb73102f83f3d","3","0","2025-07-24T09:58:34.222Z","","","","","","","","","","","AttribQ","","50","","","","","","","","","","","","","","","","","","","","","","","","","","","","",""
"2964","","<div style=""width:500px;"">
  <p>How much control did you have over the ball?</p>
  </div>","72","html-slider-response","76","968974","0.0-5.0-2.13","238","1","2025-07-24 09:42:26","1f75c3e559b7213887762d5229550c2b","217.42.208.88","Mozilla/5.0 (Macintosh; Intel Mac OS X 10_15_7) AppleWebKit/537.36 (KHTML, like Gecko) Chrome/137.0.0.0 Safari/537.36","Macintosh","Chrome","137.0.0.0","OS X","10_15_7","https://app.prolific.com/","en-GB,en-US;q=0.9,en;q=0.8","6760580745ecb73102f83f3d","683dba2a8a9dda3513610c04","6881fffbed16c146ee566cec","3","0","6760580745ecb73102f83f3d","3","0","2025-07-24T09:58:37.188Z","","","","","","","","","","","ControlQ","","50","","","","","","","","","","","","","","","","","","","","","","","","","","","","",""
"1850","","<div style=""width:500px;"">
  <p>How would you describe your current emotional state?</p>
  </div>","38","html-slider-response","77","970827","0.0-5.0-3.13","238","1","2025-07-24 09:42:26","1f75c3e559b7213887762d5229550c2b","217.42.208.88","Mozilla/5.0 (Macintosh; Intel Mac OS X 10_15_7) AppleWebKit/537.36 (KHTML, like Gecko) Chrome/137.0.0.0 Safari/537.36","Macintosh","Chrome","137.0.0.0","OS X","10_15_7","https://app.prolific.com/","en-GB,en-US;q=0.9,en;q=0.8","6760580745ecb73102f83f3d","683dba2a8a9dda3513610c04","6881fffbed16c146ee566cec","3","0","6760580745ecb73102f83f3d","3","0","2025-07-24T09:58:39.041Z","","","","","","","","","","","StressQ","","50","","","","","","","","","","","","","","","","","","","","","","","","","","","","",""
"1686","","<div style=""width:500px;"">
  <p>What best describes how you currently feel?</p>
  </div>","68","html-slider-response","78","972515","0.0-5.0-4.13","238","1","2025-07-24 09:42:26","1f75c3e559b7213887762d5229550c2b","217.42.208.88","Mozilla/5.0 (Macintosh; Intel Mac OS X 10_15_7) AppleWebKit/537.36 (KHTML, like Gecko) Chrome/137.0.0.0 Safari/537.36","Macintosh","Chrome","137.0.0.0","OS X","10_15_7","https://app.prolific.com/","en-GB,en-US;q=0.9,en;q=0.8","6760580745ecb73102f83f3d","683dba2a8a9dda3513610c04","6881fffbed16c146ee566cec","3","0","6760580745ecb73102f83f3d","3","0","2025-07-24T09:58:40.729Z","","","","","","","","","","","MotivationQ","","50","","","","","","","","","","","","","","","","","","","","","","","","","","","","",""
"","","","","ctl-task-cpt","79","1008817","0.0-5.0-0.14","238","1","2025-07-24 09:42:26","1f75c3e559b7213887762d5229550c2b","217.42.208.88","Mozilla/5.0 (Macintosh; Intel Mac OS X 10_15_7) AppleWebKit/537.36 (KHTML, like Gecko) Chrome/137.0.0.0 Safari/537.36","Macintosh","Chrome","137.0.0.0","OS X","10_15_7","https://app.prolific.com/","en-GB,en-US;q=0.9,en;q=0.8","6760580745ecb73102f83f3d","683dba2a8a9dda3513610c04","6881fffbed16c146ee566cec","3","0","6760580745ecb73102f83f3d","3","0","2025-07-24T09:59:17.031Z","","","","","","","","","","","","","","win-only","2","g1:SE,g2:NW","0.9","15","0","974197.6","831.4","5879.5","33257.3","1","4","8","6","2","8","8","71","63","0.5378787878787878","1254","3000","2490","[""left"",""up""]","{""num_key_presses"":6,""num_perfect"":5,""num_errors"":0,""num_randdir"":1,""num_randdir_good_moves"":1,""num_whilered"":0,""num_whileblue"":0,""num_blue"":0,""num_good_moves"":6}","[816,821.796875,0.2,816,821.796875,119.2,816,821.796875,234,816,821.796875,334.2,816,821.796875,434.9,816,821.796875,553.5,828,873.796875,697.6,418,671.796875,799.3,188,257.796875,913.2,188,257.796875,1013.3,138,201.796875,1153.2,118,179.796875,1277,118,179.796875,1391.2,30,317.796875,1524.5,-180,655.796875,1642.8,-180,655.796875,1768.3,-180,655.796875,1874,-180,655.796875,2015.1,-180,655.796875,2152.2,-180,655.796875,2254.6,-180,655.796875,2371.7,-180,655.796875,2478.7,-180,655.796875,2587.9,-180,655.796875,2699.2,-180,655.796875,2808.5,-180,655.796875,2922.8,-180,655.796875,3045.8,-180,655.796875,3192.4,-180,655.796875,3331.3,-180,655.796875,3439,-180,655.796875,3551.7,-180,655.796875,3652.6,-180,655.796875,3792.6,-180,655.796875,3936.3,-180,655.796875,4056.3,-180,655.796875,4162.9,-180,655.796875,4278.7,-180,655.796875,4438.2,-180,655.796875,4546.4,-180,655.796875,4678.9,-180,655.796875,4784.7,-180,655.796875,4899.7]","[1394.1,1394.1,1000,0,394.1,""smooth"",""up"",""up"",""good_move"",6633,5238.7,1976.2,1394.3,3262.5,""oops"",""up"",""up"",""good_move"",12073.8,5440.6,1666.4,6633.2,3774.2,""smooth"",""up"",""up"",""good_move"",16985.1,4911.2,2102.7,12073.9,2808.5,""smooth"",""left"",""left"",""good_move"",22174.5,5188.4,2423.4,16986.1,2765,""smooth"",""left"",""left"",""good_move"",26836.6,4662,1945.6,22174.7,2716.4,""smooth"",""left"",""left"",""good_move""]","",""
"2373","","<div style=""width:500px;"">
  <p>What determined the result of this run?</p>
  </div>","35","html-slider-response","80","1011192","0.0-5.0-1.14","238","1","2025-07-24 09:42:26","1f75c3e559b7213887762d5229550c2b","217.42.208.88","Mozilla/5.0 (Macintosh; Intel Mac OS X 10_15_7) AppleWebKit/537.36 (KHTML, like Gecko) Chrome/137.0.0.0 Safari/537.36","Macintosh","Chrome","137.0.0.0","OS X","10_15_7","https://app.prolific.com/","en-GB,en-US;q=0.9,en;q=0.8","6760580745ecb73102f83f3d","683dba2a8a9dda3513610c04","6881fffbed16c146ee566cec","3","0","6760580745ecb73102f83f3d","3","0","2025-07-24T09:59:19.406Z","","","","","","","","","","","AttribQ","","50","","","","","","","","","","","","","","","","","","","","","","","","","","","","",""
"2387","","<div style=""width:500px;"">
  <p>How much control did you have over the ball?</p>
  </div>","63","html-slider-response","81","1013582","0.0-5.0-2.14","238","1","2025-07-24 09:42:26","1f75c3e559b7213887762d5229550c2b","217.42.208.88","Mozilla/5.0 (Macintosh; Intel Mac OS X 10_15_7) AppleWebKit/537.36 (KHTML, like Gecko) Chrome/137.0.0.0 Safari/537.36","Macintosh","Chrome","137.0.0.0","OS X","10_15_7","https://app.prolific.com/","en-GB,en-US;q=0.9,en;q=0.8","6760580745ecb73102f83f3d","683dba2a8a9dda3513610c04","6881fffbed16c146ee566cec","3","0","6760580745ecb73102f83f3d","3","0","2025-07-24T09:59:21.796Z","","","","","","","","","","","ControlQ","","50","","","","","","","","","","","","","","","","","","","","","","","","","","","","",""
"1886","","<div style=""width:500px;"">
  <p>How would you describe your current emotional state?</p>
  </div>","43","html-slider-response","82","1015469","0.0-5.0-3.14","238","1","2025-07-24 09:42:26","1f75c3e559b7213887762d5229550c2b","217.42.208.88","Mozilla/5.0 (Macintosh; Intel Mac OS X 10_15_7) AppleWebKit/537.36 (KHTML, like Gecko) Chrome/137.0.0.0 Safari/537.36","Macintosh","Chrome","137.0.0.0","OS X","10_15_7","https://app.prolific.com/","en-GB,en-US;q=0.9,en;q=0.8","6760580745ecb73102f83f3d","683dba2a8a9dda3513610c04","6881fffbed16c146ee566cec","3","0","6760580745ecb73102f83f3d","3","0","2025-07-24T09:59:23.683Z","","","","","","","","","","","StressQ","","50","","","","","","","","","","","","","","","","","","","","","","","","","","","","",""
"1967","","<div style=""width:500px;"">
  <p>What best describes how you currently feel?</p>
  </div>","72","html-slider-response","83","1017438","0.0-5.0-4.14","238","1","2025-07-24 09:42:26","1f75c3e559b7213887762d5229550c2b","217.42.208.88","Mozilla/5.0 (Macintosh; Intel Mac OS X 10_15_7) AppleWebKit/537.36 (KHTML, like Gecko) Chrome/137.0.0.0 Safari/537.36","Macintosh","Chrome","137.0.0.0","OS X","10_15_7","https://app.prolific.com/","en-GB,en-US;q=0.9,en;q=0.8","6760580745ecb73102f83f3d","683dba2a8a9dda3513610c04","6881fffbed16c146ee566cec","3","0","6760580745ecb73102f83f3d","3","0","2025-07-24T09:59:25.652Z","","","","","","","","","","","MotivationQ","","50","","","","","","","","","","","","","","","","","","","","","","","","","","","","",""
"","","","","ctl-task-cpt","84","1067958","0.0-5.0-0.15","238","1","2025-07-24 09:42:26","1f75c3e559b7213887762d5229550c2b","217.42.208.88","Mozilla/5.0 (Macintosh; Intel Mac OS X 10_15_7) AppleWebKit/537.36 (KHTML, like Gecko) Chrome/137.0.0.0 Safari/537.36","Macintosh","Chrome","137.0.0.0","OS X","10_15_7","https://app.prolific.com/","en-GB,en-US;q=0.9,en;q=0.8","6760580745ecb73102f83f3d","683dba2a8a9dda3513610c04","6881fffbed16c146ee566cec","3","0","6760580745ecb73102f83f3d","3","0","2025-07-24T10:00:16.173Z","","","","","","","","","","","","","","win-only","0","g1:NW,g2:SE","0.8","16","0","1019120.9","973.1","5979.6","47479.3","1","4","4","6","2","4","4","75","71","0.5681818181818182","1531.7","3000","2355","[""down"",""right""]","{""num_key_presses"":8,""num_perfect"":7,""num_errors"":0,""num_randdir"":1,""num_randdir_good_moves"":0,""num_whilered"":0,""num_whileblue"":0,""num_blue"":5,""num_good_moves"":7}","[814,791.796875,0.2,814,791.796875,122.5,814,791.796875,226.3,814,791.796875,357.7,814,791.796875,483.4,826,827.796875,583.6,826,827.796875,688.2,876,915.796875,851.6,1006,1073.796875,957.8,1006,1073.796875,1060.3,1042,1121.796875,1181.1,1498,1425.796875,1306.4,1498,1425.796875,1455.8,1498,1425.796875,1585.4,1498,1425.796875,1722.7,1534,1411.796875,1840.3,1698,1349.796875,1944.7,1702,1341.796875,2097.2,1744,1187.796875,2233.7,1744,1187.796875,2359.7,1744,1187.796875,2464.8,1744,1187.796875,2587.7,1744,1187.796875,2692.6,1744,1187.796875,2805,1744,1187.796875,2938.7,1744,1187.796875,3052.4,1744,1187.796875,3174,1744,1187.796875,3279.6,1744,1187.796875,3404.3,1744,1187.796875,3542.5,1744,1187.796875,3645.9,1744,1187.796875,3754.3,1744,1187.796875,3860.7,1744,1187.796875,4015.7,1744,1187.796875,4149.2,1744,1187.796875,4253.4,1744,1187.796875,4357,1744,1187.796875,4458.7,1744,1187.796875,4591.6,1744,1187.796875,4695.2,1744,1187.796875,4839,1744,1187.796875,4946.3]","[5107.3,5107.4,2611.7,2025.7,470.1,""smooth"",""right"",""right"",""good_move"",11593.8,6485.4,1958.5,9096.8,538.5,""smooth"",""right"",""right"",""good_move"",17851.2,6257.2,2449,14899.6,502.6,""smooth"",""right"",""right"",""good_move"",20753.5,2902.2,2346.3,17851.4,555.8,""oops"",""down"",""up"",""bad_move"",29624.6,8870,2510.8,26616.3,497.5,""smooth"",""down"",""down"",""good_move"",35704,6078.7,2256.5,32989.3,458.3,""smooth"",""down"",""down"",""good_move"",38227.1,2522.1,1926,35705,596.1,""smooth"",""down"",""down"",""good_move"",40874.1,2646.7,2223,38227.4,423.7,""smooth"",""down"",""down"",""good_move""]","",""
"2426","","<div style=""width:500px;"">
  <p>What determined the result of this run?</p>
  </div>","43","html-slider-response","85","1070387","0.0-5.0-1.15","238","1","2025-07-24 09:42:26","1f75c3e559b7213887762d5229550c2b","217.42.208.88","Mozilla/5.0 (Macintosh; Intel Mac OS X 10_15_7) AppleWebKit/537.36 (KHTML, like Gecko) Chrome/137.0.0.0 Safari/537.36","Macintosh","Chrome","137.0.0.0","OS X","10_15_7","https://app.prolific.com/","en-GB,en-US;q=0.9,en;q=0.8","6760580745ecb73102f83f3d","683dba2a8a9dda3513610c04","6881fffbed16c146ee566cec","3","0","6760580745ecb73102f83f3d","3","0","2025-07-24T10:00:18.601Z","","","","","","","","","","","AttribQ","","50","","","","","","","","","","","","","","","","","","","","","","","","","","","","",""
