"rt","response_timestamp","stimulus","response","trial_type","trial_index","time_elapsed","internal_node_id","run_id","condition","recorded_at","source_code_version","ip","user_agent","device","browser","browser_version","platform","platform_version","referer","accept_language","PROLIFIC_PID","STUDY_ID","SESSION_ID","WEEK","BATCH","prolific_id","week","batch","realtime","success","responses","item_order","radio_event_ids","radio_event_times","key_event_times","mouse_event_times","straightlining","zigzagging","honeypot","eventType","view_history","slider_start","which_type","canvas_config","goals_layout","control_level","trial_number","tutorial_trial_number","trial_start_time","phase1_start_time","phase2_start_time","phase3_start_time","goal_1_value","goal_1_distance","goal_2_value","goal_2_distance","goal_selected","outcome","outcome_total","participant_final_score","participant_initial_score","participant_final_score_prop","goal_choice_rt","allocated_time","allocated_time_remaining","goal_direction","counts","mouse_movements","key_presses","question_order","question_id"
"109280","1754071843483","<p style='font-size:40px;line-height:1.25'><strong>Welcome to the experiment!</strong></p><p style='font-size:1.1em;line-height:1.25'>Thank you for participanting in our experiment again! You will be asked to play the Dysfunctional Ball Game again. We will briefly recap the rules before we start.</p><p style='font-size:1.1em;line-height:1.25'>Press <strong>Next</strong> to continue.</p>","0","custom-html-button-response","0","109284","0.0-0.0","311","1","2025-08-01 18:07:03","1f75c3e559b7213887762d5229550c2b","171.79.56.60","Mozilla/5.0 (Windows NT 10.0; Win64; x64) AppleWebKit/537.36 (KHTML, like Gecko) Chrome/138.0.0.0 Safari/537.36","WebKit","Chrome","138.0.0.0","Windows","10.0","https://app.prolific.com/","en-GB,en-US;q=0.9,en;q=0.8,ta;q=0.7","66c5f76d9a214b469f6476c8","6877631c9844ddd5501205fc","688d01f343defaed966192fa","3","1","66c5f76d9a214b469f6476c8","3","1","2025-08-01T18:10:43.484Z","","","","","","","","","","","","","","","","","","","","","","","","","","","","","","","","","","","","","","","","","",""
"12308","","","","fullscreen","1","122597","0.0-1.0","311","1","2025-08-01 18:07:03","1f75c3e559b7213887762d5229550c2b","171.79.56.60","Mozilla/5.0 (Windows NT 10.0; Win64; x64) AppleWebKit/537.36 (KHTML, like Gecko) Chrome/138.0.0.0 Safari/537.36","WebKit","Chrome","138.0.0.0","Windows","10.0","https://app.prolific.com/","en-GB,en-US;q=0.9,en;q=0.8,ta;q=0.7","66c5f76d9a214b469f6476c8","6877631c9844ddd5501205fc","688d01f343defaed966192fa","3","1","66c5f76d9a214b469f6476c8","3","1","","true","","","","","","","","","","","","","","","","","","","","","","","","","","","","","","","","","","","","","","","","",""
"399192","1754072255993","<p style='font-size:1.1em;line-height:1.25'>In the following, we will ask you a few questions relating to your feelings in the last 24 hours.<br></p><p style='font-size:1.1em;line-height:1.25'>Press the <strong>Next</strong> button to continue.</p>","0","custom-html-button-response","2","521794","0.0-2.0-0.0","311","1","2025-08-01 18:07:03","1f75c3e559b7213887762d5229550c2b","171.79.56.60","Mozilla/5.0 (Windows NT 10.0; Win64; x64) AppleWebKit/537.36 (KHTML, like Gecko) Chrome/138.0.0.0 Safari/537.36","WebKit","Chrome","138.0.0.0","Windows","10.0","https://app.prolific.com/","en-GB,en-US;q=0.9,en;q=0.8,ta;q=0.7","66c5f76d9a214b469f6476c8","6877631c9844ddd5501205fc","688d01f343defaed966192fa","3","1","66c5f76d9a214b469f6476c8","3","1","2025-08-01T18:17:35.994Z","","","","","","","","","","","","","","","","","","","","","","","","","","","","","","","","","","","","","","","","","",""
"61313.39999999944","","","","survey-template","3","583113","0.0-2.0-1.0","311","1","2025-08-01 18:07:03","1f75c3e559b7213887762d5229550c2b","171.79.56.60","Mozilla/5.0 (Windows NT 10.0; Win64; x64) AppleWebKit/537.36 (KHTML, like Gecko) Chrome/138.0.0.0 Safari/537.36","WebKit","Chrome","138.0.0.0","Windows","10.0","https://app.prolific.com/","en-GB,en-US;q=0.9,en;q=0.8,ta;q=0.7","66c5f76d9a214b469f6476c8","6877631c9844ddd5501205fc","688d01f343defaed966192fa","3","1","66c5f76d9a214b469f6476c8","3","1","2025-08-01T18:18:37.313Z","","{""Q01"":""3"",""Q02"":""2"",""Q03"":""2"",""Q04"":""3"",""Q05"":""2"",""Q06"":""3"",""Q07"":""4"",""Q08"":""3"",""Q09"":""2"",""Q10"":""3"",""Q11"":""3"",""Q12"":""2"",""Q13"":""5"",""Q14"":""3"",""Q15"":""2"",""Q16"":""3"",""Q17"":""3"",""Q18"":""3"",""Q19"":""2"",""Q20"":""2"",""Q21"":""2"",""Q22"":""2""}","[0,1,2,3,4,5,6,7,8,9,10,11,12,13,14,15,16,17,18,19,20,21]","[""Q01"",""Q02"",""Q04"",""Q05"",""Q06"",""Q03"",""Q07"",""Q08"",""Q09"",""Q10"",""Q11"",""Q12"",""Q13"",""Q14"",""Q15"",""Q15"",""Q16"",""Q17"",""Q18"",""Q18"",""Q19"",""Q20"",""Q21"",""Q22""]","[4644.899999999441,5980.5999999996275,8435.700000000186,9539.899999999441,14084.399999999441,15900.399999999441,19340.39999999944,20172.39999999944,23876.299999999814,27428.299999999814,29739.5,30827.799999999814,32724.200000000186,39148.5,40636.200000000186,41572.39999999944,43428.09999999963,44356.200000000186,46060.09999999963,48219.5,49428.200000000186,50716.200000000186,53580.09999999963,54644.200000000186]","[]","[0.39999999944120646,4644.899999999441,5980.5999999996275,7148.299999999814,8435.700000000186,9539.899999999441,11540.599999999627,12484.200000000186,14084.399999999441,14636.599999999627,15900.399999999441,19340.39999999944,20172.39999999944,20603.89999999944,22524.299999999814,23876.299999999814,27428.299999999814,29739.5,30827.799999999814,32724.200000000186,39148.5,39644.200000000186,40636.200000000186,41572.39999999944,43428.09999999963,44356.200000000186,46060.09999999963,48219.5,49428.200000000186,50716.200000000186,53580.09999999963,54644.200000000186,61308.5]","0.45454545454545453","0.5714285714285714","0","drsp","","","","","","","","","","","","","","","","","","","","","","","","","","","","","","",""
"6519.200000000186","","","","survey-template","4","589636","0.0-2.0-2.0","311","1","2025-08-01 18:07:03","1f75c3e559b7213887762d5229550c2b","171.79.56.60","Mozilla/5.0 (Windows NT 10.0; Win64; x64) AppleWebKit/537.36 (KHTML, like Gecko) Chrome/138.0.0.0 Safari/537.36","WebKit","Chrome","138.0.0.0","Windows","10.0","https://app.prolific.com/","en-GB,en-US;q=0.9,en;q=0.8,ta;q=0.7","66c5f76d9a214b469f6476c8","6877631c9844ddd5501205fc","688d01f343defaed966192fa","3","1","66c5f76d9a214b469f6476c8","3","1","2025-08-01T18:18:43.836Z","","{""Q01"":""3"",""Q02"":""2"",""Q03"":""3""}","[0,1,2]","[""Q01"",""Q02"",""Q03""]","[2982.9000000003725,4606.300000000745,5798.5]","[]","[2982.9000000003725,3446.300000000745,4055.600000000559,4606.300000000745,5798.5,6518.300000000745]","1","0","0","stress","","","","","","","","","","","","","","","","","","","","","","","","","","","","","","",""
"6260","","","","instructions","5","595898","0.0-3.0-0.0","311","1","2025-08-01 18:07:03","1f75c3e559b7213887762d5229550c2b","171.79.56.60","Mozilla/5.0 (Windows NT 10.0; Win64; x64) AppleWebKit/537.36 (KHTML, like Gecko) Chrome/138.0.0.0 Safari/537.36","WebKit","Chrome","138.0.0.0","Windows","10.0","https://app.prolific.com/","en-GB,en-US;q=0.9,en;q=0.8,ta;q=0.7","66c5f76d9a214b469f6476c8","6877631c9844ddd5501205fc","688d01f343defaed966192fa","3","1","66c5f76d9a214b469f6476c8","3","1","","","","","","","","","","","","","[{""page_index"":0,""viewing_time"":6259}]","","","","","","","","","","","","","","","","","","","","","","","","","","","","","",""
"2758","","<p>Before you start with this game please answer the following three questions yourself. </p>
  <p>Through this game, we measure several aspects of your cognitive performance, such as reaction times, multi-tasking capabilities </p>
  <p>and the ability to assess the situation you are in.</p>
  <p></p>
  <p><b>How good do you usually are in such tasks?</b></p>","86","html-slider-response","6","598657","0.0-4.0-0.0","311","1","2025-08-01 18:07:03","1f75c3e559b7213887762d5229550c2b","171.79.56.60","Mozilla/5.0 (Windows NT 10.0; Win64; x64) AppleWebKit/537.36 (KHTML, like Gecko) Chrome/138.0.0.0 Safari/537.36","WebKit","Chrome","138.0.0.0","Windows","10.0","https://app.prolific.com/","en-GB,en-US;q=0.9,en;q=0.8,ta;q=0.7","66c5f76d9a214b469f6476c8","6877631c9844ddd5501205fc","688d01f343defaed966192fa","3","1","66c5f76d9a214b469f6476c8","3","1","2025-08-01T18:18:52.858Z","","","","","","","","","","","PreSkillQ","","50","","","","","","","","","","","","","","","","","","","","","","","","","","","","",""
"2119","","<div style=""width:500px;"">
  <p>How well do you think you will perform in this task compared to other participants?</p>
  </div>","84","html-slider-response","7","600778","0.0-4.0-1.0","311","1","2025-08-01 18:07:03","1f75c3e559b7213887762d5229550c2b","171.79.56.60","Mozilla/5.0 (Windows NT 10.0; Win64; x64) AppleWebKit/537.36 (KHTML, like Gecko) Chrome/138.0.0.0 Safari/537.36","WebKit","Chrome","138.0.0.0","Windows","10.0","https://app.prolific.com/","en-GB,en-US;q=0.9,en;q=0.8,ta;q=0.7","66c5f76d9a214b469f6476c8","6877631c9844ddd5501205fc","688d01f343defaed966192fa","3","1","66c5f76d9a214b469f6476c8","3","1","2025-08-01T18:18:54.978Z","","","","","","","","","","","PrePerfQ","","50","","","","","","","","","","","","","","","","","","","","","","","","","","","","",""
"1958","","<div style=""width:500px;"">
  <p>What best describes how you currently feel?</p>
  </div>","84","html-slider-response","8","602738","0.0-4.0-2.0","311","1","2025-08-01 18:07:03","1f75c3e559b7213887762d5229550c2b","171.79.56.60","Mozilla/5.0 (Windows NT 10.0; Win64; x64) AppleWebKit/537.36 (KHTML, like Gecko) Chrome/138.0.0.0 Safari/537.36","WebKit","Chrome","138.0.0.0","Windows","10.0","https://app.prolific.com/","en-GB,en-US;q=0.9,en;q=0.8,ta;q=0.7","66c5f76d9a214b469f6476c8","6877631c9844ddd5501205fc","688d01f343defaed966192fa","3","1","66c5f76d9a214b469f6476c8","3","1","2025-08-01T18:18:56.938Z","","","","","","","","","","","PreMotivationQ","","50","","","","","","","","","","","","","","","","","","","","","","","","","","","","",""
"","","","","ctl-task-cpt","9","631900","0.0-5.0-0.0","311","1","2025-08-01 18:07:03","1f75c3e559b7213887762d5229550c2b","171.79.56.60","Mozilla/5.0 (Windows NT 10.0; Win64; x64) AppleWebKit/537.36 (KHTML, like Gecko) Chrome/138.0.0.0 Safari/537.36","WebKit","Chrome","138.0.0.0","Windows","10.0","https://app.prolific.com/","en-GB,en-US;q=0.9,en;q=0.8,ta;q=0.7","66c5f76d9a214b469f6476c8","6877631c9844ddd5501205fc","688d01f343defaed966192fa","3","1","66c5f76d9a214b469f6476c8","3","1","2025-08-01T18:19:26.100Z","","","","","","","","","","","","","","win-only","1","g1:NE,g2:SW","1","1","0","611134.4","2737.7","7757.9","26149.7","1","4","8","6","2","-8","-8","0","0","0","924.1","3000","-2595","[""down"",""left""]","{""num_key_presses"":4,""num_perfect"":4,""num_errors"":0,""num_randdir"":0,""num_randdir_good_moves"":0,""num_whilered"":0,""num_whileblue"":0,""num_blue"":1,""num_good_moves"":4}","[294.22232142857143,295.12857142857143,0.7,294.22232142857143,295.12857142857143,103.6,294.22232142857143,295.12857142857143,203.7,294.22232142857143,295.12857142857143,308,294.22232142857143,295.12857142857143,408.2,253.22232142857143,308.12857142857143,513.6,65.22232142857143,487.12857142857143,613.6,48.222321428571426,531.1285714285714,714.5,48.222321428571426,526.1285714285714,820.4,48.222321428571426,526.1285714285714,920.4,48.222321428571426,526.1285714285714,1020.7,48.222321428571426,526.1285714285714,1123.3,48.222321428571426,526.1285714285714,1223.4,48.222321428571426,526.1285714285714,1328.5,48.222321428571426,526.1285714285714,1428.5,48.222321428571426,525.1285714285714,1536.6,69.22232142857143,525.1285714285714,1637.4,133.22232142857143,521.1285714285714,1738.8,182.22232142857143,517.1285714285714,1843.8,232.22232142857143,512.1285714285714,1953.9,286.22232142857143,500.12857142857143,2053.9,372.22232142857143,469.12857142857143,2153.9,461.22232142857143,422.12857142857143,2258.6,521.2223214285714,390.12857142857143,2363.3,523.2223214285714,389.12857142857143,2463.7,523.2223214285714,389.12857142857143,2563.9,523.2223214285714,389.12857142857143,2670.4,523.2223214285714,389.12857142857143,2773.1,518.2223214285714,389.12857142857143,2873.4,443.22232142857143,418.12857142857143,2978.9,266.22232142857143,498.12857142857143,3086.9,87.22232142857143,530.1285714285714,3187.6,54.222321428571426,530.1285714285714,3288.5,24.222321428571426,527.1285714285714,3388.5,22.222321428571426,526.1285714285714,3493.6,27.222321428571426,531.1285714285714,3603.4,27.222321428571426,531.1285714285714,3704.8,27.222321428571426,531.1285714285714,3807.7,27.222321428571426,531.1285714285714,3907.8,27.222321428571426,531.1285714285714,4008.7,28.222321428571426,531.1285714285714,4121.7,51.222321428571426,533.1285714285714,4222.6,51.222321428571426,533.1285714285714,4322.8,51.222321428571426,533.1285714285714,4424,51.222321428571426,533.1285714285714,4536,51.222321428571426,533.1285714285714,4636.6,51.222321428571426,533.1285714285714,4736.9,51.222321428571426,533.1285714285714,4837.5,51.222321428571426,533.1285714285714,4937.8]","[2086,2085.9,1000,0.1,1085.9,""smooth"",""down"",""down"",""good_move"",5450.4,3363.8,2831.4,2086.7,532.3,""smooth"",""down"",""down"",""good_move"",8871.1,3420.5,2817.4,5450.6,603.1,""smooth"",""down"",""down"",""good_move"",15391.8,6520.5,2471.7,12468.2,451.9,""smooth"",""left"",""left"",""good_move""]","",""
"13708","","<div style=""width:500px;"">
  <p>What determined the result of this run?</p>
  </div>","14","html-slider-response","10","645610","0.0-5.0-1.0","311","1","2025-08-01 18:07:03","1f75c3e559b7213887762d5229550c2b","171.79.56.60","Mozilla/5.0 (Windows NT 10.0; Win64; x64) AppleWebKit/537.36 (KHTML, like Gecko) Chrome/138.0.0.0 Safari/537.36","WebKit","Chrome","138.0.0.0","Windows","10.0","https://app.prolific.com/","en-GB,en-US;q=0.9,en;q=0.8,ta;q=0.7","66c5f76d9a214b469f6476c8","6877631c9844ddd5501205fc","688d01f343defaed966192fa","3","1","66c5f76d9a214b469f6476c8","3","1","2025-08-01T18:19:39.810Z","","","","","","","","","","","AttribQ","","50","","","","","","","","","","","","","","","","","","","","","","","","","","","","",""
"3078","","<div style=""width:500px;"">
  <p>How much control did you have over the ball?</p>
  </div>","63","html-slider-response","11","648690","0.0-5.0-2.0","311","1","2025-08-01 18:07:03","1f75c3e559b7213887762d5229550c2b","171.79.56.60","Mozilla/5.0 (Windows NT 10.0; Win64; x64) AppleWebKit/537.36 (KHTML, like Gecko) Chrome/138.0.0.0 Safari/537.36","WebKit","Chrome","138.0.0.0","Windows","10.0","https://app.prolific.com/","en-GB,en-US;q=0.9,en;q=0.8,ta;q=0.7","66c5f76d9a214b469f6476c8","6877631c9844ddd5501205fc","688d01f343defaed966192fa","3","1","66c5f76d9a214b469f6476c8","3","1","2025-08-01T18:19:42.890Z","","","","","","","","","","","ControlQ","","50","","","","","","","","","","","","","","","","","","","","","","","","","","","","",""
"3277","","<div style=""width:500px;"">
  <p>How would you describe your current emotional state?</p>
  </div>","73","html-slider-response","12","651970","0.0-5.0-3.0","311","1","2025-08-01 18:07:03","1f75c3e559b7213887762d5229550c2b","171.79.56.60","Mozilla/5.0 (Windows NT 10.0; Win64; x64) AppleWebKit/537.36 (KHTML, like Gecko) Chrome/138.0.0.0 Safari/537.36","WebKit","Chrome","138.0.0.0","Windows","10.0","https://app.prolific.com/","en-GB,en-US;q=0.9,en;q=0.8,ta;q=0.7","66c5f76d9a214b469f6476c8","6877631c9844ddd5501205fc","688d01f343defaed966192fa","3","1","66c5f76d9a214b469f6476c8","3","1","2025-08-01T18:19:46.170Z","","","","","","","","","","","StressQ","","50","","","","","","","","","","","","","","","","","","","","","","","","","","","","",""
"2462","","<div style=""width:500px;"">
  <p>What best describes how you currently feel?</p>
  </div>","40","html-slider-response","13","654434","0.0-5.0-4.0","311","1","2025-08-01 18:07:03","1f75c3e559b7213887762d5229550c2b","171.79.56.60","Mozilla/5.0 (Windows NT 10.0; Win64; x64) AppleWebKit/537.36 (KHTML, like Gecko) Chrome/138.0.0.0 Safari/537.36","WebKit","Chrome","138.0.0.0","Windows","10.0","https://app.prolific.com/","en-GB,en-US;q=0.9,en;q=0.8,ta;q=0.7","66c5f76d9a214b469f6476c8","6877631c9844ddd5501205fc","688d01f343defaed966192fa","3","1","66c5f76d9a214b469f6476c8","3","1","2025-08-01T18:19:48.634Z","","","","","","","","","","","MotivationQ","","50","","","","","","","","","","","","","","","","","","","","","","","","","","","","",""
"","","","","ctl-task-cpt","14","698901","0.0-5.0-0.1","311","1","2025-08-01 18:07:03","1f75c3e559b7213887762d5229550c2b","171.79.56.60","Mozilla/5.0 (Windows NT 10.0; Win64; x64) AppleWebKit/537.36 (KHTML, like Gecko) Chrome/138.0.0.0 Safari/537.36","WebKit","Chrome","138.0.0.0","Windows","10.0","https://app.prolific.com/","en-GB,en-US;q=0.9,en;q=0.8,ta;q=0.7","66c5f76d9a214b469f6476c8","6877631c9844ddd5501205fc","688d01f343defaed966192fa","3","1","66c5f76d9a214b469f6476c8","3","1","2025-08-01T18:20:33.101Z","","","","","","","","","","","","","","win-only","2","g1:SE,g2:NW","0.9","2","0","662828","1336.1","6341.3","41447.3","1","4","4","6","2","-4","-5","0","0","0","983","3000","-3005","[""left"",""up""]","{""num_key_presses"":7,""num_perfect"":5,""num_errors"":1,""num_randdir"":1,""num_randdir_good_moves"":0,""num_whilered"":0,""num_whileblue"":0,""num_blue"":4,""num_good_moves"":5}","[293.22232142857143,300.12857142857143,0.1,293.22232142857143,300.12857142857143,105.1,293.22232142857143,300.12857142857143,210.3,293.22232142857143,300.12857142857143,314.8,293.22232142857143,300.12857142857143,414.9,284.22232142857143,288.12857142857143,515.5,153.22232142857143,122.12857142857143,620.3,138.22232142857143,100.12857142857143,724.9,126.22232142857143,91.12857142857143,825.1,87.22232142857143,80.12857142857143,925.5,87.22232142857143,80.12857142857143,1029.5,87.22232142857143,80.12857142857143,1131.2,87.22232142857143,80.12857142857143,1235.4,108.22232142857143,80.12857142857143,1340.5,510.22232142857143,78.12857142857143,1445.4,671.2223214285714,75.12857142857143,1550,671.2223214285714,75.12857142857143,1650.1,671.2223214285714,75.12857142857143,1750.3,671.2223214285714,75.12857142857143,1855.3,671.2223214285714,75.12857142857143,1955.3,671.2223214285714,75.12857142857143,2059.5,671.2223214285714,75.12857142857143,2160.7,671.2223214285714,75.12857142857143,2265,671.2223214285714,75.12857142857143,2365,671.2223214285714,75.12857142857143,2470.2,671.2223214285714,75.12857142857143,2570.3,671.2223214285714,75.12857142857143,2674.9,671.2223214285714,75.12857142857143,2774.9,671.2223214285714,75.12857142857143,2879.5,671.2223214285714,75.12857142857143,2980.1,671.2223214285714,75.12857142857143,3080.2,671.2223214285714,75.12857142857143,3184.9,671.2223214285714,75.12857142857143,3289.9,671.2223214285714,75.12857142857143,3389.9,671.2223214285714,75.12857142857143,3490,671.2223214285714,75.12857142857143,3590.3,671.2223214285714,75.12857142857143,3694.6,671.2223214285714,75.12857142857143,3794.6,671.2223214285714,75.12857142857143,3900.4,671.2223214285714,75.12857142857143,4005.3,671.2223214285714,75.12857142857143,4109.4,671.2223214285714,75.12857142857143,4210.1,671.2223214285714,75.12857142857143,4314.6,671.2223214285714,75.12857142857143,4419.5,671.2223214285714,75.12857142857143,4519.7,671.2223214285714,75.12857142857143,4620.4,671.2223214285714,75.12857142857143,4720.4,671.2223214285714,75.12857142857143,4825.3,671.2223214285714,75.12857142857143,4930]","[11367.6,11367.6,2508.6,8270,589,""smooth"",""left"",""left"",""good_move"",14458.2,3090,2520.8,11368.2,569.2,""oops"",""left"",""right"",""bad_move"",17527.6,3068.7,2627.4,14458.9,441.3,""smooth"",""left"",""left"",""good_move"",23639.8,6112,2098.6,21104.2,437,""smooth"",""left"",""left"",""good_move"",27188.2,3548.1,3082.2,23640.1,465.9,""smooth"",""left"",""left"",""good_move"",30834.4,3646.1,3200.8,27188.3,445.3,""smooth"",""up"",""up"",""good_move"",31002,167.3,1430,30834.7,-1262.7,""error"",""-"",""-"",""no_move""]","",""
"3282","","<div style=""width:500px;"">
  <p>What determined the result of this run?</p>
  </div>","17","html-slider-response","15","702185","0.0-5.0-1.1","311","1","2025-08-01 18:07:03","1f75c3e559b7213887762d5229550c2b","171.79.56.60","Mozilla/5.0 (Windows NT 10.0; Win64; x64) AppleWebKit/537.36 (KHTML, like Gecko) Chrome/138.0.0.0 Safari/537.36","WebKit","Chrome","138.0.0.0","Windows","10.0","https://app.prolific.com/","en-GB,en-US;q=0.9,en;q=0.8,ta;q=0.7","66c5f76d9a214b469f6476c8","6877631c9844ddd5501205fc","688d01f343defaed966192fa","3","1","66c5f76d9a214b469f6476c8","3","1","2025-08-01T18:20:36.385Z","","","","","","","","","","","AttribQ","","50","","","","","","","","","","","","","","","","","","","","","","","","","","","","",""
"2671","","<div style=""width:500px;"">
  <p>How much control did you have over the ball?</p>
  </div>","19","html-slider-response","16","704858","0.0-5.0-2.1","311","1","2025-08-01 18:07:03","1f75c3e559b7213887762d5229550c2b","171.79.56.60","Mozilla/5.0 (Windows NT 10.0; Win64; x64) AppleWebKit/537.36 (KHTML, like Gecko) Chrome/138.0.0.0 Safari/537.36","WebKit","Chrome","138.0.0.0","Windows","10.0","https://app.prolific.com/","en-GB,en-US;q=0.9,en;q=0.8,ta;q=0.7","66c5f76d9a214b469f6476c8","6877631c9844ddd5501205fc","688d01f343defaed966192fa","3","1","66c5f76d9a214b469f6476c8","3","1","2025-08-01T18:20:39.058Z","","","","","","","","","","","ControlQ","","50","","","","","","","","","","","","","","","","","","","","","","","","","","","","",""
"2286","","<div style=""width:500px;"">
  <p>How would you describe your current emotional state?</p>
  </div>","79","html-slider-response","17","707146","0.0-5.0-3.1","311","1","2025-08-01 18:07:03","1f75c3e559b7213887762d5229550c2b","171.79.56.60","Mozilla/5.0 (Windows NT 10.0; Win64; x64) AppleWebKit/537.36 (KHTML, like Gecko) Chrome/138.0.0.0 Safari/537.36","WebKit","Chrome","138.0.0.0","Windows","10.0","https://app.prolific.com/","en-GB,en-US;q=0.9,en;q=0.8,ta;q=0.7","66c5f76d9a214b469f6476c8","6877631c9844ddd5501205fc","688d01f343defaed966192fa","3","1","66c5f76d9a214b469f6476c8","3","1","2025-08-01T18:20:41.346Z","","","","","","","","","","","StressQ","","50","","","","","","","","","","","","","","","","","","","","","","","","","","","","",""
"3094","","<div style=""width:500px;"">
  <p>What best describes how you currently feel?</p>
  </div>","19","html-slider-response","18","710242","0.0-5.0-4.1","311","1","2025-08-01 18:07:03","1f75c3e559b7213887762d5229550c2b","171.79.56.60","Mozilla/5.0 (Windows NT 10.0; Win64; x64) AppleWebKit/537.36 (KHTML, like Gecko) Chrome/138.0.0.0 Safari/537.36","WebKit","Chrome","138.0.0.0","Windows","10.0","https://app.prolific.com/","en-GB,en-US;q=0.9,en;q=0.8,ta;q=0.7","66c5f76d9a214b469f6476c8","6877631c9844ddd5501205fc","688d01f343defaed966192fa","3","1","66c5f76d9a214b469f6476c8","3","1","2025-08-01T18:20:44.442Z","","","","","","","","","","","MotivationQ","","50","","","","","","","","","","","","","","","","","","","","","","","","","","","","",""
"","","","","ctl-task-cpt","19","737494","0.0-5.0-0.2","311","1","2025-08-01 18:07:03","1f75c3e559b7213887762d5229550c2b","171.79.56.60","Mozilla/5.0 (Windows NT 10.0; Win64; x64) AppleWebKit/537.36 (KHTML, like Gecko) Chrome/138.0.0.0 Safari/537.36","WebKit","Chrome","138.0.0.0","Windows","10.0","https://app.prolific.com/","en-GB,en-US;q=0.9,en;q=0.8,ta;q=0.7","66c5f76d9a214b469f6476c8","6877631c9844ddd5501205fc","688d01f343defaed966192fa","3","1","66c5f76d9a214b469f6476c8","3","1","2025-08-01T18:21:11.694Z","","","","","","","","","","","","","","win-only","1","g1:NE,g2:SW","0.8","3","0","718638.3","1805.8","6811.2","24241.9","1","4","4","6","2","4","4","4","0","0.030303030303030304","911.2","3000","25","[""down"",""left""]","{""num_key_presses"":6,""num_perfect"":5,""num_errors"":0,""num_randdir"":1,""num_randdir_good_moves"":1,""num_whilered"":0,""num_whileblue"":0,""num_blue"":0,""num_good_moves"":6}","[292.22232142857143,297.12857142857143,0.1,292.22232142857143,297.12857142857143,100.1,292.22232142857143,297.12857142857143,205.1,292.22232142857143,297.12857142857143,305.5,229.22232142857143,348.12857142857143,411.1,135.22232142857143,450.12857142857143,514.4,97.22232142857143,494.12857142857143,614.9,93.22232142857143,501.12857142857143,715,74.22232142857143,514.1285714285714,816.3,66.22232142857143,517.1285714285714,916.8,66.22232142857143,517.1285714285714,1020.1,241.22232142857143,435.12857142857143,1120.9,682.2223214285714,259.12857142857143,1220.9,745.2223214285714,233.12857142857143,1321.1,745.2223214285714,233.12857142857143,1425.5,745.2223214285714,233.12857142857143,1525.7,745.2223214285714,233.12857142857143,1626.1,745.2223214285714,233.12857142857143,1730,745.2223214285714,233.12857142857143,1835.1,745.2223214285714,233.12857142857143,1936.4,745.2223214285714,233.12857142857143,2040.2,745.2223214285714,233.12857142857143,2141.2,745.2223214285714,233.12857142857143,2245.7,745.2223214285714,233.12857142857143,2349.9,745.2223214285714,233.12857142857143,2455.3,745.2223214285714,233.12857142857143,2555.6,745.2223214285714,233.12857142857143,2661.3,745.2223214285714,233.12857142857143,2765.2,745.2223214285714,233.12857142857143,2871.2,745.2223214285714,233.12857142857143,2975.4,745.2223214285714,233.12857142857143,3075.5,745.2223214285714,233.12857142857143,3175.7,745.2223214285714,233.12857142857143,3275.7,745.2223214285714,233.12857142857143,3381.1,745.2223214285714,233.12857142857143,3486.6,745.2223214285714,233.12857142857143,3590,745.2223214285714,233.12857142857143,3694.9,745.2223214285714,233.12857142857143,3795.2,745.2223214285714,233.12857142857143,3895.2,745.2223214285714,233.12857142857143,3999.5,745.2223214285714,233.12857142857143,4099.9,745.2223214285714,233.12857142857143,4205.1,745.2223214285714,233.12857142857143,4305.2,745.2223214285714,233.12857142857143,4405.4,745.2223214285714,233.12857142857143,4511.3,745.2223214285714,233.12857142857143,4615.3,745.2223214285714,233.12857142857143,4719.8,745.2223214285714,233.12857142857143,4820.5,745.2223214285714,233.12857142857143,4925.4]","[1914.4,1914.4,1000,0,914.4,""smooth"",""down"",""down"",""good_move"",5109.5,3194.8,2737.4,1914.8,457.3,""smooth"",""down"",""down"",""good_move"",7988.8,2878.8,2344.7,5110,534.1,""smooth"",""down"",""down"",""good_move"",11390.4,3401.4,2977.9,7989,423.5,""smooth"",""left"",""left"",""good_move"",15284.9,3894.2,3514.1,11390.7,380.1,""oops"",""left"",""left"",""good_move"",17339.6,2054.5,1740.2,15285.1,314.3,""smooth"",""left"",""left"",""good_move""]","",""
"3459","","<div style=""width:500px;"">
  <p>What determined the result of this run?</p>
  </div>","75","html-slider-response","20","740953","0.0-5.0-1.2","311","1","2025-08-01 18:07:03","1f75c3e559b7213887762d5229550c2b","171.79.56.60","Mozilla/5.0 (Windows NT 10.0; Win64; x64) AppleWebKit/537.36 (KHTML, like Gecko) Chrome/138.0.0.0 Safari/537.36","WebKit","Chrome","138.0.0.0","Windows","10.0","https://app.prolific.com/","en-GB,en-US;q=0.9,en;q=0.8,ta;q=0.7","66c5f76d9a214b469f6476c8","6877631c9844ddd5501205fc","688d01f343defaed966192fa","3","1","66c5f76d9a214b469f6476c8","3","1","2025-08-01T18:21:15.153Z","","","","","","","","","","","AttribQ","","50","","","","","","","","","","","","","","","","","","","","","","","","","","","","",""
"2519","","<div style=""width:500px;"">
  <p>How much control did you have over the ball?</p>
  </div>","73","html-slider-response","21","743473","0.0-5.0-2.2","311","1","2025-08-01 18:07:03","1f75c3e559b7213887762d5229550c2b","171.79.56.60","Mozilla/5.0 (Windows NT 10.0; Win64; x64) AppleWebKit/537.36 (KHTML, like Gecko) Chrome/138.0.0.0 Safari/537.36","WebKit","Chrome","138.0.0.0","Windows","10.0","https://app.prolific.com/","en-GB,en-US;q=0.9,en;q=0.8,ta;q=0.7","66c5f76d9a214b469f6476c8","6877631c9844ddd5501205fc","688d01f343defaed966192fa","3","1","66c5f76d9a214b469f6476c8","3","1","2025-08-01T18:21:17.674Z","","","","","","","","","","","ControlQ","","50","","","","","","","","","","","","","","","","","","","","","","","","","","","","",""
"2479","","<div style=""width:500px;"">
  <p>How would you describe your current emotional state?</p>
  </div>","33","html-slider-response","22","745954","0.0-5.0-3.2","311","1","2025-08-01 18:07:03","1f75c3e559b7213887762d5229550c2b","171.79.56.60","Mozilla/5.0 (Windows NT 10.0; Win64; x64) AppleWebKit/537.36 (KHTML, like Gecko) Chrome/138.0.0.0 Safari/537.36","WebKit","Chrome","138.0.0.0","Windows","10.0","https://app.prolific.com/","en-GB,en-US;q=0.9,en;q=0.8,ta;q=0.7","66c5f76d9a214b469f6476c8","6877631c9844ddd5501205fc","688d01f343defaed966192fa","3","1","66c5f76d9a214b469f6476c8","3","1","2025-08-01T18:21:20.154Z","","","","","","","","","","","StressQ","","50","","","","","","","","","","","","","","","","","","","","","","","","","","","","",""
"1718","","<div style=""width:500px;"">
  <p>What best describes how you currently feel?</p>
  </div>","74","html-slider-response","23","747674","0.0-5.0-4.2","311","1","2025-08-01 18:07:03","1f75c3e559b7213887762d5229550c2b","171.79.56.60","Mozilla/5.0 (Windows NT 10.0; Win64; x64) AppleWebKit/537.36 (KHTML, like Gecko) Chrome/138.0.0.0 Safari/537.36","WebKit","Chrome","138.0.0.0","Windows","10.0","https://app.prolific.com/","en-GB,en-US;q=0.9,en;q=0.8,ta;q=0.7","66c5f76d9a214b469f6476c8","6877631c9844ddd5501205fc","688d01f343defaed966192fa","3","1","66c5f76d9a214b469f6476c8","3","1","2025-08-01T18:21:21.874Z","","","","","","","","","","","MotivationQ","","50","","","","","","","","","","","","","","","","","","","","","","","","","","","","",""
"","","","","ctl-task-cpt","24","792114","0.0-5.0-0.3","311","1","2025-08-01 18:07:03","1f75c3e559b7213887762d5229550c2b","171.79.56.60","Mozilla/5.0 (Windows NT 10.0; Win64; x64) AppleWebKit/537.36 (KHTML, like Gecko) Chrome/138.0.0.0 Safari/537.36","WebKit","Chrome","138.0.0.0","Windows","10.0","https://app.prolific.com/","en-GB,en-US;q=0.9,en;q=0.8,ta;q=0.7","66c5f76d9a214b469f6476c8","6877631c9844ddd5501205fc","688d01f343defaed966192fa","3","1","66c5f76d9a214b469f6476c8","3","1","2025-08-01T18:22:06.314Z","","","","","","","","","","","","","","win-only","2","g1:SE,g2:NW","0.7","4","0","756068.8","3166.2","8171.9","41430.6","1","4","8","6","2","-8","-8","0","4","0","1023.9","3000","-2695","[""left"",""up""]","{""num_key_presses"":7,""num_perfect"":5,""num_errors"":0,""num_randdir"":2,""num_randdir_good_moves"":1,""num_whilered"":0,""num_whileblue"":0,""num_blue"":3,""num_good_moves"":6}","[291.22232142857143,298.12857142857143,0.1,291.22232142857143,298.12857142857143,104.9,291.22232142857143,298.12857142857143,205,291.22232142857143,298.12857142857143,313.5,291.22232142857143,298.12857142857143,414,286.22232142857143,308.12857142857143,520.1,258.22232142857143,289.12857142857143,625.4,77.22232142857143,98.12857142857143,730.4,71.22232142857143,83.12857142857143,835.4,72.22232142857143,81.12857142857143,939.7,72.22232142857143,77.12857142857143,1050.3,72.22232142857143,77.12857142857143,1154.3,228.22232142857143,76.12857142857143,1263.9,732.2223214285714,76.12857142857143,1364.1,955.2223214285714,57.128571428571426,1464.4,955.2223214285714,57.128571428571426,1564.4,955.2223214285714,57.128571428571426,1666.1,955.2223214285714,57.128571428571426,1769.8,955.2223214285714,57.128571428571426,1880.1,955.2223214285714,57.128571428571426,1980.1,955.2223214285714,57.128571428571426,2080.1,955.2223214285714,57.128571428571426,2180.2,955.2223214285714,57.128571428571426,2285.2,955.2223214285714,57.128571428571426,2385.4,955.2223214285714,57.128571428571426,2489.9,955.2223214285714,57.128571428571426,2596.9,955.2223214285714,57.128571428571426,2700.2,955.2223214285714,57.128571428571426,2805.1,955.2223214285714,57.128571428571426,2905.3,955.2223214285714,57.128571428571426,3005.4,955.2223214285714,57.128571428571426,3113.5,955.2223214285714,57.128571428571426,3214.1,955.2223214285714,57.128571428571426,3314.4,955.2223214285714,57.128571428571426,3420.1,955.2223214285714,57.128571428571426,3520.1,955.2223214285714,57.128571428571426,3620.2,955.2223214285714,57.128571428571426,3730.3,955.2223214285714,57.128571428571426,3830.3,955.2223214285714,57.128571428571426,3935.2,955.2223214285714,57.128571428571426,4035.2,955.2223214285714,57.128571428571426,4135.2,955.2223214285714,57.128571428571426,4235.2,955.2223214285714,57.128571428571426,4335.4,955.2223214285714,57.128571428571426,4439.5,955.2223214285714,57.128571428571426,4539.6,955.2223214285714,57.128571428571426,4640,955.2223214285714,57.128571428571426,4740.2,955.2223214285714,57.128571428571426,4840.2,955.2223214285714,57.128571428571426,4940.2]","[1484.4,1484.4,1000,0,484.4,""smooth"",""left"",""left"",""good_move"",3846.2,2361.5,1973.4,1484.8,388.1,""smooth"",""left"",""left"",""good_move"",17730.7,13884.3,2873.2,14414.3,443.2,""smooth"",""left"",""left"",""good_move"",20864.3,3133.5,2613.7,17730.8,519.8,""smooth"",""up"",""up"",""good_move"",24115.9,3251.3,2825.8,20864.6,425.5,""oops"",""up"",""down"",""bad_move"",27191,3074.8,2663.9,24116.2,410.9,""smooth"",""up"",""up"",""good_move"",29766.4,2575.2,2128.2,27191.2,447,""oops"",""up"",""up"",""good_move""]","",""
"4815","","<div style=""width:500px;"">
  <p>What determined the result of this run?</p>
  </div>","14","html-slider-response","25","796929","0.0-5.0-1.3","311","1","2025-08-01 18:07:03","1f75c3e559b7213887762d5229550c2b","171.79.56.60","Mozilla/5.0 (Windows NT 10.0; Win64; x64) AppleWebKit/537.36 (KHTML, like Gecko) Chrome/138.0.0.0 Safari/537.36","WebKit","Chrome","138.0.0.0","Windows","10.0","https://app.prolific.com/","en-GB,en-US;q=0.9,en;q=0.8,ta;q=0.7","66c5f76d9a214b469f6476c8","6877631c9844ddd5501205fc","688d01f343defaed966192fa","3","1","66c5f76d9a214b469f6476c8","3","1","2025-08-01T18:22:11.130Z","","","","","","","","","","","AttribQ","","50","","","","","","","","","","","","","","","","","","","","","","","","","","","","",""
"1975","","<div style=""width:500px;"">
  <p>How much control did you have over the ball?</p>
  </div>","14","html-slider-response","26","798905","0.0-5.0-2.3","311","1","2025-08-01 18:07:03","1f75c3e559b7213887762d5229550c2b","171.79.56.60","Mozilla/5.0 (Windows NT 10.0; Win64; x64) AppleWebKit/537.36 (KHTML, like Gecko) Chrome/138.0.0.0 Safari/537.36","WebKit","Chrome","138.0.0.0","Windows","10.0","https://app.prolific.com/","en-GB,en-US;q=0.9,en;q=0.8,ta;q=0.7","66c5f76d9a214b469f6476c8","6877631c9844ddd5501205fc","688d01f343defaed966192fa","3","1","66c5f76d9a214b469f6476c8","3","1","2025-08-01T18:22:13.105Z","","","","","","","","","","","ControlQ","","50","","","","","","","","","","","","","","","","","","","","","","","","","","","","",""
"3055","","<div style=""width:500px;"">
  <p>How would you describe your current emotional state?</p>
  </div>","91","html-slider-response","27","801961","0.0-5.0-3.3","311","1","2025-08-01 18:07:03","1f75c3e559b7213887762d5229550c2b","171.79.56.60","Mozilla/5.0 (Windows NT 10.0; Win64; x64) AppleWebKit/537.36 (KHTML, like Gecko) Chrome/138.0.0.0 Safari/537.36","WebKit","Chrome","138.0.0.0","Windows","10.0","https://app.prolific.com/","en-GB,en-US;q=0.9,en;q=0.8,ta;q=0.7","66c5f76d9a214b469f6476c8","6877631c9844ddd5501205fc","688d01f343defaed966192fa","3","1","66c5f76d9a214b469f6476c8","3","1","2025-08-01T18:22:16.161Z","","","","","","","","","","","StressQ","","50","","","","","","","","","","","","","","","","","","","","","","","","","","","","",""
"2535","","<div style=""width:500px;"">
  <p>What best describes how you currently feel?</p>
  </div>","21","html-slider-response","28","804498","0.0-5.0-4.3","311","1","2025-08-01 18:07:03","1f75c3e559b7213887762d5229550c2b","171.79.56.60","Mozilla/5.0 (Windows NT 10.0; Win64; x64) AppleWebKit/537.36 (KHTML, like Gecko) Chrome/138.0.0.0 Safari/537.36","WebKit","Chrome","138.0.0.0","Windows","10.0","https://app.prolific.com/","en-GB,en-US;q=0.9,en;q=0.8,ta;q=0.7","66c5f76d9a214b469f6476c8","6877631c9844ddd5501205fc","688d01f343defaed966192fa","3","1","66c5f76d9a214b469f6476c8","3","1","2025-08-01T18:22:18.698Z","","","","","","","","","","","MotivationQ","","50","","","","","","","","","","","","","","","","","","","","","","","","","","","","",""
"","","","","ctl-task-cpt","29","832259","0.0-5.0-0.4","311","1","2025-08-01 18:07:03","1f75c3e559b7213887762d5229550c2b","171.79.56.60","Mozilla/5.0 (Windows NT 10.0; Win64; x64) AppleWebKit/537.36 (KHTML, like Gecko) Chrome/138.0.0.0 Safari/537.36","WebKit","Chrome","138.0.0.0","Windows","10.0","https://app.prolific.com/","en-GB,en-US;q=0.9,en;q=0.8,ta;q=0.7","66c5f76d9a214b469f6476c8","6877631c9844ddd5501205fc","688d01f343defaed966192fa","3","1","66c5f76d9a214b469f6476c8","3","1","2025-08-01T18:22:46.460Z","","","","","","","","","","","","","","win-only","3","g1:SW,g2:NE","0.6","5","0","812892.7","1207","6209.4","24740.5","1","4","4","6","2","4","4","4","0","0.030303030303030304","982.3","3000","610","[""up"",""right""]","{""num_key_presses"":6,""num_perfect"":5,""num_errors"":0,""num_randdir"":1,""num_randdir_good_moves"":1,""num_whilered"":0,""num_whileblue"":0,""num_blue"":1,""num_good_moves"":6}","[292.22232142857143,302.12857142857143,0.2,292.22232142857143,302.12857142857143,101.6,292.22232142857143,302.12857142857143,203.7,291.22232142857143,299.12857142857143,303.7,269.22232142857143,342.12857142857143,403.7,207.22232142857143,416.12857142857143,509.2,359.22232142857143,232.12857142857143,616.7,544.2223214285714,87.12857142857143,717.8,556.2223214285714,65.12857142857143,819.1,556.2223214285714,61.128571428571426,924.3,555.2223214285714,60.128571428571426,1033.7,555.2223214285714,59.128571428571426,1133.8,796.2223214285714,24.128571428571426,1233.8,968.2223214285714,29.128571428571426,1339.5,968.2223214285714,29.128571428571426,1443.7,968.2223214285714,29.128571428571426,1543.9,968.2223214285714,29.128571428571426,1643.9,968.2223214285714,29.128571428571426,1751,968.2223214285714,29.128571428571426,1853.9,968.2223214285714,29.128571428571426,1954.1,968.2223214285714,29.128571428571426,2054.2,968.2223214285714,29.128571428571426,2154.6,968.2223214285714,29.128571428571426,2259,968.2223214285714,29.128571428571426,2360.4,968.2223214285714,29.128571428571426,2467.7,968.2223214285714,29.128571428571426,2569,968.2223214285714,29.128571428571426,2673.7,968.2223214285714,29.128571428571426,2774.3,968.2223214285714,29.128571428571426,2883.7,968.2223214285714,29.128571428571426,2983.8,968.2223214285714,29.128571428571426,3084.2,968.2223214285714,29.128571428571426,3189.1,968.2223214285714,29.128571428571426,3294,968.2223214285714,29.128571428571426,3401.1,968.2223214285714,29.128571428571426,3503.8,968.2223214285714,29.128571428571426,3603.8,968.2223214285714,29.128571428571426,3709,968.2223214285714,29.128571428571426,3809.1,968.2223214285714,29.128571428571426,3909.1,968.2223214285714,29.128571428571426,4009.2,968.2223214285714,29.128571428571426,4109.4,968.2223214285714,29.128571428571426,4217.2,968.2223214285714,29.128571428571426,4317.2,968.2223214285714,29.128571428571426,4417.3,968.2223214285714,29.128571428571426,4517.4,968.2223214285714,29.128571428571426,4617.7,968.2223214285714,29.128571428571426,4720.1,968.2223214285714,29.128571428571426,4820.5,968.2223214285714,29.128571428571426,4924]","[1420.9,1420.9,1000,0,420.9,""smooth"",""right"",""right"",""good_move"",4631.9,3210.6,2807.4,1421.3,403.2,""smooth"",""right"",""right"",""good_move"",10065.1,5433.1,1817.1,7836.7,411.3,""oops"",""right"",""right"",""good_move"",12469.7,2404.4,1816.7,10065.3,587.7,""smooth"",""up"",""up"",""good_move"",14970.3,2500.4,2039.3,12469.9,461.1,""smooth"",""up"",""up"",""good_move"",18445.1,3474.7,3071.5,14970.4,403.2,""smooth"",""up"",""up"",""good_move""]","",""
"3637","","<div style=""width:500px;"">
  <p>What determined the result of this run?</p>
  </div>","85","html-slider-response","30","835898","0.0-5.0-1.4","311","1","2025-08-01 18:07:03","1f75c3e559b7213887762d5229550c2b","171.79.56.60","Mozilla/5.0 (Windows NT 10.0; Win64; x64) AppleWebKit/537.36 (KHTML, like Gecko) Chrome/138.0.0.0 Safari/537.36","WebKit","Chrome","138.0.0.0","Windows","10.0","https://app.prolific.com/","en-GB,en-US;q=0.9,en;q=0.8,ta;q=0.7","66c5f76d9a214b469f6476c8","6877631c9844ddd5501205fc","688d01f343defaed966192fa","3","1","66c5f76d9a214b469f6476c8","3","1","2025-08-01T18:22:50.098Z","","","","","","","","","","","AttribQ","","50","","","","","","","","","","","","","","","","","","","","","","","","","","","","",""
"1333","","<div style=""width:500px;"">
  <p>How much control did you have over the ball?</p>
  </div>","82","html-slider-response","31","837233","0.0-5.0-2.4","311","1","2025-08-01 18:07:03","1f75c3e559b7213887762d5229550c2b","171.79.56.60","Mozilla/5.0 (Windows NT 10.0; Win64; x64) AppleWebKit/537.36 (KHTML, like Gecko) Chrome/138.0.0.0 Safari/537.36","WebKit","Chrome","138.0.0.0","Windows","10.0","https://app.prolific.com/","en-GB,en-US;q=0.9,en;q=0.8,ta;q=0.7","66c5f76d9a214b469f6476c8","6877631c9844ddd5501205fc","688d01f343defaed966192fa","3","1","66c5f76d9a214b469f6476c8","3","1","2025-08-01T18:22:51.433Z","","","","","","","","","","","ControlQ","","50","","","","","","","","","","","","","","","","","","","","","","","","","","","","",""
"2311","","<div style=""width:500px;"">
  <p>How would you describe your current emotional state?</p>
  </div>","22","html-slider-response","32","839545","0.0-5.0-3.4","311","1","2025-08-01 18:07:03","1f75c3e559b7213887762d5229550c2b","171.79.56.60","Mozilla/5.0 (Windows NT 10.0; Win64; x64) AppleWebKit/537.36 (KHTML, like Gecko) Chrome/138.0.0.0 Safari/537.36","WebKit","Chrome","138.0.0.0","Windows","10.0","https://app.prolific.com/","en-GB,en-US;q=0.9,en;q=0.8,ta;q=0.7","66c5f76d9a214b469f6476c8","6877631c9844ddd5501205fc","688d01f343defaed966192fa","3","1","66c5f76d9a214b469f6476c8","3","1","2025-08-01T18:22:53.745Z","","","","","","","","","","","StressQ","","50","","","","","","","","","","","","","","","","","","","","","","","","","","","","",""
"1662","","<div style=""width:500px;"">
  <p>What best describes how you currently feel?</p>
  </div>","73","html-slider-response","33","841209","0.0-5.0-4.4","311","1","2025-08-01 18:07:03","1f75c3e559b7213887762d5229550c2b","171.79.56.60","Mozilla/5.0 (Windows NT 10.0; Win64; x64) AppleWebKit/537.36 (KHTML, like Gecko) Chrome/138.0.0.0 Safari/537.36","WebKit","Chrome","138.0.0.0","Windows","10.0","https://app.prolific.com/","en-GB,en-US;q=0.9,en;q=0.8,ta;q=0.7","66c5f76d9a214b469f6476c8","6877631c9844ddd5501205fc","688d01f343defaed966192fa","3","1","66c5f76d9a214b469f6476c8","3","1","2025-08-01T18:22:55.409Z","","","","","","","","","","","MotivationQ","","50","","","","","","","","","","","","","","","","","","","","","","","","","","","","",""
"","","","","ctl-task-cpt","34","881061","0.0-5.0-0.5","311","1","2025-08-01 18:07:03","1f75c3e559b7213887762d5229550c2b","171.79.56.60","Mozilla/5.0 (Windows NT 10.0; Win64; x64) AppleWebKit/537.36 (KHTML, like Gecko) Chrome/138.0.0.0 Safari/537.36","WebKit","Chrome","138.0.0.0","Windows","10.0","https://app.prolific.com/","en-GB,en-US;q=0.9,en;q=0.8,ta;q=0.7","66c5f76d9a214b469f6476c8","6877631c9844ddd5501205fc","688d01f343defaed966192fa","3","1","66c5f76d9a214b469f6476c8","3","1","2025-08-01T18:23:35.261Z","","","","","","","","","","","","","","win-only","0","g1:NW,g2:SE","0.5","6","0","849603.3","2903.4","7906.4","36842.8","1","4","8","6","2","8","8","12","4","0.09090909090909091","984.4","3000","170","[""down"",""right""]","{""num_key_presses"":8,""num_perfect"":5,""num_errors"":0,""num_randdir"":3,""num_randdir_good_moves"":2,""num_whilered"":0,""num_whileblue"":0,""num_blue"":2,""num_good_moves"":7}","[298.22232142857143,295.12857142857143,0.2,298.22232142857143,295.12857142857143,102.7,297.22232142857143,295.12857142857143,203.3,297.22232142857143,295.12857142857143,307.6,289.22232142857143,294.12857142857143,412.7,321.22232142857143,380.12857142857143,512.8,425.22232142857143,483.12857142857143,613,469.22232142857143,522.1285714285714,713,518.2223214285714,534.1285714285714,813.4,523.2223214285714,536.1285714285714,918,523.2223214285714,536.1285714285714,1023.7,525.2223214285714,535.1285714285714,1136.8,622.2223214285714,465.12857142857143,1238.3,978.2223214285714,128.12857142857143,1345.4,978.2223214285714,105.12857142857143,1445.5,978.2223214285714,105.12857142857143,1548.7,978.2223214285714,105.12857142857143,1652.8,978.2223214285714,105.12857142857143,1753.2,978.2223214285714,105.12857142857143,1862.3,978.2223214285714,105.12857142857143,1967.4,978.2223214285714,105.12857142857143,2067.9,978.2223214285714,105.12857142857143,2168.3,978.2223214285714,105.12857142857143,2273.3,978.2223214285714,105.12857142857143,2373.6,978.2223214285714,105.12857142857143,2474.3,978.2223214285714,105.12857142857143,2580,978.2223214285714,105.12857142857143,2683.1,978.2223214285714,105.12857142857143,2787.6,978.2223214285714,105.12857142857143,2887.8,978.2223214285714,105.12857142857143,2995.4,978.2223214285714,105.12857142857143,3096.5,978.2223214285714,105.12857142857143,3199,978.2223214285714,105.12857142857143,3303.1,978.2223214285714,105.12857142857143,3403.2,978.2223214285714,105.12857142857143,3503.3,978.2223214285714,105.12857142857143,3603.3,978.2223214285714,105.12857142857143,3712.6,978.2223214285714,105.12857142857143,3812.7,978.2223214285714,105.12857142857143,3917.7,978.2223214285714,105.12857142857143,4018.1,978.2223214285714,105.12857142857143,4118.5,978.2223214285714,105.12857142857143,4223.2,978.2223214285714,105.12857142857143,4323.2,978.2223214285714,105.12857142857143,4423.5,978.2223214285714,105.12857142857143,4529.4,978.2223214285714,105.12857142857143,4629.6,978.2223214285714,105.12857142857143,4730.5,978.2223214285714,105.12857142857143,4833.1,978.2223214285714,105.12857142857143,4933.8]","[1491.4,1491.4,1000,0,491.4,""smooth"",""down"",""down"",""good_move"",4291.6,2799.5,2374,1492.1,425.5,""oops"",""right"",""right"",""good_move"",7598.4,3306.5,2937.9,4291.9,368.7,""smooth"",""right"",""right"",""good_move"",10593.8,2995.2,2465.5,7598.6,529.7,""oops"",""down"",""up"",""bad_move"",13343.3,2749.2,2309.6,10594.1,439.6,""smooth"",""down"",""down"",""good_move"",16695.9,3352.3,2986.5,13343.6,365.8,""smooth"",""down"",""down"",""good_move"",26277.6,9581.5,2880.4,23026.5,370.7,""smooth"",""right"",""right"",""good_move"",28828.4,2550.5,2144.8,26278,405.6,""oops"",""down"",""down"",""good_move""]","",""
"228275","","<div style=""width:500px;"">
  <p>What determined the result of this run?</p>
  </div>","82","html-slider-response","35","1109337","0.0-5.0-1.5","311","1","2025-08-01 18:07:03","1f75c3e559b7213887762d5229550c2b","171.79.56.60","Mozilla/5.0 (Windows NT 10.0; Win64; x64) AppleWebKit/537.36 (KHTML, like Gecko) Chrome/138.0.0.0 Safari/537.36","WebKit","Chrome","138.0.0.0","Windows","10.0","https://app.prolific.com/","en-GB,en-US;q=0.9,en;q=0.8,ta;q=0.7","66c5f76d9a214b469f6476c8","6877631c9844ddd5501205fc","688d01f343defaed966192fa","3","1","66c5f76d9a214b469f6476c8","3","1","2025-08-01T18:27:23.537Z","","","","","","","","","","","AttribQ","","50","","","","","","","","","","","","","","","","","","","","","","","","","","","","",""
"2711","","<div style=""width:500px;"">
  <p>How much control did you have over the ball?</p>
  </div>","76","html-slider-response","36","1112049","0.0-5.0-2.5","311","1","2025-08-01 18:07:03","1f75c3e559b7213887762d5229550c2b","171.79.56.60","Mozilla/5.0 (Windows NT 10.0; Win64; x64) AppleWebKit/537.36 (KHTML, like Gecko) Chrome/138.0.0.0 Safari/537.36","WebKit","Chrome","138.0.0.0","Windows","10.0","https://app.prolific.com/","en-GB,en-US;q=0.9,en;q=0.8,ta;q=0.7","66c5f76d9a214b469f6476c8","6877631c9844ddd5501205fc","688d01f343defaed966192fa","3","1","66c5f76d9a214b469f6476c8","3","1","2025-08-01T18:27:26.250Z","","","","","","","","","","","ControlQ","","50","","","","","","","","","","","","","","","","","","","","","","","","","","","","",""
"3270","","<div style=""width:500px;"">
  <p>How would you describe your current emotional state?</p>
  </div>","24","html-slider-response","37","1115321","0.0-5.0-3.5","311","1","2025-08-01 18:07:03","1f75c3e559b7213887762d5229550c2b","171.79.56.60","Mozilla/5.0 (Windows NT 10.0; Win64; x64) AppleWebKit/537.36 (KHTML, like Gecko) Chrome/138.0.0.0 Safari/537.36","WebKit","Chrome","138.0.0.0","Windows","10.0","https://app.prolific.com/","en-GB,en-US;q=0.9,en;q=0.8,ta;q=0.7","66c5f76d9a214b469f6476c8","6877631c9844ddd5501205fc","688d01f343defaed966192fa","3","1","66c5f76d9a214b469f6476c8","3","1","2025-08-01T18:27:29.521Z","","","","","","","","","","","StressQ","","50","","","","","","","","","","","","","","","","","","","","","","","","","","","","",""
"298847","","<div style=""width:500px;"">
  <p>What best describes how you currently feel?</p>
  </div>","76","html-slider-response","38","1414169","0.0-5.0-4.5","311","1","2025-08-01 18:07:03","1f75c3e559b7213887762d5229550c2b","171.79.56.60","Mozilla/5.0 (Windows NT 10.0; Win64; x64) AppleWebKit/537.36 (KHTML, like Gecko) Chrome/138.0.0.0 Safari/537.36","WebKit","Chrome","138.0.0.0","Windows","10.0","https://app.prolific.com/","en-GB,en-US;q=0.9,en;q=0.8,ta;q=0.7","66c5f76d9a214b469f6476c8","6877631c9844ddd5501205fc","688d01f343defaed966192fa","3","1","66c5f76d9a214b469f6476c8","3","1","2025-08-01T18:32:28.369Z","","","","","","","","","","","MotivationQ","","50","","","","","","","","","","","","","","","","","","","","","","","","","","","","",""
"","","","","ctl-task-cpt","39","1457368","0.0-5.0-0.6","311","1","2025-08-01 18:07:03","1f75c3e559b7213887762d5229550c2b","171.79.56.60","Mozilla/5.0 (Windows NT 10.0; Win64; x64) AppleWebKit/537.36 (KHTML, like Gecko) Chrome/138.0.0.0 Safari/537.36","WebKit","Chrome","138.0.0.0","Windows","10.0","https://app.prolific.com/","en-GB,en-US;q=0.9,en;q=0.8,ta;q=0.7","66c5f76d9a214b469f6476c8","6877631c9844ddd5501205fc","688d01f343defaed966192fa","3","1","66c5f76d9a214b469f6476c8","3","1","2025-08-01T18:33:11.568Z","","","","","","","","","","","","","","win-only","3","g1:SW,g2:NE","0.4","7","0","1422564.4","1110.4","6117","40178.3","1","4","4","6","2","-4","-4","8","12","0.06060606060606061","1026.7","3000","-2825","[""up"",""right""]","{""num_key_presses"":6,""num_perfect"":1,""num_errors"":0,""num_randdir"":5,""num_randdir_good_moves"":1,""num_whilered"":0,""num_whileblue"":0,""num_blue"":4,""num_good_moves"":2}","[289.22232142857143,303.12857142857143,0.1,289.22232142857143,303.12857142857143,107.2,288.22232142857143,303.12857142857143,211.3,288.22232142857143,303.12857142857143,312.7,288.22232142857143,303.12857142857143,413.6,358.22232142857143,163.12857142857143,524,506.22232142857143,21.128571428571426,628.6,514.2223214285714,14.128571428571426,728.8,549.2223214285714,4.128571428571426,828.9,534.2223214285714,31.128571428571426,930.4,531.2223214285714,39.128571428571426,1030.4,531.2223214285714,39.128571428571426,1130.5,598.2223214285714,39.128571428571426,1235.5,894.2223214285714,17.128571428571426,1344.8,978.2223214285714,-11.871428571428574,1447.8,978.2223214285714,-11.871428571428574,1550.2,978.2223214285714,-11.871428571428574,1650.5,978.2223214285714,-11.871428571428574,1750.8,978.2223214285714,-11.871428571428574,1851.7,978.2223214285714,-11.871428571428574,1960.8,978.2223214285714,-11.871428571428574,2061.3,978.2223214285714,-11.871428571428574,2165,978.2223214285714,-11.871428571428574,2271.3,978.2223214285714,-11.871428571428574,2376.5,978.2223214285714,-11.871428571428574,2478.1,978.2223214285714,-11.871428571428574,2581,978.2223214285714,-11.871428571428574,2693.5,978.2223214285714,-11.871428571428574,2795.4,978.2223214285714,-11.871428571428574,2896.9,978.2223214285714,-11.871428571428574,3000.9,978.2223214285714,-11.871428571428574,3100.9,978.2223214285714,-11.871428571428574,3211.2,978.2223214285714,-11.871428571428574,3311.6,978.2223214285714,-11.871428571428574,3411.8,978.2223214285714,-11.871428571428574,3515.3,978.2223214285714,-11.871428571428574,3616,978.2223214285714,-11.871428571428574,3716.1,978.2223214285714,-11.871428571428574,3828.4,978.2223214285714,-11.871428571428574,3931.8,978.2223214285714,-11.871428571428574,4035.3,978.2223214285714,-11.871428571428574,4145.2,978.2223214285714,-11.871428571428574,4246.8,978.2223214285714,-11.871428571428574,4351.1,978.2223214285714,-11.871428571428574,4461.6,978.2223214285714,-11.871428571428574,4565.8,978.2223214285714,-11.871428571428574,4666,978.2223214285714,-11.871428571428574,4766.2,978.2223214285714,-11.871428571428574,4878.4,978.2223214285714,-11.871428571428574,4980.8]","[1410.4,1410.4,1000,0,410.4,""smooth"",""right"",""right"",""good_move"",4386.9,2976.1,2554.9,1410.8,421.2,""oops"",""right"",""left"",""bad_move"",7198.1,2810.9,2430.7,4387.2,380.2,""oops"",""right"",""down"",""bad_move"",18172.9,10974.6,2384,15345.3,443.6,""oops"",""right"",""down"",""bad_move"",21307.2,3134.1,1988,18173.1,1146.1,""oops"",""right"",""left"",""bad_move"",31581.3,10274,2294.7,28674.3,612.3,""oops"",""right"",""right"",""good_move""]","",""
"4536","","<div style=""width:500px;"">
  <p>What determined the result of this run?</p>
  </div>","13","html-slider-response","40","1461905","0.0-5.0-1.6","311","1","2025-08-01 18:07:03","1f75c3e559b7213887762d5229550c2b","171.79.56.60","Mozilla/5.0 (Windows NT 10.0; Win64; x64) AppleWebKit/537.36 (KHTML, like Gecko) Chrome/138.0.0.0 Safari/537.36","WebKit","Chrome","138.0.0.0","Windows","10.0","https://app.prolific.com/","en-GB,en-US;q=0.9,en;q=0.8,ta;q=0.7","66c5f76d9a214b469f6476c8","6877631c9844ddd5501205fc","688d01f343defaed966192fa","3","1","66c5f76d9a214b469f6476c8","3","1","2025-08-01T18:33:16.105Z","","","","","","","","","","","AttribQ","","50","","","","","","","","","","","","","","","","","","","","","","","","","","","","",""
"3581","","<div style=""width:500px;"">
  <p>How much control did you have over the ball?</p>
  </div>","6","html-slider-response","41","1465488","0.0-5.0-2.6","311","1","2025-08-01 18:07:03","1f75c3e559b7213887762d5229550c2b","171.79.56.60","Mozilla/5.0 (Windows NT 10.0; Win64; x64) AppleWebKit/537.36 (KHTML, like Gecko) Chrome/138.0.0.0 Safari/537.36","WebKit","Chrome","138.0.0.0","Windows","10.0","https://app.prolific.com/","en-GB,en-US;q=0.9,en;q=0.8,ta;q=0.7","66c5f76d9a214b469f6476c8","6877631c9844ddd5501205fc","688d01f343defaed966192fa","3","1","66c5f76d9a214b469f6476c8","3","1","2025-08-01T18:33:19.688Z","","","","","","","","","","","ControlQ","","50","","","","","","","","","","","","","","","","","","","","","","","","","","","","",""
"2368","","<div style=""width:500px;"">
  <p>How would you describe your current emotional state?</p>
  </div>","94","html-slider-response","42","1467857","0.0-5.0-3.6","311","1","2025-08-01 18:07:03","1f75c3e559b7213887762d5229550c2b","171.79.56.60","Mozilla/5.0 (Windows NT 10.0; Win64; x64) AppleWebKit/537.36 (KHTML, like Gecko) Chrome/138.0.0.0 Safari/537.36","WebKit","Chrome","138.0.0.0","Windows","10.0","https://app.prolific.com/","en-GB,en-US;q=0.9,en;q=0.8,ta;q=0.7","66c5f76d9a214b469f6476c8","6877631c9844ddd5501205fc","688d01f343defaed966192fa","3","1","66c5f76d9a214b469f6476c8","3","1","2025-08-01T18:33:22.057Z","","","","","","","","","","","StressQ","","50","","","","","","","","","","","","","","","","","","","","","","","","","","","","",""
"2118","","<div style=""width:500px;"">
  <p>What best describes how you currently feel?</p>
  </div>","10","html-slider-response","43","1469977","0.0-5.0-4.6","311","1","2025-08-01 18:07:03","1f75c3e559b7213887762d5229550c2b","171.79.56.60","Mozilla/5.0 (Windows NT 10.0; Win64; x64) AppleWebKit/537.36 (KHTML, like Gecko) Chrome/138.0.0.0 Safari/537.36","WebKit","Chrome","138.0.0.0","Windows","10.0","https://app.prolific.com/","en-GB,en-US;q=0.9,en;q=0.8,ta;q=0.7","66c5f76d9a214b469f6476c8","6877631c9844ddd5501205fc","688d01f343defaed966192fa","3","1","66c5f76d9a214b469f6476c8","3","1","2025-08-01T18:33:24.177Z","","","","","","","","","","","MotivationQ","","50","","","","","","","","","","","","","","","","","","","","","","","","","","","","",""
"","","","","ctl-task-cpt","44","1516466","0.0-5.0-0.7","311","1","2025-08-01 18:07:03","1f75c3e559b7213887762d5229550c2b","171.79.56.60","Mozilla/5.0 (Windows NT 10.0; Win64; x64) AppleWebKit/537.36 (KHTML, like Gecko) Chrome/138.0.0.0 Safari/537.36","WebKit","Chrome","138.0.0.0","Windows","10.0","https://app.prolific.com/","en-GB,en-US;q=0.9,en;q=0.8,ta;q=0.7","66c5f76d9a214b469f6476c8","6877631c9844ddd5501205fc","688d01f343defaed966192fa","3","1","66c5f76d9a214b469f6476c8","3","1","2025-08-01T18:34:10.666Z","","","","","","","","","","","","","","win-only","2","g1:SE,g2:NW","0.3","8","0","1478371.1","875.4","5884.8","43469.7","1","4","8","6","2","-8","-8","0","8","0","828.2","3000","-2835","[""left"",""up""]","{""num_key_presses"":8,""num_perfect"":3,""num_errors"":0,""num_randdir"":5,""num_randdir_good_moves"":1,""num_whilered"":0,""num_whileblue"":0,""num_blue"":3,""num_good_moves"":4}","[293.22232142857143,300.12857142857143,0.5,293.22232142857143,300.12857142857143,108,293.22232142857143,300.12857142857143,209.2,293.22232142857143,300.12857142857143,310.9,282.22232142857143,285.12857142857143,416,88.22232142857143,107.12857142857143,525.3,66.22232142857143,86.12857142857143,626,61.222321428571426,81.12857142857143,731,59.222321428571426,77.12857142857143,836.3,59.222321428571426,77.12857142857143,940.3,449.22232142857143,119.12857142857143,1040.9,830.2223214285714,90.12857142857143,1145.5,830.2223214285714,90.12857142857143,1245.5,830.2223214285714,90.12857142857143,1346,830.2223214285714,90.12857142857143,1450.4,830.2223214285714,90.12857142857143,1550.4,830.2223214285714,90.12857142857143,1650.5,830.2223214285714,90.12857142857143,1755.4,830.2223214285714,90.12857142857143,1856,830.2223214285714,90.12857142857143,1956,830.2223214285714,90.12857142857143,2056.3,830.2223214285714,90.12857142857143,2160.1,830.2223214285714,90.12857142857143,2260.3,830.2223214285714,90.12857142857143,2360.5,830.2223214285714,90.12857142857143,2461,830.2223214285714,90.12857142857143,2565.1,830.2223214285714,90.12857142857143,2665.8,830.2223214285714,90.12857142857143,2774.4,830.2223214285714,90.12857142857143,2874.6,830.2223214285714,90.12857142857143,2975.8,830.2223214285714,90.12857142857143,3075.8,830.2223214285714,90.12857142857143,3175.9,830.2223214285714,90.12857142857143,3280.1,830.2223214285714,90.12857142857143,3380.7,830.2223214285714,90.12857142857143,3481.9,830.2223214285714,90.12857142857143,3590.6,830.2223214285714,90.12857142857143,3695.4,830.2223214285714,90.12857142857143,3803.9,830.2223214285714,90.12857142857143,3908.6,830.2223214285714,90.12857142857143,4008.9,830.2223214285714,90.12857142857143,4109.9,830.2223214285714,90.12857142857143,4209.9,830.2223214285714,90.12857142857143,4310.2,830.2223214285714,90.12857142857143,4410.9,830.2223214285714,90.12857142857143,4514.8,830.2223214285714,90.12857142857143,4615.9,830.2223214285714,90.12857142857143,4723.6,830.2223214285714,90.12857142857143,4825.3,830.2223214285714,90.12857142857143,4925.4]","[1482.8,1482.8,1000,0,482.8,""smooth"",""left"",""left"",""good_move"",4446.9,2963.8,2578.1,1483.1,385.7,""oops"",""left"",""down"",""bad_move"",7745.2,3297.8,2866.2,4447.4,431.6,""smooth"",""left"",""left"",""good_move"",10698,2952.6,2430.7,7745.5,521.9,""oops"",""left"",""right"",""bad_move"",13228.7,2530.2,2132.5,10698.5,397.7,""oops"",""left"",""right"",""bad_move"",23750,10521.1,2666.3,20686,397.7,""smooth"",""left"",""left"",""good_move"",31082.7,7332.4,3109.3,27550.4,423.1,""oops"",""left"",""right"",""bad_move"",34615.7,3532.7,2992.6,31083,540.1,""oops"",""left"",""left"",""good_move""]","",""
"2800","","<div style=""width:500px;"">
  <p>What determined the result of this run?</p>
  </div>","14","html-slider-response","45","1519269","0.0-5.0-1.7","311","1","2025-08-01 18:07:03","1f75c3e559b7213887762d5229550c2b","171.79.56.60","Mozilla/5.0 (Windows NT 10.0; Win64; x64) AppleWebKit/537.36 (KHTML, like Gecko) Chrome/138.0.0.0 Safari/537.36","WebKit","Chrome","138.0.0.0","Windows","10.0","https://app.prolific.com/","en-GB,en-US;q=0.9,en;q=0.8,ta;q=0.7","66c5f76d9a214b469f6476c8","6877631c9844ddd5501205fc","688d01f343defaed966192fa","3","1","66c5f76d9a214b469f6476c8","3","1","2025-08-01T18:34:13.469Z","","","","","","","","","","","AttribQ","","50","","","","","","","","","","","","","","","","","","","","","","","","","","","","",""
"4295","","<div style=""width:500px;"">
  <p>How much control did you have over the ball?</p>
  </div>","5","html-slider-response","46","1523569","0.0-5.0-2.7","311","1","2025-08-01 18:07:03","1f75c3e559b7213887762d5229550c2b","171.79.56.60","Mozilla/5.0 (Windows NT 10.0; Win64; x64) AppleWebKit/537.36 (KHTML, like Gecko) Chrome/138.0.0.0 Safari/537.36","WebKit","Chrome","138.0.0.0","Windows","10.0","https://app.prolific.com/","en-GB,en-US;q=0.9,en;q=0.8,ta;q=0.7","66c5f76d9a214b469f6476c8","6877631c9844ddd5501205fc","688d01f343defaed966192fa","3","1","66c5f76d9a214b469f6476c8","3","1","2025-08-01T18:34:17.769Z","","","","","","","","","","","ControlQ","","50","","","","","","","","","","","","","","","","","","","","","","","","","","","","",""
"2366","","<div style=""width:500px;"">
  <p>How would you describe your current emotional state?</p>
  </div>","93","html-slider-response","47","1525937","0.0-5.0-3.7","311","1","2025-08-01 18:07:03","1f75c3e559b7213887762d5229550c2b","171.79.56.60","Mozilla/5.0 (Windows NT 10.0; Win64; x64) AppleWebKit/537.36 (KHTML, like Gecko) Chrome/138.0.0.0 Safari/537.36","WebKit","Chrome","138.0.0.0","Windows","10.0","https://app.prolific.com/","en-GB,en-US;q=0.9,en;q=0.8,ta;q=0.7","66c5f76d9a214b469f6476c8","6877631c9844ddd5501205fc","688d01f343defaed966192fa","3","1","66c5f76d9a214b469f6476c8","3","1","2025-08-01T18:34:20.137Z","","","","","","","","","","","StressQ","","50","","","","","","","","","","","","","","","","","","","","","","","","","","","","",""
"2887","","<div style=""width:500px;"">
  <p>What best describes how you currently feel?</p>
  </div>","10","html-slider-response","48","1528825","0.0-5.0-4.7","311","1","2025-08-01 18:07:03","1f75c3e559b7213887762d5229550c2b","171.79.56.60","Mozilla/5.0 (Windows NT 10.0; Win64; x64) AppleWebKit/537.36 (KHTML, like Gecko) Chrome/138.0.0.0 Safari/537.36","WebKit","Chrome","138.0.0.0","Windows","10.0","https://app.prolific.com/","en-GB,en-US;q=0.9,en;q=0.8,ta;q=0.7","66c5f76d9a214b469f6476c8","6877631c9844ddd5501205fc","688d01f343defaed966192fa","3","1","66c5f76d9a214b469f6476c8","3","1","2025-08-01T18:34:23.025Z","","","","","","","","","","","MotivationQ","","50","","","","","","","","","","","","","","","","","","","","","","","","","","","","",""
"","","","","ctl-task-cpt","49","1576846","0.0-5.0-0.8","311","1","2025-08-01 18:07:03","1f75c3e559b7213887762d5229550c2b","171.79.56.60","Mozilla/5.0 (Windows NT 10.0; Win64; x64) AppleWebKit/537.36 (KHTML, like Gecko) Chrome/138.0.0.0 Safari/537.36","WebKit","Chrome","138.0.0.0","Windows","10.0","https://app.prolific.com/","en-GB,en-US;q=0.9,en;q=0.8,ta;q=0.7","66c5f76d9a214b469f6476c8","6877631c9844ddd5501205fc","688d01f343defaed966192fa","3","1","66c5f76d9a214b469f6476c8","3","1","2025-08-01T18:35:11.046Z","","","","","","","","","","","","","","win-only","3","g1:SW,g2:NE","0.2","9","0","1537219.7","834.2","5835.4","45006.1","1","4","4","6","2","-4","-4","0","0","0","1133.7","3000","-2605","[""up"",""right""]","{""num_key_presses"":8,""num_perfect"":1,""num_errors"":0,""num_randdir"":7,""num_randdir_good_moves"":4,""num_whilered"":0,""num_whileblue"":0,""num_blue"":4,""num_good_moves"":5}","[297.22232142857143,301.12857142857143,0.2,297.22232142857143,301.12857142857143,114.6,297.22232142857143,301.12857142857143,217.8,295.22232142857143,301.12857142857143,320.9,295.22232142857143,301.12857142857143,421.3,174.22232142857143,408.12857142857143,527,123.22232142857143,460.12857142857143,636.6,333.22232142857143,267.12857142857143,741.5,576.2223214285714,79.12857142857143,841.8,579.2223214285714,73.12857142857143,941.9,570.2223214285714,72.12857142857143,1048,567.2223214285714,71.12857142857143,1148.2,567.2223214285714,69.12857142857143,1252.9,703.2223214285714,13.128571428571426,1354.4,951.2223214285714,-16.871428571428574,1454.7,951.2223214285714,-16.871428571428574,1556.6,951.2223214285714,-16.871428571428574,1657,951.2223214285714,-16.871428571428574,1763,951.2223214285714,-16.871428571428574,1863.2,951.2223214285714,-16.871428571428574,1964,951.2223214285714,-16.871428571428574,2068.4,951.2223214285714,-16.871428571428574,2171.8,951.2223214285714,-16.871428571428574,2286.1,951.2223214285714,-16.871428571428574,2391.8,951.2223214285714,-16.871428571428574,2499.4,951.2223214285714,-16.871428571428574,2602.6,951.2223214285714,-16.871428571428574,2702.9,951.2223214285714,-16.871428571428574,2807.6,951.2223214285714,-16.871428571428574,2917.6,951.2223214285714,-16.871428571428574,3020.2,951.2223214285714,-16.871428571428574,3122.9,951.2223214285714,-16.871428571428574,3228.5,951.2223214285714,-16.871428571428574,3332.5,951.2223214285714,-16.871428571428574,3432.9,951.2223214285714,-16.871428571428574,3534.6,951.2223214285714,-16.871428571428574,3638.2,951.2223214285714,-16.871428571428574,3744.9,951.2223214285714,-16.871428571428574,3848.6,951.2223214285714,-16.871428571428574,3948.8,951.2223214285714,-16.871428571428574,4053.9,951.2223214285714,-16.871428571428574,4157,951.2223214285714,-16.871428571428574,4257.9,951.2223214285714,-16.871428571428574,4366.5,951.2223214285714,-16.871428571428574,4469.2,951.2223214285714,-16.871428571428574,4570.3,951.2223214285714,-16.871428571428574,4672.4,951.2223214285714,-16.871428571428574,4772.5,951.2223214285714,-16.871428571428574,4877.3,951.2223214285714,-16.871428571428574,4978.5]","[5306.2,5306.2,2895.3,2001,409.9,""oops"",""right"",""right"",""good_move"",8118.3,2811.8,2400.5,5306.6,411.2,""oops"",""right"",""down"",""bad_move"",11560.5,3441.9,3032.4,8118.6,409.5,""oops"",""up"",""up"",""good_move"",14595.2,3033.8,2649.8,11561.4,384,""oops"",""up"",""up"",""good_move"",21909.6,7314.3,2977.5,18521.2,410.9,""smooth"",""up"",""up"",""good_move"",24874.1,2963.9,2497.8,21910.2,466.1,""oops"",""right"",""right"",""good_move"",27686.6,2812.2,2404.8,24874.4,407.4,""oops"",""right"",""down"",""bad_move"",36467.1,8780.2,2341.3,33789.9,335.9,""oops"",""right"",""down"",""bad_move""]","",""
"9049","","<div style=""width:500px;"">
  <p>What determined the result of this run?</p>
  </div>","8","html-slider-response","50","1585897","0.0-5.0-1.8","311","1","2025-08-01 18:07:03","1f75c3e559b7213887762d5229550c2b","171.79.56.60","Mozilla/5.0 (Windows NT 10.0; Win64; x64) AppleWebKit/537.36 (KHTML, like Gecko) Chrome/138.0.0.0 Safari/537.36","WebKit","Chrome","138.0.0.0","Windows","10.0","https://app.prolific.com/","en-GB,en-US;q=0.9,en;q=0.8,ta;q=0.7","66c5f76d9a214b469f6476c8","6877631c9844ddd5501205fc","688d01f343defaed966192fa","3","1","66c5f76d9a214b469f6476c8","3","1","2025-08-01T18:35:20.097Z","","","","","","","","","","","AttribQ","","50","","","","","","","","","","","","","","","","","","","","","","","","","","","","",""
"1471","","<div style=""width:500px;"">
  <p>How much control did you have over the ball?</p>
  </div>","8","html-slider-response","51","1587369","0.0-5.0-2.8","311","1","2025-08-01 18:07:03","1f75c3e559b7213887762d5229550c2b","171.79.56.60","Mozilla/5.0 (Windows NT 10.0; Win64; x64) AppleWebKit/537.36 (KHTML, like Gecko) Chrome/138.0.0.0 Safari/537.36","WebKit","Chrome","138.0.0.0","Windows","10.0","https://app.prolific.com/","en-GB,en-US;q=0.9,en;q=0.8,ta;q=0.7","66c5f76d9a214b469f6476c8","6877631c9844ddd5501205fc","688d01f343defaed966192fa","3","1","66c5f76d9a214b469f6476c8","3","1","2025-08-01T18:35:21.569Z","","","","","","","","","","","ControlQ","","50","","","","","","","","","","","","","","","","","","","","","","","","","","","","",""
"2158","","<div style=""width:500px;"">
  <p>How would you describe your current emotional state?</p>
  </div>","95","html-slider-response","52","1589529","0.0-5.0-3.8","311","1","2025-08-01 18:07:03","1f75c3e559b7213887762d5229550c2b","171.79.56.60","Mozilla/5.0 (Windows NT 10.0; Win64; x64) AppleWebKit/537.36 (KHTML, like Gecko) Chrome/138.0.0.0 Safari/537.36","WebKit","Chrome","138.0.0.0","Windows","10.0","https://app.prolific.com/","en-GB,en-US;q=0.9,en;q=0.8,ta;q=0.7","66c5f76d9a214b469f6476c8","6877631c9844ddd5501205fc","688d01f343defaed966192fa","3","1","66c5f76d9a214b469f6476c8","3","1","2025-08-01T18:35:23.729Z","","","","","","","","","","","StressQ","","50","","","","","","","","","","","","","","","","","","","","","","","","","","","","",""
"1878","","<div style=""width:500px;"">
  <p>What best describes how you currently feel?</p>
  </div>","8","html-slider-response","53","1591409","0.0-5.0-4.8","311","1","2025-08-01 18:07:03","1f75c3e559b7213887762d5229550c2b","171.79.56.60","Mozilla/5.0 (Windows NT 10.0; Win64; x64) AppleWebKit/537.36 (KHTML, like Gecko) Chrome/138.0.0.0 Safari/537.36","WebKit","Chrome","138.0.0.0","Windows","10.0","https://app.prolific.com/","en-GB,en-US;q=0.9,en;q=0.8,ta;q=0.7","66c5f76d9a214b469f6476c8","6877631c9844ddd5501205fc","688d01f343defaed966192fa","3","1","66c5f76d9a214b469f6476c8","3","1","2025-08-01T18:35:25.609Z","","","","","","","","","","","MotivationQ","","50","","","","","","","","","","","","","","","","","","","","","","","","","","","","",""
"","","","","ctl-task-cpt","54","1639053","0.0-5.0-0.9","311","1","2025-08-01 18:07:03","1f75c3e559b7213887762d5229550c2b","171.79.56.60","Mozilla/5.0 (Windows NT 10.0; Win64; x64) AppleWebKit/537.36 (KHTML, like Gecko) Chrome/138.0.0.0 Safari/537.36","WebKit","Chrome","138.0.0.0","Windows","10.0","https://app.prolific.com/","en-GB,en-US;q=0.9,en;q=0.8,ta;q=0.7","66c5f76d9a214b469f6476c8","6877631c9844ddd5501205fc","688d01f343defaed966192fa","3","1","66c5f76d9a214b469f6476c8","3","1","2025-08-01T18:36:13.253Z","","","","","","","","","","","","","","win-only","0","g1:NW,g2:SE","0.4","10","0","1599803.9","1415.4","6419.9","44621.1","1","4","8","6","2","-8","-8","0","0","0","1121.6","3000","-2480","[""down"",""right""]","{""num_key_presses"":8,""num_perfect"":3,""num_errors"":0,""num_randdir"":5,""num_randdir_good_moves"":3,""num_whilered"":0,""num_whileblue"":0,""num_blue"":4,""num_good_moves"":6}","[292.22232142857143,302.12857142857143,0.3,292.22232142857143,302.12857142857143,101.7,292.22232142857143,302.12857142857143,206.7,292.22232142857143,302.12857142857143,311,292.22232142857143,302.12857142857143,424.7,276.22232142857143,299.12857142857143,525.7,284.22232142857143,360.12857142857143,630.8,462.22232142857143,523.1285714285714,731,554.2223214285714,566.1285714285714,838.7,554.2223214285714,566.1285714285714,940.5,557.2223214285714,558.1285714285714,1046.4,557.2223214285714,558.1285714285714,1159.5,557.2223214285714,558.1285714285714,1260,557.2223214285714,558.1285714285714,1361.5,631.2223214285714,492.12857142857143,1461.7,906.2223214285714,331.12857142857143,1568.3,918.2223214285714,324.12857142857143,1675.5,918.2223214285714,324.12857142857143,1776.1,918.2223214285714,324.12857142857143,1890.2,918.2223214285714,324.12857142857143,1995.9,918.2223214285714,324.12857142857143,2095.9,918.2223214285714,324.12857142857143,2200.9,918.2223214285714,324.12857142857143,2301.5,918.2223214285714,324.12857142857143,2405.3,918.2223214285714,324.12857142857143,2506.7,918.2223214285714,324.12857142857143,2610.9,918.2223214285714,324.12857142857143,2723.6,918.2223214285714,324.12857142857143,2823.6,918.2223214285714,324.12857142857143,2926.4,918.2223214285714,324.12857142857143,3031.4,918.2223214285714,324.12857142857143,3131.6,918.2223214285714,324.12857142857143,3231.6,918.2223214285714,324.12857142857143,3337.2,918.2223214285714,324.12857142857143,3440.4,918.2223214285714,324.12857142857143,3540.7,918.2223214285714,324.12857142857143,3641.6,918.2223214285714,324.12857142857143,3745.8,918.2223214285714,324.12857142857143,3846.5,918.2223214285714,324.12857142857143,3952.9,918.2223214285714,324.12857142857143,4055.1,918.2223214285714,324.12857142857143,4156.7,918.2223214285714,324.12857142857143,4257.5,918.2223214285714,324.12857142857143,4360.7,918.2223214285714,324.12857142857143,4461.9,918.2223214285714,324.12857142857143,4569.9,918.2223214285714,324.12857142857143,4672.6,918.2223214285714,324.12857142857143,4775.9,918.2223214285714,324.12857142857143,4877.6,918.2223214285714,324.12857142857143,4994.4]","[1488.1,1488.1,1000,0,488.1,""oops"",""down"",""up"",""bad_move"",7873.4,6385,2301.4,5121.8,450.2,""smooth"",""down"",""down"",""good_move"",13769.4,5895.6,1993.8,11391.4,384.3,""oops"",""right"",""down"",""good_move"",17499.2,3729.6,3266.9,13769.6,462.7,""oops"",""right"",""down"",""good_move"",23486.3,5986.9,2233.7,20849.7,402.9,""oops"",""right"",""right"",""good_move"",29943.5,6457,2028,27536.7,378.8,""smooth"",""right"",""right"",""good_move"",32461.7,2517.8,2087.7,29943.9,430.1,""oops"",""right"",""up"",""bad_move"",35547.1,3084.7,2564.5,32462.4,520.2,""smooth"",""right"",""right"",""good_move""]","",""
"3275","","<div style=""width:500px;"">
  <p>What determined the result of this run?</p>
  </div>","3","html-slider-response","55","1642329","0.0-5.0-1.9","311","1","2025-08-01 18:07:03","1f75c3e559b7213887762d5229550c2b","171.79.56.60","Mozilla/5.0 (Windows NT 10.0; Win64; x64) AppleWebKit/537.36 (KHTML, like Gecko) Chrome/138.0.0.0 Safari/537.36","WebKit","Chrome","138.0.0.0","Windows","10.0","https://app.prolific.com/","en-GB,en-US;q=0.9,en;q=0.8,ta;q=0.7","66c5f76d9a214b469f6476c8","6877631c9844ddd5501205fc","688d01f343defaed966192fa","3","1","66c5f76d9a214b469f6476c8","3","1","2025-08-01T18:36:16.529Z","","","","","","","","","","","AttribQ","","50","","","","","","","","","","","","","","","","","","","","","","","","","","","","",""
"1375","","<div style=""width:500px;"">
  <p>How much control did you have over the ball?</p>
  </div>","8","html-slider-response","56","1643705","0.0-5.0-2.9","311","1","2025-08-01 18:07:03","1f75c3e559b7213887762d5229550c2b","171.79.56.60","Mozilla/5.0 (Windows NT 10.0; Win64; x64) AppleWebKit/537.36 (KHTML, like Gecko) Chrome/138.0.0.0 Safari/537.36","WebKit","Chrome","138.0.0.0","Windows","10.0","https://app.prolific.com/","en-GB,en-US;q=0.9,en;q=0.8,ta;q=0.7","66c5f76d9a214b469f6476c8","6877631c9844ddd5501205fc","688d01f343defaed966192fa","3","1","66c5f76d9a214b469f6476c8","3","1","2025-08-01T18:36:17.905Z","","","","","","","","","","","ControlQ","","50","","","","","","","","","","","","","","","","","","","","","","","","","","","","",""
"1974","","<div style=""width:500px;"">
  <p>How would you describe your current emotional state?</p>
  </div>","95","html-slider-response","57","1645681","0.0-5.0-3.9","311","1","2025-08-01 18:07:03","1f75c3e559b7213887762d5229550c2b","171.79.56.60","Mozilla/5.0 (Windows NT 10.0; Win64; x64) AppleWebKit/537.36 (KHTML, like Gecko) Chrome/138.0.0.0 Safari/537.36","WebKit","Chrome","138.0.0.0","Windows","10.0","https://app.prolific.com/","en-GB,en-US;q=0.9,en;q=0.8,ta;q=0.7","66c5f76d9a214b469f6476c8","6877631c9844ddd5501205fc","688d01f343defaed966192fa","3","1","66c5f76d9a214b469f6476c8","3","1","2025-08-01T18:36:19.881Z","","","","","","","","","","","StressQ","","50","","","","","","","","","","","","","","","","","","","","","","","","","","","","",""
"2015","","<div style=""width:500px;"">
  <p>What best describes how you currently feel?</p>
  </div>","8","html-slider-response","58","1647697","0.0-5.0-4.9","311","1","2025-08-01 18:07:03","1f75c3e559b7213887762d5229550c2b","171.79.56.60","Mozilla/5.0 (Windows NT 10.0; Win64; x64) AppleWebKit/537.36 (KHTML, like Gecko) Chrome/138.0.0.0 Safari/537.36","WebKit","Chrome","138.0.0.0","Windows","10.0","https://app.prolific.com/","en-GB,en-US;q=0.9,en;q=0.8,ta;q=0.7","66c5f76d9a214b469f6476c8","6877631c9844ddd5501205fc","688d01f343defaed966192fa","3","1","66c5f76d9a214b469f6476c8","3","1","2025-08-01T18:36:21.897Z","","","","","","","","","","","MotivationQ","","50","","","","","","","","","","","","","","","","","","","","","","","","","","","","",""
"","","","","ctl-task-cpt","59","1689703","0.0-5.0-0.10","311","1","2025-08-01 18:07:03","1f75c3e559b7213887762d5229550c2b","171.79.56.60","Mozilla/5.0 (Windows NT 10.0; Win64; x64) AppleWebKit/537.36 (KHTML, like Gecko) Chrome/138.0.0.0 Safari/537.36","WebKit","Chrome","138.0.0.0","Windows","10.0","https://app.prolific.com/","en-GB,en-US;q=0.9,en;q=0.8,ta;q=0.7","66c5f76d9a214b469f6476c8","6877631c9844ddd5501205fc","688d01f343defaed966192fa","3","1","66c5f76d9a214b469f6476c8","3","1","2025-08-01T18:37:03.903Z","","","","","","","","","","","","","","win-only","2","g1:SE,g2:NW","0.5","11","0","1656091.9","1304.2","6306","38975.9","1","4","8","6","2","-8","-9","0","0","0","806.1","3000","-2565","[""left"",""up""]","{""num_key_presses"":9,""num_perfect"":5,""num_errors"":1,""num_randdir"":3,""num_randdir_good_moves"":1,""num_whilered"":0,""num_whileblue"":1,""num_blue"":2,""num_good_moves"":6}","[292.22232142857143,294.12857142857143,0.2,292.22232142857143,294.12857142857143,101.5,292.22232142857143,294.12857142857143,203.3,292.22232142857143,294.12857142857143,308.7,257.22232142857143,263.12857142857143,409.7,65.22232142857143,125.12857142857143,521,39.222321428571426,94.12857142857143,630,44.222321428571426,77.12857142857143,733.1,45.222321428571426,76.12857142857143,845.5,102.22232142857143,75.12857142857143,946.6,741.2223214285714,75.12857142857143,1047.8,978.2223214285714,88.12857142857143,1150.6,978.2223214285714,88.12857142857143,1255,978.2223214285714,88.12857142857143,1363.7,978.2223214285714,88.12857142857143,1464.8,978.2223214285714,88.12857142857143,1566.5,978.2223214285714,88.12857142857143,1673.4,978.2223214285714,88.12857142857143,1776.9,978.2223214285714,88.12857142857143,1877.3,978.2223214285714,88.12857142857143,1982.2,978.2223214285714,88.12857142857143,2086.9,978.2223214285714,88.12857142857143,2194.9,978.2223214285714,88.12857142857143,2296.5,978.2223214285714,88.12857142857143,2401.2,978.2223214285714,88.12857142857143,2501.9,978.2223214285714,88.12857142857143,2607.2,978.2223214285714,88.12857142857143,2711.5,978.2223214285714,88.12857142857143,2811.7,978.2223214285714,88.12857142857143,2911.8,978.2223214285714,88.12857142857143,3012.2,978.2223214285714,88.12857142857143,3116.8,978.2223214285714,88.12857142857143,3217.1,978.2223214285714,88.12857142857143,3318.4,978.2223214285714,88.12857142857143,3422.3,978.2223214285714,88.12857142857143,3528.1,978.2223214285714,88.12857142857143,3628.2,978.2223214285714,88.12857142857143,3732.7,978.2223214285714,88.12857142857143,3849.7,978.2223214285714,88.12857142857143,3951.7,978.2223214285714,88.12857142857143,4051.9,978.2223214285714,88.12857142857143,4151.9,978.2223214285714,88.12857142857143,4268.3,978.2223214285714,88.12857142857143,4371.1,978.2223214285714,88.12857142857143,4471.5,978.2223214285714,88.12857142857143,4579,978.2223214285714,88.12857142857143,4680.1,978.2223214285714,88.12857142857143,4780.3,978.2223214285714,88.12857142857143,4882,978.2223214285714,88.12857142857143,4982.1]","[1450.8,1450.8,1000,0,450.8,""smooth"",""left"",""left"",""good_move"",7951.9,6500.7,2933.7,4559.6,458.6,""smooth"",""left"",""left"",""good_move"",11094.3,3142.2,2669.5,7952.1,472.7,""oops"",""left"",""down"",""bad_move"",14289.8,3195.1,2774.2,11094.7,420.9,""smooth"",""left"",""left"",""good_move"",17178.2,2888.2,2468.8,14290,419.4,""smooth"",""up"",""up"",""good_move"",20362.4,3183.8,2698.6,17178.6,485.2,""oops"",""up"",""up"",""good_move"",23984.1,3621.5,3197.7,20362.6,423.8,""smooth"",""up"",""up"",""good_move"",26715.3,2731.1,2320.1,23984.2,411,""while_blue"",""up"",""down"",""bad_move"",30219.2,3503.5,3032.9,26715.7,470.6,""oops"",""up"",""right"",""bad_move""]","",""
"4265","","<div style=""width:500px;"">
  <p>What determined the result of this run?</p>
  </div>","6","html-slider-response","60","1693969","0.0-5.0-1.10","311","1","2025-08-01 18:07:03","1f75c3e559b7213887762d5229550c2b","171.79.56.60","Mozilla/5.0 (Windows NT 10.0; Win64; x64) AppleWebKit/537.36 (KHTML, like Gecko) Chrome/138.0.0.0 Safari/537.36","WebKit","Chrome","138.0.0.0","Windows","10.0","https://app.prolific.com/","en-GB,en-US;q=0.9,en;q=0.8,ta;q=0.7","66c5f76d9a214b469f6476c8","6877631c9844ddd5501205fc","688d01f343defaed966192fa","3","1","66c5f76d9a214b469f6476c8","3","1","2025-08-01T18:37:08.169Z","","","","","","","","","","","AttribQ","","50","","","","","","","","","","","","","","","","","","","","","","","","","","","","",""
"1798","","<div style=""width:500px;"">
  <p>How much control did you have over the ball?</p>
  </div>","4","html-slider-response","61","1695769","0.0-5.0-2.10","311","1","2025-08-01 18:07:03","1f75c3e559b7213887762d5229550c2b","171.79.56.60","Mozilla/5.0 (Windows NT 10.0; Win64; x64) AppleWebKit/537.36 (KHTML, like Gecko) Chrome/138.0.0.0 Safari/537.36","WebKit","Chrome","138.0.0.0","Windows","10.0","https://app.prolific.com/","en-GB,en-US;q=0.9,en;q=0.8,ta;q=0.7","66c5f76d9a214b469f6476c8","6877631c9844ddd5501205fc","688d01f343defaed966192fa","3","1","66c5f76d9a214b469f6476c8","3","1","2025-08-01T18:37:09.969Z","","","","","","","","","","","ControlQ","","50","","","","","","","","","","","","","","","","","","","","","","","","","","","","",""
"2471","","<div style=""width:500px;"">
  <p>How would you describe your current emotional state?</p>
  </div>","97","html-slider-response","62","1698242","0.0-5.0-3.10","311","1","2025-08-01 18:07:03","1f75c3e559b7213887762d5229550c2b","171.79.56.60","Mozilla/5.0 (Windows NT 10.0; Win64; x64) AppleWebKit/537.36 (KHTML, like Gecko) Chrome/138.0.0.0 Safari/537.36","WebKit","Chrome","138.0.0.0","Windows","10.0","https://app.prolific.com/","en-GB,en-US;q=0.9,en;q=0.8,ta;q=0.7","66c5f76d9a214b469f6476c8","6877631c9844ddd5501205fc","688d01f343defaed966192fa","3","1","66c5f76d9a214b469f6476c8","3","1","2025-08-01T18:37:12.442Z","","","","","","","","","","","StressQ","","50","","","","","","","","","","","","","","","","","","","","","","","","","","","","",""
"2622","","<div style=""width:500px;"">
  <p>What best describes how you currently feel?</p>
  </div>","8","html-slider-response","63","1700865","0.0-5.0-4.10","311","1","2025-08-01 18:07:03","1f75c3e559b7213887762d5229550c2b","171.79.56.60","Mozilla/5.0 (Windows NT 10.0; Win64; x64) AppleWebKit/537.36 (KHTML, like Gecko) Chrome/138.0.0.0 Safari/537.36","WebKit","Chrome","138.0.0.0","Windows","10.0","https://app.prolific.com/","en-GB,en-US;q=0.9,en;q=0.8,ta;q=0.7","66c5f76d9a214b469f6476c8","6877631c9844ddd5501205fc","688d01f343defaed966192fa","3","1","66c5f76d9a214b469f6476c8","3","1","2025-08-01T18:37:15.066Z","","","","","","","","","","","MotivationQ","","50","","","","","","","","","","","","","","","","","","","","","","","","","","","","",""
"","","","","ctl-task-cpt","64","1793318","0.0-5.0-0.11","311","1","2025-08-01 18:07:03","1f75c3e559b7213887762d5229550c2b","171.79.56.60","Mozilla/5.0 (Windows NT 10.0; Win64; x64) AppleWebKit/537.36 (KHTML, like Gecko) Chrome/138.0.0.0 Safari/537.36","WebKit","Chrome","138.0.0.0","Windows","10.0","https://app.prolific.com/","en-GB,en-US;q=0.9,en;q=0.8,ta;q=0.7","66c5f76d9a214b469f6476c8","6877631c9844ddd5501205fc","688d01f343defaed966192fa","3","1","66c5f76d9a214b469f6476c8","3","1","2025-08-01T18:38:47.518Z","","","","","","","","","","","","","","win-only","2","g1:SE,g2:NW","0.6","12","0","1709261.5","932.7","5933.7","89411.1","1","4","4","6","2","4","4","4","0","0.030303030303030304","1330.4","3000","965","[""left"",""up""]","{""num_key_presses"":18,""num_perfect"":11,""num_errors"":0,""num_randdir"":7,""num_randdir_good_moves"":1,""num_whilered"":0,""num_whileblue"":0,""num_blue"":3,""num_good_moves"":12}","[294.22232142857143,294.12857142857143,0.2,294.22232142857143,294.12857142857143,104.3,294.22232142857143,294.12857142857143,206.6,294.22232142857143,294.12857142857143,310.1,294.22232142857143,294.12857142857143,413.3,278.22232142857143,284.12857142857143,522.4,492.22232142857143,424.12857142857143,627,715.2223214285714,563.1285714285714,729.7,569.2223214285714,521.1285714285714,835.6,287.22232142857143,218.12857142857143,940,164.22232142857143,101.12857142857143,1042.4,84.22232142857143,73.12857142857143,1147,72.22232142857143,73.12857142857143,1254.9,71.22232142857143,73.12857142857143,1355.2,72.22232142857143,73.12857142857143,1458.2,483.22232142857143,12.128571428571426,1559.8,978.2223214285714,-74.87142857142857,1661.3,978.2223214285714,-71.87142857142857,1763.8,978.2223214285714,-71.87142857142857,1873.7,978.2223214285714,-71.87142857142857,1973.9,978.2223214285714,-71.87142857142857,2076.4,978.2223214285714,-71.87142857142857,2178.2,978.2223214285714,-71.87142857142857,2285.5,978.2223214285714,-71.87142857142857,2387.3,978.2223214285714,-71.87142857142857,2497,978.2223214285714,-71.87142857142857,2604.2,978.2223214285714,-71.87142857142857,2707.8,978.2223214285714,-71.87142857142857,2813.6,978.2223214285714,-71.87142857142857,2918.4,978.2223214285714,-71.87142857142857,3020.7,978.2223214285714,-71.87142857142857,3123.4,978.2223214285714,-71.87142857142857,3227.1,978.2223214285714,-71.87142857142857,3336.2,978.2223214285714,-71.87142857142857,3439.6,978.2223214285714,-71.87142857142857,3539.9,978.2223214285714,-71.87142857142857,3648.8,978.2223214285714,-71.87142857142857,3755.5,978.2223214285714,-71.87142857142857,3858,978.2223214285714,-71.87142857142857,3969.2,978.2223214285714,-71.87142857142857,4070.6,978.2223214285714,-71.87142857142857,4175.3,978.2223214285714,-71.87142857142857,4279.8,978.2223214285714,-71.87142857142857,4389,978.2223214285714,-71.87142857142857,4491.2,978.2223214285714,-71.87142857142857,4601.1,978.2223214285714,-71.87142857142857,4707.1,978.2223214285714,-71.87142857142857,4809,978.2223214285714,-71.87142857142857,4909.1]","[1444.7,1444.7,1000,0,444.7,""smooth"",""left"",""left"",""good_move"",4423.5,2978.4,2558.5,1445.1,419.9,""smooth"",""left"",""left"",""good_move"",7508.5,3084.9,2602.6,4423.6,482.3,""oops"",""left"",""down"",""bad_move"",9803.8,2295.1,1629.8,7508.7,665.3,""smooth"",""left"",""left"",""good_move"",13026.3,3222.3,2728.9,9804,493.4,""smooth"",""up"",""up"",""good_move"",20027.8,7001.3,2465.1,16895.3,667.4,""oops"",""up"",""down"",""bad_move"",23195.8,3167.8,2728.9,20028,438.9,""oops"",""up"",""down"",""bad_move"",26379,3183,2535.4,23196,647.6,""smooth"",""up"",""up"",""good_move"",31626,5246.9,1283.9,26379.1,3963,""oops"",""up"",""down"",""bad_move"",35278.9,3652.8,3041.9,31626.1,610.9,""smooth"",""up"",""up"",""good_move"",47944.8,12665.8,2345.9,45087.7,511.2,""smooth"",""up"",""up"",""good_move"",53574.7,5629.8,3029.3,47944.9,2600.5,""oops"",""up"",""down"",""bad_move"",55859.6,2284.8,1578.5,53574.8,706.3,""smooth"",""up"",""up"",""good_move"",61740.3,5880.6,2603.8,55859.7,3276.8,""smooth"",""up"",""up"",""good_move"",67652.4,5911.5,2959.5,61740.9,2952,""smooth"",""up"",""up"",""good_move"",73887,6234.4,2334.5,67652.6,3899.9,""oops"",""up"",""down"",""bad_move"",76832.7,2945.6,2173.4,73887.1,772.3,""smooth"",""up"",""up"",""good_move"",82984.4,6151.4,3000.1,76833,3151.3,""oops"",""up"",""up"",""good_move""]","",""
"2878","","<div style=""width:500px;"">
  <p>What determined the result of this run?</p>
  </div>","67","html-slider-response","65","1796200","0.0-5.0-1.11","311","1","2025-08-01 18:07:03","1f75c3e559b7213887762d5229550c2b","171.79.56.60","Mozilla/5.0 (Windows NT 10.0; Win64; x64) AppleWebKit/537.36 (KHTML, like Gecko) Chrome/138.0.0.0 Safari/537.36","WebKit","Chrome","138.0.0.0","Windows","10.0","https://app.prolific.com/","en-GB,en-US;q=0.9,en;q=0.8,ta;q=0.7","66c5f76d9a214b469f6476c8","6877631c9844ddd5501205fc","688d01f343defaed966192fa","3","1","66c5f76d9a214b469f6476c8","3","1","2025-08-01T18:38:50.400Z","","","","","","","","","","","AttribQ","","50","","","","","","","","","","","","","","","","","","","","","","","","","","","","",""
"2653","","<div style=""width:500px;"">
  <p>How much control did you have over the ball?</p>
  </div>","27","html-slider-response","66","1798857","0.0-5.0-2.11","311","1","2025-08-01 18:07:03","1f75c3e559b7213887762d5229550c2b","171.79.56.60","Mozilla/5.0 (Windows NT 10.0; Win64; x64) AppleWebKit/537.36 (KHTML, like Gecko) Chrome/138.0.0.0 Safari/537.36","WebKit","Chrome","138.0.0.0","Windows","10.0","https://app.prolific.com/","en-GB,en-US;q=0.9,en;q=0.8,ta;q=0.7","66c5f76d9a214b469f6476c8","6877631c9844ddd5501205fc","688d01f343defaed966192fa","3","1","66c5f76d9a214b469f6476c8","3","1","2025-08-01T18:38:53.057Z","","","","","","","","","","","ControlQ","","50","","","","","","","","","","","","","","","","","","","","","","","","","","","","",""
"2157","","<div style=""width:500px;"">
  <p>How would you describe your current emotional state?</p>
  </div>","74","html-slider-response","67","1801018","0.0-5.0-3.11","311","1","2025-08-01 18:07:03","1f75c3e559b7213887762d5229550c2b","171.79.56.60","Mozilla/5.0 (Windows NT 10.0; Win64; x64) AppleWebKit/537.36 (KHTML, like Gecko) Chrome/138.0.0.0 Safari/537.36","WebKit","Chrome","138.0.0.0","Windows","10.0","https://app.prolific.com/","en-GB,en-US;q=0.9,en;q=0.8,ta;q=0.7","66c5f76d9a214b469f6476c8","6877631c9844ddd5501205fc","688d01f343defaed966192fa","3","1","66c5f76d9a214b469f6476c8","3","1","2025-08-01T18:38:55.218Z","","","","","","","","","","","StressQ","","50","","","","","","","","","","","","","","","","","","","","","","","","","","","","",""
"5219","","<div style=""width:500px;"">
  <p>What best describes how you currently feel?</p>
  </div>","69","html-slider-response","68","1806241","0.0-5.0-4.11","311","1","2025-08-01 18:07:03","1f75c3e559b7213887762d5229550c2b","171.79.56.60","Mozilla/5.0 (Windows NT 10.0; Win64; x64) AppleWebKit/537.36 (KHTML, like Gecko) Chrome/138.0.0.0 Safari/537.36","WebKit","Chrome","138.0.0.0","Windows","10.0","https://app.prolific.com/","en-GB,en-US;q=0.9,en;q=0.8,ta;q=0.7","66c5f76d9a214b469f6476c8","6877631c9844ddd5501205fc","688d01f343defaed966192fa","3","1","66c5f76d9a214b469f6476c8","3","1","2025-08-01T18:39:00.441Z","","","","","","","","","","","MotivationQ","","50","","","","","","","","","","","","","","","","","","","","","","","","","","","","",""
"","","","","ctl-task-cpt","69","1880371","0.0-5.0-0.12","311","1","2025-08-01 18:07:03","1f75c3e559b7213887762d5229550c2b","171.79.56.60","Mozilla/5.0 (Windows NT 10.0; Win64; x64) AppleWebKit/537.36 (KHTML, like Gecko) Chrome/138.0.0.0 Safari/537.36","WebKit","Chrome","138.0.0.0","Windows","10.0","https://app.prolific.com/","en-GB,en-US;q=0.9,en;q=0.8,ta;q=0.7","66c5f76d9a214b469f6476c8","6877631c9844ddd5501205fc","688d01f343defaed966192fa","3","1","66c5f76d9a214b469f6476c8","3","1","2025-08-01T18:40:14.571Z","","","","","","","","","","","","","","win-only","2","g1:SE,g2:NW","0.7","13","0","1814638.9","1539.2","6569.8","71104.4","1","4","4","6","2","4","4","8","4","0.06060606060606061","802.7","3000","2275","[""left"",""up""]","{""num_key_presses"":8,""num_perfect"":6,""num_errors"":0,""num_randdir"":2,""num_randdir_good_moves"":1,""num_whilered"":0,""num_whileblue"":0,""num_blue"":2,""num_good_moves"":7}","[294.22232142857143,299.12857142857143,0.1,294.22232142857143,299.12857142857143,132.6,294.22232142857143,299.12857142857143,255.7,294.22232142857143,299.12857142857143,374.9,110.22232142857143,159.12857142857143,498.8,45.222321428571426,81.12857142857143,621.5,36.222321428571426,75.12857142857143,741.3,35.222321428571426,75.12857142857143,862.7,57.222321428571426,75.12857142857143,991.7,735.2223214285714,6.128571428571426,1113.7,873.2223214285714,5.128571428571426,1233.4,873.2223214285714,5.128571428571426,1353.3,873.2223214285714,5.128571428571426,1470.5,873.2223214285714,5.128571428571426,1590.5,873.2223214285714,5.128571428571426,1708.5,873.2223214285714,5.128571428571426,1825.3,873.2223214285714,5.128571428571426,1941.6,873.2223214285714,5.128571428571426,2060,873.2223214285714,5.128571428571426,2174.3,873.2223214285714,5.128571428571426,2289.2,873.2223214285714,5.128571428571426,2406.9,873.2223214285714,5.128571428571426,2527.1,873.2223214285714,5.128571428571426,2644.5,873.2223214285714,5.128571428571426,2759.8,873.2223214285714,5.128571428571426,2874.7,873.2223214285714,5.128571428571426,2994.5,873.2223214285714,5.128571428571426,3114.5,873.2223214285714,5.128571428571426,3231.9,873.2223214285714,5.128571428571426,3350.6,873.2223214285714,5.128571428571426,3465.5,873.2223214285714,5.128571428571426,3583.8,873.2223214285714,5.128571428571426,3701.8,873.2223214285714,5.128571428571426,3816.8,873.2223214285714,5.128571428571426,3934.7,873.2223214285714,5.128571428571426,4047.8,873.2223214285714,5.128571428571426,4165,873.2223214285714,5.128571428571426,4282.4,873.2223214285714,5.128571428571426,4398.9,873.2223214285714,5.128571428571426,4516.9,873.2223214285714,5.128571428571426,4635.4,873.2223214285714,5.128571428571426,4752.9,873.2223214285714,5.128571428571426,4870.9,873.2223214285714,5.128571428571426,4990.6]","[5086.4,5086.4,2508.5,2053.5,524.4,""smooth"",""left"",""left"",""good_move"",12389.2,7302.3,2370.3,5086.9,4932,""smooth"",""left"",""left"",""good_move"",19929,7539.6,2810.1,12389.4,4729.5,""oops"",""left"",""down"",""bad_move"",22916.4,2987.3,2434.4,19929.1,552.9,""smooth"",""left"",""left"",""good_move"",33700.5,10783.8,2712.2,22916.7,8071.6,""smooth"",""up"",""up"",""good_move"",44572.3,10871.7,2396.9,33700.6,8474.8,""oops"",""up"",""up"",""good_move"",56840.9,12268.5,3947.1,44572.5,8321.4,""smooth"",""up"",""up"",""good_move"",64410.7,7569.6,2086.9,61903.2,420.6,""smooth"",""up"",""up"",""good_move""]","",""
"2925","","<div style=""width:500px;"">
  <p>What determined the result of this run?</p>
  </div>","80","html-slider-response","70","1883298","0.0-5.0-1.12","311","1","2025-08-01 18:07:03","1f75c3e559b7213887762d5229550c2b","171.79.56.60","Mozilla/5.0 (Windows NT 10.0; Win64; x64) AppleWebKit/537.36 (KHTML, like Gecko) Chrome/138.0.0.0 Safari/537.36","WebKit","Chrome","138.0.0.0","Windows","10.0","https://app.prolific.com/","en-GB,en-US;q=0.9,en;q=0.8,ta;q=0.7","66c5f76d9a214b469f6476c8","6877631c9844ddd5501205fc","688d01f343defaed966192fa","3","1","66c5f76d9a214b469f6476c8","3","1","2025-08-01T18:40:17.498Z","","","","","","","","","","","AttribQ","","50","","","","","","","","","","","","","","","","","","","","","","","","","","","","",""
"2076","","<div style=""width:500px;"">
  <p>How much control did you have over the ball?</p>
  </div>","64","html-slider-response","71","1885376","0.0-5.0-2.12","311","1","2025-08-01 18:07:03","1f75c3e559b7213887762d5229550c2b","171.79.56.60","Mozilla/5.0 (Windows NT 10.0; Win64; x64) AppleWebKit/537.36 (KHTML, like Gecko) Chrome/138.0.0.0 Safari/537.36","WebKit","Chrome","138.0.0.0","Windows","10.0","https://app.prolific.com/","en-GB,en-US;q=0.9,en;q=0.8,ta;q=0.7","66c5f76d9a214b469f6476c8","6877631c9844ddd5501205fc","688d01f343defaed966192fa","3","1","66c5f76d9a214b469f6476c8","3","1","2025-08-01T18:40:19.576Z","","","","","","","","","","","ControlQ","","50","","","","","","","","","","","","","","","","","","","","","","","","","","","","",""
"2295","","<div style=""width:500px;"">
  <p>How would you describe your current emotional state?</p>
  </div>","26","html-slider-response","72","1887672","0.0-5.0-3.12","311","1","2025-08-01 18:07:03","1f75c3e559b7213887762d5229550c2b","171.79.56.60","Mozilla/5.0 (Windows NT 10.0; Win64; x64) AppleWebKit/537.36 (KHTML, like Gecko) Chrome/138.0.0.0 Safari/537.36","WebKit","Chrome","138.0.0.0","Windows","10.0","https://app.prolific.com/","en-GB,en-US;q=0.9,en;q=0.8,ta;q=0.7","66c5f76d9a214b469f6476c8","6877631c9844ddd5501205fc","688d01f343defaed966192fa","3","1","66c5f76d9a214b469f6476c8","3","1","2025-08-01T18:40:21.873Z","","","","","","","","","","","StressQ","","50","","","","","","","","","","","","","","","","","","","","","","","","","","","","",""
"2607","","<div style=""width:500px;"">
  <p>What best describes how you currently feel?</p>
  </div>","66","html-slider-response","73","1890281","0.0-5.0-4.12","311","1","2025-08-01 18:07:03","1f75c3e559b7213887762d5229550c2b","171.79.56.60","Mozilla/5.0 (Windows NT 10.0; Win64; x64) AppleWebKit/537.36 (KHTML, like Gecko) Chrome/138.0.0.0 Safari/537.36","WebKit","Chrome","138.0.0.0","Windows","10.0","https://app.prolific.com/","en-GB,en-US;q=0.9,en;q=0.8,ta;q=0.7","66c5f76d9a214b469f6476c8","6877631c9844ddd5501205fc","688d01f343defaed966192fa","3","1","66c5f76d9a214b469f6476c8","3","1","2025-08-01T18:40:24.482Z","","","","","","","","","","","MotivationQ","","50","","","","","","","","","","","","","","","","","","","","","","","","","","","","",""
