"rt","response_timestamp","stimulus","response","trial_type","trial_index","time_elapsed","internal_node_id","run_id","condition","recorded_at","source_code_version","ip","user_agent","device","browser","browser_version","platform","platform_version","referer","accept_language","PROLIFIC_PID","STUDY_ID","SESSION_ID","WEEK","prolific_id","week","batch","realtime","success","responses","item_order","radio_event_ids","radio_event_times","key_event_times","mouse_event_times","straightlining","zigzagging","honeypot","eventType","view_history","slider_start","which_type","canvas_config","goals_layout","control_level","trial_number","tutorial_trial_number","trial_start_time","phase1_start_time","phase2_start_time","phase3_start_time","goal_1_value","goal_1_distance","goal_2_value","goal_2_distance","goal_selected","outcome","outcome_total","participant_final_score","participant_initial_score","participant_final_score_prop","goal_choice_rt","allocated_time","allocated_time_remaining","goal_direction","counts","mouse_movements","key_presses","question_order","question_id"
"5411","1752845557192","<p style='font-size:40px;line-height:1.25'><strong>Welcome to the experiment!</strong></p><p style='font-size:1.1em;line-height:1.25'>Thank you for participanting in our experiment again! You will be asked to play the Dysfunctional Ball Game again. We will briefly recap the rules before we start.</p><p style='font-size:1.1em;line-height:1.25'>Press <strong>Next</strong> to continue.</p>","0","custom-html-button-response","0","5417","0.0-0.0","132","1","2025-07-18 13:32:30","1f75c3e559b7213887762d5229550c2b","86.12.64.131","Mozilla/5.0 (X11; CrOS x86_64 14541.0.0) AppleWebKit/537.36 (KHTML, like Gecko) Chrome/137.0.0.0 Safari/537.36","WebKit","Chrome","137.0.0.0","ChromeOS","14541.0.0","https://app.prolific.com/","en-GB,en-US;q=0.9,en;q=0.8","674766f8e0307c4de164f7d6","683db7602f5db6a34d12d064","687a4ce2eade86a73dd5853d","1","674766f8e0307c4de164f7d6","1","","2025-07-18T13:32:37.194Z","","","","","","","","","","","","","","","","","","","","","","","","","","","","","","","","","","","","","","","","","",""
"8488","","","","fullscreen","1","14932","0.0-1.0","132","1","2025-07-18 13:32:30","1f75c3e559b7213887762d5229550c2b","86.12.64.131","Mozilla/5.0 (X11; CrOS x86_64 14541.0.0) AppleWebKit/537.36 (KHTML, like Gecko) Chrome/137.0.0.0 Safari/537.36","WebKit","Chrome","137.0.0.0","ChromeOS","14541.0.0","https://app.prolific.com/","en-GB,en-US;q=0.9,en;q=0.8","674766f8e0307c4de164f7d6","683db7602f5db6a34d12d064","687a4ce2eade86a73dd5853d","1","674766f8e0307c4de164f7d6","1","","","true","","","","","","","","","","","","","","","","","","","","","","","","","","","","","","","","","","","","","","","","",""
"7705","1752845574415","<p style='font-size:1.1em;line-height:1.25'>In the following, we will ask you a few questions relating to your feelings in the last 24 hours.<br></p><p style='font-size:1.1em;line-height:1.25'>Press the <strong>Next</strong> button to continue.</p>","0","custom-html-button-response","2","22640","0.0-2.0-0.0","132","1","2025-07-18 13:32:30","1f75c3e559b7213887762d5229550c2b","86.12.64.131","Mozilla/5.0 (X11; CrOS x86_64 14541.0.0) AppleWebKit/537.36 (KHTML, like Gecko) Chrome/137.0.0.0 Safari/537.36","WebKit","Chrome","137.0.0.0","ChromeOS","14541.0.0","https://app.prolific.com/","en-GB,en-US;q=0.9,en;q=0.8","674766f8e0307c4de164f7d6","683db7602f5db6a34d12d064","687a4ce2eade86a73dd5853d","1","674766f8e0307c4de164f7d6","1","","2025-07-18T13:32:54.416Z","","","","","","","","","","","","","","","","","","","","","","","","","","","","","","","","","","","","","","","","","",""
"67872.40000000596","","","","survey-template","3","90521","0.0-2.0-1.0","132","1","2025-07-18 13:32:30","1f75c3e559b7213887762d5229550c2b","86.12.64.131","Mozilla/5.0 (X11; CrOS x86_64 14541.0.0) AppleWebKit/537.36 (KHTML, like Gecko) Chrome/137.0.0.0 Safari/537.36","WebKit","Chrome","137.0.0.0","ChromeOS","14541.0.0","https://app.prolific.com/","en-GB,en-US;q=0.9,en;q=0.8","674766f8e0307c4de164f7d6","683db7602f5db6a34d12d064","687a4ce2eade86a73dd5853d","1","674766f8e0307c4de164f7d6","1","","2025-07-18T13:34:02.297Z","","{""Q01"":""1"",""Q02"":""0"",""Q03"":""0"",""Q04"":""2"",""Q05"":""0"",""Q06"":""1"",""Q07"":""1"",""Q08"":""0"",""Q09"":""1"",""Q10"":""2"",""Q11"":""1"",""Q12"":""0"",""Q13"":""5"",""Q14"":""0"",""Q15"":""0"",""Q16"":""0"",""Q17"":""1"",""Q18"":""0"",""Q19"":""0"",""Q20"":""1"",""Q21"":""1"",""Q22"":""1""}","[0,1,2,3,4,5,6,7,8,9,10,11,12,13,14,15,16,17,18,19,20,21]","[""Q01"",""Q02"",""Q03"",""Q04"",""Q05"",""Q06"",""Q07"",""Q08"",""Q09"",""Q10"",""Q11"",""Q12"",""Q13"",""Q14"",""Q15"",""Q16"",""Q17"",""Q18"",""Q19"",""Q20"",""Q21"",""Q22""]","[4005.9000000059605,5314.9000000059605,6795.5999999940395,10232.40000000596,12511.59999999404,16625.30000001192,19887.90000000596,22131.80000001192,25402.90000000596,28871.20000001788,31261.59999999404,34234.20000001788,36752.59999999404,38961.59999999404,42709.30000001192,47332.90000000596,49081.20000001788,50464.20000001788,55542.59999999404,59466.70000001788,63445.40000000596,66566.40000000596]","[]","[0.09999999403953552,4005.9000000059605,5314.9000000059605,6795.5999999940395,10232.40000000596,12511.59999999404,16625.30000001192,19887.90000000596,22131.80000001192,25402.90000000596,28871.20000001788,31261.59999999404,34234.20000001788,36752.59999999404,38961.59999999404,42709.30000001192,47332.90000000596,49081.20000001788,50464.20000001788,55542.59999999404,59466.70000001788,63445.40000000596,66566.40000000596,67865.09999999404]","0.45454545454545453","0.5714285714285714","0","drsp","","","","","","","","","","","","","","","","","","","","","","","","","","","","","","",""
"14649.59999999404","","","","survey-template","4","105174","0.0-2.0-2.0","132","1","2025-07-18 13:32:30","1f75c3e559b7213887762d5229550c2b","86.12.64.131","Mozilla/5.0 (X11; CrOS x86_64 14541.0.0) AppleWebKit/537.36 (KHTML, like Gecko) Chrome/137.0.0.0 Safari/537.36","WebKit","Chrome","137.0.0.0","ChromeOS","14541.0.0","https://app.prolific.com/","en-GB,en-US;q=0.9,en;q=0.8","674766f8e0307c4de164f7d6","683db7602f5db6a34d12d064","687a4ce2eade86a73dd5853d","1","674766f8e0307c4de164f7d6","1","","2025-07-18T13:34:16.950Z","","{""Q01"":""1"",""Q02"":""3"",""Q03"":""1""}","[0,1,2]","[""Q01"",""Q02"",""Q03""]","[6174.699999988079,9598.09999999404,13384.199999988079]","[]","[6174.699999988079,9598.09999999404,13384.199999988079,14647.199999988079]","0.6666666666666666","1","0","stress","","","","","","","","","","","","","","","","","","","","","","","","","","","","","","",""
"50824","","","","instructions","5","155999","0.0-3.0-0.0","132","1","2025-07-18 13:32:30","1f75c3e559b7213887762d5229550c2b","86.12.64.131","Mozilla/5.0 (X11; CrOS x86_64 14541.0.0) AppleWebKit/537.36 (KHTML, like Gecko) Chrome/137.0.0.0 Safari/537.36","WebKit","Chrome","137.0.0.0","ChromeOS","14541.0.0","https://app.prolific.com/","en-GB,en-US;q=0.9,en;q=0.8","674766f8e0307c4de164f7d6","683db7602f5db6a34d12d064","687a4ce2eade86a73dd5853d","1","674766f8e0307c4de164f7d6","1","","","","","","","","","","","","","","[{""page_index"":0,""viewing_time"":50823}]","","","","","","","","","","","","","","","","","","","","","","","","","","","","","",""
"15614","","<p>Before you start with this game please answer the following three questions yourself. </p>
  <p>Through this game, we measure several aspects of your cognitive performance, such as reaction times, multi-tasking capabilities </p>
  <p>and the ability to assess the situation you are in.</p>
  <p></p>
  <p><b>How good do you usually are in such tasks?</b></p>","75","html-slider-response","6","171631","0.0-4.0-0.0","132","1","2025-07-18 13:32:30","1f75c3e559b7213887762d5229550c2b","86.12.64.131","Mozilla/5.0 (X11; CrOS x86_64 14541.0.0) AppleWebKit/537.36 (KHTML, like Gecko) Chrome/137.0.0.0 Safari/537.36","WebKit","Chrome","137.0.0.0","ChromeOS","14541.0.0","https://app.prolific.com/","en-GB,en-US;q=0.9,en;q=0.8","674766f8e0307c4de164f7d6","683db7602f5db6a34d12d064","687a4ce2eade86a73dd5853d","1","674766f8e0307c4de164f7d6","1","","2025-07-18T13:35:23.407Z","","","","","","","","","","","PreSkillQ","","50","","","","","","","","","","","","","","","","","","","","","","","","","","","","",""
"4317","","<div style=""width:500px;"">
  <p>How well do you think you will perform in this task compared to other participants?</p>
  </div>","66","html-slider-response","7","175951","0.0-4.0-1.0","132","1","2025-07-18 13:32:30","1f75c3e559b7213887762d5229550c2b","86.12.64.131","Mozilla/5.0 (X11; CrOS x86_64 14541.0.0) AppleWebKit/537.36 (KHTML, like Gecko) Chrome/137.0.0.0 Safari/537.36","WebKit","Chrome","137.0.0.0","ChromeOS","14541.0.0","https://app.prolific.com/","en-GB,en-US;q=0.9,en;q=0.8","674766f8e0307c4de164f7d6","683db7602f5db6a34d12d064","687a4ce2eade86a73dd5853d","1","674766f8e0307c4de164f7d6","1","","2025-07-18T13:35:27.727Z","","","","","","","","","","","PrePerfQ","","50","","","","","","","","","","","","","","","","","","","","","","","","","","","","",""
"4998","","<div style=""width:500px;"">
  <p>What best describes how you currently feel?</p>
  </div>","56","html-slider-response","8","180952","0.0-4.0-2.0","132","1","2025-07-18 13:32:30","1f75c3e559b7213887762d5229550c2b","86.12.64.131","Mozilla/5.0 (X11; CrOS x86_64 14541.0.0) AppleWebKit/537.36 (KHTML, like Gecko) Chrome/137.0.0.0 Safari/537.36","WebKit","Chrome","137.0.0.0","ChromeOS","14541.0.0","https://app.prolific.com/","en-GB,en-US;q=0.9,en;q=0.8","674766f8e0307c4de164f7d6","683db7602f5db6a34d12d064","687a4ce2eade86a73dd5853d","1","674766f8e0307c4de164f7d6","1","","2025-07-18T13:35:32.728Z","","","","","","","","","","","PreMotivationQ","","50","","","","","","","","","","","","","","","","","","","","","","","","","","","","",""
"","","","","ctl-task-cpt","9","209387","0.0-5.0-0.0","132","1","2025-07-18 13:32:30","1f75c3e559b7213887762d5229550c2b","86.12.64.131","Mozilla/5.0 (X11; CrOS x86_64 14541.0.0) AppleWebKit/537.36 (KHTML, like Gecko) Chrome/137.0.0.0 Safari/537.36","WebKit","Chrome","137.0.0.0","ChromeOS","14541.0.0","https://app.prolific.com/","en-GB,en-US;q=0.9,en;q=0.8","674766f8e0307c4de164f7d6","683db7602f5db6a34d12d064","687a4ce2eade86a73dd5853d","1","674766f8e0307c4de164f7d6","1","","2025-07-18T13:36:01.164Z","","","","","","","","","","","","","","win-only","0","g1:NW,g2:SE","1","1","0","182475.5","7924.2","12925.8","25407.4","1","4","8","6","1","1","0","0","0","0","2459.4","3000","1655","[""left"",""up""]","{""num_key_presses"":5,""num_perfect"":4,""num_errors"":1,""num_randdir"":0,""num_randdir_good_moves"":0,""num_whilered"":0,""num_whileblue"":0,""num_blue"":0,""num_good_moves"":4}","[414.0714133126395,422.82142761775424,0.8,414.0714133126395,422.82142761775424,101.3,414.0714133126395,422.82142761775424,201.6,414.0714133126395,422.82142761775424,301.8,414.0714133126395,422.82142761775424,412,414.0714133126395,422.82142761775424,516.5,414.0714133126395,422.82142761775424,616.6,414.0714133126395,422.82142761775424,723.1,414.0714133126395,422.82142761775424,826.7,414.0714133126395,422.82142761775424,931.6,414.0714133126395,422.82142761775424,1031.7,414.0714133126395,422.82142761775424,1136.6,414.0714133126395,422.82142761775424,1236.8,284.0714133126395,379.07142761775424,1341.3,16.571413312639507,200.32142761775424,1441.9,82.8214133126395,174.07142761775424,1546.3,350.3214133126395,180.32142761775424,1646.3,306.5714133126395,141.57142761775424,1746.3,192.8214133126395,95.32142761775425,1851.3,162.8214133126395,94.07142761775425,1951.4,86.5714133126395,72.82142761775425,2051.8,76.5714133126395,72.82142761775425,2151.9,72.8214133126395,71.57142761775425,2252.1,65.3214133126395,71.57142761775425,2359.9,65.3214133126395,71.57142761775425,2476,65.3214133126395,71.57142761775425,2576.5,65.3214133126395,71.57142761775425,2676.7,65.3214133126395,71.57142761775425,2776.8,65.3214133126395,71.57142761775425,2876.8,65.3214133126395,71.57142761775425,2981.7,164.0714133126395,140.32142761775424,3082.5,484.0714133126395,419.07142761775424,3186.8,565.3214133126395,579.0714276177542,3287.4,565.3214133126395,579.0714276177542,3392,565.3214133126395,579.0714276177542,3497.2,565.3214133126395,579.0714276177542,3601.4,565.3214133126395,579.0714276177542,3702.7,565.3214133126395,579.0714276177542,3802.8,565.3214133126395,579.0714276177542,3906.7,565.3214133126395,579.0714276177542,4006.7,565.3214133126395,579.0714276177542,4111.3,565.3214133126395,579.0714276177542,4211.4,565.3214133126395,579.0714276177542,4311.5,565.3214133126395,579.0714276177542,4411.5,565.3214133126395,579.0714276177542,4511.5,565.3214133126395,579.0714276177542,4611.6,565.3214133126395,579.0714276177542,4711.7,565.3214133126395,579.0714276177542,4816.7,565.3214133126395,579.0714276177542,4916.7]","[576.3,576.3,1000,0.1,-423.7,""error"",""-"",""-"",""no_move"",4311.8,3735,2409.6,1580.1,322.1,""smooth"",""up"",""up"",""good_move"",6746.7,2433.9,2082.4,4312.8,351.5,""smooth"",""left"",""left"",""good_move"",9025.3,2277.4,1936.7,6747.9,340.7,""smooth"",""up"",""up"",""good_move"",12391.4,3365.3,2931.9,9026.1,433.4,""smooth"",""left"",""left"",""good_move""]","",""
"4653","","<div style=""width:500px;"">
  <p>What determined the result of this run?</p>
  </div>","89","html-slider-response","10","214043","0.0-5.0-1.0","132","1","2025-07-18 13:32:30","1f75c3e559b7213887762d5229550c2b","86.12.64.131","Mozilla/5.0 (X11; CrOS x86_64 14541.0.0) AppleWebKit/537.36 (KHTML, like Gecko) Chrome/137.0.0.0 Safari/537.36","WebKit","Chrome","137.0.0.0","ChromeOS","14541.0.0","https://app.prolific.com/","en-GB,en-US;q=0.9,en;q=0.8","674766f8e0307c4de164f7d6","683db7602f5db6a34d12d064","687a4ce2eade86a73dd5853d","1","674766f8e0307c4de164f7d6","1","","2025-07-18T13:36:05.820Z","","","","","","","","","","","AttribQ","","50","","","","","","","","","","","","","","","","","","","","","","","","","","","","",""
"3269","","<div style=""width:500px;"">
  <p>How much control did you have over the ball?</p>
  </div>","94","html-slider-response","11","217317","0.0-5.0-2.0","132","1","2025-07-18 13:32:30","1f75c3e559b7213887762d5229550c2b","86.12.64.131","Mozilla/5.0 (X11; CrOS x86_64 14541.0.0) AppleWebKit/537.36 (KHTML, like Gecko) Chrome/137.0.0.0 Safari/537.36","WebKit","Chrome","137.0.0.0","ChromeOS","14541.0.0","https://app.prolific.com/","en-GB,en-US;q=0.9,en;q=0.8","674766f8e0307c4de164f7d6","683db7602f5db6a34d12d064","687a4ce2eade86a73dd5853d","1","674766f8e0307c4de164f7d6","1","","2025-07-18T13:36:09.093Z","","","","","","","","","","","ControlQ","","50","","","","","","","","","","","","","","","","","","","","","","","","","","","","",""
"4311","","<div style=""width:500px;"">
  <p>How would you describe your current emotional state?</p>
  </div>","38","html-slider-response","12","221631","0.0-5.0-3.0","132","1","2025-07-18 13:32:30","1f75c3e559b7213887762d5229550c2b","86.12.64.131","Mozilla/5.0 (X11; CrOS x86_64 14541.0.0) AppleWebKit/537.36 (KHTML, like Gecko) Chrome/137.0.0.0 Safari/537.36","WebKit","Chrome","137.0.0.0","ChromeOS","14541.0.0","https://app.prolific.com/","en-GB,en-US;q=0.9,en;q=0.8","674766f8e0307c4de164f7d6","683db7602f5db6a34d12d064","687a4ce2eade86a73dd5853d","1","674766f8e0307c4de164f7d6","1","","2025-07-18T13:36:13.408Z","","","","","","","","","","","StressQ","","50","","","","","","","","","","","","","","","","","","","","","","","","","","","","",""
"5575","","<div style=""width:500px;"">
  <p>What best describes how you currently feel?</p>
  </div>","55","html-slider-response","13","227210","0.0-5.0-4.0","132","1","2025-07-18 13:32:30","1f75c3e559b7213887762d5229550c2b","86.12.64.131","Mozilla/5.0 (X11; CrOS x86_64 14541.0.0) AppleWebKit/537.36 (KHTML, like Gecko) Chrome/137.0.0.0 Safari/537.36","WebKit","Chrome","137.0.0.0","ChromeOS","14541.0.0","https://app.prolific.com/","en-GB,en-US;q=0.9,en;q=0.8","674766f8e0307c4de164f7d6","683db7602f5db6a34d12d064","687a4ce2eade86a73dd5853d","1","674766f8e0307c4de164f7d6","1","","2025-07-18T13:36:18.986Z","","","","","","","","","","","MotivationQ","","50","","","","","","","","","","","","","","","","","","","","","","","","","","","","",""
"","","","","ctl-task-cpt","14","259372","0.0-5.0-0.1","132","1","2025-07-18 13:32:30","1f75c3e559b7213887762d5229550c2b","86.12.64.131","Mozilla/5.0 (X11; CrOS x86_64 14541.0.0) AppleWebKit/537.36 (KHTML, like Gecko) Chrome/137.0.0.0 Safari/537.36","WebKit","Chrome","137.0.0.0","ChromeOS","14541.0.0","https://app.prolific.com/","en-GB,en-US;q=0.9,en;q=0.8","674766f8e0307c4de164f7d6","683db7602f5db6a34d12d064","687a4ce2eade86a73dd5853d","1","674766f8e0307c4de164f7d6","1","","2025-07-18T13:36:51.149Z","","","","","","","","","","","","","","win-only","0","g1:NW,g2:SE","0.9","2","0","228717.8","1625.3","6625.8","29150.8","1","4","4","6","2","4","4","4","0","0.030303030303030304","1872.3","3000","1065","[""down"",""right""]","{""num_key_presses"":6,""num_perfect"":6,""num_errors"":0,""num_randdir"":0,""num_randdir_good_moves"":0,""num_whilered"":0,""num_whileblue"":0,""num_blue"":2,""num_good_moves"":6}","[417.8214133126395,417.82142761775424,0.5,417.8214133126395,417.82142761775424,100,417.8214133126395,417.82142761775424,200.1,417.8214133126395,417.82142761775424,300.1,417.8214133126395,417.82142761775424,400.2,440.3214133126395,435.32142761775424,505,602.8214133126395,565.3214276177542,605.1,779.0714133126395,726.5714276177542,705.5,852.8214133126395,804.0714276177542,805.6,864.0714133126395,821.5714276177542,910.6,847.8214133126395,811.5714276177542,1010.6,825.3214133126395,797.8214276177542,1111.2,799.0714133126395,787.8214276177542,1215.8,794.0714133126395,785.3214276177542,1320.5,790.3214133126395,781.5714276177542,1425.5,790.3214133126395,781.5714276177542,1530.5,790.3214133126395,781.5714276177542,1635.1,790.3214133126395,781.5714276177542,1740.5,790.3214133126395,781.5714276177542,1840.5,790.3214133126395,781.5714276177542,1945.1,790.3214133126395,781.5714276177542,2045.4,790.3214133126395,781.5714276177542,2150.2,790.3214133126395,781.5714276177542,2250.2,790.3214133126395,781.5714276177542,2350.2,790.3214133126395,781.5714276177542,2455.3,790.3214133126395,781.5714276177542,2560.5,790.3214133126395,781.5714276177542,2665.2,790.3214133126395,781.5714276177542,2765.2,790.3214133126395,781.5714276177542,2865.3,790.3214133126395,781.5714276177542,2970.3,790.3214133126395,781.5714276177542,3075.2,790.3214133126395,781.5714276177542,3175.2,790.3214133126395,781.5714276177542,3275.2,790.3214133126395,781.5714276177542,3375.3,790.3214133126395,781.5714276177542,3480.3,790.3214133126395,781.5714276177542,3580.3,790.3214133126395,781.5714276177542,3685.1,790.3214133126395,781.5714276177542,3785.1,790.3214133126395,781.5714276177542,3885.2,790.3214133126395,781.5714276177542,3990.3,790.3214133126395,781.5714276177542,4090.4,790.3214133126395,781.5714276177542,4195.1,790.3214133126395,781.5714276177542,4295.1,790.3214133126395,781.5714276177542,4395.1,790.3214133126395,781.5714276177542,4496.8,790.3214133126395,781.5714276177542,4600.2,790.3214133126395,781.5714276177542,4705.2,790.3214133126395,781.5714276177542,4805.2,790.3214133126395,781.5714276177542,4905.3]","[4435.8,4435.8,2066.5,2004.7,364.6,""smooth"",""down"",""down"",""good_move"",7090.3,2653.7,2316.7,4436.6,337.1,""smooth"",""right"",""right"",""good_move"",9569.1,2478.3,2121.2,7090.9,357.1,""smooth"",""down"",""down"",""good_move"",16620.2,7050.7,3276.4,13064.6,279.2,""smooth"",""right"",""right"",""good_move"",19934.3,3313.9,3000.4,16620.4,313.6,""smooth"",""down"",""down"",""good_move"",22434.5,2499.9,2167.9,19934.6,332.1,""smooth"",""right"",""right"",""good_move""]","",""
"5129","","<div style=""width:500px;"">
  <p>What determined the result of this run?</p>
  </div>","79","html-slider-response","15","264503","0.0-5.0-1.1","132","1","2025-07-18 13:32:30","1f75c3e559b7213887762d5229550c2b","86.12.64.131","Mozilla/5.0 (X11; CrOS x86_64 14541.0.0) AppleWebKit/537.36 (KHTML, like Gecko) Chrome/137.0.0.0 Safari/537.36","WebKit","Chrome","137.0.0.0","ChromeOS","14541.0.0","https://app.prolific.com/","en-GB,en-US;q=0.9,en;q=0.8","674766f8e0307c4de164f7d6","683db7602f5db6a34d12d064","687a4ce2eade86a73dd5853d","1","674766f8e0307c4de164f7d6","1","","2025-07-18T13:36:56.279Z","","","","","","","","","","","AttribQ","","50","","","","","","","","","","","","","","","","","","","","","","","","","","","","",""
"2329","","<div style=""width:500px;"">
  <p>How much control did you have over the ball?</p>
  </div>","83","html-slider-response","16","266834","0.0-5.0-2.1","132","1","2025-07-18 13:32:30","1f75c3e559b7213887762d5229550c2b","86.12.64.131","Mozilla/5.0 (X11; CrOS x86_64 14541.0.0) AppleWebKit/537.36 (KHTML, like Gecko) Chrome/137.0.0.0 Safari/537.36","WebKit","Chrome","137.0.0.0","ChromeOS","14541.0.0","https://app.prolific.com/","en-GB,en-US;q=0.9,en;q=0.8","674766f8e0307c4de164f7d6","683db7602f5db6a34d12d064","687a4ce2eade86a73dd5853d","1","674766f8e0307c4de164f7d6","1","","2025-07-18T13:36:58.610Z","","","","","","","","","","","ControlQ","","50","","","","","","","","","","","","","","","","","","","","","","","","","","","","",""
"4111","","<div style=""width:500px;"">
  <p>How would you describe your current emotional state?</p>
  </div>","29","html-slider-response","17","270947","0.0-5.0-3.1","132","1","2025-07-18 13:32:30","1f75c3e559b7213887762d5229550c2b","86.12.64.131","Mozilla/5.0 (X11; CrOS x86_64 14541.0.0) AppleWebKit/537.36 (KHTML, like Gecko) Chrome/137.0.0.0 Safari/537.36","WebKit","Chrome","137.0.0.0","ChromeOS","14541.0.0","https://app.prolific.com/","en-GB,en-US;q=0.9,en;q=0.8","674766f8e0307c4de164f7d6","683db7602f5db6a34d12d064","687a4ce2eade86a73dd5853d","1","674766f8e0307c4de164f7d6","1","","2025-07-18T13:37:02.723Z","","","","","","","","","","","StressQ","","50","","","","","","","","","","","","","","","","","","","","","","","","","","","","",""
"2975","","<div style=""width:500px;"">
  <p>What best describes how you currently feel?</p>
  </div>","58","html-slider-response","18","273924","0.0-5.0-4.1","132","1","2025-07-18 13:32:30","1f75c3e559b7213887762d5229550c2b","86.12.64.131","Mozilla/5.0 (X11; CrOS x86_64 14541.0.0) AppleWebKit/537.36 (KHTML, like Gecko) Chrome/137.0.0.0 Safari/537.36","WebKit","Chrome","137.0.0.0","ChromeOS","14541.0.0","https://app.prolific.com/","en-GB,en-US;q=0.9,en;q=0.8","674766f8e0307c4de164f7d6","683db7602f5db6a34d12d064","687a4ce2eade86a73dd5853d","1","674766f8e0307c4de164f7d6","1","","2025-07-18T13:37:05.700Z","","","","","","","","","","","MotivationQ","","50","","","","","","","","","","","","","","","","","","","","","","","","","","","","",""
"","","","","ctl-task-cpt","19","321246","0.0-5.0-0.2","132","1","2025-07-18 13:32:30","1f75c3e559b7213887762d5229550c2b","86.12.64.131","Mozilla/5.0 (X11; CrOS x86_64 14541.0.0) AppleWebKit/537.36 (KHTML, like Gecko) Chrome/137.0.0.0 Safari/537.36","WebKit","Chrome","137.0.0.0","ChromeOS","14541.0.0","https://app.prolific.com/","en-GB,en-US;q=0.9,en;q=0.8","674766f8e0307c4de164f7d6","683db7602f5db6a34d12d064","687a4ce2eade86a73dd5853d","1","674766f8e0307c4de164f7d6","1","","2025-07-18T13:37:53.022Z","","","","","","","","","","","","","","win-only","1","g1:NE,g2:SW","0.8","3","0","275430.7","2010.2","7023.9","44310.9","1","4","8","6","2","8","8","12","4","0.09090909090909091","2162","3000","280","[""down"",""left""]","{""num_key_presses"":8,""num_perfect"":6,""num_errors"":0,""num_randdir"":2,""num_randdir_good_moves"":1,""num_whilered"":0,""num_whileblue"":0,""num_blue"":5,""num_good_moves"":7}","[416.5714133126395,414.07142761775424,0.3,416.5714133126395,414.07142761775424,100.2,416.5714133126395,414.07142761775424,200.3,416.5714133126395,414.07142761775424,305.6,416.5714133126395,414.07142761775424,411,416.5714133126395,414.07142761775424,515.5,502.8214133126395,337.82142761775424,616.1,611.5714133126395,265.32142761775424,720.6,661.5714133126395,249.07142761775424,821.3,331.5714133126395,477.82142761775424,926,155.3214133126395,619.0714276177542,1030.4,129.0714133126395,661.5714276177542,1130.8,-9.678586687360493,825.3214276177542,1230.8,-9.678586687360493,825.3214276177542,1331.2,-9.678586687360493,825.3214276177542,1435.6,-18.428586687360493,847.8214276177542,1535.6,-27.178586687360493,875.3214276177542,1635.7,-22.178586687360493,886.5714276177542,1741.7,14.071413312639507,850.3214276177542,1845.6,72.8214133126395,784.0714276177542,1946,80.3214133126395,776.5714276177542,2046,80.3214133126395,776.5714276177542,2151.1,80.3214133126395,776.5714276177542,2255.7,80.3214133126395,776.5714276177542,2363.2,80.3214133126395,776.5714276177542,2466.7,80.3214133126395,776.5714276177542,2570.8,80.3214133126395,776.5714276177542,2675.9,80.3214133126395,776.5714276177542,2780.3,80.3214133126395,776.5714276177542,2880.5,80.3214133126395,776.5714276177542,2980.6,80.3214133126395,776.5714276177542,3080.6,80.3214133126395,776.5714276177542,3186.1,80.3214133126395,776.5714276177542,3290.8,80.3214133126395,776.5714276177542,3391.2,80.3214133126395,776.5714276177542,3491.3,80.3214133126395,776.5714276177542,3591.9,80.3214133126395,776.5714276177542,3696,80.3214133126395,776.5714276177542,3800.6,80.3214133126395,776.5714276177542,3901,80.3214133126395,776.5714276177542,4006,80.3214133126395,776.5714276177542,4106,80.3214133126395,776.5714276177542,4206,80.3214133126395,776.5714276177542,4310.8,80.3214133126395,776.5714276177542,4410.8,80.3214133126395,776.5714276177542,4510.8,80.3214133126395,776.5714276177542,4615.6,80.3214133126395,776.5714276177542,4715.6,80.3214133126395,776.5714276177542,4816,80.3214133126395,776.5714276177542,4920.6]","[1355.6,1355.6,1000,0,355.7,""smooth"",""down"",""down"",""good_move"",2896,1539.9,1187.3,1356.2,352.6,""oops"",""left"",""left"",""good_move"",9221,6312.8,2349.6,6606.7,264.7,""smooth"",""left"",""left"",""good_move"",11894.8,2673.3,2338.5,9221.5,334.8,""oops"",""down"",""right"",""bad_move"",22295.8,10387.6,1902.2,20031.5,362.1,""smooth"",""down"",""down"",""good_move"",24647.6,2351.5,1802.6,22296.1,548.9,""smooth"",""left"",""left"",""good_move"",31191.8,6543.9,2364.9,28552.3,274.6,""smooth"",""down"",""down"",""good_move"",37199,6007,2543.1,34372,283.9,""smooth"",""left"",""left"",""good_move""]","",""
"6928","","<div style=""width:500px;"">
  <p>What determined the result of this run?</p>
  </div>","77","html-slider-response","20","328175","0.0-5.0-1.2","132","1","2025-07-18 13:32:30","1f75c3e559b7213887762d5229550c2b","86.12.64.131","Mozilla/5.0 (X11; CrOS x86_64 14541.0.0) AppleWebKit/537.36 (KHTML, like Gecko) Chrome/137.0.0.0 Safari/537.36","WebKit","Chrome","137.0.0.0","ChromeOS","14541.0.0","https://app.prolific.com/","en-GB,en-US;q=0.9,en;q=0.8","674766f8e0307c4de164f7d6","683db7602f5db6a34d12d064","687a4ce2eade86a73dd5853d","1","674766f8e0307c4de164f7d6","1","","2025-07-18T13:37:59.952Z","","","","","","","","","","","AttribQ","","50","","","","","","","","","","","","","","","","","","","","","","","","","","","","",""
"3413","","<div style=""width:500px;"">
  <p>How much control did you have over the ball?</p>
  </div>","77","html-slider-response","21","331590","0.0-5.0-2.2","132","1","2025-07-18 13:32:30","1f75c3e559b7213887762d5229550c2b","86.12.64.131","Mozilla/5.0 (X11; CrOS x86_64 14541.0.0) AppleWebKit/537.36 (KHTML, like Gecko) Chrome/137.0.0.0 Safari/537.36","WebKit","Chrome","137.0.0.0","ChromeOS","14541.0.0","https://app.prolific.com/","en-GB,en-US;q=0.9,en;q=0.8","674766f8e0307c4de164f7d6","683db7602f5db6a34d12d064","687a4ce2eade86a73dd5853d","1","674766f8e0307c4de164f7d6","1","","2025-07-18T13:38:03.367Z","","","","","","","","","","","ControlQ","","50","","","","","","","","","","","","","","","","","","","","","","","","","","","","",""
"4121","","<div style=""width:500px;"">
  <p>How would you describe your current emotional state?</p>
  </div>","27","html-slider-response","22","335714","0.0-5.0-3.2","132","1","2025-07-18 13:32:30","1f75c3e559b7213887762d5229550c2b","86.12.64.131","Mozilla/5.0 (X11; CrOS x86_64 14541.0.0) AppleWebKit/537.36 (KHTML, like Gecko) Chrome/137.0.0.0 Safari/537.36","WebKit","Chrome","137.0.0.0","ChromeOS","14541.0.0","https://app.prolific.com/","en-GB,en-US;q=0.9,en;q=0.8","674766f8e0307c4de164f7d6","683db7602f5db6a34d12d064","687a4ce2eade86a73dd5853d","1","674766f8e0307c4de164f7d6","1","","2025-07-18T13:38:07.490Z","","","","","","","","","","","StressQ","","50","","","","","","","","","","","","","","","","","","","","","","","","","","","","",""
"2451","","<div style=""width:500px;"">
  <p>What best describes how you currently feel?</p>
  </div>","61","html-slider-response","23","338166","0.0-5.0-4.2","132","1","2025-07-18 13:32:30","1f75c3e559b7213887762d5229550c2b","86.12.64.131","Mozilla/5.0 (X11; CrOS x86_64 14541.0.0) AppleWebKit/537.36 (KHTML, like Gecko) Chrome/137.0.0.0 Safari/537.36","WebKit","Chrome","137.0.0.0","ChromeOS","14541.0.0","https://app.prolific.com/","en-GB,en-US;q=0.9,en;q=0.8","674766f8e0307c4de164f7d6","683db7602f5db6a34d12d064","687a4ce2eade86a73dd5853d","1","674766f8e0307c4de164f7d6","1","","2025-07-18T13:38:09.942Z","","","","","","","","","","","MotivationQ","","50","","","","","","","","","","","","","","","","","","","","","","","","","","","","",""
"","","","","ctl-task-cpt","24","385412","0.0-5.0-0.3","132","1","2025-07-18 13:32:30","1f75c3e559b7213887762d5229550c2b","86.12.64.131","Mozilla/5.0 (X11; CrOS x86_64 14541.0.0) AppleWebKit/537.36 (KHTML, like Gecko) Chrome/137.0.0.0 Safari/537.36","WebKit","Chrome","137.0.0.0","ChromeOS","14541.0.0","https://app.prolific.com/","en-GB,en-US;q=0.9,en;q=0.8","674766f8e0307c4de164f7d6","683db7602f5db6a34d12d064","687a4ce2eade86a73dd5853d","1","674766f8e0307c4de164f7d6","1","","2025-07-18T13:38:57.188Z","","","","","","","","","","","","","","win-only","2","g1:SE,g2:NW","0.7","4","0","339672.8","2019.3","7029.9","44235.3","1","4","4","6","1","1","1","13","12","0.09848484848484848","1807.5","3000","185","[""down"",""right""]","{""num_key_presses"":8,""num_perfect"":5,""num_errors"":0,""num_randdir"":3,""num_randdir_good_moves"":1,""num_whilered"":0,""num_whileblue"":0,""num_blue"":4,""num_good_moves"":6}","[414.0714133126395,420.32142761775424,0.6,414.0714133126395,420.32142761775424,101.2,414.0714133126395,420.32142761775424,206.8,414.0714133126395,420.32142761775424,311,414.0714133126395,420.32142761775424,411,501.5714133126395,457.82142761775424,511,517.8214133126395,464.07142761775424,611,285.3214133126395,310.32142761775424,715.9,110.3214133126395,152.82142761775424,816.1,40.32141331263951,91.57142761775425,916.2,44.07141331263951,96.57142761775425,1016.3,476.5714133126395,441.57142761775424,1121,779.0714133126395,721.5714276177542,1221.1,854.0714133126395,820.3214276177542,1325.4,857.8214133126395,829.0714276177542,1427.9,840.3214133126395,809.0714276177542,1531.6,825.3214133126395,795.3214276177542,1637.3,809.0714133126395,787.8214276177542,1741.7,809.0714133126395,787.8214276177542,1842.4,809.0714133126395,787.8214276177542,1946.4,809.0714133126395,787.8214276177542,2046.4,809.0714133126395,787.8214276177542,2151.1,809.0714133126395,787.8214276177542,2257.3,809.0714133126395,787.8214276177542,2361.2,809.0714133126395,787.8214276177542,2461.3,809.0714133126395,787.8214276177542,2566.1,809.0714133126395,787.8214276177542,2671.1,809.0714133126395,787.8214276177542,2771.1,809.0714133126395,787.8214276177542,2871.2,809.0714133126395,787.8214276177542,2972.1,809.0714133126395,787.8214276177542,3076,809.0714133126395,787.8214276177542,3181,809.0714133126395,787.8214276177542,3286,809.0714133126395,787.8214276177542,3386,809.0714133126395,787.8214276177542,3486,809.0714133126395,787.8214276177542,3586.3,809.0714133126395,787.8214276177542,3686.8,809.0714133126395,787.8214276177542,3787.8,809.0714133126395,787.8214276177542,3891.1,809.0714133126395,787.8214276177542,3991.1,809.0714133126395,787.8214276177542,4096,809.0714133126395,787.8214276177542,4196.2,809.0714133126395,787.8214276177542,4301.1,809.0714133126395,787.8214276177542,4401.1,809.0714133126395,787.8214276177542,4501.1,809.0714133126395,787.8214276177542,4601.3,809.0714133126395,787.8214276177542,4701.9,809.0714133126395,787.8214276177542,4806,809.0714133126395,787.8214276177542,4906]","[1379.4,1379.4,1000,0,379.4,""smooth"",""down"",""down"",""good_move"",4977.4,3597.5,3233,1379.9,364.5,""smooth"",""right"",""right"",""good_move"",11640.5,6662.2,2729,8530.3,381.2,""oops"",""down"",""up"",""bad_move"",17034.8,5394,2177.7,14465.4,391.8,""oops"",""down"",""left"",""bad_move"",24012.4,6971.4,3190.3,20500.4,321.7,""smooth"",""down"",""down"",""good_move"",26963.6,2950.4,2539,24013.2,411.4,""oops"",""right"",""down"",""good_move"",29862.9,2898.9,2576.7,26964,322.2,""smooth"",""right"",""right"",""good_move"",37109.2,7245.9,3342.3,33466.3,300.6,""smooth"",""right"",""right"",""good_move""]","",""
"3667","","<div style=""width:500px;"">
  <p>What determined the result of this run?</p>
  </div>","69","html-slider-response","25","389081","0.0-5.0-1.3","132","1","2025-07-18 13:32:30","1f75c3e559b7213887762d5229550c2b","86.12.64.131","Mozilla/5.0 (X11; CrOS x86_64 14541.0.0) AppleWebKit/537.36 (KHTML, like Gecko) Chrome/137.0.0.0 Safari/537.36","WebKit","Chrome","137.0.0.0","ChromeOS","14541.0.0","https://app.prolific.com/","en-GB,en-US;q=0.9,en;q=0.8","674766f8e0307c4de164f7d6","683db7602f5db6a34d12d064","687a4ce2eade86a73dd5853d","1","674766f8e0307c4de164f7d6","1","","2025-07-18T13:39:00.857Z","","","","","","","","","","","AttribQ","","50","","","","","","","","","","","","","","","","","","","","","","","","","","","","",""
"4540","","<div style=""width:500px;"">
  <p>How much control did you have over the ball?</p>
  </div>","68","html-slider-response","26","393622","0.0-5.0-2.3","132","1","2025-07-18 13:32:30","1f75c3e559b7213887762d5229550c2b","86.12.64.131","Mozilla/5.0 (X11; CrOS x86_64 14541.0.0) AppleWebKit/537.36 (KHTML, like Gecko) Chrome/137.0.0.0 Safari/537.36","WebKit","Chrome","137.0.0.0","ChromeOS","14541.0.0","https://app.prolific.com/","en-GB,en-US;q=0.9,en;q=0.8","674766f8e0307c4de164f7d6","683db7602f5db6a34d12d064","687a4ce2eade86a73dd5853d","1","674766f8e0307c4de164f7d6","1","","2025-07-18T13:39:05.398Z","","","","","","","","","","","ControlQ","","50","","","","","","","","","","","","","","","","","","","","","","","","","","","","",""
"4490","","<div style=""width:500px;"">
  <p>How would you describe your current emotional state?</p>
  </div>","36","html-slider-response","27","398114","0.0-5.0-3.3","132","1","2025-07-18 13:32:30","1f75c3e559b7213887762d5229550c2b","86.12.64.131","Mozilla/5.0 (X11; CrOS x86_64 14541.0.0) AppleWebKit/537.36 (KHTML, like Gecko) Chrome/137.0.0.0 Safari/537.36","WebKit","Chrome","137.0.0.0","ChromeOS","14541.0.0","https://app.prolific.com/","en-GB,en-US;q=0.9,en;q=0.8","674766f8e0307c4de164f7d6","683db7602f5db6a34d12d064","687a4ce2eade86a73dd5853d","1","674766f8e0307c4de164f7d6","1","","2025-07-18T13:39:09.890Z","","","","","","","","","","","StressQ","","50","","","","","","","","","","","","","","","","","","","","","","","","","","","","",""
"3179","","<div style=""width:500px;"">
  <p>What best describes how you currently feel?</p>
  </div>","59","html-slider-response","28","401295","0.0-5.0-4.3","132","1","2025-07-18 13:32:30","1f75c3e559b7213887762d5229550c2b","86.12.64.131","Mozilla/5.0 (X11; CrOS x86_64 14541.0.0) AppleWebKit/537.36 (KHTML, like Gecko) Chrome/137.0.0.0 Safari/537.36","WebKit","Chrome","137.0.0.0","ChromeOS","14541.0.0","https://app.prolific.com/","en-GB,en-US;q=0.9,en;q=0.8","674766f8e0307c4de164f7d6","683db7602f5db6a34d12d064","687a4ce2eade86a73dd5853d","1","674766f8e0307c4de164f7d6","1","","2025-07-18T13:39:13.071Z","","","","","","","","","","","MotivationQ","","50","","","","","","","","","","","","","","","","","","","","","","","","","","","","",""
"","","","","ctl-task-cpt","29","423930","0.0-5.0-0.4","132","1","2025-07-18 13:32:30","1f75c3e559b7213887762d5229550c2b","86.12.64.131","Mozilla/5.0 (X11; CrOS x86_64 14541.0.0) AppleWebKit/537.36 (KHTML, like Gecko) Chrome/137.0.0.0 Safari/537.36","WebKit","Chrome","137.0.0.0","ChromeOS","14541.0.0","https://app.prolific.com/","en-GB,en-US;q=0.9,en;q=0.8","674766f8e0307c4de164f7d6","683db7602f5db6a34d12d064","687a4ce2eade86a73dd5853d","1","674766f8e0307c4de164f7d6","1","","2025-07-18T13:39:35.706Z","","","","","","","","","","","","","","win-only","2","g1:SE,g2:NW","0.6","5","0","402802.6","1716.8","6717.4","19617.5","1","4","4","6","1","1","1","14","13","0.10606060606060606","3135.2","3000","1555","[""down"",""right""]","{""num_key_presses"":4,""num_perfect"":4,""num_errors"":0,""num_randdir"":0,""num_randdir_good_moves"":0,""num_whilered"":0,""num_whileblue"":0,""num_blue"":1,""num_good_moves"":4}","[415.3214133126395,417.82142761775424,0.6,415.3214133126395,417.82142761775424,103.5,415.3214133126395,417.82142761775424,203.6,415.3214133126395,417.82142761775424,308.5,415.3214133126395,417.82142761775424,414.9,415.3214133126395,417.82142761775424,518.5,415.3214133126395,417.82142761775424,618.5,415.3214133126395,417.82142761775424,718.6,462.8214133126395,434.07142761775424,823.6,542.8214133126395,475.32142761775424,923.7,590.3214133126395,510.32142761775424,1024.1,612.8214133126395,532.8214276177542,1131,616.5714133126395,536.5714276177542,1231.5,616.5714133126395,536.5714276177542,1333.4,616.5714133126395,536.5714276177542,1433.5,616.5714133126395,536.5714276177542,1533.5,496.5714133126395,465.32142761775424,1633.5,332.8214133126395,340.32142761775424,1733.5,234.0714133126395,251.57142761775424,1838.5,211.5714133126395,214.07142761775424,1938.5,217.8214133126395,224.07142761775424,2038.5,524.0714133126395,472.82142761775424,2138.6,712.8214133126395,651.5714276177542,2245.9,762.8214133126395,724.0714276177542,2348.6,764.0714133126395,727.8214276177542,2448.7,765.3214133126395,731.5714276177542,2548.8,766.5714133126395,734.0714276177542,2653.6,766.5714133126395,734.0714276177542,2753.6,766.5714133126395,734.0714276177542,2858.5,766.5714133126395,734.0714276177542,2960.3,766.5714133126395,734.0714276177542,3063.7,766.5714133126395,734.0714276177542,3168.5,766.5714133126395,734.0714276177542,3268.5,766.5714133126395,734.0714276177542,3368.6,766.5714133126395,734.0714276177542,3468.6,766.5714133126395,734.0714276177542,3568.6,766.5714133126395,734.0714276177542,3674.1,766.5714133126395,734.0714276177542,3778.6,766.5714133126395,734.0714276177542,3878.6,766.5714133126395,734.0714276177542,3979.4,766.5714133126395,734.0714276177542,4083.4,766.5714133126395,734.0714276177542,4183.5,766.5714133126395,734.0714276177542,4283.6,766.5714133126395,734.0714276177542,4388.5,766.5714133126395,734.0714276177542,4489,766.5714133126395,734.0714276177542,4595.4,766.5714133126395,734.0714276177542,4698.5,766.5714133126395,734.0714276177542,4798.6,766.5714133126395,734.0714276177542,4898.6]","[4547.1,4547.1,2165,2002.9,379.2,""smooth"",""down"",""down"",""good_move"",7054.8,2507.2,2088.5,4547.6,418.7,""smooth"",""down"",""down"",""good_move"",9882.2,2827.3,2497.5,7054.9,329.8,""smooth"",""right"",""right"",""good_move"",12806.2,2923.6,2570.7,9882.6,352.9,""smooth"",""right"",""right"",""good_move""]","",""
"3747","","<div style=""width:500px;"">
  <p>What determined the result of this run?</p>
  </div>","80","html-slider-response","30","427678","0.0-5.0-1.4","132","1","2025-07-18 13:32:30","1f75c3e559b7213887762d5229550c2b","86.12.64.131","Mozilla/5.0 (X11; CrOS x86_64 14541.0.0) AppleWebKit/537.36 (KHTML, like Gecko) Chrome/137.0.0.0 Safari/537.36","WebKit","Chrome","137.0.0.0","ChromeOS","14541.0.0","https://app.prolific.com/","en-GB,en-US;q=0.9,en;q=0.8","674766f8e0307c4de164f7d6","683db7602f5db6a34d12d064","687a4ce2eade86a73dd5853d","1","674766f8e0307c4de164f7d6","1","","2025-07-18T13:39:39.454Z","","","","","","","","","","","AttribQ","","50","","","","","","","","","","","","","","","","","","","","","","","","","","","","",""
"2725","","<div style=""width:500px;"">
  <p>How much control did you have over the ball?</p>
  </div>","86","html-slider-response","31","430404","0.0-5.0-2.4","132","1","2025-07-18 13:32:30","1f75c3e559b7213887762d5229550c2b","86.12.64.131","Mozilla/5.0 (X11; CrOS x86_64 14541.0.0) AppleWebKit/537.36 (KHTML, like Gecko) Chrome/137.0.0.0 Safari/537.36","WebKit","Chrome","137.0.0.0","ChromeOS","14541.0.0","https://app.prolific.com/","en-GB,en-US;q=0.9,en;q=0.8","674766f8e0307c4de164f7d6","683db7602f5db6a34d12d064","687a4ce2eade86a73dd5853d","1","674766f8e0307c4de164f7d6","1","","2025-07-18T13:39:42.180Z","","","","","","","","","","","ControlQ","","50","","","","","","","","","","","","","","","","","","","","","","","","","","","","",""
"3784","","<div style=""width:500px;"">
  <p>How would you describe your current emotional state?</p>
  </div>","24","html-slider-response","32","434189","0.0-5.0-3.4","132","1","2025-07-18 13:32:30","1f75c3e559b7213887762d5229550c2b","86.12.64.131","Mozilla/5.0 (X11; CrOS x86_64 14541.0.0) AppleWebKit/537.36 (KHTML, like Gecko) Chrome/137.0.0.0 Safari/537.36","WebKit","Chrome","137.0.0.0","ChromeOS","14541.0.0","https://app.prolific.com/","en-GB,en-US;q=0.9,en;q=0.8","674766f8e0307c4de164f7d6","683db7602f5db6a34d12d064","687a4ce2eade86a73dd5853d","1","674766f8e0307c4de164f7d6","1","","2025-07-18T13:39:45.965Z","","","","","","","","","","","StressQ","","50","","","","","","","","","","","","","","","","","","","","","","","","","","","","",""
"3772","","<div style=""width:500px;"">
  <p>What best describes how you currently feel?</p>
  </div>","62","html-slider-response","33","437963","0.0-5.0-4.4","132","1","2025-07-18 13:32:30","1f75c3e559b7213887762d5229550c2b","86.12.64.131","Mozilla/5.0 (X11; CrOS x86_64 14541.0.0) AppleWebKit/537.36 (KHTML, like Gecko) Chrome/137.0.0.0 Safari/537.36","WebKit","Chrome","137.0.0.0","ChromeOS","14541.0.0","https://app.prolific.com/","en-GB,en-US;q=0.9,en;q=0.8","674766f8e0307c4de164f7d6","683db7602f5db6a34d12d064","687a4ce2eade86a73dd5853d","1","674766f8e0307c4de164f7d6","1","","2025-07-18T13:39:49.739Z","","","","","","","","","","","MotivationQ","","50","","","","","","","","","","","","","","","","","","","","","","","","","","","","",""
"","","","","ctl-task-cpt","34","474316","0.0-5.0-0.5","132","1","2025-07-18 13:32:30","1f75c3e559b7213887762d5229550c2b","86.12.64.131","Mozilla/5.0 (X11; CrOS x86_64 14541.0.0) AppleWebKit/537.36 (KHTML, like Gecko) Chrome/137.0.0.0 Safari/537.36","WebKit","Chrome","137.0.0.0","ChromeOS","14541.0.0","https://app.prolific.com/","en-GB,en-US;q=0.9,en;q=0.8","674766f8e0307c4de164f7d6","683db7602f5db6a34d12d064","687a4ce2eade86a73dd5853d","1","674766f8e0307c4de164f7d6","1","","2025-07-18T13:40:26.092Z","","","","","","","","","","","","","","win-only","2","g1:SE,g2:NW","0.5","6","0","439469.7","2486.7","7493","33342.2","1","4","8","6","1","1","1","15","14","0.11363636363636363","3339.2","3000","665","[""down"",""right""]","{""num_key_presses"":6,""num_perfect"":4,""num_errors"":0,""num_randdir"":2,""num_randdir_good_moves"":1,""num_whilered"":0,""num_whileblue"":0,""num_blue"":3,""num_good_moves"":5}","[416.5714133126395,422.82142761775424,0.4,416.5714133126395,422.82142761775424,103.7,416.5714133126395,422.82142761775424,203.7,416.5714133126395,422.82142761775424,311.6,416.5714133126395,422.82142761775424,412.5,416.5714133126395,422.82142761775424,514.3,416.5714133126395,422.82142761775424,616,416.5714133126395,422.82142761775424,718.7,390.3214133126395,394.07142761775424,823.6,336.5714133126395,329.07142761775424,924.1,325.3214133126395,306.57142761775424,1028.6,322.8214133126395,302.82142761775424,1129.6,322.8214133126395,302.82142761775424,1230.6,322.8214133126395,302.82142761775424,1333.6,149.0714133126395,199.07142761775424,1435.9,101.5714133126395,162.82142761775424,1539.6,96.5714133126395,152.82142761775424,1640.1,101.5714133126395,151.57142761775424,1746.9,191.5714133126395,207.82142761775424,1848.7,237.8214133126395,267.82142761775424,1953.6,250.3214133126395,312.82142761775424,2053.6,250.3214133126395,312.82142761775424,2153.6,452.8214133126395,521.5714276177542,2253.6,689.0714133126395,785.3214276177542,2354.1,695.3214133126395,787.8214276177542,2459.1,695.3214133126395,787.8214276177542,2559.7,695.3214133126395,787.8214276177542,2663.8,841.5714133126395,792.8214276177542,2766,841.5714133126395,791.5714276177542,2869,839.0714133126395,790.3214276177542,2971.9,812.8214133126395,777.8214276177542,3078.4,804.0714133126395,775.3214276177542,3181.7,799.0714133126395,774.0714276177542,3283.6,799.0714133126395,774.0714276177542,3393.3,799.0714133126395,774.0714276177542,3496.2,799.0714133126395,774.0714276177542,3598.7,799.0714133126395,774.0714276177542,3699.8,799.0714133126395,774.0714276177542,3804.4,799.0714133126395,774.0714276177542,3904.7,799.0714133126395,774.0714276177542,4005,799.0714133126395,774.0714276177542,4109,799.0714133126395,774.0714276177542,4220.8,799.0714133126395,774.0714276177542,4324.7,799.0714133126395,774.0714276177542,4425.9,799.0714133126395,774.0714276177542,4528.6,799.0714133126395,774.0714276177542,4629.4,799.0714133126395,774.0714276177542,4733.6,799.0714133126395,774.0714276177542,4833.6,799.0714133126395,774.0714276177542,4936.4]","[1725.7,1725.7,1000,0,725.7,""oops"",""down"",""left"",""bad_move"",7347.9,5618.4,2264.8,4740.4,342.7,""smooth"",""right"",""right"",""good_move"",10141.1,2792.8,2349.3,7348.3,443.5,""smooth"",""down"",""down"",""good_move"",17202.4,7059.9,2460.8,14377.9,363.7,""smooth"",""right"",""right"",""good_move"",19496,2292.7,1856.7,17203.3,436,""oops"",""down"",""down"",""good_move"",25751.1,6254.6,2873.5,22557.8,319.9,""smooth"",""right"",""right"",""good_move""]","",""
"6348","","<div style=""width:500px;"">
  <p>What determined the result of this run?</p>
  </div>","75","html-slider-response","35","480666","0.0-5.0-1.5","132","1","2025-07-18 13:32:30","1f75c3e559b7213887762d5229550c2b","86.12.64.131","Mozilla/5.0 (X11; CrOS x86_64 14541.0.0) AppleWebKit/537.36 (KHTML, like Gecko) Chrome/137.0.0.0 Safari/537.36","WebKit","Chrome","137.0.0.0","ChromeOS","14541.0.0","https://app.prolific.com/","en-GB,en-US;q=0.9,en;q=0.8","674766f8e0307c4de164f7d6","683db7602f5db6a34d12d064","687a4ce2eade86a73dd5853d","1","674766f8e0307c4de164f7d6","1","","2025-07-18T13:40:32.442Z","","","","","","","","","","","AttribQ","","50","","","","","","","","","","","","","","","","","","","","","","","","","","","","",""
"3295","","<div style=""width:500px;"">
  <p>How much control did you have over the ball?</p>
  </div>","73","html-slider-response","36","483962","0.0-5.0-2.5","132","1","2025-07-18 13:32:30","1f75c3e559b7213887762d5229550c2b","86.12.64.131","Mozilla/5.0 (X11; CrOS x86_64 14541.0.0) AppleWebKit/537.36 (KHTML, like Gecko) Chrome/137.0.0.0 Safari/537.36","WebKit","Chrome","137.0.0.0","ChromeOS","14541.0.0","https://app.prolific.com/","en-GB,en-US;q=0.9,en;q=0.8","674766f8e0307c4de164f7d6","683db7602f5db6a34d12d064","687a4ce2eade86a73dd5853d","1","674766f8e0307c4de164f7d6","1","","2025-07-18T13:40:35.738Z","","","","","","","","","","","ControlQ","","50","","","","","","","","","","","","","","","","","","","","","","","","","","","","",""
"3146","","<div style=""width:500px;"">
  <p>How would you describe your current emotional state?</p>
  </div>","25","html-slider-response","37","487109","0.0-5.0-3.5","132","1","2025-07-18 13:32:30","1f75c3e559b7213887762d5229550c2b","86.12.64.131","Mozilla/5.0 (X11; CrOS x86_64 14541.0.0) AppleWebKit/537.36 (KHTML, like Gecko) Chrome/137.0.0.0 Safari/537.36","WebKit","Chrome","137.0.0.0","ChromeOS","14541.0.0","https://app.prolific.com/","en-GB,en-US;q=0.9,en;q=0.8","674766f8e0307c4de164f7d6","683db7602f5db6a34d12d064","687a4ce2eade86a73dd5853d","1","674766f8e0307c4de164f7d6","1","","2025-07-18T13:40:38.885Z","","","","","","","","","","","StressQ","","50","","","","","","","","","","","","","","","","","","","","","","","","","","","","",""
"4073","","<div style=""width:500px;"">
  <p>What best describes how you currently feel?</p>
  </div>","62","html-slider-response","38","491183","0.0-5.0-4.5","132","1","2025-07-18 13:32:30","1f75c3e559b7213887762d5229550c2b","86.12.64.131","Mozilla/5.0 (X11; CrOS x86_64 14541.0.0) AppleWebKit/537.36 (KHTML, like Gecko) Chrome/137.0.0.0 Safari/537.36","WebKit","Chrome","137.0.0.0","ChromeOS","14541.0.0","https://app.prolific.com/","en-GB,en-US;q=0.9,en;q=0.8","674766f8e0307c4de164f7d6","683db7602f5db6a34d12d064","687a4ce2eade86a73dd5853d","1","674766f8e0307c4de164f7d6","1","","2025-07-18T13:40:42.959Z","","","","","","","","","","","MotivationQ","","50","","","","","","","","","","","","","","","","","","","","","","","","","","","","",""
"","","","","ctl-task-cpt","39","529515","0.0-5.0-0.6","132","1","2025-07-18 13:32:30","1f75c3e559b7213887762d5229550c2b","86.12.64.131","Mozilla/5.0 (X11; CrOS x86_64 14541.0.0) AppleWebKit/537.36 (KHTML, like Gecko) Chrome/137.0.0.0 Safari/537.36","WebKit","Chrome","137.0.0.0","ChromeOS","14541.0.0","https://app.prolific.com/","en-GB,en-US;q=0.9,en;q=0.8","674766f8e0307c4de164f7d6","683db7602f5db6a34d12d064","687a4ce2eade86a73dd5853d","1","674766f8e0307c4de164f7d6","1","","2025-07-18T13:41:21.291Z","","","","","","","","","","","","","","win-only","2","g1:SE,g2:NW","0.4","7","0","492689.9","1525.1","6526","35320.8","1","4","8","6","1","-1","-1","14","15","0.10606060606060606","1982.8","3000","-2875","[""down"",""right""]","{""num_key_presses"":10,""num_perfect"":4,""num_errors"":0,""num_randdir"":6,""num_randdir_good_moves"":2,""num_whilered"":0,""num_whileblue"":0,""num_blue"":0,""num_good_moves"":6}","[414.0714133126395,417.82142761775424,0.9,414.0714133126395,417.82142761775424,102.5,414.0714133126395,417.82142761775424,205.6,414.0714133126395,417.82142761775424,307.3,414.0714133126395,417.82142761775424,415.5,414.0714133126395,417.82142761775424,518.4,414.0714133126395,417.82142761775424,620.3,414.0714133126395,417.82142761775424,720.4,414.0714133126395,417.82142761775424,820.5,507.8214133126395,481.57142761775424,925.3,629.0714133126395,646.5714276177542,1026.1,642.8214133126395,691.5714276177542,1129.1,642.8214133126395,691.5714276177542,1230.9,642.8214133126395,691.5714276177542,1330.9,682.8214133126395,720.3214276177542,1437.7,704.0714133126395,734.0714276177542,1542.1,711.5714133126395,739.0714276177542,1643.7,741.5714133126395,764.0714276177542,1744.6,751.5714133126395,774.0714276177542,1846.9,751.5714133126395,774.0714276177542,1950.4,751.5714133126395,774.0714276177542,2051.9,751.5714133126395,774.0714276177542,2156,751.5714133126395,774.0714276177542,2259,751.5714133126395,774.0714276177542,2366.7,751.5714133126395,774.0714276177542,2473.4,751.5714133126395,774.0714276177542,2581,751.5714133126395,774.0714276177542,2694.4,751.5714133126395,774.0714276177542,2795.1,751.5714133126395,774.0714276177542,2896.6,751.5714133126395,774.0714276177542,2998.9,751.5714133126395,774.0714276177542,3100.4,751.5714133126395,774.0714276177542,3200.4,751.5714133126395,774.0714276177542,3310.4,751.5714133126395,774.0714276177542,3415.2,751.5714133126395,774.0714276177542,3518.5,751.5714133126395,774.0714276177542,3624.5,751.5714133126395,774.0714276177542,3725.3,751.5714133126395,774.0714276177542,3825.5,751.5714133126395,774.0714276177542,3925.8,751.5714133126395,774.0714276177542,4030.3,751.5714133126395,774.0714276177542,4130.3,751.5714133126395,774.0714276177542,4236.1,751.5714133126395,774.0714276177542,4336.7,751.5714133126395,774.0714276177542,4439.3,751.5714133126395,774.0714276177542,4543.5,751.5714133126395,774.0714276177542,4648.2,751.5714133126395,774.0714276177542,4750.4,751.5714133126395,774.0714276177542,4853.3,751.5714133126395,774.0714276177542,4958]","[1372.9,1372.9,1000,0,372.9,""smooth"",""down"",""down"",""good_move"",4311.7,2936.8,2631.6,1374.9,305.2,""smooth"",""down"",""down"",""good_move"",7624,3311.6,2928.6,4312.4,383,""smooth"",""right"",""right"",""good_move"",10227.4,2602.6,2278,7624.8,324.6,""oops"",""right"",""up"",""bad_move"",12589.4,2361.1,2035.7,10228.3,325.4,""oops"",""right"",""up"",""bad_move"",14767.8,2178,1803,12589.8,375,""oops"",""down"",""left"",""bad_move"",17725.8,2957.3,2629.2,14768.5,328.1,""oops"",""right"",""down"",""good_move"",20659,2932.6,2628.8,17726.5,303.8,""oops"",""right"",""down"",""good_move"",23737.4,3076.7,2715.3,20660.7,361.4,""smooth"",""right"",""right"",""good_move"",26321.6,2583.5,2241.4,23738.1,342.1,""oops"",""right"",""up"",""bad_move""]","",""
"6096","","<div style=""width:500px;"">
  <p>What determined the result of this run?</p>
  </div>","35","html-slider-response","40","535612","0.0-5.0-1.6","132","1","2025-07-18 13:32:30","1f75c3e559b7213887762d5229550c2b","86.12.64.131","Mozilla/5.0 (X11; CrOS x86_64 14541.0.0) AppleWebKit/537.36 (KHTML, like Gecko) Chrome/137.0.0.0 Safari/537.36","WebKit","Chrome","137.0.0.0","ChromeOS","14541.0.0","https://app.prolific.com/","en-GB,en-US;q=0.9,en;q=0.8","674766f8e0307c4de164f7d6","683db7602f5db6a34d12d064","687a4ce2eade86a73dd5853d","1","674766f8e0307c4de164f7d6","1","","2025-07-18T13:41:27.388Z","","","","","","","","","","","AttribQ","","50","","","","","","","","","","","","","","","","","","","","","","","","","","","","",""
"2819","","<div style=""width:500px;"">
  <p>How much control did you have over the ball?</p>
  </div>","14","html-slider-response","41","538433","0.0-5.0-2.6","132","1","2025-07-18 13:32:30","1f75c3e559b7213887762d5229550c2b","86.12.64.131","Mozilla/5.0 (X11; CrOS x86_64 14541.0.0) AppleWebKit/537.36 (KHTML, like Gecko) Chrome/137.0.0.0 Safari/537.36","WebKit","Chrome","137.0.0.0","ChromeOS","14541.0.0","https://app.prolific.com/","en-GB,en-US;q=0.9,en;q=0.8","674766f8e0307c4de164f7d6","683db7602f5db6a34d12d064","687a4ce2eade86a73dd5853d","1","674766f8e0307c4de164f7d6","1","","2025-07-18T13:41:30.209Z","","","","","","","","","","","ControlQ","","50","","","","","","","","","","","","","","","","","","","","","","","","","","","","",""
"4496","","<div style=""width:500px;"">
  <p>How would you describe your current emotional state?</p>
  </div>","44","html-slider-response","42","542932","0.0-5.0-3.6","132","1","2025-07-18 13:32:30","1f75c3e559b7213887762d5229550c2b","86.12.64.131","Mozilla/5.0 (X11; CrOS x86_64 14541.0.0) AppleWebKit/537.36 (KHTML, like Gecko) Chrome/137.0.0.0 Safari/537.36","WebKit","Chrome","137.0.0.0","ChromeOS","14541.0.0","https://app.prolific.com/","en-GB,en-US;q=0.9,en;q=0.8","674766f8e0307c4de164f7d6","683db7602f5db6a34d12d064","687a4ce2eade86a73dd5853d","1","674766f8e0307c4de164f7d6","1","","2025-07-18T13:41:34.708Z","","","","","","","","","","","StressQ","","50","","","","","","","","","","","","","","","","","","","","","","","","","","","","",""
"3076","","<div style=""width:500px;"">
  <p>What best describes how you currently feel?</p>
  </div>","64","html-slider-response","43","546010","0.0-5.0-4.6","132","1","2025-07-18 13:32:30","1f75c3e559b7213887762d5229550c2b","86.12.64.131","Mozilla/5.0 (X11; CrOS x86_64 14541.0.0) AppleWebKit/537.36 (KHTML, like Gecko) Chrome/137.0.0.0 Safari/537.36","WebKit","Chrome","137.0.0.0","ChromeOS","14541.0.0","https://app.prolific.com/","en-GB,en-US;q=0.9,en;q=0.8","674766f8e0307c4de164f7d6","683db7602f5db6a34d12d064","687a4ce2eade86a73dd5853d","1","674766f8e0307c4de164f7d6","1","","2025-07-18T13:41:37.786Z","","","","","","","","","","","MotivationQ","","50","","","","","","","","","","","","","","","","","","","","","","","","","","","","",""
"","","","","ctl-task-cpt","44","575372","0.0-5.0-0.7","132","1","2025-07-18 13:32:30","1f75c3e559b7213887762d5229550c2b","86.12.64.131","Mozilla/5.0 (X11; CrOS x86_64 14541.0.0) AppleWebKit/537.36 (KHTML, like Gecko) Chrome/137.0.0.0 Safari/537.36","WebKit","Chrome","137.0.0.0","ChromeOS","14541.0.0","https://app.prolific.com/","en-GB,en-US;q=0.9,en;q=0.8","674766f8e0307c4de164f7d6","683db7602f5db6a34d12d064","687a4ce2eade86a73dd5853d","1","674766f8e0307c4de164f7d6","1","","2025-07-18T13:42:07.148Z","","","","","","","","","","","","","","win-only","0","g1:NW,g2:SE","0.3","8","0","547516.5","1361.2","6361.5","26355.2","1","4","4","6","1","1","1","15","14","0.11363636363636363","2501","3000","910","[""left"",""up""]","{""num_key_presses"":8,""num_perfect"":3,""num_errors"":0,""num_randdir"":5,""num_randdir_good_moves"":3,""num_whilered"":0,""num_whileblue"":0,""num_blue"":0,""num_good_moves"":6}","[421.5714133126395,422.82142761775424,0.1,421.5714133126395,422.82142761775424,102.7,421.5714133126395,422.82142761775424,204.6,421.5714133126395,422.82142761775424,305.8,421.5714133126395,422.82142761775424,409.8,421.5714133126395,422.82142761775424,509.8,421.5714133126395,422.82142761775424,615,421.5714133126395,422.82142761775424,722.6,421.5714133126395,422.82142761775424,825.4,421.5714133126395,422.82142761775424,929,421.5714133126395,422.82142761775424,1030.1,314.0714133126395,330.32142761775424,1138.6,220.3214133126395,251.57142761775424,1239.7,184.0714133126395,212.82142761775424,1340.9,139.0714133126395,141.57142761775424,1448,125.3214133126395,122.82142761775425,1550.7,125.3214133126395,121.57142761775425,1654.5,125.3214133126395,121.57142761775425,1756.5,125.3214133126395,121.57142761775425,1859.3,112.8214133126395,97.82142761775425,1961.2,112.8214133126395,97.82142761775425,2068.1,112.8214133126395,97.82142761775425,2171.4,112.8214133126395,97.82142761775425,2274.1,112.8214133126395,97.82142761775425,2376.8,112.8214133126395,97.82142761775425,2479,112.8214133126395,97.82142761775425,2582.1,112.8214133126395,97.82142761775425,2682.7,112.8214133126395,97.82142761775425,2784.6,112.8214133126395,97.82142761775425,2885.3,112.8214133126395,97.82142761775425,2987.6,112.8214133126395,97.82142761775425,3089.1,112.8214133126395,97.82142761775425,3191.5,112.8214133126395,97.82142761775425,3293.4,112.8214133126395,97.82142761775425,3394.1,112.8214133126395,97.82142761775425,3494.7,112.8214133126395,97.82142761775425,3594.9,112.8214133126395,97.82142761775425,3698,112.8214133126395,97.82142761775425,3812.6,112.8214133126395,97.82142761775425,3915,112.8214133126395,97.82142761775425,4021.8,112.8214133126395,97.82142761775425,4122.5,112.8214133126395,97.82142761775425,4227.2,112.8214133126395,97.82142761775425,4329.1,112.8214133126395,97.82142761775425,4429.1,112.8214133126395,97.82142761775425,4533.4,112.8214133126395,97.82142761775425,4633.6,112.8214133126395,97.82142761775425,4734.9,112.8214133126395,97.82142761775425,4838.4,112.8214133126395,97.82142761775425,4939.1]","[1305,1305,1000,0,305,""oops"",""up"",""down"",""bad_move"",4082.4,2776.8,2471.5,1305.6,305.3,""smooth"",""left"",""left"",""good_move"",6674,2591,2270.1,4083,320.9,""oops"",""up"",""right"",""bad_move"",9643.6,2969.1,2670.1,6674.5,299,""smooth"",""up"",""up"",""good_move"",11997,2352.5,2018.2,9644.5,334.3,""smooth"",""up"",""up"",""good_move"",14523.9,2526.7,2162.6,11997.2,364.1,""oops"",""up"",""left"",""good_move"",17549.8,3015.1,2663.1,14534.7,352,""oops"",""up"",""left"",""good_move"",19891.1,2341.2,2078.8,17550,262.4,""oops"",""up"",""up"",""good_move""]","",""
"5817","","<div style=""width:500px;"">
  <p>What determined the result of this run?</p>
  </div>","41","html-slider-response","45","581191","0.0-5.0-1.7","132","1","2025-07-18 13:32:30","1f75c3e559b7213887762d5229550c2b","86.12.64.131","Mozilla/5.0 (X11; CrOS x86_64 14541.0.0) AppleWebKit/537.36 (KHTML, like Gecko) Chrome/137.0.0.0 Safari/537.36","WebKit","Chrome","137.0.0.0","ChromeOS","14541.0.0","https://app.prolific.com/","en-GB,en-US;q=0.9,en;q=0.8","674766f8e0307c4de164f7d6","683db7602f5db6a34d12d064","687a4ce2eade86a73dd5853d","1","674766f8e0307c4de164f7d6","1","","2025-07-18T13:42:12.967Z","","","","","","","","","","","AttribQ","","50","","","","","","","","","","","","","","","","","","","","","","","","","","","","",""
"4323","","<div style=""width:500px;"">
  <p>How much control did you have over the ball?</p>
  </div>","50","html-slider-response","46","585515","0.0-5.0-2.7","132","1","2025-07-18 13:32:30","1f75c3e559b7213887762d5229550c2b","86.12.64.131","Mozilla/5.0 (X11; CrOS x86_64 14541.0.0) AppleWebKit/537.36 (KHTML, like Gecko) Chrome/137.0.0.0 Safari/537.36","WebKit","Chrome","137.0.0.0","ChromeOS","14541.0.0","https://app.prolific.com/","en-GB,en-US;q=0.9,en;q=0.8","674766f8e0307c4de164f7d6","683db7602f5db6a34d12d064","687a4ce2eade86a73dd5853d","1","674766f8e0307c4de164f7d6","1","","2025-07-18T13:42:17.291Z","","","","","","","","","","","ControlQ","","50","","","","","","","","","","","","","","","","","","","","","","","","","","","","",""
"5388","","<div style=""width:500px;"">
  <p>How would you describe your current emotional state?</p>
  </div>","36","html-slider-response","47","590905","0.0-5.0-3.7","132","1","2025-07-18 13:32:30","1f75c3e559b7213887762d5229550c2b","86.12.64.131","Mozilla/5.0 (X11; CrOS x86_64 14541.0.0) AppleWebKit/537.36 (KHTML, like Gecko) Chrome/137.0.0.0 Safari/537.36","WebKit","Chrome","137.0.0.0","ChromeOS","14541.0.0","https://app.prolific.com/","en-GB,en-US;q=0.9,en;q=0.8","674766f8e0307c4de164f7d6","683db7602f5db6a34d12d064","687a4ce2eade86a73dd5853d","1","674766f8e0307c4de164f7d6","1","","2025-07-18T13:42:22.681Z","","","","","","","","","","","StressQ","","50","","","","","","","","","","","","","","","","","","","","","","","","","","","","",""
"3227","","<div style=""width:500px;"">
  <p>What best describes how you currently feel?</p>
  </div>","62","html-slider-response","48","594133","0.0-5.0-4.7","132","1","2025-07-18 13:32:30","1f75c3e559b7213887762d5229550c2b","86.12.64.131","Mozilla/5.0 (X11; CrOS x86_64 14541.0.0) AppleWebKit/537.36 (KHTML, like Gecko) Chrome/137.0.0.0 Safari/537.36","WebKit","Chrome","137.0.0.0","ChromeOS","14541.0.0","https://app.prolific.com/","en-GB,en-US;q=0.9,en;q=0.8","674766f8e0307c4de164f7d6","683db7602f5db6a34d12d064","687a4ce2eade86a73dd5853d","1","674766f8e0307c4de164f7d6","1","","2025-07-18T13:42:25.910Z","","","","","","","","","","","MotivationQ","","50","","","","","","","","","","","","","","","","","","","","","","","","","","","","",""
"","","","","ctl-task-cpt","49","634063","0.0-5.0-0.8","132","1","2025-07-18 13:32:30","1f75c3e559b7213887762d5229550c2b","86.12.64.131","Mozilla/5.0 (X11; CrOS x86_64 14541.0.0) AppleWebKit/537.36 (KHTML, like Gecko) Chrome/137.0.0.0 Safari/537.36","WebKit","Chrome","137.0.0.0","ChromeOS","14541.0.0","https://app.prolific.com/","en-GB,en-US;q=0.9,en;q=0.8","674766f8e0307c4de164f7d6","683db7602f5db6a34d12d064","687a4ce2eade86a73dd5853d","1","674766f8e0307c4de164f7d6","1","","2025-07-18T13:43:05.839Z","","","","","","","","","","","","","","win-only","3","g1:SW,g2:NE","0.2","9","0","595640.3","1778.9","6794.8","36917.6","1","4","8","6","1","-1","-1","14","15","0.10606060606060606","2012.8","3000","-2495","[""down"",""left""]","{""num_key_presses"":9,""num_perfect"":2,""num_errors"":0,""num_randdir"":7,""num_randdir_good_moves"":4,""num_whilered"":0,""num_whileblue"":0,""num_blue"":1,""num_good_moves"":5}","[415.3214133126395,421.57142761775424,0.4,415.3214133126395,421.57142761775424,100.1,415.3214133126395,421.57142761775424,202.3,415.3214133126395,421.57142761775424,307.4,415.3214133126395,421.57142761775424,413.2,415.3214133126395,421.57142761775424,513.4,415.3214133126395,421.57142761775424,618.7,415.3214133126395,421.57142761775424,724.3,415.3214133126395,421.57142761775424,826.1,415.3214133126395,421.57142761775424,929,415.3214133126395,421.57142761775424,1033.1,415.3214133126395,421.57142761775424,1139.3,242.8214133126395,574.0714276177542,1241.9,144.0714133126395,657.8214276177542,1347,85.3214133126395,719.0714276177542,1452,79.0714133126395,740.3214276177542,1556.4,77.8214133126395,747.8214276177542,1658.5,77.8214133126395,747.8214276177542,1759,77.8214133126395,747.8214276177542,1860,77.8214133126395,747.8214276177542,1962.6,77.8214133126395,747.8214276177542,2067.1,77.8214133126395,747.8214276177542,2173,77.8214133126395,747.8214276177542,2274.2,77.8214133126395,747.8214276177542,2377.4,77.8214133126395,747.8214276177542,2480.9,77.8214133126395,747.8214276177542,2581.5,77.8214133126395,747.8214276177542,2682,77.8214133126395,747.8214276177542,2782.1,77.8214133126395,747.8214276177542,2888.6,77.8214133126395,747.8214276177542,2992.7,77.8214133126395,747.8214276177542,3094.3,77.8214133126395,747.8214276177542,3201.7,77.8214133126395,747.8214276177542,3306.4,77.8214133126395,747.8214276177542,3411.9,77.8214133126395,747.8214276177542,3516.2,77.8214133126395,747.8214276177542,3620.2,77.8214133126395,747.8214276177542,3723.4,77.8214133126395,747.8214276177542,3828.3,77.8214133126395,747.8214276177542,3937.1,77.8214133126395,747.8214276177542,4050.4,77.8214133126395,747.8214276177542,4155.1,77.8214133126395,747.8214276177542,4257.8,77.8214133126395,747.8214276177542,4358.7,77.8214133126395,747.8214276177542,4459.2,77.8214133126395,747.8214276177542,4561.4,77.8214133126395,747.8214276177542,4661.8,77.8214133126395,747.8214276177542,4766.5,77.8214133126395,747.8214276177542,4867.7,77.8214133126395,747.8214276177542,4970.4]","[1364.9,1364.9,1000,0,364.9,""oops"",""down"",""left"",""good_move"",4177.5,2812,2496.7,1365.5,315.3,""oops"",""down"",""left"",""good_move"",6646.2,2468.5,2109.1,4177.7,359.4,""oops"",""up"",""up"",""bad_move"",9279.2,2632.6,2278.9,6646.6,353.7,""smooth"",""down"",""down"",""good_move"",12519,3239.4,2903,9279.6,336.4,""oops"",""down"",""up"",""bad_move"",19050.2,6530,2659.9,16091.1,299.3,""oops"",""down"",""up"",""bad_move"",21821.4,2770.9,2362.2,19050.6,408.6,""oops"",""right"",""down"",""good_move"",24656.2,2834.3,2471.1,21821.9,363.2,""oops"",""right"",""down"",""good_move"",26822.8,2166.1,1770.2,24656.8,395.8,""smooth"",""right"",""right"",""bad_move""]","",""
"5951","","<div style=""width:500px;"">
  <p>What determined the result of this run?</p>
  </div>","50","html-slider-response","50","640015","0.0-5.0-1.8","132","1","2025-07-18 13:32:30","1f75c3e559b7213887762d5229550c2b","86.12.64.131","Mozilla/5.0 (X11; CrOS x86_64 14541.0.0) AppleWebKit/537.36 (KHTML, like Gecko) Chrome/137.0.0.0 Safari/537.36","WebKit","Chrome","137.0.0.0","ChromeOS","14541.0.0","https://app.prolific.com/","en-GB,en-US;q=0.9,en;q=0.8","674766f8e0307c4de164f7d6","683db7602f5db6a34d12d064","687a4ce2eade86a73dd5853d","1","674766f8e0307c4de164f7d6","1","","2025-07-18T13:43:11.791Z","","","","","","","","","","","AttribQ","","50","","","","","","","","","","","","","","","","","","","","","","","","","","","","",""
"3795","","<div style=""width:500px;"">
  <p>How much control did you have over the ball?</p>
  </div>","35","html-slider-response","51","643811","0.0-5.0-2.8","132","1","2025-07-18 13:32:30","1f75c3e559b7213887762d5229550c2b","86.12.64.131","Mozilla/5.0 (X11; CrOS x86_64 14541.0.0) AppleWebKit/537.36 (KHTML, like Gecko) Chrome/137.0.0.0 Safari/537.36","WebKit","Chrome","137.0.0.0","ChromeOS","14541.0.0","https://app.prolific.com/","en-GB,en-US;q=0.9,en;q=0.8","674766f8e0307c4de164f7d6","683db7602f5db6a34d12d064","687a4ce2eade86a73dd5853d","1","674766f8e0307c4de164f7d6","1","","2025-07-18T13:43:15.587Z","","","","","","","","","","","ControlQ","","50","","","","","","","","","","","","","","","","","","","","","","","","","","","","",""
"5689","","<div style=""width:500px;"">
  <p>How would you describe your current emotional state?</p>
  </div>","45","html-slider-response","52","649501","0.0-5.0-3.8","132","1","2025-07-18 13:32:30","1f75c3e559b7213887762d5229550c2b","86.12.64.131","Mozilla/5.0 (X11; CrOS x86_64 14541.0.0) AppleWebKit/537.36 (KHTML, like Gecko) Chrome/137.0.0.0 Safari/537.36","WebKit","Chrome","137.0.0.0","ChromeOS","14541.0.0","https://app.prolific.com/","en-GB,en-US;q=0.9,en;q=0.8","674766f8e0307c4de164f7d6","683db7602f5db6a34d12d064","687a4ce2eade86a73dd5853d","1","674766f8e0307c4de164f7d6","1","","2025-07-18T13:43:21.277Z","","","","","","","","","","","StressQ","","50","","","","","","","","","","","","","","","","","","","","","","","","","","","","",""
"3564","","<div style=""width:500px;"">
  <p>What best describes how you currently feel?</p>
  </div>","57","html-slider-response","53","653066","0.0-5.0-4.8","132","1","2025-07-18 13:32:30","1f75c3e559b7213887762d5229550c2b","86.12.64.131","Mozilla/5.0 (X11; CrOS x86_64 14541.0.0) AppleWebKit/537.36 (KHTML, like Gecko) Chrome/137.0.0.0 Safari/537.36","WebKit","Chrome","137.0.0.0","ChromeOS","14541.0.0","https://app.prolific.com/","en-GB,en-US;q=0.9,en;q=0.8","674766f8e0307c4de164f7d6","683db7602f5db6a34d12d064","687a4ce2eade86a73dd5853d","1","674766f8e0307c4de164f7d6","1","","2025-07-18T13:43:24.842Z","","","","","","","","","","","MotivationQ","","50","","","","","","","","","","","","","","","","","","","","","","","","","","","","",""
"","","","","ctl-task-cpt","54","740815","0.0-5.0-0.9","132","1","2025-07-18 13:32:30","1f75c3e559b7213887762d5229550c2b","86.12.64.131","Mozilla/5.0 (X11; CrOS x86_64 14541.0.0) AppleWebKit/537.36 (KHTML, like Gecko) Chrome/137.0.0.0 Safari/537.36","WebKit","Chrome","137.0.0.0","ChromeOS","14541.0.0","https://app.prolific.com/","en-GB,en-US;q=0.9,en;q=0.8","674766f8e0307c4de164f7d6","683db7602f5db6a34d12d064","687a4ce2eade86a73dd5853d","1","674766f8e0307c4de164f7d6","1","","2025-07-18T13:44:52.591Z","","","","","","","","","","","","","","win-only","2","g1:SE,g2:NW","0.4","10","0","654574.7","3055.8","8058.3","84707","1","4","4","6","2","4","3","17","14","0.12878787878787878","2779.4","3000","1075","[""left"",""up""]","{""num_key_presses"":16,""num_perfect"":8,""num_errors"":1,""num_randdir"":7,""num_randdir_good_moves"":3,""num_whilered"":0,""num_whileblue"":1,""num_blue"":5,""num_good_moves"":11}","[424.0714133126395,422.82142761775424,0.3,424.0714133126395,422.82142761775424,106.5,424.0714133126395,422.82142761775424,207.7,424.0714133126395,422.82142761775424,313.1,424.0714133126395,422.82142761775424,413.4,424.0714133126395,422.82142761775424,515.6,424.0714133126395,422.82142761775424,621.8,424.0714133126395,422.82142761775424,723,424.0714133126395,422.82142761775424,829.3,424.0714133126395,422.82142761775424,936.2,424.0714133126395,422.82142761775424,1042.7,424.0714133126395,422.82142761775424,1147.9,202.8214133126395,645.3214276177542,1248.9,-4.678586687360493,960.3214276177542,1349.2,-9.678586687360493,960.3214276177542,1451.3,-9.678586687360493,960.3214276177542,1554.4,12.821413312639507,647.8214276177542,1657,24.071413312639507,416.57142761775424,1761.4,26.571413312639507,391.57142761775424,1863.2,26.571413312639507,391.57142761775424,1966,109.0714133126395,215.32142761775424,2068.9,106.5714133126395,159.07142761775424,2172.8,107.8214133126395,120.32142761775425,2277.4,105.3214133126395,120.32142761775425,2385.2,105.3214133126395,120.32142761775425,2487.9,105.3214133126395,120.32142761775425,2596.6,105.3214133126395,120.32142761775425,2701.3,105.3214133126395,120.32142761775425,2805.2,105.3214133126395,120.32142761775425,2915.4,105.3214133126395,120.32142761775425,3015.6,105.3214133126395,120.32142761775425,3121.2,105.3214133126395,120.32142761775425,3225.7,105.3214133126395,120.32142761775425,3326.5,105.3214133126395,120.32142761775425,3429.4,105.3214133126395,120.32142761775425,3529.5,105.3214133126395,120.32142761775425,3629.5,105.3214133126395,120.32142761775425,3729.5,105.3214133126395,120.32142761775425,3834.5,105.3214133126395,120.32142761775425,3934.7,105.3214133126395,120.32142761775425,4041.5,105.3214133126395,120.32142761775425,4145.7,105.3214133126395,120.32142761775425,4249.4,105.3214133126395,120.32142761775425,4349.5,105.3214133126395,120.32142761775425,4455.8,105.3214133126395,120.32142761775425,4559.3,105.3214133126395,120.32142761775425,4663,105.3214133126395,120.32142761775425,4763.6,105.3214133126395,120.32142761775425,4866.7,105.3214133126395,120.32142761775425,4969.7]","[1333.5,1333.5,1000,0,333.5,""oops"",""up"",""down"",""bad_move"",4401.6,3067.4,2733.1,1334.2,334.3,""smooth"",""down"",""down"",""bad_move"",7713.7,3311.9,2900.7,4401.8,411.2,""oops"",""left"",""right"",""bad_move"",10262.9,2548.8,2135.4,7714.1,413.4,""oops"",""left"",""right"",""bad_move"",17137.2,6873.7,3004.5,13768.8,363.9,""oops"",""left"",""left"",""good_move"",23785.2,6647.1,3154.4,20248.1,382.7,""smooth"",""left"",""left"",""good_move"",27295,3509.3,2725.8,23785.7,783.5,""smooth"",""left"",""left"",""good_move"",30873.6,3578.1,2603.3,27295.5,974.8,""oops"",""left"",""left"",""good_move"",38195.9,7321.9,2505,35283.6,407.3,""smooth"",""up"",""up"",""good_move"",46066.9,7870.8,2585.5,43108,373.5,""oops"",""up"",""down"",""bad_move"",49452,3384.5,3021.8,46067.5,362.7,""smooth"",""up"",""up"",""good_move"",53600.9,4148.2,2004,49452.7,2144.2,""smooth"",""up"",""up"",""good_move"",57836,4234.5,1450.1,53601.5,2784.4,""smooth"",""up"",""up"",""good_move"",63319.5,5482.9,5193.2,57836.7,289.7,""while_blue"",""up"",""up"",""good_move"",69682.8,6357.3,2867.9,63325.5,3489.4,""smooth"",""left"",""left"",""good_move"",75989.3,6296.5,2441.1,69692.8,3855.4,""oops"",""up"",""up"",""good_move""]","",""
"37294","","<div style=""width:500px;"">
  <p>What determined the result of this run?</p>
  </div>","45","html-slider-response","55","778113","0.0-5.0-1.9","132","1","2025-07-18 13:32:30","1f75c3e559b7213887762d5229550c2b","86.12.64.131","Mozilla/5.0 (X11; CrOS x86_64 14541.0.0) AppleWebKit/537.36 (KHTML, like Gecko) Chrome/137.0.0.0 Safari/537.36","WebKit","Chrome","137.0.0.0","ChromeOS","14541.0.0","https://app.prolific.com/","en-GB,en-US;q=0.9,en;q=0.8","674766f8e0307c4de164f7d6","683db7602f5db6a34d12d064","687a4ce2eade86a73dd5853d","1","674766f8e0307c4de164f7d6","1","","2025-07-18T13:45:29.889Z","","","","","","","","","","","AttribQ","","50","","","","","","","","","","","","","","","","","","","","","","","","","","","","",""
"2847","","<div style=""width:500px;"">
  <p>How much control did you have over the ball?</p>
  </div>","46","html-slider-response","56","780963","0.0-5.0-2.9","132","1","2025-07-18 13:32:30","1f75c3e559b7213887762d5229550c2b","86.12.64.131","Mozilla/5.0 (X11; CrOS x86_64 14541.0.0) AppleWebKit/537.36 (KHTML, like Gecko) Chrome/137.0.0.0 Safari/537.36","WebKit","Chrome","137.0.0.0","ChromeOS","14541.0.0","https://app.prolific.com/","en-GB,en-US;q=0.9,en;q=0.8","674766f8e0307c4de164f7d6","683db7602f5db6a34d12d064","687a4ce2eade86a73dd5853d","1","674766f8e0307c4de164f7d6","1","","2025-07-18T13:45:32.739Z","","","","","","","","","","","ControlQ","","50","","","","","","","","","","","","","","","","","","","","","","","","","","","","",""
"5798","","<div style=""width:500px;"">
  <p>How would you describe your current emotional state?</p>
  </div>","46","html-slider-response","57","786763","0.0-5.0-3.9","132","1","2025-07-18 13:32:30","1f75c3e559b7213887762d5229550c2b","86.12.64.131","Mozilla/5.0 (X11; CrOS x86_64 14541.0.0) AppleWebKit/537.36 (KHTML, like Gecko) Chrome/137.0.0.0 Safari/537.36","WebKit","Chrome","137.0.0.0","ChromeOS","14541.0.0","https://app.prolific.com/","en-GB,en-US;q=0.9,en;q=0.8","674766f8e0307c4de164f7d6","683db7602f5db6a34d12d064","687a4ce2eade86a73dd5853d","1","674766f8e0307c4de164f7d6","1","","2025-07-18T13:45:38.539Z","","","","","","","","","","","StressQ","","50","","","","","","","","","","","","","","","","","","","","","","","","","","","","",""
"2858","","<div style=""width:500px;"">
  <p>What best describes how you currently feel?</p>
  </div>","57","html-slider-response","58","789622","0.0-5.0-4.9","132","1","2025-07-18 13:32:30","1f75c3e559b7213887762d5229550c2b","86.12.64.131","Mozilla/5.0 (X11; CrOS x86_64 14541.0.0) AppleWebKit/537.36 (KHTML, like Gecko) Chrome/137.0.0.0 Safari/537.36","WebKit","Chrome","137.0.0.0","ChromeOS","14541.0.0","https://app.prolific.com/","en-GB,en-US;q=0.9,en;q=0.8","674766f8e0307c4de164f7d6","683db7602f5db6a34d12d064","687a4ce2eade86a73dd5853d","1","674766f8e0307c4de164f7d6","1","","2025-07-18T13:45:41.398Z","","","","","","","","","","","MotivationQ","","50","","","","","","","","","","","","","","","","","","","","","","","","","","","","",""
"","","","","ctl-task-cpt","59","836257","0.0-5.0-0.10","132","1","2025-07-18 13:32:30","1f75c3e559b7213887762d5229550c2b","86.12.64.131","Mozilla/5.0 (X11; CrOS x86_64 14541.0.0) AppleWebKit/537.36 (KHTML, like Gecko) Chrome/137.0.0.0 Safari/537.36","WebKit","Chrome","137.0.0.0","ChromeOS","14541.0.0","https://app.prolific.com/","en-GB,en-US;q=0.9,en;q=0.8","674766f8e0307c4de164f7d6","683db7602f5db6a34d12d064","687a4ce2eade86a73dd5853d","1","674766f8e0307c4de164f7d6","1","","2025-07-18T13:46:28.033Z","","","","","","","","","","","","","","win-only","0","g1:NW,g2:SE","0.5","11","0","791129","3079.3","8089","43619.7","1","4","8","6","1","-1","-1","16","17","0.12121212121212122","1375.1","3000","-2115","[""left"",""up""]","{""num_key_presses"":10,""num_perfect"":5,""num_errors"":0,""num_randdir"":5,""num_randdir_good_moves"":0,""num_whilered"":0,""num_whileblue"":0,""num_blue"":1,""num_good_moves"":5}","[416.5714133126395,416.57142761775424,0.2,416.5714133126395,416.57142761775424,106.5,416.5714133126395,416.57142761775424,213,416.5714133126395,416.57142761775424,313.1,416.5714133126395,416.57142761775424,418.1,416.5714133126395,416.57142761775424,519.5,416.5714133126395,416.57142761775424,622.3,155.3214133126395,189.07142761775424,730.2,105.3214133126395,157.82142761775424,831,100.3214133126395,115.32142761775425,934.9,95.3214133126395,104.07142761775425,1040.6,95.3214133126395,104.07142761775425,1149.9,95.3214133126395,104.07142761775425,1252.2,95.3214133126395,104.07142761775425,1358.5,95.3214133126395,104.07142761775425,1459.2,95.3214133126395,104.07142761775425,1562.9,95.3214133126395,104.07142761775425,1667,95.3214133126395,104.07142761775425,1772.3,95.3214133126395,104.07142761775425,1877.7,95.3214133126395,104.07142761775425,1982,95.3214133126395,104.07142761775425,2088.8,95.3214133126395,104.07142761775425,2194.1,95.3214133126395,104.07142761775425,2294.6,95.3214133126395,104.07142761775425,2400.8,95.3214133126395,104.07142761775425,2504.4,95.3214133126395,104.07142761775425,2606.4,95.3214133126395,104.07142761775425,2710.7,95.3214133126395,104.07142761775425,2816.3,95.3214133126395,104.07142761775425,2920.7,95.3214133126395,104.07142761775425,3026.6,95.3214133126395,104.07142761775425,3129,95.3214133126395,104.07142761775425,3239,95.3214133126395,104.07142761775425,3343,95.3214133126395,104.07142761775425,3446.1,95.3214133126395,104.07142761775425,3547.5,95.3214133126395,104.07142761775425,3650.5,95.3214133126395,104.07142761775425,3765.9,95.3214133126395,104.07142761775425,3875.3,95.3214133126395,104.07142761775425,3976.4,95.3214133126395,104.07142761775425,4078.1,95.3214133126395,104.07142761775425,4183.4,95.3214133126395,104.07142761775425,4284.1,95.3214133126395,104.07142761775425,4389.6,95.3214133126395,104.07142761775425,4498.1,95.3214133126395,104.07142761775425,4602.1,95.3214133126395,104.07142761775425,4712.8,95.3214133126395,104.07142761775425,4819.8,95.3214133126395,104.07142761775425,4926.1]","[5167.6,5167.6,2831.3,2016.9,319.4,""smooth"",""left"",""left"",""good_move"",8250,3080.9,2701.1,5169.1,379.8,""oops"",""up"",""down"",""bad_move"",11871.3,3620.9,3159.4,8250.4,461.5,""smooth"",""left"",""left"",""good_move"",14879.7,3007.5,2625,11872.2,382.5,""oops"",""up"",""down"",""bad_move"",17980.9,3100.6,2643.5,14880.3,457.1,""smooth"",""up"",""up"",""good_move"",21277.2,3295.5,2685.3,17981.7,610.2,""smooth"",""up"",""up"",""good_move"",24435.9,3158,2758.3,21277.9,399.7,""oops"",""up"",""down"",""bad_move"",26898.5,2462.3,1741.2,24436.2,721.1,""oops"",""up"",""down"",""bad_move"",29422.2,2523.5,2126.9,26898.7,396.6,""smooth"",""up"",""up"",""good_move"",32806.8,3384.1,3044.1,29422.7,340,""oops"",""up"",""down"",""bad_move""]","",""
"5574","","<div style=""width:500px;"">
  <p>What determined the result of this run?</p>
  </div>","30","html-slider-response","60","841833","0.0-5.0-1.10","132","1","2025-07-18 13:32:30","1f75c3e559b7213887762d5229550c2b","86.12.64.131","Mozilla/5.0 (X11; CrOS x86_64 14541.0.0) AppleWebKit/537.36 (KHTML, like Gecko) Chrome/137.0.0.0 Safari/537.36","WebKit","Chrome","137.0.0.0","ChromeOS","14541.0.0","https://app.prolific.com/","en-GB,en-US;q=0.9,en;q=0.8","674766f8e0307c4de164f7d6","683db7602f5db6a34d12d064","687a4ce2eade86a73dd5853d","1","674766f8e0307c4de164f7d6","1","","2025-07-18T13:46:33.609Z","","","","","","","","","","","AttribQ","","50","","","","","","","","","","","","","","","","","","","","","","","","","","","","",""
"4842","","<div style=""width:500px;"">
  <p>How much control did you have over the ball?</p>
  </div>","15","html-slider-response","61","846676","0.0-5.0-2.10","132","1","2025-07-18 13:32:30","1f75c3e559b7213887762d5229550c2b","86.12.64.131","Mozilla/5.0 (X11; CrOS x86_64 14541.0.0) AppleWebKit/537.36 (KHTML, like Gecko) Chrome/137.0.0.0 Safari/537.36","WebKit","Chrome","137.0.0.0","ChromeOS","14541.0.0","https://app.prolific.com/","en-GB,en-US;q=0.9,en;q=0.8","674766f8e0307c4de164f7d6","683db7602f5db6a34d12d064","687a4ce2eade86a73dd5853d","1","674766f8e0307c4de164f7d6","1","","2025-07-18T13:46:38.452Z","","","","","","","","","","","ControlQ","","50","","","","","","","","","","","","","","","","","","","","","","","","","","","","",""
"2802","","<div style=""width:500px;"">
  <p>How would you describe your current emotional state?</p>
  </div>","60","html-slider-response","62","849479","0.0-5.0-3.10","132","1","2025-07-18 13:32:30","1f75c3e559b7213887762d5229550c2b","86.12.64.131","Mozilla/5.0 (X11; CrOS x86_64 14541.0.0) AppleWebKit/537.36 (KHTML, like Gecko) Chrome/137.0.0.0 Safari/537.36","WebKit","Chrome","137.0.0.0","ChromeOS","14541.0.0","https://app.prolific.com/","en-GB,en-US;q=0.9,en;q=0.8","674766f8e0307c4de164f7d6","683db7602f5db6a34d12d064","687a4ce2eade86a73dd5853d","1","674766f8e0307c4de164f7d6","1","","2025-07-18T13:46:41.255Z","","","","","","","","","","","StressQ","","50","","","","","","","","","","","","","","","","","","","","","","","","","","","","",""
"4062","","<div style=""width:500px;"">
  <p>What best describes how you currently feel?</p>
  </div>","50","html-slider-response","63","853542","0.0-5.0-4.10","132","1","2025-07-18 13:32:30","1f75c3e559b7213887762d5229550c2b","86.12.64.131","Mozilla/5.0 (X11; CrOS x86_64 14541.0.0) AppleWebKit/537.36 (KHTML, like Gecko) Chrome/137.0.0.0 Safari/537.36","WebKit","Chrome","137.0.0.0","ChromeOS","14541.0.0","https://app.prolific.com/","en-GB,en-US;q=0.9,en;q=0.8","674766f8e0307c4de164f7d6","683db7602f5db6a34d12d064","687a4ce2eade86a73dd5853d","1","674766f8e0307c4de164f7d6","1","","2025-07-18T13:46:45.318Z","","","","","","","","","","","MotivationQ","","50","","","","","","","","","","","","","","","","","","","","","","","","","","","","",""
"","","","","ctl-task-cpt","64","877113","0.0-5.0-0.11","132","1","2025-07-18 13:32:30","1f75c3e559b7213887762d5229550c2b","86.12.64.131","Mozilla/5.0 (X11; CrOS x86_64 14541.0.0) AppleWebKit/537.36 (KHTML, like Gecko) Chrome/137.0.0.0 Safari/537.36","WebKit","Chrome","137.0.0.0","ChromeOS","14541.0.0","https://app.prolific.com/","en-GB,en-US;q=0.9,en;q=0.8","674766f8e0307c4de164f7d6","683db7602f5db6a34d12d064","687a4ce2eade86a73dd5853d","1","674766f8e0307c4de164f7d6","1","","2025-07-18T13:47:08.889Z","","","","","","","","","","","","","","win-only","3","g1:SW,g2:NE","0.6","12","0","855048.8","2409.3","7411.1","20555.7","1","4","4","6","1","1","1","17","16","0.12878787878787878","3948","3000","2020","[""down"",""left""]","{""num_key_presses"":4,""num_perfect"":3,""num_errors"":0,""num_randdir"":1,""num_randdir_good_moves"":1,""num_whilered"":0,""num_whileblue"":0,""num_blue"":1,""num_good_moves"":4}","[416.5714133126395,425.32142761775424,0.9,416.5714133126395,425.32142761775424,107.1,416.5714133126395,425.32142761775424,208.6,416.5714133126395,425.32142761775424,313.2,416.5714133126395,425.32142761775424,417.6,416.5714133126395,425.32142761775424,518.6,416.5714133126395,425.32142761775424,621.5,416.5714133126395,425.32142761775424,722.1,416.5714133126395,425.32142761775424,824.3,416.5714133126395,425.32142761775424,924.8,416.5714133126395,425.32142761775424,1026.5,416.5714133126395,425.32142761775424,1128.8,416.5714133126395,425.32142761775424,1232.7,416.5714133126395,425.32142761775424,1336.2,416.5714133126395,425.32142761775424,1440.4,416.5714133126395,425.32142761775424,1543.4,416.5714133126395,425.32142761775424,1647.6,416.5714133126395,425.32142761775424,1747.6,416.5714133126395,425.32142761775424,1852.6,416.5714133126395,425.32142761775424,1960.9,416.5714133126395,425.32142761775424,2068.4,416.5714133126395,425.32142761775424,2174.1,416.5714133126395,425.32142761775424,2275.6,416.5714133126395,425.32142761775424,2378.5,416.5714133126395,425.32142761775424,2480.4,416.5714133126395,425.32142761775424,2581.1,345.3214133126395,461.57142761775424,2681.4,110.3214133126395,634.0714276177542,2784.8,41.57141331263951,684.0714276177542,2891.1,-8.428586687360493,734.0714276177542,2992.2,-12.178586687360493,750.3214276177542,3093,-14.678586687360493,764.0714276177542,3206.6,-13.428586687360493,765.3214276177542,3311.2,-9.678586687360493,764.0714276177542,3415.4,12.821413312639507,751.5714276177542,3525,19.071413312639507,746.5714276177542,3627,19.071413312639507,746.5714276177542,3728.3,19.071413312639507,746.5714276177542,3835.3,19.071413312639507,746.5714276177542,3936.4,19.071413312639507,746.5714276177542,4049.5,19.071413312639507,746.5714276177542,4149.9,19.071413312639507,746.5714276177542,4250.4,19.071413312639507,746.5714276177542,4364.5,19.071413312639507,746.5714276177542,4471.1,19.071413312639507,746.5714276177542,4573.6,19.071413312639507,746.5714276177542,4679.3,19.071413312639507,746.5714276177542,4788.5,19.071413312639507,746.5714276177542,4891]","[1568.9,1568.9,1000,0,568.9,""smooth"",""down"",""down"",""good_move"",4408.7,2839.3,2491.7,1569.4,347.6,""oops"",""left"",""left"",""good_move"",10103,5693.8,2459.2,7324.3,319.5,""smooth"",""down"",""down"",""good_move"",13026.7,2922.9,2566.9,10103.8,356,""smooth"",""left"",""left"",""good_move""]","",""
"71536","","<div style=""width:500px;"">
  <p>What determined the result of this run?</p>
  </div>","41","html-slider-response","65","948651","0.0-5.0-1.11","132","1","2025-07-18 13:32:30","1f75c3e559b7213887762d5229550c2b","86.12.64.131","Mozilla/5.0 (X11; CrOS x86_64 14541.0.0) AppleWebKit/537.36 (KHTML, like Gecko) Chrome/137.0.0.0 Safari/537.36","WebKit","Chrome","137.0.0.0","ChromeOS","14541.0.0","https://app.prolific.com/","en-GB,en-US;q=0.9,en;q=0.8","674766f8e0307c4de164f7d6","683db7602f5db6a34d12d064","687a4ce2eade86a73dd5853d","1","674766f8e0307c4de164f7d6","1","","2025-07-18T13:48:20.427Z","","","","","","","","","","","AttribQ","","50","","","","","","","","","","","","","","","","","","","","","","","","","","","","",""
"5964","","<div style=""width:500px;"">
  <p>How much control did you have over the ball?</p>
  </div>","55","html-slider-response","66","954620","0.0-5.0-2.11","132","1","2025-07-18 13:32:30","1f75c3e559b7213887762d5229550c2b","86.12.64.131","Mozilla/5.0 (X11; CrOS x86_64 14541.0.0) AppleWebKit/537.36 (KHTML, like Gecko) Chrome/137.0.0.0 Safari/537.36","WebKit","Chrome","137.0.0.0","ChromeOS","14541.0.0","https://app.prolific.com/","en-GB,en-US;q=0.9,en;q=0.8","674766f8e0307c4de164f7d6","683db7602f5db6a34d12d064","687a4ce2eade86a73dd5853d","1","674766f8e0307c4de164f7d6","1","","2025-07-18T13:48:26.396Z","","","","","","","","","","","ControlQ","","50","","","","","","","","","","","","","","","","","","","","","","","","","","","","",""
"3179","","<div style=""width:500px;"">
  <p>How would you describe your current emotional state?</p>
  </div>","56","html-slider-response","67","957800","0.0-5.0-3.11","132","1","2025-07-18 13:32:30","1f75c3e559b7213887762d5229550c2b","86.12.64.131","Mozilla/5.0 (X11; CrOS x86_64 14541.0.0) AppleWebKit/537.36 (KHTML, like Gecko) Chrome/137.0.0.0 Safari/537.36","WebKit","Chrome","137.0.0.0","ChromeOS","14541.0.0","https://app.prolific.com/","en-GB,en-US;q=0.9,en;q=0.8","674766f8e0307c4de164f7d6","683db7602f5db6a34d12d064","687a4ce2eade86a73dd5853d","1","674766f8e0307c4de164f7d6","1","","2025-07-18T13:48:29.576Z","","","","","","","","","","","StressQ","","50","","","","","","","","","","","","","","","","","","","","","","","","","","","","",""
"5618","","<div style=""width:500px;"">
  <p>What best describes how you currently feel?</p>
  </div>","54","html-slider-response","68","963420","0.0-5.0-4.11","132","1","2025-07-18 13:32:30","1f75c3e559b7213887762d5229550c2b","86.12.64.131","Mozilla/5.0 (X11; CrOS x86_64 14541.0.0) AppleWebKit/537.36 (KHTML, like Gecko) Chrome/137.0.0.0 Safari/537.36","WebKit","Chrome","137.0.0.0","ChromeOS","14541.0.0","https://app.prolific.com/","en-GB,en-US;q=0.9,en;q=0.8","674766f8e0307c4de164f7d6","683db7602f5db6a34d12d064","687a4ce2eade86a73dd5853d","1","674766f8e0307c4de164f7d6","1","","2025-07-18T13:48:35.196Z","","","","","","","","","","","MotivationQ","","50","","","","","","","","","","","","","","","","","","","","","","","","","","","","",""
"","","","","ctl-task-cpt","69","992988","0.0-5.0-0.12","132","1","2025-07-18 13:32:30","1f75c3e559b7213887762d5229550c2b","86.12.64.131","Mozilla/5.0 (X11; CrOS x86_64 14541.0.0) AppleWebKit/537.36 (KHTML, like Gecko) Chrome/137.0.0.0 Safari/537.36","WebKit","Chrome","137.0.0.0","ChromeOS","14541.0.0","https://app.prolific.com/","en-GB,en-US;q=0.9,en;q=0.8","674766f8e0307c4de164f7d6","683db7602f5db6a34d12d064","687a4ce2eade86a73dd5853d","1","674766f8e0307c4de164f7d6","1","","2025-07-18T13:49:04.764Z","","","","","","","","","","","","","","win-only","1","g1:NE,g2:SW","0.7","13","0","964926.2","3170.1","8170.8","26553","1","4","8","6","1","1","1","18","17","0.13636363636363635","1761.8","3000","2075","[""up"",""right""]","{""num_key_presses"":4,""num_perfect"":4,""num_errors"":0,""num_randdir"":0,""num_randdir_good_moves"":0,""num_whilered"":0,""num_whileblue"":0,""num_blue"":2,""num_good_moves"":4}","[414.0714133126395,417.82142761775424,0.4,414.0714133126395,417.82142761775424,110.6,414.0714133126395,417.82142761775424,212.1,414.0714133126395,417.82142761775424,315.3,414.0714133126395,417.82142761775424,415.3,414.0714133126395,417.82142761775424,517.7,414.0714133126395,417.82142761775424,623.3,601.5714133126395,276.57142761775424,730.5,704.0714133126395,169.07142761775424,835,704.0714133126395,169.07142761775424,938.5,704.0714133126395,169.07142761775424,1043.4,704.0714133126395,169.07142761775424,1150.8,774.0714133126395,34.07142761775425,1258.7,784.0714133126395,26.571427617754253,1363.4,784.0714133126395,26.571427617754253,1470.2,784.0714133126395,26.571427617754253,1577.9,784.0714133126395,26.571427617754253,1680.8,784.0714133126395,26.571427617754253,1783.1,784.0714133126395,26.571427617754253,1885.5,784.0714133126395,26.571427617754253,1996.3,784.0714133126395,26.571427617754253,2100.3,784.0714133126395,26.571427617754253,2207.4,784.0714133126395,26.571427617754253,2311.3,784.0714133126395,26.571427617754253,2412.5,784.0714133126395,26.571427617754253,2513.9,784.0714133126395,26.571427617754253,2622.3,784.0714133126395,26.571427617754253,2727.8,784.0714133126395,26.571427617754253,2833.4,784.0714133126395,26.571427617754253,2939.5,784.0714133126395,26.571427617754253,3046,784.0714133126395,26.571427617754253,3147.4,784.0714133126395,26.571427617754253,3259.7,784.0714133126395,26.571427617754253,3360.5,784.0714133126395,26.571427617754253,3461.4,784.0714133126395,26.571427617754253,3561.6,784.0714133126395,26.571427617754253,3675,784.0714133126395,26.571427617754253,3783.5,784.0714133126395,26.571427617754253,3889.3,784.0714133126395,26.571427617754253,3993.7,784.0714133126395,26.571427617754253,4094.1,784.0714133126395,26.571427617754253,4196.8,784.0714133126395,26.571427617754253,4301.7,784.0714133126395,26.571427617754253,4406.3,784.0714133126395,26.571427617754253,4510.2,784.0714133126395,26.571427617754253,4613.2,784.0714133126395,26.571427617754253,4715.8,784.0714133126395,26.571427617754253,4817.5,784.0714133126395,26.571427617754253,4921.8]","[5798.2,5798.2,3358.4,2008.5,431.3,""smooth"",""right"",""right"",""good_move"",12181.3,6378.5,2810.2,8981.7,389.4,""smooth"",""right"",""right"",""good_move"",15398.7,3217.3,2776.7,12181.4,440.6,""smooth"",""up"",""up"",""good_move"",18113.1,2713.9,2222.5,15399.2,491.4,""smooth"",""up"",""up"",""good_move""]","",""
"6522","","<div style=""width:500px;"">
  <p>What determined the result of this run?</p>
  </div>","43","html-slider-response","70","999512","0.0-5.0-1.12","132","1","2025-07-18 13:32:30","1f75c3e559b7213887762d5229550c2b","86.12.64.131","Mozilla/5.0 (X11; CrOS x86_64 14541.0.0) AppleWebKit/537.36 (KHTML, like Gecko) Chrome/137.0.0.0 Safari/537.36","WebKit","Chrome","137.0.0.0","ChromeOS","14541.0.0","https://app.prolific.com/","en-GB,en-US;q=0.9,en;q=0.8","674766f8e0307c4de164f7d6","683db7602f5db6a34d12d064","687a4ce2eade86a73dd5853d","1","674766f8e0307c4de164f7d6","1","","2025-07-18T13:49:11.288Z","","","","","","","","","","","AttribQ","","50","","","","","","","","","","","","","","","","","","","","","","","","","","","","",""
"5640","","<div style=""width:500px;"">
  <p>How much control did you have over the ball?</p>
  </div>","70","html-slider-response","71","1005153","0.0-5.0-2.12","132","1","2025-07-18 13:32:30","1f75c3e559b7213887762d5229550c2b","86.12.64.131","Mozilla/5.0 (X11; CrOS x86_64 14541.0.0) AppleWebKit/537.36 (KHTML, like Gecko) Chrome/137.0.0.0 Safari/537.36","WebKit","Chrome","137.0.0.0","ChromeOS","14541.0.0","https://app.prolific.com/","en-GB,en-US;q=0.9,en;q=0.8","674766f8e0307c4de164f7d6","683db7602f5db6a34d12d064","687a4ce2eade86a73dd5853d","1","674766f8e0307c4de164f7d6","1","","2025-07-18T13:49:16.929Z","","","","","","","","","","","ControlQ","","50","","","","","","","","","","","","","","","","","","","","","","","","","","","","",""
"4275","","<div style=""width:500px;"">
  <p>How would you describe your current emotional state?</p>
  </div>","50","html-slider-response","72","1009429","0.0-5.0-3.12","132","1","2025-07-18 13:32:30","1f75c3e559b7213887762d5229550c2b","86.12.64.131","Mozilla/5.0 (X11; CrOS x86_64 14541.0.0) AppleWebKit/537.36 (KHTML, like Gecko) Chrome/137.0.0.0 Safari/537.36","WebKit","Chrome","137.0.0.0","ChromeOS","14541.0.0","https://app.prolific.com/","en-GB,en-US;q=0.9,en;q=0.8","674766f8e0307c4de164f7d6","683db7602f5db6a34d12d064","687a4ce2eade86a73dd5853d","1","674766f8e0307c4de164f7d6","1","","2025-07-18T13:49:21.206Z","","","","","","","","","","","StressQ","","50","","","","","","","","","","","","","","","","","","","","","","","","","","","","",""
"3668","","<div style=""width:500px;"">
  <p>What best describes how you currently feel?</p>
  </div>","58","html-slider-response","73","1013098","0.0-5.0-4.12","132","1","2025-07-18 13:32:30","1f75c3e559b7213887762d5229550c2b","86.12.64.131","Mozilla/5.0 (X11; CrOS x86_64 14541.0.0) AppleWebKit/537.36 (KHTML, like Gecko) Chrome/137.0.0.0 Safari/537.36","WebKit","Chrome","137.0.0.0","ChromeOS","14541.0.0","https://app.prolific.com/","en-GB,en-US;q=0.9,en;q=0.8","674766f8e0307c4de164f7d6","683db7602f5db6a34d12d064","687a4ce2eade86a73dd5853d","1","674766f8e0307c4de164f7d6","1","","2025-07-18T13:49:24.874Z","","","","","","","","","","","MotivationQ","","50","","","","","","","","","","","","","","","","","","","","","","","","","","","","",""
"","","","","ctl-task-cpt","74","1047268","0.0-5.0-0.13","132","1","2025-07-18 13:32:30","1f75c3e559b7213887762d5229550c2b","86.12.64.131","Mozilla/5.0 (X11; CrOS x86_64 14541.0.0) AppleWebKit/537.36 (KHTML, like Gecko) Chrome/137.0.0.0 Safari/537.36","WebKit","Chrome","137.0.0.0","ChromeOS","14541.0.0","https://app.prolific.com/","en-GB,en-US;q=0.9,en;q=0.8","674766f8e0307c4de164f7d6","683db7602f5db6a34d12d064","687a4ce2eade86a73dd5853d","1","674766f8e0307c4de164f7d6","1","","2025-07-18T13:49:59.044Z","","","","","","","","","","","","","","win-only","3","g1:SW,g2:NE","0.8","14","0","1014605.1","1791.5","6800.7","31151.1","1","4","4","6","1","1","1","19","18","0.14393939393939395","3231","3000","2065","[""down"",""left""]","{""num_key_presses"":6,""num_perfect"":4,""num_errors"":0,""num_randdir"":2,""num_randdir_good_moves"":1,""num_whilered"":0,""num_whileblue"":0,""num_blue"":2,""num_good_moves"":5}","[416.5714133126395,417.82142761775424,0.4,416.5714133126395,417.82142761775424,104.6,416.5714133126395,417.82142761775424,215.4,416.5714133126395,417.82142761775424,317.5,416.5714133126395,417.82142761775424,423.2,416.5714133126395,417.82142761775424,530.8,416.5714133126395,417.82142761775424,633.9,416.5714133126395,417.82142761775424,743.1,416.5714133126395,417.82142761775424,863.7,416.5714133126395,417.82142761775424,969.6,416.5714133126395,417.82142761775424,1077.1,416.5714133126395,417.82142761775424,1183.4,416.5714133126395,417.82142761775424,1284.4,504.0714133126395,252.82142761775424,1393,726.5714133126395,121.57142761775425,1502.5,780.3214133126395,70.32142761775425,1608.9,776.5714133126395,62.82142761775425,1715.9,569.0714133126395,199.07142761775424,1816.3,169.0714133126395,619.0714276177542,1917.7,109.0714133126395,694.0714276177542,2024.3,109.0714133126395,694.0714276177542,2134.5,109.0714133126395,694.0714276177542,2243.1,-4.678586687360493,746.5714276177542,2346.9,-83.4285866873605,805.3214276177542,2456.8,-93.4285866873605,816.5714276177542,2566.1,30.321413312639507,771.5714276177542,2677.7,39.07141331263951,764.0714276177542,2782.7,54.07141331263951,757.8214276177542,2886.1,54.07141331263951,757.8214276177542,3004,54.07141331263951,757.8214276177542,3108.1,54.07141331263951,757.8214276177542,3215.9,54.07141331263951,757.8214276177542,3318.6,54.07141331263951,757.8214276177542,3422.8,54.07141331263951,757.8214276177542,3536.5,54.07141331263951,757.8214276177542,3644.6,54.07141331263951,757.8214276177542,3747.4,54.07141331263951,757.8214276177542,3857.4,54.07141331263951,757.8214276177542,3967.9,54.07141331263951,757.8214276177542,4069.2,54.07141331263951,757.8214276177542,4174.8,54.07141331263951,757.8214276177542,4280.5,54.07141331263951,757.8214276177542,4387.4,54.07141331263951,757.8214276177542,4501.4,54.07141331263951,757.8214276177542,4612.8,54.07141331263951,757.8214276177542,4715.5,54.07141331263951,757.8214276177542,4819.9,54.07141331263951,757.8214276177542,4923]","[1401.5,1401.5,1000,0,401.5,""smooth"",""left"",""left"",""good_move"",4102.6,2700.2,2352.8,1402.5,347.3,""oops"",""left"",""left"",""good_move"",6763.1,2660.3,2263.3,4102.8,397,""smooth"",""down"",""down"",""good_move"",9898,3134.4,2805.7,6763.6,328.7,""oops"",""down"",""up"",""bad_move"",16647.5,6748.7,2678.6,13592.7,376.2,""smooth"",""down"",""down"",""good_move"",24037,7389,2954.3,20776.5,306.2,""smooth"",""down"",""down"",""good_move""]","",""
"5354","","<div style=""width:500px;"">
  <p>What determined the result of this run?</p>
  </div>","39","html-slider-response","75","1052623","0.0-5.0-1.13","132","1","2025-07-18 13:32:30","1f75c3e559b7213887762d5229550c2b","86.12.64.131","Mozilla/5.0 (X11; CrOS x86_64 14541.0.0) AppleWebKit/537.36 (KHTML, like Gecko) Chrome/137.0.0.0 Safari/537.36","WebKit","Chrome","137.0.0.0","ChromeOS","14541.0.0","https://app.prolific.com/","en-GB,en-US;q=0.9,en;q=0.8","674766f8e0307c4de164f7d6","683db7602f5db6a34d12d064","687a4ce2eade86a73dd5853d","1","674766f8e0307c4de164f7d6","1","","2025-07-18T13:50:04.400Z","","","","","","","","","","","AttribQ","","50","","","","","","","","","","","","","","","","","","","","","","","","","","","","",""
"4643","","<div style=""width:500px;"">
  <p>How much control did you have over the ball?</p>
