"rt","response_timestamp","stimulus","response","trial_type","trial_index","time_elapsed","internal_node_id","run_id","condition","recorded_at","source_code_version","ip","user_agent","device","browser","browser_version","platform","platform_version","referer","accept_language","PROLIFIC_PID","STUDY_ID","SESSION_ID","WEEK","prolific_id","week","realtime","success","responses","item_order","radio_event_ids","radio_event_times","key_event_times","mouse_event_times","straightlining","zigzagging","honeypot","eventType","view_history","slider_start","which_type","canvas_config","goals_layout","control_level","trial_number","tutorial_trial_number","trial_start_time","phase1_start_time","phase2_start_time","phase3_start_time","goal_1_value","goal_1_distance","goal_2_value","goal_2_distance","goal_selected","outcome","outcome_total","participant_final_score","participant_initial_score","participant_final_score_prop","goal_choice_rt","allocated_time","allocated_time_remaining","goal_direction","counts","mouse_movements","key_presses","question_order","question_id"
"9287","1752050464464","<p style='font-size:40px;line-height:1.25'><strong>Welcome to the experiment!</strong></p><p style='font-size:1.1em;line-height:1.25'>Thank you for participanting in our experiment again! You will be asked to play the Dysfunctional Ball Game again. We will briefly recap the rules before we start.</p><p style='font-size:1.1em;line-height:1.25'>Press <strong>Next</strong> to continue.</p>","0","custom-html-button-response","0","9297","0.0-0.0","12","1","2025-07-09 08:40:32","01610cd0009c79a99da7d0a3353eb402","102.128.184.38","Mozilla/5.0 (Windows NT 10.0; Win64; x64) AppleWebKit/537.36 (KHTML, like Gecko) Chrome/138.0.0.0 Safari/537.36 Edg/138.0.0.0","WebKit","Edge","138.0.0.0","Windows","10.0","https://app.prolific.com/","en-US,en;q=0.9,en-ZA;q=0.8","66952367721687887540318f","683db7602f5db6a34d12d064","686e2aa38dcec367932a78cf","1","66952367721687887540318f","1","2025-07-09T08:41:04.469Z","","","","","","","","","","","","","","","","","","","","","","","","","","","","","","","","","","","","","","","","","",""
"21976","","","","fullscreen","1","32299","0.0-1.0","12","1","2025-07-09 08:40:32","01610cd0009c79a99da7d0a3353eb402","102.128.184.38","Mozilla/5.0 (Windows NT 10.0; Win64; x64) AppleWebKit/537.36 (KHTML, like Gecko) Chrome/138.0.0.0 Safari/537.36 Edg/138.0.0.0","WebKit","Edge","138.0.0.0","Windows","10.0","https://app.prolific.com/","en-US,en;q=0.9,en-ZA;q=0.8","66952367721687887540318f","683db7602f5db6a34d12d064","686e2aa38dcec367932a78cf","1","66952367721687887540318f","1","","true","","","","","","","","","","","","","","","","","","","","","","","","","","","","","","","","","","","","","","","","",""
"2429","1752050489903","<p style='font-size:1.1em;line-height:1.25'>In the following, we will ask you a few questions relating to your feelings in the last 24 hours.<br></p><p style='font-size:1.1em;line-height:1.25'>Press the <strong>Next</strong> button to continue.</p>","0","custom-html-button-response","2","34734","0.0-2.0-0.0","12","1","2025-07-09 08:40:32","01610cd0009c79a99da7d0a3353eb402","102.128.184.38","Mozilla/5.0 (Windows NT 10.0; Win64; x64) AppleWebKit/537.36 (KHTML, like Gecko) Chrome/138.0.0.0 Safari/537.36 Edg/138.0.0.0","WebKit","Edge","138.0.0.0","Windows","10.0","https://app.prolific.com/","en-US,en;q=0.9,en-ZA;q=0.8","66952367721687887540318f","683db7602f5db6a34d12d064","686e2aa38dcec367932a78cf","1","66952367721687887540318f","1","2025-07-09T08:41:29.905Z","","","","","","","","","","","","","","","","","","","","","","","","","","","","","","","","","","","","","","","","","",""
"101945.3999999999","","","","survey-template","3","136765","0.0-2.0-1.0","12","1","2025-07-09 08:40:32","01610cd0009c79a99da7d0a3353eb402","102.128.184.38","Mozilla/5.0 (Windows NT 10.0; Win64; x64) AppleWebKit/537.36 (KHTML, like Gecko) Chrome/138.0.0.0 Safari/537.36 Edg/138.0.0.0","WebKit","Edge","138.0.0.0","Windows","10.0","https://app.prolific.com/","en-US,en;q=0.9,en-ZA;q=0.8","66952367721687887540318f","683db7602f5db6a34d12d064","686e2aa38dcec367932a78cf","1","66952367721687887540318f","1","2025-07-09T08:43:11.937Z","","{""Q01"":""1"",""Q02"":""1"",""Q03"":""0"",""Q04"":""3"",""Q05"":""3"",""Q06"":""2"",""Q07"":""2"",""Q08"":""0"",""Q09"":""4"",""Q10"":""1"",""Q11"":""1"",""Q12"":""5"",""Q13"":""5"",""Q14"":""1"",""Q15"":""5"",""Q16"":""0"",""Q17"":""1"",""Q18"":""1"",""Q19"":""2"",""Q20"":""1"",""Q21"":""1"",""Q22"":""0""}","[0,1,2,3,4,5,6,7,8,9,10,11,12,13,14,15,16,17,18,19,20,21]","[""Q01"",""Q02"",""Q03"",""Q04"",""Q05"",""Q06"",""Q07"",""Q08"",""Q09"",""Q10"",""Q11"",""Q12"",""Q13"",""Q13"",""Q14"",""Q15"",""Q16"",""Q17"",""Q18"",""Q19"",""Q19"",""Q20"",""Q21"",""Q22""]","[9795,11305.399999999907,14297.200000000186,16080.899999999907,20257.100000000093,22881.399999999907,25193.600000000093,30721.30000000028,41570.60000000009,45194.30000000028,46865.80000000028,50418.30000000028,53411.200000000186,53490.30000000028,55498.30000000028,60026.80000000028,62506.700000000186,73234.5,74882.8999999999,82138.5,86690.80000000028,94515.30000000028,98323.5,99739.70000000019]","[]","[0.3000000002793968,6448.100000000093,9795,11305.399999999907,14297.200000000186,16080.899999999907,20257.100000000093,22881.399999999907,25193.600000000093,28770,30721.30000000028,41570.60000000009,45194.30000000028,46865.80000000028,50418.30000000028,53411.200000000186,53490.30000000028,55498.30000000028,60026.80000000028,62506.700000000186,73234.5,74882.8999999999,82138.5,85115.8999999999,86690.80000000028,94515.30000000028,96723.8999999999,98323.5,99739.70000000019,101917]","0.4090909090909091","0.3333333333333333","0","drsp","","","","","","","","","","","","","","","","","","","","","","","","","","","","","","",""
"13753.299999999814","","","","survey-template","4","150581","0.0-2.0-2.0","12","1","2025-07-09 08:40:32","01610cd0009c79a99da7d0a3353eb402","102.128.184.38","Mozilla/5.0 (Windows NT 10.0; Win64; x64) AppleWebKit/537.36 (KHTML, like Gecko) Chrome/138.0.0.0 Safari/537.36 Edg/138.0.0.0","WebKit","Edge","138.0.0.0","Windows","10.0","https://app.prolific.com/","en-US,en;q=0.9,en-ZA;q=0.8","66952367721687887540318f","683db7602f5db6a34d12d064","686e2aa38dcec367932a78cf","1","66952367721687887540318f","1","2025-07-09T08:43:25.753Z","","{""Q01"":""2"",""Q02"":""1"",""Q03"":""1""}","[0,1,2]","[""Q01"",""Q02"",""Q02"",""Q03""]","[3949.7999999998137,6590.899999999907,9461.299999999814,11430.19999999972]","[]","[3949.7999999998137,6590.899999999907,9461.299999999814,11430.19999999972,13750.099999999627]","0.3333333333333333","0","0","stress","","","","","","","","","","","","","","","","","","","","","","","","","","","","","","",""
"5081","","","","instructions","5","155667","0.0-3.0-0.0","12","1","2025-07-09 08:40:32","01610cd0009c79a99da7d0a3353eb402","102.128.184.38","Mozilla/5.0 (Windows NT 10.0; Win64; x64) AppleWebKit/537.36 (KHTML, like Gecko) Chrome/138.0.0.0 Safari/537.36 Edg/138.0.0.0","WebKit","Edge","138.0.0.0","Windows","10.0","https://app.prolific.com/","en-US,en;q=0.9,en-ZA;q=0.8","66952367721687887540318f","683db7602f5db6a34d12d064","686e2aa38dcec367932a78cf","1","66952367721687887540318f","1","","","","","","","","","","","","","[{""page_index"":0,""viewing_time"":5080}]","","","","","","","","","","","","","","","","","","","","","","","","","","","","","",""
"82946","","<p>Before you start with this game please answer the following three questions yourself. </p>
  <p>Through this game, we measure several aspects of your cognitive performance, such as reaction times, multi-tasking capabilities </p>
  <p>and the ability to assess the situation you are in.</p>
  <p></p>
  <p><b>How good do you usually are in such tasks?</b></p>","100","html-slider-response","6","238631","0.0-4.0-0.0","12","1","2025-07-09 08:40:32","01610cd0009c79a99da7d0a3353eb402","102.128.184.38","Mozilla/5.0 (Windows NT 10.0; Win64; x64) AppleWebKit/537.36 (KHTML, like Gecko) Chrome/138.0.0.0 Safari/537.36 Edg/138.0.0.0","WebKit","Edge","138.0.0.0","Windows","10.0","https://app.prolific.com/","en-US,en;q=0.9,en-ZA;q=0.8","66952367721687887540318f","683db7602f5db6a34d12d064","686e2aa38dcec367932a78cf","1","66952367721687887540318f","1","2025-07-09T08:44:53.803Z","","","","","","","","","","","PreSkillQ","","50","","","","","","","","","","","","","","","","","","","","","","","","","","","","",""
"146735","","<div style=""width:500px;"">
  <p>How well do you think you will perform in this task compared to other participants?</p>
  </div>","94","html-slider-response","7","385380","0.0-4.0-1.0","12","1","2025-07-09 08:40:32","01610cd0009c79a99da7d0a3353eb402","102.128.184.38","Mozilla/5.0 (Windows NT 10.0; Win64; x64) AppleWebKit/537.36 (KHTML, like Gecko) Chrome/138.0.0.0 Safari/537.36 Edg/138.0.0.0","WebKit","Edge","138.0.0.0","Windows","10.0","https://app.prolific.com/","en-US,en;q=0.9,en-ZA;q=0.8","66952367721687887540318f","683db7602f5db6a34d12d064","686e2aa38dcec367932a78cf","1","66952367721687887540318f","1","2025-07-09T08:47:20.553Z","","","","","","","","","","","PrePerfQ","","50","","","","","","","","","","","","","","","","","","","","","","","","","","","","",""
"5366","","<div style=""width:500px;"">
  <p>What best describes how you currently feel?</p>
  </div>","92","html-slider-response","8","390760","0.0-4.0-2.0","12","1","2025-07-09 08:40:32","01610cd0009c79a99da7d0a3353eb402","102.128.184.38","Mozilla/5.0 (Windows NT 10.0; Win64; x64) AppleWebKit/537.36 (KHTML, like Gecko) Chrome/138.0.0.0 Safari/537.36 Edg/138.0.0.0","WebKit","Edge","138.0.0.0","Windows","10.0","https://app.prolific.com/","en-US,en;q=0.9,en-ZA;q=0.8","66952367721687887540318f","683db7602f5db6a34d12d064","686e2aa38dcec367932a78cf","1","66952367721687887540318f","1","2025-07-09T08:47:25.932Z","","","","","","","","","","","PreMotivationQ","","50","","","","","","","","","","","","","","","","","","","","","","","","","","","","",""
"","","","","ctl-task-cpt","9","435121","0.0-5.0-0.0","12","1","2025-07-09 08:40:32","01610cd0009c79a99da7d0a3353eb402","102.128.184.38","Mozilla/5.0 (Windows NT 10.0; Win64; x64) AppleWebKit/537.36 (KHTML, like Gecko) Chrome/138.0.0.0 Safari/537.36 Edg/138.0.0.0","WebKit","Edge","138.0.0.0","Windows","10.0","https://app.prolific.com/","en-US,en;q=0.9,en-ZA;q=0.8","66952367721687887540318f","683db7602f5db6a34d12d064","686e2aa38dcec367932a78cf","1","66952367721687887540318f","1","2025-07-09T08:48:10.293Z","","","","","","","","","","","","","","win-only","1","g1:NE,g2:SW","1","1","0","413423.9","5990.5","10994.8","41259.6","1","4","4","6","2","4","4","4","0","0.030303030303030304","2643.7","3000","890","[""down"",""left""]","{""num_key_presses"":6,""num_perfect"":6,""num_errors"":0,""num_randdir"":0,""num_randdir_good_moves"":0,""num_whilered"":0,""num_whileblue"":0,""num_blue"":4,""num_good_moves"":6}","[295.22232142857143,298.12857142857143,1.3,295.22232142857143,298.12857142857143,109.2,295.22232142857143,298.12857142857143,216.1,295.22232142857143,298.12857142857143,317.2,295.22232142857143,298.12857142857143,418.4,295.22232142857143,298.12857142857143,526.7,295.22232142857143,298.12857142857143,627.4,295.22232142857143,298.12857142857143,732.7,295.22232142857143,298.12857142857143,841.4,295.22232142857143,298.12857142857143,948.8,295.22232142857143,298.12857142857143,1049.8,295.22232142857143,298.12857142857143,1151.2,295.22232142857143,298.12857142857143,1251.7,295.22232142857143,298.12857142857143,1363.3,295.22232142857143,298.12857142857143,1467.2,295.22232142857143,298.12857142857143,1576.5,295.22232142857143,298.12857142857143,1677.1,269.22232142857143,377.12857142857143,1778.1,154.22232142857143,538.1285714285714,1882.3,130.22232142857143,559.1285714285714,1982.6,105.22232142857143,567.1285714285714,2083,72.22232142857143,572.1285714285714,2190.2,66.22232142857143,571.1285714285714,2291.1,64.22232142857143,570.1285714285714,2405.4,63.222321428571426,568.1285714285714,2507.6,63.222321428571426,568.1285714285714,2619.7,63.222321428571426,568.1285714285714,2720.4,63.222321428571426,568.1285714285714,2824.4,63.222321428571426,568.1285714285714,2931.8,63.222321428571426,568.1285714285714,3031.9,63.222321428571426,568.1285714285714,3132.3,63.222321428571426,568.1285714285714,3234,-5.777678571428574,562.1285714285714,3337.8,-88.77767857142857,527.1285714285714,3444.4,-95.77767857142857,519.1285714285714,3545.5,-100.77767857142857,514.1285714285714,3649.2,-100.77767857142857,514.1285714285714,3752.2,-100.77767857142857,514.1285714285714,3870,-100.77767857142857,514.1285714285714,3988.4,-100.77767857142857,514.1285714285714,4100.8,-100.77767857142857,514.1285714285714,4202.9,-100.77767857142857,514.1285714285714,4303.1,-100.77767857142857,514.1285714285714,4410.7,-100.77767857142857,514.1285714285714,4512.4,-100.77767857142857,514.1285714285714,4622.7,-100.77767857142857,514.1285714285714,4726.7,-100.77767857142857,514.1285714285714,4831.3,-100.77767857142857,514.1285714285714,4931.8]","[1680.7,1680.5,1000,0.2,680.5,""smooth"",""left"",""left"",""good_move"",17508.7,15825.7,2731.1,14227.6,550,""smooth"",""left"",""left"",""good_move"",20407,2896.2,2379.6,17510.8,516.6,""smooth"",""left"",""left"",""good_move"",23870.4,3461.9,2893.2,20408.6,568.6,""smooth"",""down"",""down"",""good_move"",26961.7,3090.1,2678.2,23871.7,411.9,""smooth"",""down"",""down"",""good_move"",30117.9,3154.4,2751,26963.6,403.3,""smooth"",""down"",""down"",""good_move""]","",""
"6358","","<div style=""width:500px;"">
  <p>What determined the result of this run?</p>
  </div>","92","html-slider-response","10","441490","0.0-5.0-1.0","12","1","2025-07-09 08:40:32","01610cd0009c79a99da7d0a3353eb402","102.128.184.38","Mozilla/5.0 (Windows NT 10.0; Win64; x64) AppleWebKit/537.36 (KHTML, like Gecko) Chrome/138.0.0.0 Safari/537.36 Edg/138.0.0.0","WebKit","Edge","138.0.0.0","Windows","10.0","https://app.prolific.com/","en-US,en;q=0.9,en-ZA;q=0.8","66952367721687887540318f","683db7602f5db6a34d12d064","686e2aa38dcec367932a78cf","1","66952367721687887540318f","1","2025-07-09T08:48:16.662Z","","","","","","","","","","","AttribQ","","50","","","","","","","","","","","","","","","","","","","","","","","","","","","","",""
"4019","","<div style=""width:500px;"">
  <p>How much control did you have over the ball?</p>
  </div>","75","html-slider-response","11","445514","0.0-5.0-2.0","12","1","2025-07-09 08:40:32","01610cd0009c79a99da7d0a3353eb402","102.128.184.38","Mozilla/5.0 (Windows NT 10.0; Win64; x64) AppleWebKit/537.36 (KHTML, like Gecko) Chrome/138.0.0.0 Safari/537.36 Edg/138.0.0.0","WebKit","Edge","138.0.0.0","Windows","10.0","https://app.prolific.com/","en-US,en;q=0.9,en-ZA;q=0.8","66952367721687887540318f","683db7602f5db6a34d12d064","686e2aa38dcec367932a78cf","1","66952367721687887540318f","1","2025-07-09T08:48:20.685Z","","","","","","","","","","","ControlQ","","50","","","","","","","","","","","","","","","","","","","","","","","","","","","","",""
"12077","","<div style=""width:500px;"">
  <p>How would you describe your current emotional state?</p>
  </div>","32","html-slider-response","12","457595","0.0-5.0-3.0","12","1","2025-07-09 08:40:32","01610cd0009c79a99da7d0a3353eb402","102.128.184.38","Mozilla/5.0 (Windows NT 10.0; Win64; x64) AppleWebKit/537.36 (KHTML, like Gecko) Chrome/138.0.0.0 Safari/537.36 Edg/138.0.0.0","WebKit","Edge","138.0.0.0","Windows","10.0","https://app.prolific.com/","en-US,en;q=0.9,en-ZA;q=0.8","66952367721687887540318f","683db7602f5db6a34d12d064","686e2aa38dcec367932a78cf","1","66952367721687887540318f","1","2025-07-09T08:48:32.766Z","","","","","","","","","","","StressQ","","50","","","","","","","","","","","","","","","","","","","","","","","","","","","","",""
"6028","","<div style=""width:500px;"">
  <p>What best describes how you currently feel?</p>
  </div>","28","html-slider-response","13","463628","0.0-5.0-4.0","12","1","2025-07-09 08:40:32","01610cd0009c79a99da7d0a3353eb402","102.128.184.38","Mozilla/5.0 (Windows NT 10.0; Win64; x64) AppleWebKit/537.36 (KHTML, like Gecko) Chrome/138.0.0.0 Safari/537.36 Edg/138.0.0.0","WebKit","Edge","138.0.0.0","Windows","10.0","https://app.prolific.com/","en-US,en;q=0.9,en-ZA;q=0.8","66952367721687887540318f","683db7602f5db6a34d12d064","686e2aa38dcec367932a78cf","1","66952367721687887540318f","1","2025-07-09T08:48:38.799Z","","","","","","","","","","","MotivationQ","","50","","","","","","","","","","","","","","","","","","","","","","","","","","","","",""
"","","","","ctl-task-cpt","14","494236","0.0-5.0-0.1","12","1","2025-07-09 08:40:32","01610cd0009c79a99da7d0a3353eb402","102.128.184.38","Mozilla/5.0 (Windows NT 10.0; Win64; x64) AppleWebKit/537.36 (KHTML, like Gecko) Chrome/138.0.0.0 Safari/537.36 Edg/138.0.0.0","WebKit","Edge","138.0.0.0","Windows","10.0","https://app.prolific.com/","en-US,en;q=0.9,en-ZA;q=0.8","66952367721687887540318f","683db7602f5db6a34d12d064","686e2aa38dcec367932a78cf","1","66952367721687887540318f","1","2025-07-09T08:49:09.407Z","","","","","","","","","","","","","","win-only","1","g1:NE,g2:SW","0.9","2","0","486230.3","3312.6","8316.8","27572.4","1","4","8","6","2","8","8","12","4","0.09090909090909091","1818.1","3000","1225","[""down"",""left""]","{""num_key_presses"":6,""num_perfect"":5,""num_errors"":0,""num_randdir"":1,""num_randdir_good_moves"":1,""num_whilered"":0,""num_whileblue"":0,""num_blue"":1,""num_good_moves"":6}","[300.22232142857143,297.12857142857143,2.9,300.22232142857143,297.12857142857143,111.3,300.22232142857143,297.12857142857143,218.6,300.22232142857143,297.12857142857143,322.4,300.22232142857143,297.12857142857143,439.5,300.22232142857143,297.12857142857143,541.1,300.22232142857143,297.12857142857143,648,300.22232142857143,297.12857142857143,748.9,300.22232142857143,297.12857142857143,855.3,300.22232142857143,297.12857142857143,958.8,300.22232142857143,298.12857142857143,1061.2,157.22232142857143,496.12857142857143,1165.2,116.22232142857143,544.1285714285714,1290.4,86.22232142857143,578.1285714285714,1401.8,74.22232142857143,578.1285714285714,1511.9,71.22232142857143,575.1285714285714,1617.5,71.22232142857143,575.1285714285714,1732,71.22232142857143,575.1285714285714,1834.8,71.22232142857143,575.1285714285714,1937.9,71.22232142857143,575.1285714285714,2041.6,71.22232142857143,575.1285714285714,2142.3,71.22232142857143,575.1285714285714,2255.2,71.22232142857143,575.1285714285714,2357,71.22232142857143,575.1285714285714,2464.8,71.22232142857143,575.1285714285714,2570.5,71.22232142857143,575.1285714285714,2671,247.22232142857143,576.1285714285714,2778.6,338.22232142857143,602.1285714285714,2879.5,386.22232142857143,615.1285714285714,2980.3,389.22232142857143,615.1285714285714,3089,389.22232142857143,615.1285714285714,3192.8,389.22232142857143,615.1285714285714,3294.7,389.22232142857143,615.1285714285714,3401.8,389.22232142857143,615.1285714285714,3503,389.22232142857143,615.1285714285714,3606.7,389.22232142857143,615.1285714285714,3713.8,389.22232142857143,615.1285714285714,3814.1,389.22232142857143,615.1285714285714,3914.2,389.22232142857143,615.1285714285714,4029.7,389.22232142857143,615.1285714285714,4134.8,389.22232142857143,615.1285714285714,4237.3,389.22232142857143,615.1285714285714,4341.3,389.22232142857143,615.1285714285714,4452.3,389.22232142857143,615.1285714285714,4555,389.22232142857143,615.1285714285714,4660.6,389.22232142857143,615.1285714285714,4763.3,389.22232142857143,615.1285714285714,4865.1,389.22232142857143,615.1285714285714,4971.1]","[1464.8,1464.7,1000,0.1,464.7,""smooth"",""left"",""left"",""good_move"",3590.4,2121.6,1649.9,1469,471.6,""smooth"",""left"",""left"",""good_move"",6410.7,2819.3,2351.7,3591.4,467.6,""smooth"",""left"",""left"",""good_move"",9660.5,3249,2770.9,6411.5,478.1,""smooth"",""down"",""down"",""good_move"",15975.7,6313.7,2722.6,12754.6,498.5,""oops"",""down"",""down"",""good_move"",19110.3,3133.1,2663.6,15977.3,469.5,""smooth"",""down"",""down"",""good_move""]","",""
"3963","","<div style=""width:500px;"">
  <p>What determined the result of this run?</p>
  </div>","85","html-slider-response","15","498204","0.0-5.0-1.1","12","1","2025-07-09 08:40:32","01610cd0009c79a99da7d0a3353eb402","102.128.184.38","Mozilla/5.0 (Windows NT 10.0; Win64; x64) AppleWebKit/537.36 (KHTML, like Gecko) Chrome/138.0.0.0 Safari/537.36 Edg/138.0.0.0","WebKit","Edge","138.0.0.0","Windows","10.0","https://app.prolific.com/","en-US,en;q=0.9,en-ZA;q=0.8","66952367721687887540318f","683db7602f5db6a34d12d064","686e2aa38dcec367932a78cf","1","66952367721687887540318f","1","2025-07-09T08:49:13.375Z","","","","","","","","","","","AttribQ","","50","","","","","","","","","","","","","","","","","","","","","","","","","","","","",""
"4597","","<div style=""width:500px;"">
  <p>How much control did you have over the ball?</p>
  </div>","92","html-slider-response","16","502804","0.0-5.0-2.1","12","1","2025-07-09 08:40:32","01610cd0009c79a99da7d0a3353eb402","102.128.184.38","Mozilla/5.0 (Windows NT 10.0; Win64; x64) AppleWebKit/537.36 (KHTML, like Gecko) Chrome/138.0.0.0 Safari/537.36 Edg/138.0.0.0","WebKit","Edge","138.0.0.0","Windows","10.0","https://app.prolific.com/","en-US,en;q=0.9,en-ZA;q=0.8","66952367721687887540318f","683db7602f5db6a34d12d064","686e2aa38dcec367932a78cf","1","66952367721687887540318f","1","2025-07-09T08:49:17.975Z","","","","","","","","","","","ControlQ","","50","","","","","","","","","","","","","","","","","","","","","","","","","","","","",""
"7759","","<div style=""width:500px;"">
  <p>How would you describe your current emotional state?</p>
  </div>","50","html-slider-response","17","510569","0.0-5.0-3.1","12","1","2025-07-09 08:40:32","01610cd0009c79a99da7d0a3353eb402","102.128.184.38","Mozilla/5.0 (Windows NT 10.0; Win64; x64) AppleWebKit/537.36 (KHTML, like Gecko) Chrome/138.0.0.0 Safari/537.36 Edg/138.0.0.0","WebKit","Edge","138.0.0.0","Windows","10.0","https://app.prolific.com/","en-US,en;q=0.9,en-ZA;q=0.8","66952367721687887540318f","683db7602f5db6a34d12d064","686e2aa38dcec367932a78cf","1","66952367721687887540318f","1","2025-07-09T08:49:25.740Z","","","","","","","","","","","StressQ","","50","","","","","","","","","","","","","","","","","","","","","","","","","","","","",""
"5214","","<div style=""width:500px;"">
  <p>What best describes how you currently feel?</p>
  </div>","50","html-slider-response","18","515789","0.0-5.0-4.1","12","1","2025-07-09 08:40:32","01610cd0009c79a99da7d0a3353eb402","102.128.184.38","Mozilla/5.0 (Windows NT 10.0; Win64; x64) AppleWebKit/537.36 (KHTML, like Gecko) Chrome/138.0.0.0 Safari/537.36 Edg/138.0.0.0","WebKit","Edge","138.0.0.0","Windows","10.0","https://app.prolific.com/","en-US,en;q=0.9,en-ZA;q=0.8","66952367721687887540318f","683db7602f5db6a34d12d064","686e2aa38dcec367932a78cf","1","66952367721687887540318f","1","2025-07-09T08:49:30.960Z","","","","","","","","","","","MotivationQ","","50","","","","","","","","","","","","","","","","","","","","","","","","","","","","",""
"","","","","ctl-task-cpt","19","546632","0.0-5.0-0.2","12","1","2025-07-09 08:40:32","01610cd0009c79a99da7d0a3353eb402","102.128.184.38","Mozilla/5.0 (Windows NT 10.0; Win64; x64) AppleWebKit/537.36 (KHTML, like Gecko) Chrome/138.0.0.0 Safari/537.36 Edg/138.0.0.0","WebKit","Edge","138.0.0.0","Windows","10.0","https://app.prolific.com/","en-US,en;q=0.9,en-ZA;q=0.8","66952367721687887540318f","683db7602f5db6a34d12d064","686e2aa38dcec367932a78cf","1","66952367721687887540318f","1","2025-07-09T08:50:01.803Z","","","","","","","","","","","","","","win-only","0","g1:NW,g2:SE","0.8","3","0","538374.2","2231.7","7238","27824.5","1","4","8","6","2","8","8","20","12","0.15151515151515152","1817.8","3000","1190","[""down"",""right""]","{""num_key_presses"":6,""num_perfect"":6,""num_errors"":0,""num_randdir"":0,""num_randdir_good_moves"":0,""num_whilered"":0,""num_whileblue"":0,""num_blue"":1,""num_good_moves"":6}","[299.22232142857143,295.12857142857143,0.9,299.22232142857143,295.12857142857143,107,299.22232142857143,295.12857142857143,207.2,299.22232142857143,295.12857142857143,315.4,299.22232142857143,295.12857142857143,425.7,299.22232142857143,295.12857142857143,526.6,299.22232142857143,295.12857142857143,626.8,299.22232142857143,295.12857142857143,731.1,299.22232142857143,295.12857142857143,839.4,299.22232142857143,295.12857142857143,939.7,312.22232142857143,305.12857142857143,1046.4,446.22232142857143,469.12857142857143,1150,495.22232142857143,546.1285714285714,1255.8,504.22232142857143,559.1285714285714,1358.9,517.2223214285714,555.1285714285714,1461.2,526.2223214285714,551.1285714285714,1573.5,535.2223214285714,545.1285714285714,1689.7,535.2223214285714,545.1285714285714,1796.3,535.2223214285714,545.1285714285714,1899.1,535.2223214285714,545.1285714285714,2005,535.2223214285714,545.1285714285714,2110.9,535.2223214285714,545.1285714285714,2216,535.2223214285714,545.1285714285714,2316.4,684.2223214285714,459.12857142857143,2418.3,708.2223214285714,442.12857142857143,2519.3,718.2223214285714,437.12857142857143,2619.7,720.2223214285714,435.12857142857143,2737.6,720.2223214285714,435.12857142857143,2839.4,720.2223214285714,435.12857142857143,2949.8,720.2223214285714,435.12857142857143,3065.2,720.2223214285714,435.12857142857143,3177.4,720.2223214285714,435.12857142857143,3279.7,720.2223214285714,435.12857142857143,3383.8,720.2223214285714,435.12857142857143,3491.5,720.2223214285714,435.12857142857143,3606.3,720.2223214285714,435.12857142857143,3711.7,720.2223214285714,435.12857142857143,3814.6,720.2223214285714,435.12857142857143,3917.3,720.2223214285714,435.12857142857143,4019.9,720.2223214285714,435.12857142857143,4120.6,720.2223214285714,435.12857142857143,4226.1,720.2223214285714,435.12857142857143,4340.3,720.2223214285714,435.12857142857143,4445.1,720.2223214285714,435.12857142857143,4558.7,720.2223214285714,435.12857142857143,4670.8,720.2223214285714,435.12857142857143,4771.5,720.2223214285714,435.12857142857143,4872.8,720.2223214285714,435.12857142857143,4978.6]","[1464.9,1464.9,1000,0,464.9,""smooth"",""right"",""right"",""good_move"",8051.3,6584.5,2532.7,4984.4,534.2,""smooth"",""right"",""right"",""good_move"",10975.7,2923.6,2422.9,8052.3,500.6,""smooth"",""right"",""right"",""good_move"",13836.2,2858.4,2364.6,10977.8,493.8,""smooth"",""down"",""down"",""good_move"",17370,3530.6,2662.2,13839.4,868.4,""smooth"",""down"",""down"",""good_move"",20408.7,3036.8,2593.3,17372,443.4,""smooth"",""down"",""down"",""good_move""]","",""
"7566","","<div style=""width:500px;"">
  <p>What determined the result of this run?</p>
  </div>","92","html-slider-response","20","554205","0.0-5.0-1.2","12","1","2025-07-09 08:40:32","01610cd0009c79a99da7d0a3353eb402","102.128.184.38","Mozilla/5.0 (Windows NT 10.0; Win64; x64) AppleWebKit/537.36 (KHTML, like Gecko) Chrome/138.0.0.0 Safari/537.36 Edg/138.0.0.0","WebKit","Edge","138.0.0.0","Windows","10.0","https://app.prolific.com/","en-US,en;q=0.9,en-ZA;q=0.8","66952367721687887540318f","683db7602f5db6a34d12d064","686e2aa38dcec367932a78cf","1","66952367721687887540318f","1","2025-07-09T08:50:09.376Z","","","","","","","","","","","AttribQ","","50","","","","","","","","","","","","","","","","","","","","","","","","","","","","",""
"3836","","<div style=""width:500px;"">
  <p>How much control did you have over the ball?</p>
  </div>","97","html-slider-response","21","558046","0.0-5.0-2.2","12","1","2025-07-09 08:40:32","01610cd0009c79a99da7d0a3353eb402","102.128.184.38","Mozilla/5.0 (Windows NT 10.0; Win64; x64) AppleWebKit/537.36 (KHTML, like Gecko) Chrome/138.0.0.0 Safari/537.36 Edg/138.0.0.0","WebKit","Edge","138.0.0.0","Windows","10.0","https://app.prolific.com/","en-US,en;q=0.9,en-ZA;q=0.8","66952367721687887540318f","683db7602f5db6a34d12d064","686e2aa38dcec367932a78cf","1","66952367721687887540318f","1","2025-07-09T08:50:13.217Z","","","","","","","","","","","ControlQ","","50","","","","","","","","","","","","","","","","","","","","","","","","","","","","",""
"6925","","<div style=""width:500px;"">
  <p>How would you describe your current emotional state?</p>
  </div>","37","html-slider-response","22","564974","0.0-5.0-3.2","12","1","2025-07-09 08:40:32","01610cd0009c79a99da7d0a3353eb402","102.128.184.38","Mozilla/5.0 (Windows NT 10.0; Win64; x64) AppleWebKit/537.36 (KHTML, like Gecko) Chrome/138.0.0.0 Safari/537.36 Edg/138.0.0.0","WebKit","Edge","138.0.0.0","Windows","10.0","https://app.prolific.com/","en-US,en;q=0.9,en-ZA;q=0.8","66952367721687887540318f","683db7602f5db6a34d12d064","686e2aa38dcec367932a78cf","1","66952367721687887540318f","1","2025-07-09T08:50:20.146Z","","","","","","","","","","","StressQ","","50","","","","","","","","","","","","","","","","","","","","","","","","","","","","",""
"7245","","<div style=""width:500px;"">
  <p>What best describes how you currently feel?</p>
  </div>","100","html-slider-response","23","572224","0.0-5.0-4.2","12","1","2025-07-09 08:40:32","01610cd0009c79a99da7d0a3353eb402","102.128.184.38","Mozilla/5.0 (Windows NT 10.0; Win64; x64) AppleWebKit/537.36 (KHTML, like Gecko) Chrome/138.0.0.0 Safari/537.36 Edg/138.0.0.0","WebKit","Edge","138.0.0.0","Windows","10.0","https://app.prolific.com/","en-US,en;q=0.9,en-ZA;q=0.8","66952367721687887540318f","683db7602f5db6a34d12d064","686e2aa38dcec367932a78cf","1","66952367721687887540318f","1","2025-07-09T08:50:27.395Z","","","","","","","","","","","MotivationQ","","50","","","","","","","","","","","","","","","","","","","","","","","","","","","","",""
"","","","","ctl-task-cpt","24","672660","0.0-5.0-0.3","12","1","2025-07-09 08:40:32","01610cd0009c79a99da7d0a3353eb402","102.128.184.38","Mozilla/5.0 (Windows NT 10.0; Win64; x64) AppleWebKit/537.36 (KHTML, like Gecko) Chrome/138.0.0.0 Safari/537.36 Edg/138.0.0.0","WebKit","Edge","138.0.0.0","Windows","10.0","https://app.prolific.com/","en-US,en;q=0.9,en-ZA;q=0.8","66952367721687887540318f","683db7602f5db6a34d12d064","686e2aa38dcec367932a78cf","1","66952367721687887540318f","1","2025-07-09T08:52:07.831Z","","","","","","","","","","","","","","win-only","2","g1:SE,g2:NW","0.7","4","0","594813.8","72030.7","77039.2","97409.8","1","4","4","6","2","4","4","24","20","0.18181818181818182","1871.2","3000","1415","[""left"",""up""]","{""num_key_presses"":6,""num_perfect"":4,""num_errors"":0,""num_randdir"":2,""num_randdir_good_moves"":2,""num_whilered"":0,""num_whileblue"":0,""num_blue"":1,""num_good_moves"":6}","[299.22232142857143,289.12857142857143,4.1,299.22232142857143,289.12857142857143,103.3,299.22232142857143,289.12857142857143,208.1,299.22232142857143,289.12857142857143,313.3,299.22232142857143,289.12857142857143,416.9,299.22232142857143,289.12857142857143,517,299.22232142857143,289.12857142857143,621.2,299.22232142857143,289.12857142857143,723,299.22232142857143,289.12857142857143,831.9,299.22232142857143,289.12857142857143,935.6,299.22232142857143,289.12857142857143,1035.8,182.22232142857143,242.12857142857143,1143,88.22232142857143,182.12857142857143,1247.7,74.22232142857143,158.12857142857143,1351.1,55.222321428571426,71.12857142857143,1454.1,51.222321428571426,50.128571428571426,1554.2,50.222321428571426,48.128571428571426,1661.9,50.222321428571426,48.128571428571426,1769.2,50.222321428571426,48.128571428571426,1882.6,50.222321428571426,48.128571428571426,1996.6,50.222321428571426,48.128571428571426,2098.7,50.222321428571426,48.128571428571426,2200.7,50.222321428571426,48.128571428571426,2300.9,50.222321428571426,48.128571428571426,2401.3,55.222321428571426,49.128571428571426,2505.1,470.22232142857143,120.12857142857143,2606.2,716.2223214285714,152.12857142857143,2709.6,742.2223214285714,153.12857142857143,2818.2,749.2223214285714,152.12857142857143,2922.4,750.2223214285714,152.12857142857143,3022.6,750.2223214285714,152.12857142857143,3124.5,750.2223214285714,152.12857142857143,3232.4,750.2223214285714,152.12857142857143,3340.7,750.2223214285714,152.12857142857143,3444.1,750.2223214285714,152.12857142857143,3548.7,750.2223214285714,152.12857142857143,3656.3,750.2223214285714,152.12857142857143,3769.1,750.2223214285714,152.12857142857143,3876.9,750.2223214285714,152.12857142857143,3987.3,750.2223214285714,152.12857142857143,4088.2,750.2223214285714,152.12857142857143,4191.3,750.2223214285714,152.12857142857143,4297.8,750.2223214285714,152.12857142857143,4406.2,750.2223214285714,152.12857142857143,4515.8,750.2223214285714,152.12857142857143,4617.8,750.2223214285714,152.12857142857143,4721,750.2223214285714,152.12857142857143,4821.4,750.2223214285714,152.12857142857143,4929.7]","[5887.5,5887.5,3341,2010,536.5,""smooth"",""up"",""up"",""good_move"",8961,3069.7,2509.4,5891.3,560.3,""smooth"",""up"",""up"",""good_move"",11787,2825,2341.6,8962,483.5,""smooth"",""up"",""up"",""good_move"",14666.8,2876.7,2483.6,11790.3,393,""oops"",""left"",""left"",""good_move"",17513.9,2845.8,2342.2,14668.1,503.6,""oops"",""left"",""left"",""good_move"",20143.4,2627.1,2156.4,17516.3,470.7,""smooth"",""left"",""left"",""good_move""]","",""
"5516","","<div style=""width:500px;"">
  <p>What determined the result of this run?</p>
  </div>","89","html-slider-response","25","678186","0.0-5.0-1.3","12","1","2025-07-09 08:40:32","01610cd0009c79a99da7d0a3353eb402","102.128.184.38","Mozilla/5.0 (Windows NT 10.0; Win64; x64) AppleWebKit/537.36 (KHTML, like Gecko) Chrome/138.0.0.0 Safari/537.36 Edg/138.0.0.0","WebKit","Edge","138.0.0.0","Windows","10.0","https://app.prolific.com/","en-US,en;q=0.9,en-ZA;q=0.8","66952367721687887540318f","683db7602f5db6a34d12d064","686e2aa38dcec367932a78cf","1","66952367721687887540318f","1","2025-07-09T08:52:13.357Z","","","","","","","","","","","AttribQ","","50","","","","","","","","","","","","","","","","","","","","","","","","","","","","",""
"2851","","<div style=""width:500px;"">
  <p>How much control did you have over the ball?</p>
  </div>","90","html-slider-response","26","681042","0.0-5.0-2.3","12","1","2025-07-09 08:40:32","01610cd0009c79a99da7d0a3353eb402","102.128.184.38","Mozilla/5.0 (Windows NT 10.0; Win64; x64) AppleWebKit/537.36 (KHTML, like Gecko) Chrome/138.0.0.0 Safari/537.36 Edg/138.0.0.0","WebKit","Edge","138.0.0.0","Windows","10.0","https://app.prolific.com/","en-US,en;q=0.9,en-ZA;q=0.8","66952367721687887540318f","683db7602f5db6a34d12d064","686e2aa38dcec367932a78cf","1","66952367721687887540318f","1","2025-07-09T08:52:16.213Z","","","","","","","","","","","ControlQ","","50","","","","","","","","","","","","","","","","","","","","","","","","","","","","",""
"3460","","<div style=""width:500px;"">
  <p>How would you describe your current emotional state?</p>
  </div>","45","html-slider-response","27","684506","0.0-5.0-3.3","12","1","2025-07-09 08:40:32","01610cd0009c79a99da7d0a3353eb402","102.128.184.38","Mozilla/5.0 (Windows NT 10.0; Win64; x64) AppleWebKit/537.36 (KHTML, like Gecko) Chrome/138.0.0.0 Safari/537.36 Edg/138.0.0.0","WebKit","Edge","138.0.0.0","Windows","10.0","https://app.prolific.com/","en-US,en;q=0.9,en-ZA;q=0.8","66952367721687887540318f","683db7602f5db6a34d12d064","686e2aa38dcec367932a78cf","1","66952367721687887540318f","1","2025-07-09T08:52:19.677Z","","","","","","","","","","","StressQ","","50","","","","","","","","","","","","","","","","","","","","","","","","","","","","",""
"2860","","<div style=""width:500px;"">
  <p>What best describes how you currently feel?</p>
  </div>","45","html-slider-response","28","687371","0.0-5.0-4.3","12","1","2025-07-09 08:40:32","01610cd0009c79a99da7d0a3353eb402","102.128.184.38","Mozilla/5.0 (Windows NT 10.0; Win64; x64) AppleWebKit/537.36 (KHTML, like Gecko) Chrome/138.0.0.0 Safari/537.36 Edg/138.0.0.0","WebKit","Edge","138.0.0.0","Windows","10.0","https://app.prolific.com/","en-US,en;q=0.9,en-ZA;q=0.8","66952367721687887540318f","683db7602f5db6a34d12d064","686e2aa38dcec367932a78cf","1","66952367721687887540318f","1","2025-07-09T08:52:22.542Z","","","","","","","","","","","MotivationQ","","50","","","","","","","","","","","","","","","","","","","","","","","","","","","","",""
"","","","","ctl-task-cpt","29","713090","0.0-5.0-0.4","12","1","2025-07-09 08:40:32","01610cd0009c79a99da7d0a3353eb402","102.128.184.38","Mozilla/5.0 (Windows NT 10.0; Win64; x64) AppleWebKit/537.36 (KHTML, like Gecko) Chrome/138.0.0.0 Safari/537.36 Edg/138.0.0.0","WebKit","Edge","138.0.0.0","Windows","10.0","https://app.prolific.com/","en-US,en;q=0.9,en-ZA;q=0.8","66952367721687887540318f","683db7602f5db6a34d12d064","686e2aa38dcec367932a78cf","1","66952367721687887540318f","1","2025-07-09T08:52:48.261Z","","","","","","","","","","","","","","win-only","0","g1:NW,g2:SE","0.6","5","0","709957.9","2058.5","7069.7","22687.7","1","4","4","6","2","4","4","28","24","0.21212121212121213","1821.4","3000","1590","[""down"",""right""]","{""num_key_presses"":6,""num_perfect"":5,""num_errors"":0,""num_randdir"":1,""num_randdir_good_moves"":1,""num_whilered"":0,""num_whileblue"":0,""num_blue"":0,""num_good_moves"":6}","[301.22232142857143,298.12857142857143,2,301.22232142857143,298.12857142857143,105.9,301.22232142857143,298.12857142857143,213.3,301.22232142857143,298.12857142857143,315.3,301.22232142857143,298.12857142857143,419,301.22232142857143,298.12857142857143,521.1,301.22232142857143,298.12857142857143,628.5,301.22232142857143,298.12857142857143,728.8,301.22232142857143,298.12857142857143,856.4,301.22232142857143,298.12857142857143,962.4,438.22232142857143,376.12857142857143,1077.8,516.2223214285714,474.12857142857143,1185.9,520.2223214285714,488.12857142857143,1308.1,517.2223214285714,500.12857142857143,1424.7,517.2223214285714,509.12857142857143,1533.1,519.2223214285714,513.1285714285714,1644.3,519.2223214285714,513.1285714285714,1746.1,519.2223214285714,513.1285714285714,1853.5,519.2223214285714,513.1285714285714,1962.6,519.2223214285714,513.1285714285714,2073.3,519.2223214285714,513.1285714285714,2175.1,519.2223214285714,513.1285714285714,2275.9,540.2223214285714,494.12857142857143,2388,668.2223214285714,365.12857142857143,2489.4,686.2223214285714,339.12857142857143,2593.4,691.2223214285714,331.12857142857143,2698.6,691.2223214285714,331.12857142857143,2802.9,691.2223214285714,331.12857142857143,2905.3,691.2223214285714,331.12857142857143,3011.1,691.2223214285714,331.12857142857143,3120.7,691.2223214285714,331.12857142857143,3227.5,691.2223214285714,331.12857142857143,3328.7,691.2223214285714,331.12857142857143,3430.6,691.2223214285714,331.12857142857143,3539.6,691.2223214285714,331.12857142857143,3645.1,691.2223214285714,331.12857142857143,3751.3,691.2223214285714,331.12857142857143,3858.2,691.2223214285714,331.12857142857143,3964.1,691.2223214285714,331.12857142857143,4074.8,691.2223214285714,331.12857142857143,4175.4,691.2223214285714,331.12857142857143,4275.4,691.2223214285714,331.12857142857143,4387.9,691.2223214285714,331.12857142857143,4489,691.2223214285714,331.12857142857143,4593.1,691.2223214285714,331.12857142857143,4701.4,691.2223214285714,331.12857142857143,4805.1,691.2223214285714,331.12857142857143,4905.9]","[1449.6,1449.6,1000,0,449.6,""smooth"",""down"",""down"",""good_move"",4079,2623.6,2042.9,1455.5,580.6,""oops"",""down"",""right"",""good_move"",6959.9,2874.2,2398.7,4085.8,475.4,""smooth"",""down"",""down"",""good_move"",9037.5,2075.4,1325.3,6962.2,750,""smooth"",""down"",""down"",""good_move"",11967.1,2927.4,2475.5,9039.7,452,""smooth"",""right"",""right"",""good_move"",15423.1,3454.8,3022.7,11968.3,432.1,""smooth"",""right"",""right"",""good_move""]","",""
"15624","","<div style=""width:500px;"">
  <p>What determined the result of this run?</p>
  </div>","100","html-slider-response","30","728719","0.0-5.0-1.4","12","1","2025-07-09 08:40:32","01610cd0009c79a99da7d0a3353eb402","102.128.184.38","Mozilla/5.0 (Windows NT 10.0; Win64; x64) AppleWebKit/537.36 (KHTML, like Gecko) Chrome/138.0.0.0 Safari/537.36 Edg/138.0.0.0","WebKit","Edge","138.0.0.0","Windows","10.0","https://app.prolific.com/","en-US,en;q=0.9,en-ZA;q=0.8","66952367721687887540318f","683db7602f5db6a34d12d064","686e2aa38dcec367932a78cf","1","66952367721687887540318f","1","2025-07-09T08:53:03.891Z","","","","","","","","","","","AttribQ","","50","","","","","","","","","","","","","","","","","","","","","","","","","","","","",""
"6255","","<div style=""width:500px;"">
  <p>How much control did you have over the ball?</p>
  </div>","100","html-slider-response","31","734979","0.0-5.0-2.4","12","1","2025-07-09 08:40:32","01610cd0009c79a99da7d0a3353eb402","102.128.184.38","Mozilla/5.0 (Windows NT 10.0; Win64; x64) AppleWebKit/537.36 (KHTML, like Gecko) Chrome/138.0.0.0 Safari/537.36 Edg/138.0.0.0","WebKit","Edge","138.0.0.0","Windows","10.0","https://app.prolific.com/","en-US,en;q=0.9,en-ZA;q=0.8","66952367721687887540318f","683db7602f5db6a34d12d064","686e2aa38dcec367932a78cf","1","66952367721687887540318f","1","2025-07-09T08:53:10.150Z","","","","","","","","","","","ControlQ","","50","","","","","","","","","","","","","","","","","","","","","","","","","","","","",""
"20502","","<div style=""width:500px;"">
  <p>How would you describe your current emotional state?</p>
  </div>","45","html-slider-response","32","755486","0.0-5.0-3.4","12","1","2025-07-09 08:40:32","01610cd0009c79a99da7d0a3353eb402","102.128.184.38","Mozilla/5.0 (Windows NT 10.0; Win64; x64) AppleWebKit/537.36 (KHTML, like Gecko) Chrome/138.0.0.0 Safari/537.36 Edg/138.0.0.0","WebKit","Edge","138.0.0.0","Windows","10.0","https://app.prolific.com/","en-US,en;q=0.9,en-ZA;q=0.8","66952367721687887540318f","683db7602f5db6a34d12d064","686e2aa38dcec367932a78cf","1","66952367721687887540318f","1","2025-07-09T08:53:30.658Z","","","","","","","","","","","StressQ","","50","","","","","","","","","","","","","","","","","","","","","","","","","","","","",""
"4209","","<div style=""width:500px;"">
  <p>What best describes how you currently feel?</p>
  </div>","99","html-slider-response","33","759701","0.0-5.0-4.4","12","1","2025-07-09 08:40:32","01610cd0009c79a99da7d0a3353eb402","102.128.184.38","Mozilla/5.0 (Windows NT 10.0; Win64; x64) AppleWebKit/537.36 (KHTML, like Gecko) Chrome/138.0.0.0 Safari/537.36 Edg/138.0.0.0","WebKit","Edge","138.0.0.0","Windows","10.0","https://app.prolific.com/","en-US,en;q=0.9,en-ZA;q=0.8","66952367721687887540318f","683db7602f5db6a34d12d064","686e2aa38dcec367932a78cf","1","66952367721687887540318f","1","2025-07-09T08:53:34.872Z","","","","","","","","","","","MotivationQ","","50","","","","","","","","","","","","","","","","","","","","","","","","","","","","",""
"","","","","ctl-task-cpt","34","795471","0.0-5.0-0.5","12","1","2025-07-09 08:40:32","01610cd0009c79a99da7d0a3353eb402","102.128.184.38","Mozilla/5.0 (Windows NT 10.0; Win64; x64) AppleWebKit/537.36 (KHTML, like Gecko) Chrome/138.0.0.0 Safari/537.36 Edg/138.0.0.0","WebKit","Edge","138.0.0.0","Windows","10.0","https://app.prolific.com/","en-US,en;q=0.9,en-ZA;q=0.8","66952367721687887540318f","683db7602f5db6a34d12d064","686e2aa38dcec367932a78cf","1","66952367721687887540318f","1","2025-07-09T08:54:10.643Z","","","","","","","","","","","","","","win-only","3","g1:SW,g2:NE","0.5","6","0","782290.4","2461.3","7464.8","32729.7","1","4","8","6","2","8","8","36","28","0.2727272727272727","2128.4","3000","1420","[""up"",""right""]","{""num_key_presses"":8,""num_perfect"":5,""num_errors"":0,""num_randdir"":3,""num_randdir_good_moves"":2,""num_whilered"":0,""num_whileblue"":0,""num_blue"":1,""num_good_moves"":7}","[300.22232142857143,294.12857142857143,1.5,300.22232142857143,294.12857142857143,102.2,300.22232142857143,294.12857142857143,217.9,300.22232142857143,294.12857142857143,319.5,300.22232142857143,294.12857142857143,427.4,300.22232142857143,294.12857142857143,537.4,300.22232142857143,294.12857142857143,648.3,300.22232142857143,294.12857142857143,751,300.22232142857143,294.12857142857143,852,420.22232142857143,272.12857142857143,956.2,453.22232142857143,241.12857142857143,1062.3,455.22232142857143,209.12857142857143,1174,489.22232142857143,149.12857142857143,1289.1,507.22232142857143,128.12857142857143,1401.2,512.2223214285714,118.12857142857143,1510.4,518.2223214285714,101.12857142857143,1623.2,518.2223214285714,86.12857142857143,1725.9,518.2223214285714,75.12857142857143,1827.3,518.2223214285714,75.12857142857143,1939.4,518.2223214285714,75.12857142857143,2047.7,518.2223214285714,75.12857142857143,2152.8,518.2223214285714,75.12857142857143,2256.7,518.2223214285714,75.12857142857143,2370.7,518.2223214285714,75.12857142857143,2483.4,628.2223214285714,121.12857142857143,2604.4,759.2223214285714,187.12857142857143,2720,761.2223214285714,190.12857142857143,2821.3,761.2223214285714,190.12857142857143,2930.7,761.2223214285714,190.12857142857143,3046.6,761.2223214285714,190.12857142857143,3156.7,761.2223214285714,190.12857142857143,3263.5,761.2223214285714,190.12857142857143,3373.7,761.2223214285714,190.12857142857143,3482,761.2223214285714,190.12857142857143,3590.4,761.2223214285714,190.12857142857143,3707.4,761.2223214285714,190.12857142857143,3814.7,761.2223214285714,190.12857142857143,3922.4,761.2223214285714,190.12857142857143,4025,761.2223214285714,190.12857142857143,4132.3,761.2223214285714,190.12857142857143,4240.9,761.2223214285714,190.12857142857143,4354,761.2223214285714,190.12857142857143,4460.1,761.2223214285714,190.12857142857143,4566.4,761.2223214285714,190.12857142857143,4675.2,761.2223214285714,190.12857142857143,4778.4,761.2223214285714,190.12857142857143,4896.4]","[1537.3,1537.3,1000,0,537.3,""oops"",""up"",""down"",""bad_move"",5212.5,3671.5,2868.5,1541.1,802.9,""smooth"",""up"",""up"",""good_move"",11177.8,5963.8,2180.6,8501.2,496,""smooth"",""up"",""up"",""good_move"",14221.9,3043.5,2416.2,11178.5,627.3,""oops"",""up"",""right"",""good_move"",16914.4,2690,2098.9,14224.4,591.1,""smooth"",""up"",""up"",""good_move"",19909.3,2993.3,2447.1,16916.2,546.1,""oops"",""up"",""up"",""good_move"",22851.3,2941.2,2365.3,19910.3,575.8,""smooth"",""right"",""right"",""good_move"",25021.3,2168,1691.6,22853.3,476.4,""smooth"",""right"",""right"",""good_move""]","",""
"5954","","<div style=""width:500px;"">
  <p>What determined the result of this run?</p>
  </div>","99","html-slider-response","35","801430","0.0-5.0-1.5","12","1","2025-07-09 08:40:32","01610cd0009c79a99da7d0a3353eb402","102.128.184.38","Mozilla/5.0 (Windows NT 10.0; Win64; x64) AppleWebKit/537.36 (KHTML, like Gecko) Chrome/138.0.0.0 Safari/537.36 Edg/138.0.0.0","WebKit","Edge","138.0.0.0","Windows","10.0","https://app.prolific.com/","en-US,en;q=0.9,en-ZA;q=0.8","66952367721687887540318f","683db7602f5db6a34d12d064","686e2aa38dcec367932a78cf","1","66952367721687887540318f","1","2025-07-09T08:54:16.602Z","","","","","","","","","","","AttribQ","","50","","","","","","","","","","","","","","","","","","","","","","","","","","","","",""
"3549","","<div style=""width:500px;"">
  <p>How much control did you have over the ball?</p>
  </div>","99","html-slider-response","36","804983","0.0-5.0-2.5","12","1","2025-07-09 08:40:32","01610cd0009c79a99da7d0a3353eb402","102.128.184.38","Mozilla/5.0 (Windows NT 10.0; Win64; x64) AppleWebKit/537.36 (KHTML, like Gecko) Chrome/138.0.0.0 Safari/537.36 Edg/138.0.0.0","WebKit","Edge","138.0.0.0","Windows","10.0","https://app.prolific.com/","en-US,en;q=0.9,en-ZA;q=0.8","66952367721687887540318f","683db7602f5db6a34d12d064","686e2aa38dcec367932a78cf","1","66952367721687887540318f","1","2025-07-09T08:54:20.155Z","","","","","","","","","","","ControlQ","","50","","","","","","","","","","","","","","","","","","","","","","","","","","","","",""
"4216","","<div style=""width:500px;"">
  <p>How would you describe your current emotional state?</p>
  </div>","45","html-slider-response","37","809209","0.0-5.0-3.5","12","1","2025-07-09 08:40:32","01610cd0009c79a99da7d0a3353eb402","102.128.184.38","Mozilla/5.0 (Windows NT 10.0; Win64; x64) AppleWebKit/537.36 (KHTML, like Gecko) Chrome/138.0.0.0 Safari/537.36 Edg/138.0.0.0","WebKit","Edge","138.0.0.0","Windows","10.0","https://app.prolific.com/","en-US,en;q=0.9,en-ZA;q=0.8","66952367721687887540318f","683db7602f5db6a34d12d064","686e2aa38dcec367932a78cf","1","66952367721687887540318f","1","2025-07-09T08:54:24.380Z","","","","","","","","","","","StressQ","","50","","","","","","","","","","","","","","","","","","","","","","","","","","","","",""
"3368","","<div style=""width:500px;"">
  <p>What best describes how you currently feel?</p>
  </div>","98","html-slider-response","38","812583","0.0-5.0-4.5","12","1","2025-07-09 08:40:32","01610cd0009c79a99da7d0a3353eb402","102.128.184.38","Mozilla/5.0 (Windows NT 10.0; Win64; x64) AppleWebKit/537.36 (KHTML, like Gecko) Chrome/138.0.0.0 Safari/537.36 Edg/138.0.0.0","WebKit","Edge","138.0.0.0","Windows","10.0","https://app.prolific.com/","en-US,en;q=0.9,en-ZA;q=0.8","66952367721687887540318f","683db7602f5db6a34d12d064","686e2aa38dcec367932a78cf","1","66952367721687887540318f","1","2025-07-09T08:54:27.754Z","","","","","","","","","","","MotivationQ","","50","","","","","","","","","","","","","","","","","","","","","","","","","","","","",""
"","","","","ctl-task-cpt","39","889945","0.0-5.0-0.6","12","1","2025-07-09 08:40:32","01610cd0009c79a99da7d0a3353eb402","102.128.184.38","Mozilla/5.0 (Windows NT 10.0; Win64; x64) AppleWebKit/537.36 (KHTML, like Gecko) Chrome/138.0.0.0 Safari/537.36 Edg/138.0.0.0","WebKit","Edge","138.0.0.0","Windows","10.0","https://app.prolific.com/","en-US,en;q=0.9,en-ZA;q=0.8","66952367721687887540318f","683db7602f5db6a34d12d064","686e2aa38dcec367932a78cf","1","66952367721687887540318f","1","2025-07-09T08:55:45.116Z","","","","","","","","","","","","","","win-only","2","g1:SE,g2:NW","0.4","7","0","835167.4","6483.7","11493.4","74308.3","1","4","8","6","2","-8","-9","27","36","0.20454545454545456","1585","3000","-1025","[""left"",""up""]","{""num_key_presses"":13,""num_perfect"":6,""num_errors"":1,""num_randdir"":6,""num_randdir_good_moves"":2,""num_whilered"":0,""num_whileblue"":1,""num_blue"":6,""num_good_moves"":9}","[294.22232142857143,292.12857142857143,2.6,294.22232142857143,292.12857142857143,115.8,294.22232142857143,292.12857142857143,216.8,294.22232142857143,292.12857142857143,317.7,294.22232142857143,292.12857142857143,429.9,294.22232142857143,292.12857142857143,539.9,294.22232142857143,292.12857142857143,641.2,268.22232142857143,292.12857142857143,762,114.22232142857143,222.12857142857143,875.3,76.22232142857143,184.12857142857143,983.9,53.222321428571426,125.12857142857143,1102.6,51.222321428571426,89.12857142857143,1208,51.222321428571426,72.12857142857143,1312.9,51.222321428571426,67.12857142857143,1427.7,51.222321428571426,67.12857142857143,1538,51.222321428571426,67.12857142857143,1639.1,51.222321428571426,67.12857142857143,1744.2,51.222321428571426,67.12857142857143,1857.5,51.222321428571426,67.12857142857143,1968.9,51.222321428571426,67.12857142857143,2069.8,51.222321428571426,67.12857142857143,2172.8,-1.7776785714285737,94.12857142857143,2280.9,-137.77767857142857,143.12857142857143,2389.4,-151.77767857142857,145.12857142857143,2489.5,-151.77767857142857,145.12857142857143,2600.9,-151.77767857142857,145.12857142857143,2707.2,-151.77767857142857,145.12857142857143,2809.4,-151.77767857142857,145.12857142857143,2919.7,-151.77767857142857,145.12857142857143,3026.9,-151.77767857142857,145.12857142857143,3130.9,-151.77767857142857,145.12857142857143,3239.6,-151.77767857142857,145.12857142857143,3346.6,-151.77767857142857,145.12857142857143,3450.3,-151.77767857142857,145.12857142857143,3556.7,-151.77767857142857,145.12857142857143,3658.4,-151.77767857142857,145.12857142857143,3760.9,-151.77767857142857,145.12857142857143,3871.3,-151.77767857142857,145.12857142857143,3975.6,-151.77767857142857,145.12857142857143,4087.9,-151.77767857142857,145.12857142857143,4188.4,-151.77767857142857,145.12857142857143,4302.2,-151.77767857142857,145.12857142857143,4410.6,-151.77767857142857,145.12857142857143,4528.3,-151.77767857142857,145.12857142857143,4640.3,-151.77767857142857,145.12857142857143,4748.7,-151.77767857142857,145.12857142857143,4868.1,-151.77767857142857,145.12857142857143,4976]","[1539.5,1539.5,1000,0,539.5,""smooth"",""left"",""left"",""good_move"",4540.4,2998.2,2252.7,1542.2,745.5,""oops"",""left"",""left"",""good_move"",7866.9,3325.4,2652.3,4541.6,673,""oops"",""left"",""right"",""bad_move"",11985.1,4116.2,2048.7,7868.9,2067.5,""oops"",""left"",""left"",""good_move"",15556.7,3569.2,2593.2,11987.7,975.8,""smooth"",""left"",""left"",""good_move"",18966.2,3408.1,2864.8,15558.1,543.3,""oops"",""up"",""down"",""bad_move"",21769.3,2802,2269.6,18967.4,532.3,""oops"",""up"",""down"",""bad_move"",25624.9,3850,3223.1,21775,626.9,""oops"",""up"",""right"",""bad_move"",31832.9,6204.3,2693.9,28652.1,486.9,""while_blue"",""up"",""left"",""good_move"",39054.9,7218.2,2836.8,35512.1,706,""smooth"",""up"",""up"",""good_move"",46075.4,7019.2,2930,42598.6,546.8,""smooth"",""up"",""up"",""good_move"",49220,3144,2444.9,46076.1,699.1,""smooth"",""up"",""up"",""good_move"",55795.6,6574.2,2616,52664,515.7,""smooth"",""up"",""up"",""good_move""]","",""
"11907","","<div style=""width:500px;"">
  <p>What determined the result of this run?</p>
  </div>","99","html-slider-response","40","901860","0.0-5.0-1.6","12","1","2025-07-09 08:40:32","01610cd0009c79a99da7d0a3353eb402","102.128.184.38","Mozilla/5.0 (Windows NT 10.0; Win64; x64) AppleWebKit/537.36 (KHTML, like Gecko) Chrome/138.0.0.0 Safari/537.36 Edg/138.0.0.0","WebKit","Edge","138.0.0.0","Windows","10.0","https://app.prolific.com/","en-US,en;q=0.9,en-ZA;q=0.8","66952367721687887540318f","683db7602f5db6a34d12d064","686e2aa38dcec367932a78cf","1","66952367721687887540318f","1","2025-07-09T08:55:57.031Z","","","","","","","","","","","AttribQ","","50","","","","","","","","","","","","","","","","","","","","","","","","","","","","",""
"3488","","<div style=""width:500px;"">
  <p>How much control did you have over the ball?</p>
  </div>","100","html-slider-response","41","905353","0.0-5.0-2.6","12","1","2025-07-09 08:40:32","01610cd0009c79a99da7d0a3353eb402","102.128.184.38","Mozilla/5.0 (Windows NT 10.0; Win64; x64) AppleWebKit/537.36 (KHTML, like Gecko) Chrome/138.0.0.0 Safari/537.36 Edg/138.0.0.0","WebKit","Edge","138.0.0.0","Windows","10.0","https://app.prolific.com/","en-US,en;q=0.9,en-ZA;q=0.8","66952367721687887540318f","683db7602f5db6a34d12d064","686e2aa38dcec367932a78cf","1","66952367721687887540318f","1","2025-07-09T08:56:00.525Z","","","","","","","","","","","ControlQ","","50","","","","","","","","","","","","","","","","","","","","","","","","","","","","",""
"3907","","<div style=""width:500px;"">
  <p>How would you describe your current emotional state?</p>
  </div>","43","html-slider-response","42","909264","0.0-5.0-3.6","12","1","2025-07-09 08:40:32","01610cd0009c79a99da7d0a3353eb402","102.128.184.38","Mozilla/5.0 (Windows NT 10.0; Win64; x64) AppleWebKit/537.36 (KHTML, like Gecko) Chrome/138.0.0.0 Safari/537.36 Edg/138.0.0.0","WebKit","Edge","138.0.0.0","Windows","10.0","https://app.prolific.com/","en-US,en;q=0.9,en-ZA;q=0.8","66952367721687887540318f","683db7602f5db6a34d12d064","686e2aa38dcec367932a78cf","1","66952367721687887540318f","1","2025-07-09T08:56:04.436Z","","","","","","","","","","","StressQ","","50","","","","","","","","","","","","","","","","","","","","","","","","","","","","",""
"4128","","<div style=""width:500px;"">
  <p>What best describes how you currently feel?</p>
  </div>","99","html-slider-response","43","913397","0.0-5.0-4.6","12","1","2025-07-09 08:40:32","01610cd0009c79a99da7d0a3353eb402","102.128.184.38","Mozilla/5.0 (Windows NT 10.0; Win64; x64) AppleWebKit/537.36 (KHTML, like Gecko) Chrome/138.0.0.0 Safari/537.36 Edg/138.0.0.0","WebKit","Edge","138.0.0.0","Windows","10.0","https://app.prolific.com/","en-US,en;q=0.9,en-ZA;q=0.8","66952367721687887540318f","683db7602f5db6a34d12d064","686e2aa38dcec367932a78cf","1","66952367721687887540318f","1","2025-07-09T08:56:08.569Z","","","","","","","","","","","MotivationQ","","50","","","","","","","","","","","","","","","","","","","","","","","","","","","","",""
"","","","","ctl-task-cpt","44","959895","0.0-5.0-0.7","12","1","2025-07-09 08:40:32","01610cd0009c79a99da7d0a3353eb402","102.128.184.38","Mozilla/5.0 (Windows NT 10.0; Win64; x64) AppleWebKit/537.36 (KHTML, like Gecko) Chrome/138.0.0.0 Safari/537.36 Edg/138.0.0.0","WebKit","Edge","138.0.0.0","Windows","10.0","https://app.prolific.com/","en-US,en;q=0.9,en-ZA;q=0.8","66952367721687887540318f","683db7602f5db6a34d12d064","686e2aa38dcec367932a78cf","1","66952367721687887540318f","1","2025-07-09T08:56:55.066Z","","","","","","","","","","","","","","win-only","2","g1:SE,g2:NW","0.3","8","0","935984.8","1900.2","6921.8","43457","1","4","4","6","2","4","4","31","27","0.23484848484848486","2189.3","3000","925","[""left"",""up""]","{""num_key_presses"":10,""num_perfect"":3,""num_errors"":0,""num_randdir"":7,""num_randdir_good_moves"":5,""num_whilered"":0,""num_whileblue"":0,""num_blue"":1,""num_good_moves"":8}","[302.22232142857143,297.12857142857143,3.7,302.22232142857143,297.12857142857143,103.4,302.22232142857143,297.12857142857143,217.6,302.22232142857143,297.12857142857143,318.5,302.22232142857143,297.12857142857143,434.7,302.22232142857143,297.12857142857143,538.9,302.22232142857143,297.12857142857143,648.8,301.22232142857143,297.12857142857143,758.7,188.22232142857143,241.12857142857143,873.4,75.22232142857143,138.12857142857143,992.1,64.22232142857143,131.12857142857143,1094.9,57.222321428571426,125.12857142857143,1200.6,57.222321428571426,125.12857142857143,1305.5,57.222321428571426,125.12857142857143,1411,57.222321428571426,125.12857142857143,1523.6,56.222321428571426,117.12857142857143,1644.9,54.222321428571426,107.12857142857143,1751.1,51.222321428571426,89.12857142857143,1869.7,50.222321428571426,82.12857142857143,1973.8,50.222321428571426,80.12857142857143,2074.6,50.222321428571426,80.12857142857143,2176.7,50.222321428571426,80.12857142857143,2307.7,50.222321428571426,80.12857142857143,2412.2,50.222321428571426,80.12857142857143,2515,48.222321428571426,80.12857142857143,2623.4,-92.77767857142857,124.12857142857143,2738.8,-135.77767857142857,136.12857142857143,2855.6,-138.77767857142857,137.12857142857143,2956.2,-138.77767857142857,137.12857142857143,3056.5,-138.77767857142857,137.12857142857143,3162,-138.77767857142857,137.12857142857143,3272.6,-138.77767857142857,137.12857142857143,3374.4,-138.77767857142857,137.12857142857143,3477,-138.77767857142857,137.12857142857143,3581.4,-138.77767857142857,137.12857142857143,3685.5,-138.77767857142857,137.12857142857143,3797.1,-138.77767857142857,137.12857142857143,3906.3,-138.77767857142857,137.12857142857143,4021.9,-138.77767857142857,137.12857142857143,4133.4,-138.77767857142857,137.12857142857143,4240.3,-138.77767857142857,137.12857142857143,4340.5,-138.77767857142857,137.12857142857143,4440.7,-138.77767857142857,137.12857142857143,4553,-138.77767857142857,137.12857142857143,4662,-138.77767857142857,137.12857142857143,4771,-138.77767857142857,137.12857142857143,4877.5,-138.77767857142857,137.12857142857143,4979.1]","[1561.6,1561.7,1000,0,561.7,""oops"",""left"",""up"",""good_move"",5048.3,3479.1,2698,1569.2,781.2,""oops"",""left"",""up"",""good_move"",8838,3786.5,2284,5051.6,1502.4,""oops"",""left"",""left"",""good_move"",12393.8,3552.8,2628.7,8841,924.1,""oops"",""left"",""down"",""bad_move"",16014.9,3618.7,3091.3,12398.2,525.4,""oops"",""left"",""left"",""good_move"",20128.4,4111.4,3219.4,16017.1,891.9,""oops"",""left"",""left"",""good_move"",23628.9,3498.5,2624.2,20130.4,874.3,""smooth"",""up"",""up"",""good_move"",29911.3,6279.5,1846.7,27554.8,509.9,""oops"",""up"",""down"",""bad_move"",32910.7,2995.4,1745.7,29915.5,1249.6,""smooth"",""up"",""up"",""good_move"",36212.7,3300.3,2651.8,32912.5,648.4,""smooth"",""up"",""up"",""good_move""]","",""
"5382","","<div style=""width:500px;"">
  <p>What determined the result of this run?</p>
  </div>","100","html-slider-response","45","965281","0.0-5.0-1.7","12","1","2025-07-09 08:40:32","01610cd0009c79a99da7d0a3353eb402","102.128.184.38","Mozilla/5.0 (Windows NT 10.0; Win64; x64) AppleWebKit/537.36 (KHTML, like Gecko) Chrome/138.0.0.0 Safari/537.36 Edg/138.0.0.0","WebKit","Edge","138.0.0.0","Windows","10.0","https://app.prolific.com/","en-US,en;q=0.9,en-ZA;q=0.8","66952367721687887540318f","683db7602f5db6a34d12d064","686e2aa38dcec367932a78cf","1","66952367721687887540318f","1","2025-07-09T08:57:00.453Z","","","","","","","","","","","AttribQ","","50","","","","","","","","","","","","","","","","","","","","","","","","","","","","",""
"6614","","<div style=""width:500px;"">
  <p>How much control did you have over the ball?</p>
  </div>","100","html-slider-response","46","971899","0.0-5.0-2.7","12","1","2025-07-09 08:40:32","01610cd0009c79a99da7d0a3353eb402","102.128.184.38","Mozilla/5.0 (Windows NT 10.0; Win64; x64) AppleWebKit/537.36 (KHTML, like Gecko) Chrome/138.0.0.0 Safari/537.36 Edg/138.0.0.0","WebKit","Edge","138.0.0.0","Windows","10.0","https://app.prolific.com/","en-US,en;q=0.9,en-ZA;q=0.8","66952367721687887540318f","683db7602f5db6a34d12d064","686e2aa38dcec367932a78cf","1","66952367721687887540318f","1","2025-07-09T08:57:07.071Z","","","","","","","","","","","ControlQ","","50","","","","","","","","","","","","","","","","","","","","","","","","","","","","",""
"6960","","<div style=""width:500px;"">
  <p>How would you describe your current emotional state?</p>
  </div>","46","html-slider-response","47","978864","0.0-5.0-3.7","12","1","2025-07-09 08:40:32","01610cd0009c79a99da7d0a3353eb402","102.128.184.38","Mozilla/5.0 (Windows NT 10.0; Win64; x64) AppleWebKit/537.36 (KHTML, like Gecko) Chrome/138.0.0.0 Safari/537.36 Edg/138.0.0.0","WebKit","Edge","138.0.0.0","Windows","10.0","https://app.prolific.com/","en-US,en;q=0.9,en-ZA;q=0.8","66952367721687887540318f","683db7602f5db6a34d12d064","686e2aa38dcec367932a78cf","1","66952367721687887540318f","1","2025-07-09T08:57:14.036Z","","","","","","","","","","","StressQ","","50","","","","","","","","","","","","","","","","","","","","","","","","","","","","",""
"18855","","<div style=""width:500px;"">
  <p>What best describes how you currently feel?</p>
  </div>","100","html-slider-response","48","997725","0.0-5.0-4.7","12","1","2025-07-09 08:40:32","01610cd0009c79a99da7d0a3353eb402","102.128.184.38","Mozilla/5.0 (Windows NT 10.0; Win64; x64) AppleWebKit/537.36 (KHTML, like Gecko) Chrome/138.0.0.0 Safari/537.36 Edg/138.0.0.0","WebKit","Edge","138.0.0.0","Windows","10.0","https://app.prolific.com/","en-US,en;q=0.9,en-ZA;q=0.8","66952367721687887540318f","683db7602f5db6a34d12d064","686e2aa38dcec367932a78cf","1","66952367721687887540318f","1","2025-07-09T08:57:32.896Z","","","","","","","","","","","MotivationQ","","50","","","","","","","","","","","","","","","","","","","","","","","","","","","","",""
"","","","","ctl-task-cpt","49","1094316","0.0-5.0-0.8","12","1","2025-07-09 08:40:32","01610cd0009c79a99da7d0a3353eb402","102.128.184.38","Mozilla/5.0 (Windows NT 10.0; Win64; x64) AppleWebKit/537.36 (KHTML, like Gecko) Chrome/138.0.0.0 Safari/537.36 Edg/138.0.0.0","WebKit","Edge","138.0.0.0","Windows","10.0","https://app.prolific.com/","en-US,en;q=0.9,en-ZA;q=0.8","66952367721687887540318f","683db7602f5db6a34d12d064","686e2aa38dcec367932a78cf","1","66952367721687887540318f","1","2025-07-09T08:59:09.488Z","","","","","","","","","","","","","","win-only","0","g1:NW,g2:SE","0.2","9","0","1020311.2","10605.6","15608.8","93554.6","1","4","8","6","2","8","8","39","31","0.29545454545454547","1704.7","3000","25","[""down"",""right""]","{""num_key_presses"":18,""num_perfect"":3,""num_errors"":0,""num_randdir"":15,""num_randdir_good_moves"":9,""num_whilered"":0,""num_whileblue"":0,""num_blue"":5,""num_good_moves"":12}","[293.22232142857143,299.12857142857143,1.8,293.22232142857143,299.12857142857143,110.9,293.22232142857143,299.12857142857143,211.8,293.22232142857143,299.12857142857143,313.1,293.22232142857143,299.12857142857143,432.1,293.22232142857143,299.12857142857143,546.8,293.22232142857143,299.12857142857143,651,293.22232142857143,299.12857142857143,768.9,293.22232142857143,299.12857142857143,878.1,403.22232142857143,462.12857142857143,1006.4,491.22232142857143,545.1285714285714,1117.5,496.22232142857143,550.1285714285714,1223.2,510.22232142857143,562.1285714285714,1327.8,516.2223214285714,562.1285714285714,1432.8,518.2223214285714,562.1285714285714,1533,518.2223214285714,562.1285714285714,1645.1,518.2223214285714,562.1285714285714,1758.3,518.2223214285714,562.1285714285714,1865.9,518.2223214285714,562.1285714285714,1978.6,518.2223214285714,562.1285714285714,2094.7,518.2223214285714,562.1285714285714,2205.7,603.2223214285714,478.12857142857143,2307.1,723.2223214285714,368.12857142857143,2414.2,729.2223214285714,362.12857142857143,2533.7,729.2223214285714,362.12857142857143,2645.8,729.2223214285714,362.12857142857143,2757.9,729.2223214285714,362.12857142857143,2865.9,729.2223214285714,362.12857142857143,2974.7,729.2223214285714,362.12857142857143,3094.8,729.2223214285714,362.12857142857143,3200.1,729.2223214285714,362.12857142857143,3314,729.2223214285714,362.12857142857143,3415.5,729.2223214285714,362.12857142857143,3536.7,729.2223214285714,362.12857142857143,3656.5,729.2223214285714,362.12857142857143,3776.9,729.2223214285714,362.12857142857143,3879.5,729.2223214285714,362.12857142857143,3991.9,729.2223214285714,362.12857142857143,4098.5,729.2223214285714,362.12857142857143,4211.6,729.2223214285714,362.12857142857143,4318.5,729.2223214285714,362.12857142857143,4428.2,729.2223214285714,362.12857142857143,4528.6,729.2223214285714,362.12857142857143,4632.9,729.2223214285714,362.12857142857143,4739.8,729.2223214285714,362.12857142857143,4855.3,729.2223214285714,362.12857142857143,4963.4]","[1556.2,1556.2,1000,0,556.2,""smooth"",""right"",""right"",""good_move"",7729.2,6170.1,2161.4,4830.5,737.4,""oops"",""right"",""up"",""bad_move"",11646.4,3911.4,2255.7,7735,1655.7,""oops"",""right"",""down"",""good_move"",14451.6,2803.3,2115.8,11648.4,687.4,""oops"",""right"",""up"",""bad_move"",18750.4,4298.1,1819.2,14452.3,2478.9,""oops"",""right"",""right"",""good_move"",22011.1,3257.1,2547,18754,710.1,""smooth"",""right"",""right"",""good_move"",24348.7,2335.5,1673.6,22013.5,661.9,""oops"",""down"",""down"",""good_move"",27862.7,3512.2,2975.5,24350.5,536.8,""oops"",""down"",""down"",""good_move"",31308.2,3443.7,2849.6,27864.5,594.1,""oops"",""down"",""down"",""good_move"",35011.2,3700.5,3152.2,31310.8,548.3,""oops"",""down"",""up"",""bad_move"",38797.7,3783.8,1922.2,35014,1861.5,""oops"",""down"",""up"",""bad_move"",53859.4,15058.2,2663.2,50396.3,800,""oops"",""down"",""left"",""bad_move"",61102.4,7241,2333.8,58225.3,543.3,""oops"",""down"",""up"",""bad_move"",65060.3,3956.7,2623.2,61103.6,1333.6,""oops"",""down"",""right"",""good_move"",68509.3,3446.8,2908.7,65062.6,538.1,""oops"",""down"",""down"",""good_move"",71605.3,3093.2,2489,68512.1,604.2,""oops"",""down"",""down"",""good_move"",74823.6,3216.2,2670.9,71607.5,545.3,""oops"",""down"",""down"",""good_move"",77563.1,2738.6,2074.2,74824.5,664.4,""smooth"",""down"",""down"",""good_move""]","",""
"52003","","<div style=""width:500px;"">
  <p>What determined the result of this run?</p>
  </div>","100","html-slider-response","50","1146329","0.0-5.0-1.8","12","1","2025-07-09 08:40:32","01610cd0009c79a99da7d0a3353eb402","102.128.184.38","Mozilla/5.0 (Windows NT 10.0; Win64; x64) AppleWebKit/537.36 (KHTML, like Gecko) Chrome/138.0.0.0 Safari/537.36 Edg/138.0.0.0","WebKit","Edge","138.0.0.0","Windows","10.0","https://app.prolific.com/","en-US,en;q=0.9,en-ZA;q=0.8","66952367721687887540318f","683db7602f5db6a34d12d064","686e2aa38dcec367932a78cf","1","66952367721687887540318f","1","2025-07-09T09:00:01.501Z","","","","","","","","","","","AttribQ","","50","","","","","","","","","","","","","","","","","","","","","","","","","","","","",""
"6026","","<div style=""width:500px;"">
  <p>How much control did you have over the ball?</p>
  </div>","99","html-slider-response","51","1152361","0.0-5.0-2.8","12","1","2025-07-09 08:40:32","01610cd0009c79a99da7d0a3353eb402","102.128.184.38","Mozilla/5.0 (Windows NT 10.0; Win64; x64) AppleWebKit/537.36 (KHTML, like Gecko) Chrome/138.0.0.0 Safari/537.36 Edg/138.0.0.0","WebKit","Edge","138.0.0.0","Windows","10.0","https://app.prolific.com/","en-US,en;q=0.9,en-ZA;q=0.8","66952367721687887540318f","683db7602f5db6a34d12d064","686e2aa38dcec367932a78cf","1","66952367721687887540318f","1","2025-07-09T09:00:07.532Z","","","","","","","","","","","ControlQ","","50","","","","","","","","","","","","","","","","","","","","","","","","","","","","",""
"8388","","<div style=""width:500px;"">
  <p>How would you describe your current emotional state?</p>
  </div>","44","html-slider-response","52","1160753","0.0-5.0-3.8","12","1","2025-07-09 08:40:32","01610cd0009c79a99da7d0a3353eb402","102.128.184.38","Mozilla/5.0 (Windows NT 10.0; Win64; x64) AppleWebKit/537.36 (KHTML, like Gecko) Chrome/138.0.0.0 Safari/537.36 Edg/138.0.0.0","WebKit","Edge","138.0.0.0","Windows","10.0","https://app.prolific.com/","en-US,en;q=0.9,en-ZA;q=0.8","66952367721687887540318f","683db7602f5db6a34d12d064","686e2aa38dcec367932a78cf","1","66952367721687887540318f","1","2025-07-09T09:00:15.924Z","","","","","","","","","","","StressQ","","50","","","","","","","","","","","","","","","","","","","","","","","","","","","","",""
"7268","","<div style=""width:500px;"">
  <p>What best describes how you currently feel?</p>
  </div>","100","html-slider-response","53","1168026","0.0-5.0-4.8","12","1","2025-07-09 08:40:32","01610cd0009c79a99da7d0a3353eb402","102.128.184.38","Mozilla/5.0 (Windows NT 10.0; Win64; x64) AppleWebKit/537.36 (KHTML, like Gecko) Chrome/138.0.0.0 Safari/537.36 Edg/138.0.0.0","WebKit","Edge","138.0.0.0","Windows","10.0","https://app.prolific.com/","en-US,en;q=0.9,en-ZA;q=0.8","66952367721687887540318f","683db7602f5db6a34d12d064","686e2aa38dcec367932a78cf","1","66952367721687887540318f","1","2025-07-09T09:00:23.197Z","","","","","","","","","","","MotivationQ","","50","","","","","","","","","","","","","","","","","","","","","","","","","","","","",""
"","","","","ctl-task-cpt","54","1259092","0.0-5.0-0.9","12","1","2025-07-09 08:40:32","01610cd0009c79a99da7d0a3353eb402","102.128.184.38","Mozilla/5.0 (Windows NT 10.0; Win64; x64) AppleWebKit/537.36 (KHTML, like Gecko) Chrome/138.0.0.0 Safari/537.36 Edg/138.0.0.0","WebKit","Edge","138.0.0.0","Windows","10.0","https://app.prolific.com/","en-US,en;q=0.9,en-ZA;q=0.8","66952367721687887540318f","683db7602f5db6a34d12d064","686e2aa38dcec367932a78cf","1","66952367721687887540318f","1","2025-07-09T09:01:54.264Z","","","","","","","","","","","","","","win-only","1","g1:NE,g2:SW","0.4","10","0","1190615.9","11544.7","16551.7","88023.4","1","4","4","6","2","4","4","43","39","0.32575757575757575","1624.1","3000","660","[""down"",""left""]","{""num_key_presses"":16,""num_perfect"":8,""num_errors"":0,""num_randdir"":8,""num_randdir_good_moves"":3,""num_whilered"":0,""num_whileblue"":0,""num_blue"":3,""num_good_moves"":11}","[296.22232142857143,299.12857142857143,1.4,296.22232142857143,299.12857142857143,118.2,296.22232142857143,299.12857142857143,226.8,296.22232142857143,299.12857142857143,347.4,296.22232142857143,299.12857142857143,450.3,296.22232142857143,299.12857142857143,552.8,296.22232142857143,299.12857142857143,662.5,296.22232142857143,299.12857142857143,775.5,296.22232142857143,299.12857142857143,884.1,275.22232142857143,318.12857142857143,995.6,51.222321428571426,498.12857142857143,1121.7,41.222321428571426,505.12857142857143,1235.9,34.222321428571426,511.12857142857143,1338.3,34.222321428571426,514.1285714285714,1443.6,34.222321428571426,514.1285714285714,1547.8,34.222321428571426,514.1285714285714,1667.7,34.222321428571426,514.1285714285714,1785.7,34.222321428571426,514.1285714285714,1894.3,34.222321428571426,514.1285714285714,2007,32.222321428571426,514.1285714285714,2121.3,-106.77767857142857,466.12857142857143,2235.2,-141.77767857142857,412.12857142857143,2351.6,-139.77767857142857,395.12857142857143,2454.2,-139.77767857142857,395.12857142857143,2569.4,-139.77767857142857,395.12857142857143,2671.8,-139.77767857142857,395.12857142857143,2774.1,-139.77767857142857,395.12857142857143,2884.1,-139.77767857142857,395.12857142857143,3001,-139.77767857142857,395.12857142857143,3120.9,-139.77767857142857,395.12857142857143,3231,-139.77767857142857,395.12857142857143,3341.7,-139.77767857142857,395.12857142857143,3457.7,-139.77767857142857,395.12857142857143,3558,-139.77767857142857,395.12857142857143,3658.8,-139.77767857142857,395.12857142857143,3758.9,-139.77767857142857,395.12857142857143,3861.4,-139.77767857142857,395.12857142857143,3971.7,-139.77767857142857,395.12857142857143,4083.1,-139.77767857142857,395.12857142857143,4192.1,-139.77767857142857,395.12857142857143,4314.1,-139.77767857142857,395.12857142857143,4418,-139.77767857142857,395.12857142857143,4532.6,-139.77767857142857,395.12857142857143,4638,-139.77767857142857,395.12857142857143,4751.2,-139.77767857142857,395.12857142857143,4852.7,-139.77767857142857,395.12857142857143,4960.9]","[1789,1789.1,1000,0,789.1,""oops"",""left"",""down"",""good_move"",5093.2,3302.5,2370.2,1790.7,932.3,""smooth"",""left"",""left"",""good_move"",12945.3,7850.4,2645.9,9729.4,570,""oops"",""left"",""left"",""good_move"",17251.5,4305.2,2640,12946.4,1665.2,""smooth"",""left"",""left"",""good_move"",21506.9,4254,2184.2,17253.1,2069.8,""oops"",""down"",""up"",""bad_move"",26212.8,4703.5,2326.9,21509.3,2376.6,""oops"",""down"",""right"",""bad_move"",29234,3018.7,2311.1,26215.6,707.3,""oops"",""down"",""right"",""bad_move"",32143.5,2908.5,2026.3,29235.2,882.2,""smooth"",""down"",""down"",""good_move"",42022,9875.5,2249.3,39191.2,581.6,""smooth"",""down"",""down"",""good_move"",46002.9,3979,3307.6,42024,671.3,""oops"",""left"",""right"",""bad_move"",50318.3,4311.7,3744.5,46006.7,567.1,""oops"",""left"",""right"",""bad_move"",54111.6,3790.2,2738,50321.4,1052.2,""smooth"",""left"",""left"",""good_move"",59237.9,5121.8,2066.7,54116.2,3055,""smooth"",""left"",""left"",""good_move"",63998.6,4759.7,1756.2,59239,3003.4,""smooth"",""left"",""left"",""good_move"",68169.4,4169.9,1949,63999.5,2220.9,""oops"",""left"",""down"",""good_move"",71059.5,2888.9,2346.9,68170.7,541.9,""smooth"",""left"",""left"",""good_move""]","",""
"11855","","<div style=""width:500px;"">
  <p>What determined the result of this run?</p>
  </div>","100","html-slider-response","55","1270958","0.0-5.0-1.9","12","1","2025-07-09 08:40:32","01610cd0009c79a99da7d0a3353eb402","102.128.184.38","Mozilla/5.0 (Windows NT 10.0; Win64; x64) AppleWebKit/537.36 (KHTML, like Gecko) Chrome/138.0.0.0 Safari/537.36 Edg/138.0.0.0","WebKit","Edge","138.0.0.0","Windows","10.0","https://app.prolific.com/","en-US,en;q=0.9,en-ZA;q=0.8","66952367721687887540318f","683db7602f5db6a34d12d064","686e2aa38dcec367932a78cf","1","66952367721687887540318f","1","2025-07-09T09:02:06.129Z","","","","","","","","","","","AttribQ","","50","","","","","","","","","","","","","","","","","","","","","","","","","","","","",""
"6450","","<div style=""width:500px;"">
  <p>How much control did you have over the ball?</p>
  </div>","100","html-slider-response","56","1277414","0.0-5.0-2.9","12","1","2025-07-09 08:40:32","01610cd0009c79a99da7d0a3353eb402","102.128.184.38","Mozilla/5.0 (Windows NT 10.0; Win64; x64) AppleWebKit/537.36 (KHTML, like Gecko) Chrome/138.0.0.0 Safari/537.36 Edg/138.0.0.0","WebKit","Edge","138.0.0.0","Windows","10.0","https://app.prolific.com/","en-US,en;q=0.9,en-ZA;q=0.8","66952367721687887540318f","683db7602f5db6a34d12d064","686e2aa38dcec367932a78cf","1","66952367721687887540318f","1","2025-07-09T09:02:12.585Z","","","","","","","","","","","ControlQ","","50","","","","","","","","","","","","","","","","","","","","","","","","","","","","",""
"5266","","<div style=""width:500px;"">
  <p>How would you describe your current emotional state?</p>
  </div>","45","html-slider-response","57","1282683","0.0-5.0-3.9","12","1","2025-07-09 08:40:32","01610cd0009c79a99da7d0a3353eb402","102.128.184.38","Mozilla/5.0 (Windows NT 10.0; Win64; x64) AppleWebKit/537.36 (KHTML, like Gecko) Chrome/138.0.0.0 Safari/537.36 Edg/138.0.0.0","WebKit","Edge","138.0.0.0","Windows","10.0","https://app.prolific.com/","en-US,en;q=0.9,en-ZA;q=0.8","66952367721687887540318f","683db7602f5db6a34d12d064","686e2aa38dcec367932a78cf","1","66952367721687887540318f","1","2025-07-09T09:02:17.855Z","","","","","","","","","","","StressQ","","50","","","","","","","","","","","","","","","","","","","","","","","","","","","","",""
"5030","","<div style=""width:500px;"">
  <p>What best describes how you currently feel?</p>
  </div>","99","html-slider-response","58","1287717","0.0-5.0-4.9","12","1","2025-07-09 08:40:32","01610cd0009c79a99da7d0a3353eb402","102.128.184.38","Mozilla/5.0 (Windows NT 10.0; Win64; x64) AppleWebKit/537.36 (KHTML, like Gecko) Chrome/138.0.0.0 Safari/537.36 Edg/138.0.0.0","WebKit","Edge","138.0.0.0","Windows","10.0","https://app.prolific.com/","en-US,en;q=0.9,en-ZA;q=0.8","66952367721687887540318f","683db7602f5db6a34d12d064","686e2aa38dcec367932a78cf","1","66952367721687887540318f","1","2025-07-09T09:02:22.888Z","","","","","","","","","","","MotivationQ","","50","","","","","","","","","","","","","","","","","","","","","","","","","","","","",""
"","","","","ctl-task-cpt","59","1399438","0.0-5.0-0.10","12","1","2025-07-09 08:40:32","01610cd0009c79a99da7d0a3353eb402","102.128.184.38","Mozilla/5.0 (Windows NT 10.0; Win64; x64) AppleWebKit/537.36 (KHTML, like Gecko) Chrome/138.0.0.0 Safari/537.36 Edg/138.0.0.0","WebKit","Edge","138.0.0.0","Windows","10.0","https://app.prolific.com/","en-US,en;q=0.9,en-ZA;q=0.8","66952367721687887540318f","683db7602f5db6a34d12d064","686e2aa38dcec367932a78cf","1","66952367721687887540318f","1","2025-07-09T09:04:14.611Z","","","","","","","","","","","","","","win-only","2","g1:SE,g2:NW","0.5","11","0","1310309.5","59014.3","64029.6","108676.9","1","4","4","6","2","4","4","47","43","0.3560606060606061","1555.8","3000","1320","[""left"",""up""]","{""num_key_presses"":10,""num_perfect"":5,""num_errors"":0,""num_randdir"":5,""num_randdir_good_moves"":3,""num_whilered"":0,""num_whileblue"":0,""num_blue"":1,""num_good_moves"":8}","[298.22232142857143,302.12857142857143,5,298.22232142857143,302.12857142857143,107.6,298.22232142857143,302.12857142857143,218,298.22232142857143,302.12857142857143,334.9,298.22232142857143,302.12857142857143,446.2,298.22232142857143,302.12857142857143,546.8,298.22232142857143,302.12857142857143,651.1,298.22232142857143,302.12857142857143,762.3,194.22232142857143,230.12857142857143,885.5,134.22232142857143,168.12857142857143,1006.1,121.22232142857143,147.12857142857143,1120.9,71.22232142857143,90.12857142857143,1225.7,58.222321428571426,69.12857142857143,1346,57.222321428571426,68.12857142857143,1464.6,57.222321428571426,68.12857142857143,1564.7,57.222321428571426,68.12857142857143,1676.5,57.222321428571426,68.12857142857143,1791.6,57.222321428571426,68.12857142857143,1908.5,57.222321428571426,68.12857142857143,2025.8,57.222321428571426,68.12857142857143,2147.3,57.222321428571426,68.12857142857143,2250.7,40.222321428571426,63.128571428571426,2370.6,-80.77767857142857,63.128571428571426,2476.6,-98.77767857142857,66.12857142857143,2607.5,-98.77767857142857,66.12857142857143,2722.4,-98.77767857142857,66.12857142857143,2838.3,-98.77767857142857,66.12857142857143,2958.8,-98.77767857142857,66.12857142857143,3076.1,-98.77767857142857,66.12857142857143,3178.9,-98.77767857142857,66.12857142857143,3284.5,-98.77767857142857,66.12857142857143,3393.2,-98.77767857142857,66.12857142857143,3501.9,-98.77767857142857,66.12857142857143,3601.9,-98.77767857142857,66.12857142857143,3709.2,-98.77767857142857,66.12857142857143,3817.6,-98.77767857142857,66.12857142857143,3918.3,-98.77767857142857,66.12857142857143,4024.6,-98.77767857142857,66.12857142857143,4143.6,-98.77767857142857,66.12857142857143,4250.9,-98.77767857142857,66.12857142857143,4369,-98.77767857142857,66.12857142857143,4481.6,-98.77767857142857,66.12857142857143,4607.5,-98.77767857142857,66.12857142857143,4722.4,-98.77767857142857,66.12857142857143,4830.5,-98.77767857142857,66.12857142857143,4945]","[1639.5,1639.5,1000,0,639.5,""smooth"",""left"",""left"",""good_move"",6223.6,4576.2,1714.4,1647.5,2861.8,""smooth"",""left"",""left"",""good_move"",10723.7,4497.1,2293.1,6226.7,2203.9,""oops"",""left"",""right"",""bad_move"",13706.8,2978.3,2180.8,10728.6,797.5,""oops"",""left"",""up"",""good_move"",18231.4,4520.6,2193.4,13711,2327.1,""oops"",""left"",""right"",""bad_move"",21588.2,3355.1,2361,18233.2,994.1,""smooth"",""left"",""left"",""good_move"",26898.4,5308.6,3003.9,21589.8,2304.7,""oops"",""left"",""up"",""good_move"",31413.4,4513,3047,26900.4,1466,""smooth"",""left"",""left"",""good_move"",35652.1,4237.7,2649.3,31414.4,1588.4,""oops"",""left"",""up"",""good_move"",44258.8,8604.2,3195.7,40566.5,496.6,""smooth"",""left"",""left"",""good_move""]","",""
"5858","","<div style=""width:500px;"">
  <p>What determined the result of this run?</p>
  </div>","99","html-slider-response","60","1405307","0.0-5.0-1.10","12","1","2025-07-09 08:40:32","01610cd0009c79a99da7d0a3353eb402","102.128.184.38","Mozilla/5.0 (Windows NT 10.0; Win64; x64) AppleWebKit/537.36 (KHTML, like Gecko) Chrome/138.0.0.0 Safari/537.36 Edg/138.0.0.0","WebKit","Edge","138.0.0.0","Windows","10.0","https://app.prolific.com/","en-US,en;q=0.9,en-ZA;q=0.8","66952367721687887540318f","683db7602f5db6a34d12d064","686e2aa38dcec367932a78cf","1","66952367721687887540318f","1","2025-07-09T09:04:20.478Z","","","","","","","","","","","AttribQ","","50","","","","","","","","","","","","","","","","","","","","","","","","","","","","",""
"3120","","<div style=""width:500px;"">
  <p>How much control did you have over the ball?</p>
  </div>","96","html-slider-response","61","1408432","0.0-5.0-2.10","12","1","2025-07-09 08:40:32","01610cd0009c79a99da7d0a3353eb402","102.128.184.38","Mozilla/5.0 (Windows NT 10.0; Win64; x64) AppleWebKit/537.36 (KHTML, like Gecko) Chrome/138.0.0.0 Safari/537.36 Edg/138.0.0.0","WebKit","Edge","138.0.0.0","Windows","10.0","https://app.prolific.com/","en-US,en;q=0.9,en-ZA;q=0.8","66952367721687887540318f","683db7602f5db6a34d12d064","686e2aa38dcec367932a78cf","1","66952367721687887540318f","1","2025-07-09T09:04:23.603Z","","","","","","","","","","","ControlQ","","50","","","","","","","","","","","","","","","","","","","","","","","","","","","","",""
"4717","","<div style=""width:500px;"">
  <p>How would you describe your current emotional state?</p>
  </div>","43","html-slider-response","62","1413157","0.0-5.0-3.10","12","1","2025-07-09 08:40:32","01610cd0009c79a99da7d0a3353eb402","102.128.184.38","Mozilla/5.0 (Windows NT 10.0; Win64; x64) AppleWebKit/537.36 (KHTML, like Gecko) Chrome/138.0.0.0 Safari/537.36 Edg/138.0.0.0","WebKit","Edge","138.0.0.0","Windows","10.0","https://app.prolific.com/","en-US,en;q=0.9,en-ZA;q=0.8","66952367721687887540318f","683db7602f5db6a34d12d064","686e2aa38dcec367932a78cf","1","66952367721687887540318f","1","2025-07-09T09:04:28.329Z","","","","","","","","","","","StressQ","","50","","","","","","","","","","","","","","","","","","","","","","","","","","","","",""
"5182","","<div style=""width:500px;"">
  <p>What best describes how you currently feel?</p>
  </div>","47","html-slider-response","63","1418343","0.0-5.0-4.10","12","1","2025-07-09 08:40:32","01610cd0009c79a99da7d0a3353eb402","102.128.184.38","Mozilla/5.0 (Windows NT 10.0; Win64; x64) AppleWebKit/537.36 (KHTML, like Gecko) Chrome/138.0.0.0 Safari/537.36 Edg/138.0.0.0","WebKit","Edge","138.0.0.0","Windows","10.0","https://app.prolific.com/","en-US,en;q=0.9,en-ZA;q=0.8","66952367721687887540318f","683db7602f5db6a34d12d064","686e2aa38dcec367932a78cf","1","66952367721687887540318f","1","2025-07-09T09:04:33.515Z","","","","","","","","","","","MotivationQ","","50","","","","","","","","","","","","","","","","","","","","","","","","","","","","",""
"","","","","ctl-task-cpt","64","1486581","0.0-5.0-0.11","12","1","2025-07-09 08:40:32","01610cd0009c79a99da7d0a3353eb402","102.128.184.38","Mozilla/5.0 (Windows NT 10.0; Win64; x64) AppleWebKit/537.36 (KHTML, like Gecko) Chrome/138.0.0.0 Safari/537.36 Edg/138.0.0.0","WebKit","Edge","138.0.0.0","Windows","10.0","https://app.prolific.com/","en-US,en;q=0.9,en-ZA;q=0.8","66952367721687887540318f","683db7602f5db6a34d12d064","686e2aa38dcec367932a78cf","1","66952367721687887540318f","1","2025-07-09T09:05:41.753Z","","","","","","","","","","","","","","win-only","0","g1:NW,g2:SE","0.6","12","0","1440935.9","2106.2","7125.8","65189.9","1","4","8","6","2","8","8","55","47","0.4166666666666667","2096.7","3000","655","[""down"",""right""]","{""num_key_presses"":14,""num_perfect"":9,""num_errors"":0,""num_randdir"":5,""num_randdir_good_moves"":1,""num_whilered"":0,""num_whileblue"":0,""num_blue"":2,""num_good_moves"":10}","[296.22232142857143,297.12857142857143,1.9,296.22232142857143,297.12857142857143,112.6,296.22232142857143,297.12857142857143,231.4,296.22232142857143,297.12857142857143,332.5,296.22232142857143,297.12857142857143,434.1,296.22232142857143,297.12857142857143,549.7,296.22232142857143,297.12857142857143,655,296.22232142857143,297.12857142857143,758.3,296.22232142857143,297.12857142857143,869.4,296.22232142857143,297.12857142857143,987.6,296.22232142857143,297.12857142857143,1111.5,296.22232142857143,297.12857142857143,1229.8,296.22232142857143,297.12857142857143,1332.6,369.22232142857143,360.12857142857143,1453.4,526.2223214285714,508.12857142857143,1577.6,545.2223214285714,532.1285714285714,1696.6,547.2223214285714,535.1285714285714,1800.2,547.2223214285714,538.1285714285714,1911.6,547.2223214285714,538.1285714285714,2027.4,547.2223214285714,538.1285714285714,2145,547.2223214285714,538.1285714285714,2250.4,547.2223214285714,538.1285714285714,2371.2,547.2223214285714,538.1285714285714,2484.8,547.2223214285714,538.1285714285714,2597.2,647.2223214285714,463.12857142857143,2702.4,730.2223214285714,426.12857142857143,2808.7,744.2223214285714,425.12857142857143,2911.1,744.2223214285714,425.12857142857143,3019.6,744.2223214285714,425.12857142857143,3145.9,744.2223214285714,425.12857142857143,3268.9,744.2223214285714,425.12857142857143,3381,744.2223214285714,425.12857142857143,3505.1,744.2223214285714,425.12857142857143,3622.3,744.2223214285714,425.12857142857143,3729.8,744.2223214285714,425.12857142857143,3851.1,744.2223214285714,425.12857142857143,3970.5,744.2223214285714,425.12857142857143,4088.6,744.2223214285714,425.12857142857143,4191.7,744.2223214285714,425.12857142857143,4291.7,744.2223214285714,425.12857142857143,4396.1,744.2223214285714,425.12857142857143,4508.1,744.2223214285714,425.12857142857143,4623.8,744.2223214285714,425.12857142857143,4740.8,744.2223214285714,425.12857142857143,4843.7,744.2223214285714,425.12857142857143,4966.8]","[1567.6,1567.6,1000,0,567.6,""oops"",""right"",""left"",""bad_move"",6353,4783,1918.1,1570,2864.9,""smooth"",""right"",""right"",""good_move"",13107.8,6751.5,3072.2,9245.4,790.2,""oops"",""right"",""up"",""bad_move"",17730,4613.6,2378.1,13116.5,2235.4,""smooth"",""right"",""right"",""good_move"",20826.6,3093.3,1640.5,17733.4,1452.8,""smooth"",""right"",""right"",""good_move"",23795.3,2967.2,2229.2,20828.1,738,""smooth"",""right"",""right"",""good_move"",27775.4,3977.7,3363.6,23797.7,614.2,""smooth"",""down"",""down"",""good_move"",30338.5,2562,1891.4,27776.5,670.6,""smooth"",""down"",""down"",""good_move"",34707.6,4368.4,3340.1,30339.3,1028.2,""oops"",""down"",""up"",""bad_move"",43641.7,8932.1,3208,39854.5,579.2,""oops"",""down"",""down"",""good_move"",46778.8,3135.5,2362.5,43643.3,773,""oops"",""down"",""left"",""bad_move"",52105.2,5325.2,2953.3,46780,2371.9,""smooth"",""down"",""down"",""good_move"",54912.7,2806.1,1949.5,52106.7,856.5,""smooth"",""down"",""down"",""good_move"",57629.1,2714.4,2131.2,54914.7,583.3,""smooth"",""right"",""right"",""good_move""]","",""
"6531","","<div style=""width:500px;"">
  <p>What determined the result of this run?</p>
  </div>","100","html-slider-response","65","1493123","0.0-5.0-1.11","12","1","2025-07-09 08:40:32","01610cd0009c79a99da7d0a3353eb402","102.128.184.38","Mozilla/5.0 (Windows NT 10.0; Win64; x64) AppleWebKit/537.36 (KHTML, like Gecko) Chrome/138.0.0.0 Safari/537.36 Edg/138.0.0.0","WebKit","Edge","138.0.0.0","Windows","10.0","https://app.prolific.com/","en-US,en;q=0.9,en-ZA;q=0.8","66952367721687887540318f","683db7602f5db6a34d12d064","686e2aa38dcec367932a78cf","1","66952367721687887540318f","1","2025-07-09T09:05:48.294Z","","","","","","","","","","","AttribQ","","50","","","","","","","","","","","","","","","","","","","","","","","","","","","","",""
"3035","","<div style=""width:500px;"">
  <p>How much control did you have over the ball?</p>
  </div>","100","html-slider-response","66","1496163","0.0-5.0-2.11","12","1","2025-07-09 08:40:32","01610cd0009c79a99da7d0a3353eb402","102.128.184.38","Mozilla/5.0 (Windows NT 10.0; Win64; x64) AppleWebKit/537.36 (KHTML, like Gecko) Chrome/138.0.0.0 Safari/537.36 Edg/138.0.0.0","WebKit","Edge","138.0.0.0","Windows","10.0","https://app.prolific.com/","en-US,en;q=0.9,en-ZA;q=0.8","66952367721687887540318f","683db7602f5db6a34d12d064","686e2aa38dcec367932a78cf","1","66952367721687887540318f","1","2025-07-09T09:05:51.334Z","","","","","","","","","","","ControlQ","","50","","","","","","","","","","","","","","","","","","","","","","","","","","","","",""
"2751","","<div style=""width:500px;"">
  <p>How would you describe your current emotional state?</p>
  </div>","48","html-slider-response","67","1498919","0.0-5.0-3.11","12","1","2025-07-09 08:40:32","01610cd0009c79a99da7d0a3353eb402","102.128.184.38","Mozilla/5.0 (Windows NT 10.0; Win64; x64) AppleWebKit/537.36 (KHTML, like Gecko) Chrome/138.0.0.0 Safari/537.36 Edg/138.0.0.0","WebKit","Edge","138.0.0.0","Windows","10.0","https://app.prolific.com/","en-US,en;q=0.9,en-ZA;q=0.8","66952367721687887540318f","683db7602f5db6a34d12d064","686e2aa38dcec367932a78cf","1","66952367721687887540318f","1","2025-07-09T09:05:54.091Z","","","","","","","","","","","StressQ","","50","","","","","","","","","","","","","","","","","","","","","","","","","","","","",""
"3407","","<div style=""width:500px;"">
  <p>What best describes how you currently feel?</p>
  </div>","99","html-slider-response","68","1502333","0.0-5.0-4.11","12","1","2025-07-09 08:40:32","01610cd0009c79a99da7d0a3353eb402","102.128.184.38","Mozilla/5.0 (Windows NT 10.0; Win64; x64) AppleWebKit/537.36 (KHTML, like Gecko) Chrome/138.0.0.0 Safari/537.36 Edg/138.0.0.0","WebKit","Edge","138.0.0.0","Windows","10.0","https://app.prolific.com/","en-US,en;q=0.9,en-ZA;q=0.8","66952367721687887540318f","683db7602f5db6a34d12d064","686e2aa38dcec367932a78cf","1","66952367721687887540318f","1","2025-07-09T09:05:57.506Z","","","","","","","","","","","MotivationQ","","50","","","","","","","","","","","","","","","","","","","","","","","","","","","","",""
"","","","","ctl-task-cpt","69","1753822","0.0-5.0-0.12","12","1","2025-07-09 08:40:32","01610cd0009c79a99da7d0a3353eb402","102.128.184.38","Mozilla/5.0 (Windows NT 10.0; Win64; x64) AppleWebKit/537.36 (KHTML, like Gecko) Chrome/138.0.0.0 Safari/537.36 Edg/138.0.0.0","WebKit","Edge","138.0.0.0","Windows","10.0","https://app.prolific.com/","en-US,en;q=0.9,en-ZA;q=0.8","66952367721687887540318f","683db7602f5db6a34d12d064","686e2aa38dcec367932a78cf","1","66952367721687887540318f","1","2025-07-09T09:10:08.994Z","","","","","","","","","","","","","","win-only","2","g1:SE,g2:NW","0.7","13","0","1524926","188148.6","193171.6","248434.8","1","4","4","6","2","4","4","59","55","0.44696969696969696","1443.9","3000","1650","[""left"",""up""]","{""num_key_presses"":10,""num_perfect"":7,""num_errors"":0,""num_randdir"":3,""num_randdir_good_moves"":1,""num_whilered"":0,""num_whileblue"":0,""num_blue"":3,""num_good_moves"":8}","[299.22232142857143,299.12857142857143,8.8,299.22232142857143,299.12857142857143,103.1,299.22232142857143,299.12857142857143,213,299.22232142857143,299.12857142857143,318.3,299.22232142857143,299.12857142857143,419.4,299.22232142857143,299.12857142857143,530.1,299.22232142857143,299.12857142857143,637.1,299.22232142857143,299.12857142857143,738.8,200.22232142857143,226.12857142857143,851.1,108.22232142857143,157.12857142857143,961.7,74.22232142857143,113.12857142857143,1085,65.22232142857143,81.12857142857143,1191.1,64.22232142857143,75.12857142857143,1298.9,64.22232142857143,75.12857142857143,1418,64.22232142857143,75.12857142857143,1521.7,64.22232142857143,75.12857142857143,1630.2,64.22232142857143,75.12857142857143,1736.7,64.22232142857143,75.12857142857143,1844.6,64.22232142857143,75.12857142857143,1968.6,64.22232142857143,75.12857142857143,2084.3,64.22232142857143,75.12857142857143,2206.9,64.22232142857143,75.12857142857143,2321.3,91.22232142857143,78.12857142857143,2451.3,359.22232142857143,155.12857142857143,2574.6,540.2223214285714,214.12857142857143,2702.3,641.2223214285714,256.12857142857143,2820.5,641.2223214285714,256.12857142857143,2945.9,641.2223214285714,256.12857142857143,3054.1,641.2223214285714,256.12857142857143,3163.7,641.2223214285714,256.12857142857143,3270.4,641.2223214285714,256.12857142857143,3374.3,641.2223214285714,256.12857142857143,3484.1,641.2223214285714,256.12857142857143,3600,641.2223214285714,256.12857142857143,3714.8,641.2223214285714,256.12857142857143,3823.9,641.2223214285714,256.12857142857143,3937.5,641.2223214285714,256.12857142857143,4055.6,641.2223214285714,256.12857142857143,4164.6,641.2223214285714,256.12857142857143,4284.2,641.2223214285714,256.12857142857143,4401.4,641.2223214285714,256.12857142857143,4514.6,641.2223214285714,256.12857142857143,4632.2,641.2223214285714,256.12857142857143,4776.4,641.2223214285714,256.12857142857143,4895.4,641.2223214285714,256.12857142857143,4996.6]","[1594.7,1594.8,1000,0,594.8,""oops"",""left"",""up"",""good_move"",6885.5,5286.5,2630.6,1599.1,2655.8,""smooth"",""left"",""left"",""good_move"",12246.3,5357.7,2052.5,6888.6,3305.2,""oops"",""left"",""down"",""bad_move"",15774.7,3527.2,2592.1,12247.5,935.1,""smooth"",""left"",""left"",""good_move"",20884.5,5109.1,2748.9,15775.4,2360.2,""smooth"",""left"",""left"",""good_move"",25968.6,5082.1,2149.5,20886.8,2932.3,""oops"",""up"",""right"",""bad_move"",32115.2,6144.6,2188.9,29256.4,669.9,""smooth"",""up"",""up"",""good_move"",41072.8,8955.6,2691.6,37689.5,691.7,""smooth"",""up"",""up"",""good_move"",49901.2,8827.8,2504.3,46578.5,818.5,""smooth"",""up"",""up"",""good_move"",54761,4857.7,1545.7,49903.3,3312,""smooth"",""left"",""left"",""good_move""]","",""
"5445","","<div style=""width:500px;"">
  <p>What determined the result of this run?</p>
  </div>","99","html-slider-response","70","1759275","0.0-5.0-1.12","12","1","2025-07-09 08:40:32","01610cd0009c79a99da7d0a3353eb402","102.128.184.38","Mozilla/5.0 (Windows NT 10.0; Win64; x64) AppleWebKit/537.36 (KHTML, like Gecko) Chrome/138.0.0.0 Safari/537.36 Edg/138.0.0.0","WebKit","Edge","138.0.0.0","Windows","10.0","https://app.prolific.com/","en-US,en;q=0.9,en-ZA;q=0.8","66952367721687887540318f","683db7602f5db6a34d12d064","686e2aa38dcec367932a78cf","1","66952367721687887540318f","1","2025-07-09T09:10:14.446Z","","","","","","","","","","","AttribQ","","50","","","","","","","","","","","","","","","","","","","","","","","","","","","","",""
"6596","","<div style=""width:500px;"">
  <p>How much control did you have over the ball?</p>
  </div>","100","html-slider-response","71","1765876","0.0-5.0-2.12","12","1","2025-07-09 08:40:32","01610cd0009c79a99da7d0a3353eb402","102.128.184.38","Mozilla/5.0 (Windows NT 10.0; Win64; x64) AppleWebKit/537.36 (KHTML, like Gecko) Chrome/138.0.0.0 Safari/537.36 Edg/138.0.0.0","WebKit","Edge","138.0.0.0","Windows","10.0","https://app.prolific.com/","en-US,en;q=0.9,en-ZA;q=0.8","66952367721687887540318f","683db7602f5db6a34d12d064","686e2aa38dcec367932a78cf","1","66952367721687887540318f","1","2025-07-09T09:10:21.047Z","","","","","","","","","","","ControlQ","","50","","","","","","","","","","","","","","","","","","","","","","","","","","","","",""
"5317","","<div style=""width:500px;"">
  <p>How would you describe your current emotional state?</p>
  </div>","45","html-slider-response","72","1771197","0.0-5.0-3.12","12","1","2025-07-09 08:40:32","01610cd0009c79a99da7d0a3353eb402","102.128.184.38","Mozilla/5.0 (Windows NT 10.0; Win64; x64) AppleWebKit/537.36 (KHTML, like Gecko) Chrome/138.0.0.0 Safari/537.36 Edg/138.0.0.0","WebKit","Edge","138.0.0.0","Windows","10.0","https://app.prolific.com/","en-US,en;q=0.9,en-ZA;q=0.8","66952367721687887540318f","683db7602f5db6a34d12d064","686e2aa38dcec367932a78cf","1","66952367721687887540318f","1","2025-07-09T09:10:26.369Z","","","","","","","","","","","StressQ","","50","","","","","","","","","","","","","","","","","","","","","","","","","","","","",""
"49003","","<div style=""width:500px;"">
  <p>What best describes how you currently feel?</p>
  </div>","99","html-slider-response","73","1820206","0.0-5.0-4.12","12","1","2025-07-09 08:40:32","01610cd0009c79a99da7d0a3353eb402","102.128.184.38","Mozilla/5.0 (Windows NT 10.0; Win64; x64) AppleWebKit/537.36 (KHTML, like Gecko) Chrome/138.0.0.0 Safari/537.36 Edg/138.0.0.0","WebKit","Edge","138.0.0.0","Windows","10.0","https://app.prolific.com/","en-US,en;q=0.9,en-ZA;q=0.8","66952367721687887540318f","683db7602f5db6a34d12d064","686e2aa38dcec367932a78cf","1","66952367721687887540318f","1","2025-07-09T09:11:15.378Z","","","","","","","","","","","MotivationQ","","50","","","","","","","","","","","","","","","","","","","","","","","","","","","","",""
