"rt","response_timestamp","stimulus","response","trial_type","trial_index","time_elapsed","internal_node_id","run_id","condition","recorded_at","source_code_version","ip","user_agent","device","browser","browser_version","platform","platform_version","referer","accept_language","PROLIFIC_PID","STUDY_ID","SESSION_ID","WEEK","prolific_id","week","realtime","success","responses","item_order","radio_event_ids","radio_event_times","key_event_times","mouse_event_times","straightlining","zigzagging","honeypot","eventType","view_history","slider_start","which_type","canvas_config","goals_layout","control_level","trial_number","tutorial_trial_number","trial_start_time","phase1_start_time","phase2_start_time","phase3_start_time","goal_1_value","goal_1_distance","goal_2_value","goal_2_distance","goal_selected","outcome","outcome_total","participant_final_score","participant_initial_score","participant_final_score_prop","goal_choice_rt","allocated_time","allocated_time_remaining","goal_direction","counts","mouse_movements","key_presses","question_order","question_id"
"71902","1752059185318","<p style='font-size:40px;line-height:1.25'><strong>Welcome to the experiment!</strong></p><p style='font-size:1.1em;line-height:1.25'>Thank you for participanting in our experiment again! You will be asked to play the Dysfunctional Ball Game again. We will briefly recap the rules before we start.</p><p style='font-size:1.1em;line-height:1.25'>Press <strong>Next</strong> to continue.</p>","0","custom-html-button-response","0","71904","0.0-0.0","28","1","2025-07-09 11:05:11","01610cd0009c79a99da7d0a3353eb402","76.221.209.152","Mozilla/5.0 (Windows NT 10.0; Win64; x64) AppleWebKit/537.36 (KHTML, like Gecko) Chrome/138.0.0.0 Safari/537.36","WebKit","Chrome","138.0.0.0","Windows","10.0","https://app.prolific.com/","en-US,en;q=0.9,de;q=0.8,zh-TW;q=0.7,zh-CN;q=0.6,zh;q=0.5","5d617ba9364f9a0019f1dac3","683db7602f5db6a34d12d064","686e4c08dd5ccc6b99cd6be4","1","5d617ba9364f9a0019f1dac3","1","2025-07-09T11:06:25.319Z","","","","","","","","","","","","","","","","","","","","","","","","","","","","","","","","","","","","","","","","","",""
"2895","","","","fullscreen","1","75804","0.0-1.0","28","1","2025-07-09 11:05:11","01610cd0009c79a99da7d0a3353eb402","76.221.209.152","Mozilla/5.0 (Windows NT 10.0; Win64; x64) AppleWebKit/537.36 (KHTML, like Gecko) Chrome/138.0.0.0 Safari/537.36","WebKit","Chrome","138.0.0.0","Windows","10.0","https://app.prolific.com/","en-US,en;q=0.9,de;q=0.8,zh-TW;q=0.7,zh-CN;q=0.6,zh;q=0.5","5d617ba9364f9a0019f1dac3","683db7602f5db6a34d12d064","686e4c08dd5ccc6b99cd6be4","1","5d617ba9364f9a0019f1dac3","1","","true","","","","","","","","","","","","","","","","","","","","","","","","","","","","","","","","","","","","","","","","",""
"1448","1752059190668","<p style='font-size:1.1em;line-height:1.25'>In the following, we will ask you a few questions relating to your feelings in the last 24 hours.<br></p><p style='font-size:1.1em;line-height:1.25'>Press the <strong>Next</strong> button to continue.</p>","0","custom-html-button-response","2","77253","0.0-2.0-0.0","28","1","2025-07-09 11:05:11","01610cd0009c79a99da7d0a3353eb402","76.221.209.152","Mozilla/5.0 (Windows NT 10.0; Win64; x64) AppleWebKit/537.36 (KHTML, like Gecko) Chrome/138.0.0.0 Safari/537.36","WebKit","Chrome","138.0.0.0","Windows","10.0","https://app.prolific.com/","en-US,en;q=0.9,de;q=0.8,zh-TW;q=0.7,zh-CN;q=0.6,zh;q=0.5","5d617ba9364f9a0019f1dac3","683db7602f5db6a34d12d064","686e4c08dd5ccc6b99cd6be4","1","5d617ba9364f9a0019f1dac3","1","2025-07-09T11:06:30.668Z","","","","","","","","","","","","","","","","","","","","","","","","","","","","","","","","","","","","","","","","","",""
"59918.79999998212","","","","survey-template","3","137175","0.0-2.0-1.0","28","1","2025-07-09 11:05:11","01610cd0009c79a99da7d0a3353eb402","76.221.209.152","Mozilla/5.0 (Windows NT 10.0; Win64; x64) AppleWebKit/537.36 (KHTML, like Gecko) Chrome/138.0.0.0 Safari/537.36","WebKit","Chrome","138.0.0.0","Windows","10.0","https://app.prolific.com/","en-US,en;q=0.9,de;q=0.8,zh-TW;q=0.7,zh-CN;q=0.6,zh;q=0.5","5d617ba9364f9a0019f1dac3","683db7602f5db6a34d12d064","686e4c08dd5ccc6b99cd6be4","1","5d617ba9364f9a0019f1dac3","1","2025-07-09T11:07:30.590Z","","{""Q01"":""3"",""Q02"":""3"",""Q03"":""2"",""Q04"":""3"",""Q05"":""1"",""Q06"":""1"",""Q07"":""2"",""Q08"":""0"",""Q09"":""4"",""Q10"":""3"",""Q11"":""5"",""Q12"":""1"",""Q13"":""5"",""Q14"":""1"",""Q15"":""0"",""Q16"":""5"",""Q17"":""3"",""Q18"":""0"",""Q19"":""1"",""Q20"":""3"",""Q21"":""3"",""Q22"":""0""}","[0,1,2,3,4,5,6,7,8,9,10,11,12,13,14,15,16,17,18,19,20,21]","[""Q01"",""Q02"",""Q03"",""Q04"",""Q05"",""Q06"",""Q07"",""Q08"",""Q09"",""Q10"",""Q11"",""Q12"",""Q13"",""Q14"",""Q15"",""Q16"",""Q17"",""Q18"",""Q20"",""Q21"",""Q22"",""Q19""]","[2498,3725.899999976158,5347.5999999940395,6368.699999988079,8217.399999976158,9816.399999976158,10824.399999976158,12033.899999976158,17210,18386.5,19579.899999976158,21392,24411.899999976158,32322.5,34838.19999998808,36248.5,37728.29999998212,39472.79999998212,50061.59999999404,53771.5,54887.89999997616,58910.5]","[]","[1.7999999821186066,2498,3725.899999976158,5347.5999999940395,6368.699999988079,8217.399999976158,9816.399999976158,10824.399999976158,12033.899999976158,13441.799999982119,14082,17210,18386.5,19579.899999976158,21392,23092.19999998808,23480.09999999404,23884.19999998808,24411.899999976158,32322.5,34290.29999998212,34838.19999998808,35783.69999998808,36248.5,37728.29999998212,39472.79999998212,41500.89999997616,50061.59999999404,53283.69999998808,53771.5,54887.89999997616,56411.69999998808,58910.5,59915.09999999404]","0.3181818181818182","0.3333333333333333","0","drsp","","","","","","","","","","","","","","","","","","","","","","","","","","","","","","",""
"6786.5","","","","survey-template","4","143963","0.0-2.0-2.0","28","1","2025-07-09 11:05:11","01610cd0009c79a99da7d0a3353eb402","76.221.209.152","Mozilla/5.0 (Windows NT 10.0; Win64; x64) AppleWebKit/537.36 (KHTML, like Gecko) Chrome/138.0.0.0 Safari/537.36","WebKit","Chrome","138.0.0.0","Windows","10.0","https://app.prolific.com/","en-US,en;q=0.9,de;q=0.8,zh-TW;q=0.7,zh-CN;q=0.6,zh;q=0.5","5d617ba9364f9a0019f1dac3","683db7602f5db6a34d12d064","686e4c08dd5ccc6b99cd6be4","1","5d617ba9364f9a0019f1dac3","1","2025-07-09T11:07:37.378Z","","{""Q01"":""4"",""Q02"":""5"",""Q03"":""4""}","[0,1,2]","[""Q01"",""Q02"",""Q03""]","[2824.600000023842,3841.100000023842,6235]","[]","[2824.600000023842,3841.100000023842,4896.700000017881,5496.9000000059605,5860.200000017881,6235,6786]","0.6666666666666666","0","0","stress","","","","","","","","","","","","","","","","","","","","","","","","","","","","","","",""
"41713","","","","instructions","5","185676","0.0-3.0-0.0","28","1","2025-07-09 11:05:11","01610cd0009c79a99da7d0a3353eb402","76.221.209.152","Mozilla/5.0 (Windows NT 10.0; Win64; x64) AppleWebKit/537.36 (KHTML, like Gecko) Chrome/138.0.0.0 Safari/537.36","WebKit","Chrome","138.0.0.0","Windows","10.0","https://app.prolific.com/","en-US,en;q=0.9,de;q=0.8,zh-TW;q=0.7,zh-CN;q=0.6,zh;q=0.5","5d617ba9364f9a0019f1dac3","683db7602f5db6a34d12d064","686e4c08dd5ccc6b99cd6be4","1","5d617ba9364f9a0019f1dac3","1","","","","","","","","","","","","","[{""page_index"":0,""viewing_time"":41712}]","","","","","","","","","","","","","","","","","","","","","","","","","","","","","",""
"7605","","<p>Before you start with this game please answer the following three questions yourself. </p>
  <p>Through this game, we measure several aspects of your cognitive performance, such as reaction times, multi-tasking capabilities </p>
  <p>and the ability to assess the situation you are in.</p>
  <p></p>
  <p><b>How good do you usually are in such tasks?</b></p>","0","html-slider-response","6","193286","0.0-4.0-0.0","28","1","2025-07-09 11:05:11","01610cd0009c79a99da7d0a3353eb402","76.221.209.152","Mozilla/5.0 (Windows NT 10.0; Win64; x64) AppleWebKit/537.36 (KHTML, like Gecko) Chrome/138.0.0.0 Safari/537.36","WebKit","Chrome","138.0.0.0","Windows","10.0","https://app.prolific.com/","en-US,en;q=0.9,de;q=0.8,zh-TW;q=0.7,zh-CN;q=0.6,zh;q=0.5","5d617ba9364f9a0019f1dac3","683db7602f5db6a34d12d064","686e4c08dd5ccc6b99cd6be4","1","5d617ba9364f9a0019f1dac3","1","2025-07-09T11:08:26.701Z","","","","","","","","","","","PreSkillQ","","50","","","","","","","","","","","","","","","","","","","","","","","","","","","","",""
"13467","","<div style=""width:500px;"">
  <p>How well do you think you will perform in this task compared to other participants?</p>
  </div>","0","html-slider-response","7","206755","0.0-4.0-1.0","28","1","2025-07-09 11:05:11","01610cd0009c79a99da7d0a3353eb402","76.221.209.152","Mozilla/5.0 (Windows NT 10.0; Win64; x64) AppleWebKit/537.36 (KHTML, like Gecko) Chrome/138.0.0.0 Safari/537.36","WebKit","Chrome","138.0.0.0","Windows","10.0","https://app.prolific.com/","en-US,en;q=0.9,de;q=0.8,zh-TW;q=0.7,zh-CN;q=0.6,zh;q=0.5","5d617ba9364f9a0019f1dac3","683db7602f5db6a34d12d064","686e4c08dd5ccc6b99cd6be4","1","5d617ba9364f9a0019f1dac3","1","2025-07-09T11:08:40.170Z","","","","","","","","","","","PrePerfQ","","50","","","","","","","","","","","","","","","","","","","","","","","","","","","","",""
"2695","","<div style=""width:500px;"">
  <p>What best describes how you currently feel?</p>
  </div>","5","html-slider-response","8","209451","0.0-4.0-2.0","28","1","2025-07-09 11:05:11","01610cd0009c79a99da7d0a3353eb402","76.221.209.152","Mozilla/5.0 (Windows NT 10.0; Win64; x64) AppleWebKit/537.36 (KHTML, like Gecko) Chrome/138.0.0.0 Safari/537.36","WebKit","Chrome","138.0.0.0","Windows","10.0","https://app.prolific.com/","en-US,en;q=0.9,de;q=0.8,zh-TW;q=0.7,zh-CN;q=0.6,zh;q=0.5","5d617ba9364f9a0019f1dac3","683db7602f5db6a34d12d064","686e4c08dd5ccc6b99cd6be4","1","5d617ba9364f9a0019f1dac3","1","2025-07-09T11:08:42.866Z","","","","","","","","","","","PreMotivationQ","","50","","","","","","","","","","","","","","","","","","","","","","","","","","","","",""
"","","","","ctl-task-cpt","9","242421","0.0-5.0-0.0","28","1","2025-07-09 11:05:11","01610cd0009c79a99da7d0a3353eb402","76.221.209.152","Mozilla/5.0 (Windows NT 10.0; Win64; x64) AppleWebKit/537.36 (KHTML, like Gecko) Chrome/138.0.0.0 Safari/537.36","WebKit","Chrome","138.0.0.0","Windows","10.0","https://app.prolific.com/","en-US,en;q=0.9,de;q=0.8,zh-TW;q=0.7,zh-CN;q=0.6,zh;q=0.5","5d617ba9364f9a0019f1dac3","683db7602f5db6a34d12d064","686e4c08dd5ccc6b99cd6be4","1","5d617ba9364f9a0019f1dac3","1","2025-07-09T11:09:15.836Z","","","","","","","","","","","","","","win-only","2","g1:SE,g2:NW","1","1","0","211842.2","1498.6","6501.2","29962","1","4","8","6","2","8","7","7","0","0.05303030303030303","2062.4","3000","615","[""left"",""up""]","{""num_key_presses"":7,""num_perfect"":6,""num_errors"":1,""num_randdir"":0,""num_randdir_good_moves"":0,""num_whilered"":0,""num_whileblue"":0,""num_blue"":1,""num_good_moves"":6}","[419.0714133126395,420.32142761775424,0.2,419.0714133126395,420.32142761775424,102.5,434.0714133126395,409.07142761775424,206.9,869.0714133126395,231.57142761775424,312.5,966.5714133126395,186.57142761775424,412.7,966.5714133126395,186.57142761775424,517.9,966.5714133126395,186.57142761775424,623,966.5714133126395,186.57142761775424,726.8,966.5714133126395,186.57142761775424,828,966.5714133126395,186.57142761775424,932.4,966.5714133126395,186.57142761775424,1037.4,966.5714133126395,186.57142761775424,1142.7,966.5714133126395,186.57142761775424,1242.8,966.5714133126395,186.57142761775424,1346.5,966.5714133126395,186.57142761775424,1446.8,965.3214133126395,185.32142761775424,1547.1,771.5714133126395,180.32142761775424,1652.6,567.8214133126395,161.57142761775424,1753.5,225.3214133126395,182.82142761775424,1856.7,166.5714133126395,104.07142761775425,1956.7,112.8214133126395,101.57142761775425,2058.2,112.8214133126395,101.57142761775425,2161.9,111.5714133126395,100.32142761775425,2262.4,19.071413312639507,51.57142761775425,2362.4,-543.4285866873605,-118.42857238224575,2467.4,-543.4285866873605,-118.42857238224575,2572.8,-543.4285866873605,-118.42857238224575,2673.5,-543.4285866873605,-118.42857238224575,2777.8,-543.4285866873605,-118.42857238224575,2882.3,-543.4285866873605,-118.42857238224575,2986.7,-543.4285866873605,-118.42857238224575,3087.3,-543.4285866873605,-118.42857238224575,3187.3,-543.4285866873605,-118.42857238224575,3287.4,-543.4285866873605,-118.42857238224575,3392.4,-543.4285866873605,-118.42857238224575,3497.6,-543.4285866873605,-118.42857238224575,3598.5,-543.4285866873605,-118.42857238224575,3702.5,-543.4285866873605,-118.42857238224575,3807.6,-543.4285866873605,-118.42857238224575,3907.8,-543.4285866873605,-118.42857238224575,4011.7,-543.4285866873605,-118.42857238224575,4111.9,-543.4285866873605,-118.42857238224575,4212.2,-543.4285866873605,-118.42857238224575,4317.7,-543.4285866873605,-118.42857238224575,4422.1,-543.4285866873605,-118.42857238224575,4522.4,-543.4285866873605,-118.42857238224575,4622.7,-543.4285866873605,-118.42857238224575,4727.5,-543.4285866873605,-118.42857238224575,4831.7,-543.4285866873605,-118.42857238224575,4933.4]","[722.9,722.9,1000,0,-277.1,""error"",""-"",""-"",""no_move"",5338.2,4615.1,3238,1725,375.2,""smooth"",""up"",""up"",""good_move"",9066.4,3727.9,3294.5,5338.5,433.4,""smooth"",""left"",""left"",""good_move"",15218.9,6152.1,2242,12610.8,366.1,""smooth"",""up"",""up"",""good_move"",18162.3,2943.2,2492.1,15219.1,451.1,""smooth"",""left"",""left"",""good_move"",20762.2,2599.8,2102.6,18162.5,497.1,""smooth"",""up"",""up"",""good_move"",23370.3,2608,2314.4,20762.4,293.5,""smooth"",""left"",""left"",""good_move""]","",""
"3779","","<div style=""width:500px;"">
  <p>What determined the result of this run?</p>
  </div>","3","html-slider-response","10","246202","0.0-5.0-1.0","28","1","2025-07-09 11:05:11","01610cd0009c79a99da7d0a3353eb402","76.221.209.152","Mozilla/5.0 (Windows NT 10.0; Win64; x64) AppleWebKit/537.36 (KHTML, like Gecko) Chrome/138.0.0.0 Safari/537.36","WebKit","Chrome","138.0.0.0","Windows","10.0","https://app.prolific.com/","en-US,en;q=0.9,de;q=0.8,zh-TW;q=0.7,zh-CN;q=0.6,zh;q=0.5","5d617ba9364f9a0019f1dac3","683db7602f5db6a34d12d064","686e4c08dd5ccc6b99cd6be4","1","5d617ba9364f9a0019f1dac3","1","2025-07-09T11:09:19.617Z","","","","","","","","","","","AttribQ","","50","","","","","","","","","","","","","","","","","","","","","","","","","","","","",""
"1961","","<div style=""width:500px;"">
  <p>How much control did you have over the ball?</p>
  </div>","100","html-slider-response","11","248165","0.0-5.0-2.0","28","1","2025-07-09 11:05:11","01610cd0009c79a99da7d0a3353eb402","76.221.209.152","Mozilla/5.0 (Windows NT 10.0; Win64; x64) AppleWebKit/537.36 (KHTML, like Gecko) Chrome/138.0.0.0 Safari/537.36","WebKit","Chrome","138.0.0.0","Windows","10.0","https://app.prolific.com/","en-US,en;q=0.9,de;q=0.8,zh-TW;q=0.7,zh-CN;q=0.6,zh;q=0.5","5d617ba9364f9a0019f1dac3","683db7602f5db6a34d12d064","686e4c08dd5ccc6b99cd6be4","1","5d617ba9364f9a0019f1dac3","1","2025-07-09T11:09:21.580Z","","","","","","","","","","","ControlQ","","50","","","","","","","","","","","","","","","","","","","","","","","","","","","","",""
"2915","","<div style=""width:500px;"">
  <p>How would you describe your current emotional state?</p>
  </div>","32","html-slider-response","12","251080","0.0-5.0-3.0","28","1","2025-07-09 11:05:11","01610cd0009c79a99da7d0a3353eb402","76.221.209.152","Mozilla/5.0 (Windows NT 10.0; Win64; x64) AppleWebKit/537.36 (KHTML, like Gecko) Chrome/138.0.0.0 Safari/537.36","WebKit","Chrome","138.0.0.0","Windows","10.0","https://app.prolific.com/","en-US,en;q=0.9,de;q=0.8,zh-TW;q=0.7,zh-CN;q=0.6,zh;q=0.5","5d617ba9364f9a0019f1dac3","683db7602f5db6a34d12d064","686e4c08dd5ccc6b99cd6be4","1","5d617ba9364f9a0019f1dac3","1","2025-07-09T11:09:24.496Z","","","","","","","","","","","StressQ","","50","","","","","","","","","","","","","","","","","","","","","","","","","","","","",""
"2157","","<div style=""width:500px;"">
  <p>What best describes how you currently feel?</p>
  </div>","0","html-slider-response","13","253239","0.0-5.0-4.0","28","1","2025-07-09 11:05:11","01610cd0009c79a99da7d0a3353eb402","76.221.209.152","Mozilla/5.0 (Windows NT 10.0; Win64; x64) AppleWebKit/537.36 (KHTML, like Gecko) Chrome/138.0.0.0 Safari/537.36","WebKit","Chrome","138.0.0.0","Windows","10.0","https://app.prolific.com/","en-US,en;q=0.9,de;q=0.8,zh-TW;q=0.7,zh-CN;q=0.6,zh;q=0.5","5d617ba9364f9a0019f1dac3","683db7602f5db6a34d12d064","686e4c08dd5ccc6b99cd6be4","1","5d617ba9364f9a0019f1dac3","1","2025-07-09T11:09:26.654Z","","","","","","","","","","","MotivationQ","","50","","","","","","","","","","","","","","","","","","","","","","","","","","","","",""
"","","","","ctl-task-cpt","14","282651","0.0-5.0-0.1","28","1","2025-07-09 11:05:11","01610cd0009c79a99da7d0a3353eb402","76.221.209.152","Mozilla/5.0 (Windows NT 10.0; Win64; x64) AppleWebKit/537.36 (KHTML, like Gecko) Chrome/138.0.0.0 Safari/537.36","WebKit","Chrome","138.0.0.0","Windows","10.0","https://app.prolific.com/","en-US,en;q=0.9,de;q=0.8,zh-TW;q=0.7,zh-CN;q=0.6,zh;q=0.5","5d617ba9364f9a0019f1dac3","683db7602f5db6a34d12d064","686e4c08dd5ccc6b99cd6be4","1","5d617ba9364f9a0019f1dac3","1","2025-07-09T11:09:56.066Z","","","","","","","","","","","","","","win-only","1","g1:NE,g2:SW","0.9","2","0","255629.5","1007.4","6011.5","26396.2","1","4","4","6","2","4","4","11","7","0.08333333333333333","720.2","3000","300","[""down"",""left""]","{""num_key_presses"":8,""num_perfect"":7,""num_errors"":0,""num_randdir"":1,""num_randdir_good_moves"":0,""num_whilered"":0,""num_whileblue"":0,""num_blue"":0,""num_good_moves"":7}","[409.0714133126395,420.32142761775424,0.5,409.0714133126395,420.32142761775424,103.1,409.0714133126395,420.32142761775424,204.2,405.3214133126395,421.57142761775424,309.3,369.0714133126395,477.82142761775424,409.4,171.5714133126395,745.3214276177542,513.6,121.5714133126395,781.5714276177542,613.6,96.5714133126395,771.5714276177542,718.4,86.5714133126395,775.3214276177542,818.6,-410.9285866873605,892.8214276177542,924.8,-465.9285866873605,907.8214276177542,1028.1,-465.9285866873605,907.8214276177542,1129.1,-465.9285866873605,907.8214276177542,1234.6,-465.9285866873605,907.8214276177542,1339.1,-465.9285866873605,907.8214276177542,1443.5,-465.9285866873605,907.8214276177542,1549,-465.9285866873605,907.8214276177542,1654.7,-465.9285866873605,907.8214276177542,1758.8,-465.9285866873605,907.8214276177542,1863.8,-465.9285866873605,907.8214276177542,1968,-465.9285866873605,907.8214276177542,2068.3,-465.9285866873605,907.8214276177542,2174.1,-465.9285866873605,907.8214276177542,2278.9,-465.9285866873605,907.8214276177542,2384.1,-465.9285866873605,907.8214276177542,2489.4,-465.9285866873605,907.8214276177542,2593.1,-465.9285866873605,907.8214276177542,2693.1,-465.9285866873605,907.8214276177542,2793.1,-465.9285866873605,907.8214276177542,2893.3,-465.9285866873605,907.8214276177542,2999.4,-465.9285866873605,907.8214276177542,3103.2,-465.9285866873605,907.8214276177542,3204,-465.9285866873605,907.8214276177542,3304.2,-465.9285866873605,907.8214276177542,3404.4,-465.9285866873605,907.8214276177542,3508.7,-465.9285866873605,907.8214276177542,3609.4,-465.9285866873605,907.8214276177542,3714,-465.9285866873605,907.8214276177542,3817.8,-465.9285866873605,907.8214276177542,3917.8,-465.9285866873605,907.8214276177542,4017.9,-465.9285866873605,907.8214276177542,4124.1,-465.9285866873605,907.8214276177542,4229.2,-465.9285866873605,907.8214276177542,4334.3,-465.9285866873605,907.8214276177542,4439,-465.9285866873605,907.8214276177542,4539.6,-465.9285866873605,907.8214276177542,4642.8,-465.9285866873605,907.8214276177542,4742.9,-465.9285866873605,907.8214276177542,4842.9,-465.9285866873605,907.8214276177542,4948.5]","[1393.3,1393.3,1000,0,393.3,""smooth"",""down"",""down"",""good_move"",4368.9,2975.3,2682.8,1393.6,292.5,""oops"",""left"",""up"",""bad_move"",7713,3343.9,2858.1,4369.1,485.8,""smooth"",""down"",""down"",""good_move"",10216.9,2503.7,2176.6,7713.2,327.1,""smooth"",""left"",""left"",""good_move"",12689.4,2472.3,2118.6,10217.1,353.7,""smooth"",""down"",""down"",""good_move"",14929.4,2239.9,1897.7,12689.5,342.2,""smooth"",""left"",""left"",""good_move"",17753.8,2824.2,2547.2,14929.6,277,""smooth"",""down"",""down"",""good_move"",20297,2542.6,2261.9,17754.4,280.7,""smooth"",""left"",""left"",""good_move""]","",""
"4671","","<div style=""width:500px;"">
  <p>What determined the result of this run?</p>
  </div>","5","html-slider-response","15","287323","0.0-5.0-1.1","28","1","2025-07-09 11:05:11","01610cd0009c79a99da7d0a3353eb402","76.221.209.152","Mozilla/5.0 (Windows NT 10.0; Win64; x64) AppleWebKit/537.36 (KHTML, like Gecko) Chrome/138.0.0.0 Safari/537.36","WebKit","Chrome","138.0.0.0","Windows","10.0","https://app.prolific.com/","en-US,en;q=0.9,de;q=0.8,zh-TW;q=0.7,zh-CN;q=0.6,zh;q=0.5","5d617ba9364f9a0019f1dac3","683db7602f5db6a34d12d064","686e4c08dd5ccc6b99cd6be4","1","5d617ba9364f9a0019f1dac3","1","2025-07-09T11:10:00.738Z","","","","","","","","","","","AttribQ","","50","","","","","","","","","","","","","","","","","","","","","","","","","","","","",""
"2175","","<div style=""width:500px;"">
  <p>How much control did you have over the ball?</p>
  </div>","81","html-slider-response","16","289499","0.0-5.0-2.1","28","1","2025-07-09 11:05:11","01610cd0009c79a99da7d0a3353eb402","76.221.209.152","Mozilla/5.0 (Windows NT 10.0; Win64; x64) AppleWebKit/537.36 (KHTML, like Gecko) Chrome/138.0.0.0 Safari/537.36","WebKit","Chrome","138.0.0.0","Windows","10.0","https://app.prolific.com/","en-US,en;q=0.9,de;q=0.8,zh-TW;q=0.7,zh-CN;q=0.6,zh;q=0.5","5d617ba9364f9a0019f1dac3","683db7602f5db6a34d12d064","686e4c08dd5ccc6b99cd6be4","1","5d617ba9364f9a0019f1dac3","1","2025-07-09T11:10:02.914Z","","","","","","","","","","","ControlQ","","50","","","","","","","","","","","","","","","","","","","","","","","","","","","","",""
"2029","","<div style=""width:500px;"">
  <p>How would you describe your current emotional state?</p>
  </div>","20","html-slider-response","17","291529","0.0-5.0-3.1","28","1","2025-07-09 11:05:11","01610cd0009c79a99da7d0a3353eb402","76.221.209.152","Mozilla/5.0 (Windows NT 10.0; Win64; x64) AppleWebKit/537.36 (KHTML, like Gecko) Chrome/138.0.0.0 Safari/537.36","WebKit","Chrome","138.0.0.0","Windows","10.0","https://app.prolific.com/","en-US,en;q=0.9,de;q=0.8,zh-TW;q=0.7,zh-CN;q=0.6,zh;q=0.5","5d617ba9364f9a0019f1dac3","683db7602f5db6a34d12d064","686e4c08dd5ccc6b99cd6be4","1","5d617ba9364f9a0019f1dac3","1","2025-07-09T11:10:04.944Z","","","","","","","","","","","StressQ","","50","","","","","","","","","","","","","","","","","","","","","","","","","","","","",""
"2054","","<div style=""width:500px;"">
  <p>What best describes how you currently feel?</p>
  </div>","12","html-slider-response","18","293584","0.0-5.0-4.1","28","1","2025-07-09 11:05:11","01610cd0009c79a99da7d0a3353eb402","76.221.209.152","Mozilla/5.0 (Windows NT 10.0; Win64; x64) AppleWebKit/537.36 (KHTML, like Gecko) Chrome/138.0.0.0 Safari/537.36","WebKit","Chrome","138.0.0.0","Windows","10.0","https://app.prolific.com/","en-US,en;q=0.9,de;q=0.8,zh-TW;q=0.7,zh-CN;q=0.6,zh;q=0.5","5d617ba9364f9a0019f1dac3","683db7602f5db6a34d12d064","686e4c08dd5ccc6b99cd6be4","1","5d617ba9364f9a0019f1dac3","1","2025-07-09T11:10:06.999Z","","","","","","","","","","","MotivationQ","","50","","","","","","","","","","","","","","","","","","","","","","","","","","","","",""
"","","","","ctl-task-cpt","19","313713","0.0-5.0-0.2","28","1","2025-07-09 11:05:11","01610cd0009c79a99da7d0a3353eb402","76.221.209.152","Mozilla/5.0 (Windows NT 10.0; Win64; x64) AppleWebKit/537.36 (KHTML, like Gecko) Chrome/138.0.0.0 Safari/537.36","WebKit","Chrome","138.0.0.0","Windows","10.0","https://app.prolific.com/","en-US,en;q=0.9,de;q=0.8,zh-TW;q=0.7,zh-CN;q=0.6,zh;q=0.5","5d617ba9364f9a0019f1dac3","683db7602f5db6a34d12d064","686e4c08dd5ccc6b99cd6be4","1","5d617ba9364f9a0019f1dac3","1","2025-07-09T11:10:27.128Z","","","","","","","","","","","","","","win-only","0","g1:NW,g2:SE","0.8","3","0","295975.8","823.3","5825.4","17111","1","4","4","6","1","1","1","12","11","0.09090909090909091","1440","3000","1850","[""left"",""up""]","{""num_key_presses"":4,""num_perfect"":3,""num_errors"":0,""num_randdir"":1,""num_randdir_good_moves"":1,""num_whilered"":0,""num_whileblue"":0,""num_blue"":0,""num_good_moves"":4}","[412.8214133126395,406.57142761775424,0,412.8214133126395,406.57142761775424,102,412.8214133126395,406.57142761775424,202,407.8214133126395,406.57142761775424,303,402.8214133126395,409.07142761775424,408.5,491.5714133126395,536.5714276177542,512.4,710.3214133126395,711.5714276177542,612.8,721.5714133126395,717.8214276177542,713.2,724.0714133126395,721.5714276177542,813.3,756.5714133126395,750.3214276177542,917,726.5714133126395,720.3214276177542,1017.8,201.5714133126395,261.57142761775424,1123.4,106.5714133126395,111.57142761775425,1228.2,89.0714133126395,57.82142761775425,1332.6,81.5714133126395,42.82142761775425,1433.1,81.5714133126395,42.82142761775425,1538,81.5714133126395,42.82142761775425,1642.6,77.8214133126395,44.07142761775425,1747.5,77.8214133126395,44.07142761775425,1848.6,77.8214133126395,44.07142761775425,1953.4,77.8214133126395,44.07142761775425,2057.2,77.8214133126395,44.07142761775425,2157.8,77.8214133126395,44.07142761775425,2258.6,77.8214133126395,44.07142761775425,2361.9,77.8214133126395,44.07142761775425,2462.4,77.8214133126395,44.07142761775425,2563,77.8214133126395,44.07142761775425,2663.1,77.8214133126395,44.07142761775425,2763.2,77.8214133126395,44.07142761775425,2867.2,77.8214133126395,44.07142761775425,2967.2,77.8214133126395,44.07142761775425,3067.3,77.8214133126395,44.07142761775425,3172.1,77.8214133126395,44.07142761775425,3272.2,77.8214133126395,44.07142761775425,3372.8,77.8214133126395,44.07142761775425,3478.1,77.8214133126395,44.07142761775425,3578.2,77.8214133126395,44.07142761775425,3682.8,77.8214133126395,44.07142761775425,3783.6,77.8214133126395,44.07142761775425,3887.5,77.8214133126395,44.07142761775425,3992.1,77.8214133126395,44.07142761775425,4092.4,77.8214133126395,44.07142761775425,4197.4,77.8214133126395,44.07142761775425,4297.8,77.8214133126395,44.07142761775425,4398.5,77.8214133126395,44.07142761775425,4502.1,77.8214133126395,44.07142761775425,4602.5,77.8214133126395,44.07142761775425,4703.2,77.8214133126395,44.07142761775425,4803.2,77.8214133126395,44.07142761775425,4907.3]","[1273.3,1273.3,1000,0,273.3,""smooth"",""up"",""up"",""good_move"",4704.5,3430.8,3095.2,1273.7,335.6,""smooth"",""left"",""left"",""good_move"",8049.2,3344.4,3062.7,4704.8,281.7,""oops"",""up"",""left"",""good_move"",11200.5,3151,2869.8,8049.5,281.2,""smooth"",""up"",""up"",""good_move""]","",""
"1817","","<div style=""width:500px;"">
  <p>What determined the result of this run?</p>
  </div>","0","html-slider-response","20","315530","0.0-5.0-1.2","28","1","2025-07-09 11:05:11","01610cd0009c79a99da7d0a3353eb402","76.221.209.152","Mozilla/5.0 (Windows NT 10.0; Win64; x64) AppleWebKit/537.36 (KHTML, like Gecko) Chrome/138.0.0.0 Safari/537.36","WebKit","Chrome","138.0.0.0","Windows","10.0","https://app.prolific.com/","en-US,en;q=0.9,de;q=0.8,zh-TW;q=0.7,zh-CN;q=0.6,zh;q=0.5","5d617ba9364f9a0019f1dac3","683db7602f5db6a34d12d064","686e4c08dd5ccc6b99cd6be4","1","5d617ba9364f9a0019f1dac3","1","2025-07-09T11:10:28.945Z","","","","","","","","","","","AttribQ","","50","","","","","","","","","","","","","","","","","","","","","","","","","","","","",""
"1375","","<div style=""width:500px;"">
  <p>How much control did you have over the ball?</p>
  </div>","78","html-slider-response","21","316907","0.0-5.0-2.2","28","1","2025-07-09 11:05:11","01610cd0009c79a99da7d0a3353eb402","76.221.209.152","Mozilla/5.0 (Windows NT 10.0; Win64; x64) AppleWebKit/537.36 (KHTML, like Gecko) Chrome/138.0.0.0 Safari/537.36","WebKit","Chrome","138.0.0.0","Windows","10.0","https://app.prolific.com/","en-US,en;q=0.9,de;q=0.8,zh-TW;q=0.7,zh-CN;q=0.6,zh;q=0.5","5d617ba9364f9a0019f1dac3","683db7602f5db6a34d12d064","686e4c08dd5ccc6b99cd6be4","1","5d617ba9364f9a0019f1dac3","1","2025-07-09T11:10:30.322Z","","","","","","","","","","","ControlQ","","50","","","","","","","","","","","","","","","","","","","","","","","","","","","","",""
"2123","","<div style=""width:500px;"">
  <p>How would you describe your current emotional state?</p>
  </div>","27","html-slider-response","22","319031","0.0-5.0-3.2","28","1","2025-07-09 11:05:11","01610cd0009c79a99da7d0a3353eb402","76.221.209.152","Mozilla/5.0 (Windows NT 10.0; Win64; x64) AppleWebKit/537.36 (KHTML, like Gecko) Chrome/138.0.0.0 Safari/537.36","WebKit","Chrome","138.0.0.0","Windows","10.0","https://app.prolific.com/","en-US,en;q=0.9,de;q=0.8,zh-TW;q=0.7,zh-CN;q=0.6,zh;q=0.5","5d617ba9364f9a0019f1dac3","683db7602f5db6a34d12d064","686e4c08dd5ccc6b99cd6be4","1","5d617ba9364f9a0019f1dac3","1","2025-07-09T11:10:32.446Z","","","","","","","","","","","StressQ","","50","","","","","","","","","","","","","","","","","","","","","","","","","","","","",""
"2019","","<div style=""width:500px;"">
  <p>What best describes how you currently feel?</p>
  </div>","9","html-slider-response","23","321051","0.0-5.0-4.2","28","1","2025-07-09 11:05:11","01610cd0009c79a99da7d0a3353eb402","76.221.209.152","Mozilla/5.0 (Windows NT 10.0; Win64; x64) AppleWebKit/537.36 (KHTML, like Gecko) Chrome/138.0.0.0 Safari/537.36","WebKit","Chrome","138.0.0.0","Windows","10.0","https://app.prolific.com/","en-US,en;q=0.9,de;q=0.8,zh-TW;q=0.7,zh-CN;q=0.6,zh;q=0.5","5d617ba9364f9a0019f1dac3","683db7602f5db6a34d12d064","686e4c08dd5ccc6b99cd6be4","1","5d617ba9364f9a0019f1dac3","1","2025-07-09T11:10:34.466Z","","","","","","","","","","","MotivationQ","","50","","","","","","","","","","","","","","","","","","","","","","","","","","","","",""
"","","","","ctl-task-cpt","24","350518","0.0-5.0-0.3","28","1","2025-07-09 11:05:11","01610cd0009c79a99da7d0a3353eb402","76.221.209.152","Mozilla/5.0 (Windows NT 10.0; Win64; x64) AppleWebKit/537.36 (KHTML, like Gecko) Chrome/138.0.0.0 Safari/537.36","WebKit","Chrome","138.0.0.0","Windows","10.0","https://app.prolific.com/","en-US,en;q=0.9,de;q=0.8,zh-TW;q=0.7,zh-CN;q=0.6,zh;q=0.5","5d617ba9364f9a0019f1dac3","683db7602f5db6a34d12d064","686e4c08dd5ccc6b99cd6be4","1","5d617ba9364f9a0019f1dac3","1","2025-07-09T11:11:03.933Z","","","","","","","","","","","","","","win-only","1","g1:NE,g2:SW","0.7","4","0","323442.5","747.9","5751.1","26450.2","1","4","8","6","1","1","1","13","12","0.09848484848484848","1652.5","3000","675","[""up"",""right""]","{""num_key_presses"":6,""num_perfect"":5,""num_errors"":0,""num_randdir"":1,""num_randdir_good_moves"":0,""num_whilered"":0,""num_whileblue"":0,""num_blue"":1,""num_good_moves"":5}","[425.3214133126395,417.82142761775424,0.1,421.5714133126395,420.32142761775424,103.7,420.3214133126395,424.07142761775424,203.8,420.3214133126395,424.07142761775424,305,411.5714133126395,427.82142761775424,408.8,410.3214133126395,430.32142761775424,508.9,410.3214133126395,430.32142761775424,612.9,320.3214133126395,551.5714276177542,718.8,111.5714133126395,771.5714276177542,823,107.8214133126395,772.8214276177542,923,117.8214133126395,751.5714276177542,1023,121.5714133126395,749.0714276177542,1127.4,256.5714133126395,672.8214276177542,1227.5,741.5714133126395,245.32142761775424,1327.8,771.5714133126395,161.57142761775424,1427.9,777.8214133126395,110.32142761775425,1533.7,766.5714133126395,86.57142761775425,1638.1,766.5714133126395,86.57142761775425,1738.1,756.5714133126395,79.07142761775425,1838.9,460.3214133126395,-48.42857238224575,1942.9,410.3214133126395,-108.42857238224575,2042.9,410.3214133126395,-108.42857238224575,2142.9,410.3214133126395,-108.42857238224575,2244,410.3214133126395,-108.42857238224575,2347.8,410.3214133126395,-108.42857238224575,2453,410.3214133126395,-108.42857238224575,2553,410.3214133126395,-108.42857238224575,2657.9,410.3214133126395,-108.42857238224575,2763.5,410.3214133126395,-108.42857238224575,2868.3,410.3214133126395,-108.42857238224575,2973.1,410.3214133126395,-108.42857238224575,3077.6,410.3214133126395,-108.42857238224575,3178.2,410.3214133126395,-108.42857238224575,3283.5,410.3214133126395,-108.42857238224575,3387.4,410.3214133126395,-108.42857238224575,3487.5,410.3214133126395,-108.42857238224575,3593.3,410.3214133126395,-108.42857238224575,3694.1,410.3214133126395,-108.42857238224575,3797.6,410.3214133126395,-108.42857238224575,3897.6,410.3214133126395,-108.42857238224575,4002.9,410.3214133126395,-108.42857238224575,4103.8,410.3214133126395,-108.42857238224575,4203.9,410.3214133126395,-108.42857238224575,4307.3,410.3214133126395,-108.42857238224575,4408.7,410.3214133126395,-108.42857238224575,4513.8,410.3214133126395,-108.42857238224575,4615.6,410.3214133126395,-108.42857238224575,4718,410.3214133126395,-108.42857238224575,4822.7,410.3214133126395,-108.42857238224575,4922.7]","[1337.3,1337.3,1000,0,337.3,""smooth"",""up"",""up"",""good_move"",8320.9,6983.2,3042,4969.4,309.5,""smooth"",""right"",""right"",""good_move"",11400.1,3079.1,2599.3,8321,479.8,""oops"",""up"",""left"",""bad_move"",14369.2,2968.8,2508.2,11400.4,460.6,""smooth"",""right"",""right"",""good_move"",17177.1,2807.8,2334.2,14369.3,473.6,""smooth"",""right"",""right"",""good_move"",20610.6,3433.3,3143.3,17177.3,290,""smooth"",""up"",""up"",""good_move""]","",""
"3382","","<div style=""width:500px;"">
  <p>What determined the result of this run?</p>
  </div>","2","html-slider-response","25","353901","0.0-5.0-1.3","28","1","2025-07-09 11:05:11","01610cd0009c79a99da7d0a3353eb402","76.221.209.152","Mozilla/5.0 (Windows NT 10.0; Win64; x64) AppleWebKit/537.36 (KHTML, like Gecko) Chrome/138.0.0.0 Safari/537.36","WebKit","Chrome","138.0.0.0","Windows","10.0","https://app.prolific.com/","en-US,en;q=0.9,de;q=0.8,zh-TW;q=0.7,zh-CN;q=0.6,zh;q=0.5","5d617ba9364f9a0019f1dac3","683db7602f5db6a34d12d064","686e4c08dd5ccc6b99cd6be4","1","5d617ba9364f9a0019f1dac3","1","2025-07-09T11:11:07.317Z","","","","","","","","","","","AttribQ","","50","","","","","","","","","","","","","","","","","","","","","","","","","","","","",""
"1650","","<div style=""width:500px;"">
  <p>How much control did you have over the ball?</p>
  </div>","82","html-slider-response","26","355552","0.0-5.0-2.3","28","1","2025-07-09 11:05:11","01610cd0009c79a99da7d0a3353eb402","76.221.209.152","Mozilla/5.0 (Windows NT 10.0; Win64; x64) AppleWebKit/537.36 (KHTML, like Gecko) Chrome/138.0.0.0 Safari/537.36","WebKit","Chrome","138.0.0.0","Windows","10.0","https://app.prolific.com/","en-US,en;q=0.9,de;q=0.8,zh-TW;q=0.7,zh-CN;q=0.6,zh;q=0.5","5d617ba9364f9a0019f1dac3","683db7602f5db6a34d12d064","686e4c08dd5ccc6b99cd6be4","1","5d617ba9364f9a0019f1dac3","1","2025-07-09T11:11:08.967Z","","","","","","","","","","","ControlQ","","50","","","","","","","","","","","","","","","","","","","","","","","","","","","","",""
"1855","","<div style=""width:500px;"">
  <p>How would you describe your current emotional state?</p>
  </div>","30","html-slider-response","27","357409","0.0-5.0-3.3","28","1","2025-07-09 11:05:11","01610cd0009c79a99da7d0a3353eb402","76.221.209.152","Mozilla/5.0 (Windows NT 10.0; Win64; x64) AppleWebKit/537.36 (KHTML, like Gecko) Chrome/138.0.0.0 Safari/537.36","WebKit","Chrome","138.0.0.0","Windows","10.0","https://app.prolific.com/","en-US,en;q=0.9,de;q=0.8,zh-TW;q=0.7,zh-CN;q=0.6,zh;q=0.5","5d617ba9364f9a0019f1dac3","683db7602f5db6a34d12d064","686e4c08dd5ccc6b99cd6be4","1","5d617ba9364f9a0019f1dac3","1","2025-07-09T11:11:10.824Z","","","","","","","","","","","StressQ","","50","","","","","","","","","","","","","","","","","","","","","","","","","","","","",""
"2103","","<div style=""width:500px;"">
  <p>What best describes how you currently feel?</p>
  </div>","17","html-slider-response","28","359512","0.0-5.0-4.3","28","1","2025-07-09 11:05:11","01610cd0009c79a99da7d0a3353eb402","76.221.209.152","Mozilla/5.0 (Windows NT 10.0; Win64; x64) AppleWebKit/537.36 (KHTML, like Gecko) Chrome/138.0.0.0 Safari/537.36","WebKit","Chrome","138.0.0.0","Windows","10.0","https://app.prolific.com/","en-US,en;q=0.9,de;q=0.8,zh-TW;q=0.7,zh-CN;q=0.6,zh;q=0.5","5d617ba9364f9a0019f1dac3","683db7602f5db6a34d12d064","686e4c08dd5ccc6b99cd6be4","1","5d617ba9364f9a0019f1dac3","1","2025-07-09T11:11:12.928Z","","","","","","","","","","","MotivationQ","","50","","","","","","","","","","","","","","","","","","","","","","","","","","","","",""
"","","","","ctl-task-cpt","29","382023","0.0-5.0-0.4","28","1","2025-07-09 11:05:11","01610cd0009c79a99da7d0a3353eb402","76.221.209.152","Mozilla/5.0 (Windows NT 10.0; Win64; x64) AppleWebKit/537.36 (KHTML, like Gecko) Chrome/138.0.0.0 Safari/537.36","WebKit","Chrome","138.0.0.0","Windows","10.0","https://app.prolific.com/","en-US,en;q=0.9,de;q=0.8,zh-TW;q=0.7,zh-CN;q=0.6,zh;q=0.5","5d617ba9364f9a0019f1dac3","683db7602f5db6a34d12d064","686e4c08dd5ccc6b99cd6be4","1","5d617ba9364f9a0019f1dac3","1","2025-07-09T11:11:35.438Z","","","","","","","","","","","","","","win-only","3","g1:SW,g2:NE","0.6","5","0","361903.9","683.5","5685.5","19491.2","1","4","4","6","1","1","1","14","13","0.10606060606060606","2093","3000","1425","[""down"",""left""]","{""num_key_presses"":4,""num_perfect"":3,""num_errors"":0,""num_randdir"":1,""num_randdir_good_moves"":1,""num_whilered"":0,""num_whileblue"":0,""num_blue"":1,""num_good_moves"":4}","[412.8214133126395,406.57142761775424,0.2,415.3214133126395,406.57142761775424,102.3,415.3214133126395,411.57142761775424,208.2,401.5714133126395,461.57142761775424,312,269.0714133126395,664.0714276177542,417.1,251.5714133126395,690.3214276177542,521.8,515.3214133126395,392.82142761775424,623.2,609.0714133126395,209.07142761775424,726.9,595.3214133126395,217.82142761775424,831.3,270.3214133126395,657.8214276177542,931.7,186.5714133126395,731.5714276177542,1032.3,225.3214133126395,701.5714276177542,1132.9,331.5714133126395,581.5714276177542,1236.7,601.5714133126395,201.57142761775424,1337.5,657.8214133126395,144.07142761775424,1442.3,659.0714133126395,141.57142761775424,1542.6,707.8214133126395,111.57142761775425,1647.4,615.3214133126395,174.07142761775424,1748.2,124.0714133126395,706.5714276177542,1852.8,95.3214133126395,747.8214276177542,1957.8,79.0714133126395,771.5714276177542,2061.9,75.3214133126395,777.8214276177542,2161.9,70.3214133126395,776.5714276177542,2262.5,-180.9285866873605,716.5714276177542,2368.4,-284.6785866873605,696.5714276177542,2472.5,-284.6785866873605,696.5714276177542,2572.7,-284.6785866873605,696.5714276177542,2678.3,-284.6785866873605,696.5714276177542,2783,-284.6785866873605,696.5714276177542,2887.2,-284.6785866873605,696.5714276177542,2992.2,-284.6785866873605,696.5714276177542,3093.4,-284.6785866873605,696.5714276177542,3198.6,-284.6785866873605,696.5714276177542,3303.6,-284.6785866873605,696.5714276177542,3407.6,-284.6785866873605,696.5714276177542,3511.1,-284.6785866873605,696.5714276177542,3612,-284.6785866873605,696.5714276177542,3712.1,-284.6785866873605,696.5714276177542,3817.5,-284.6785866873605,696.5714276177542,3918.9,-284.6785866873605,696.5714276177542,4022.8,-284.6785866873605,696.5714276177542,4127.6,-284.6785866873605,696.5714276177542,4232.3,-284.6785866873605,696.5714276177542,4336.9,-284.6785866873605,696.5714276177542,4436.9,-284.6785866873605,696.5714276177542,4537.6,-284.6785866873605,696.5714276177542,4643,-284.6785866873605,696.5714276177542,4746.7,-284.6785866873605,696.5714276177542,4847,-284.6785866873605,696.5714276177542,4947.9]","[4805,4805,2345,2004.9,455.1,""oops"",""down"",""down"",""good_move"",7693.8,2888.6,2445.3,4805.2,443.3,""smooth"",""down"",""down"",""good_move"",10605.2,2911.2,2557.5,7694.1,353.7,""smooth"",""left"",""left"",""good_move"",13717.5,3111.8,2756.2,10605.7,355.6,""smooth"",""left"",""left"",""good_move""]","",""
"2610","","<div style=""width:500px;"">
  <p>What determined the result of this run?</p>
  </div>","5","html-slider-response","30","384634","0.0-5.0-1.4","28","1","2025-07-09 11:05:11","01610cd0009c79a99da7d0a3353eb402","76.221.209.152","Mozilla/5.0 (Windows NT 10.0; Win64; x64) AppleWebKit/537.36 (KHTML, like Gecko) Chrome/138.0.0.0 Safari/537.36","WebKit","Chrome","138.0.0.0","Windows","10.0","https://app.prolific.com/","en-US,en;q=0.9,de;q=0.8,zh-TW;q=0.7,zh-CN;q=0.6,zh;q=0.5","5d617ba9364f9a0019f1dac3","683db7602f5db6a34d12d064","686e4c08dd5ccc6b99cd6be4","1","5d617ba9364f9a0019f1dac3","1","2025-07-09T11:11:38.049Z","","","","","","","","","","","AttribQ","","50","","","","","","","","","","","","","","","","","","","","","","","","","","","","",""
"1949","","<div style=""width:500px;"">
  <p>How much control did you have over the ball?</p>
  </div>","99","html-slider-response","31","386585","0.0-5.0-2.4","28","1","2025-07-09 11:05:11","01610cd0009c79a99da7d0a3353eb402","76.221.209.152","Mozilla/5.0 (Windows NT 10.0; Win64; x64) AppleWebKit/537.36 (KHTML, like Gecko) Chrome/138.0.0.0 Safari/537.36","WebKit","Chrome","138.0.0.0","Windows","10.0","https://app.prolific.com/","en-US,en;q=0.9,de;q=0.8,zh-TW;q=0.7,zh-CN;q=0.6,zh;q=0.5","5d617ba9364f9a0019f1dac3","683db7602f5db6a34d12d064","686e4c08dd5ccc6b99cd6be4","1","5d617ba9364f9a0019f1dac3","1","2025-07-09T11:11:40.000Z","","","","","","","","","","","ControlQ","","50","","","","","","","","","","","","","","","","","","","","","","","","","","","","",""
"2495","","<div style=""width:500px;"">
  <p>How would you describe your current emotional state?</p>
  </div>","27","html-slider-response","32","389080","0.0-5.0-3.4","28","1","2025-07-09 11:05:11","01610cd0009c79a99da7d0a3353eb402","76.221.209.152","Mozilla/5.0 (Windows NT 10.0; Win64; x64) AppleWebKit/537.36 (KHTML, like Gecko) Chrome/138.0.0.0 Safari/537.36","WebKit","Chrome","138.0.0.0","Windows","10.0","https://app.prolific.com/","en-US,en;q=0.9,de;q=0.8,zh-TW;q=0.7,zh-CN;q=0.6,zh;q=0.5","5d617ba9364f9a0019f1dac3","683db7602f5db6a34d12d064","686e4c08dd5ccc6b99cd6be4","1","5d617ba9364f9a0019f1dac3","1","2025-07-09T11:11:42.495Z","","","","","","","","","","","StressQ","","50","","","","","","","","","","","","","","","","","","","","","","","","","","","","",""
"5438","","<div style=""width:500px;"">
  <p>What best describes how you currently feel?</p>
  </div>","12","html-slider-response","33","394520","0.0-5.0-4.4","28","1","2025-07-09 11:05:11","01610cd0009c79a99da7d0a3353eb402","76.221.209.152","Mozilla/5.0 (Windows NT 10.0; Win64; x64) AppleWebKit/537.36 (KHTML, like Gecko) Chrome/138.0.0.0 Safari/537.36","WebKit","Chrome","138.0.0.0","Windows","10.0","https://app.prolific.com/","en-US,en;q=0.9,de;q=0.8,zh-TW;q=0.7,zh-CN;q=0.6,zh;q=0.5","5d617ba9364f9a0019f1dac3","683db7602f5db6a34d12d064","686e4c08dd5ccc6b99cd6be4","1","5d617ba9364f9a0019f1dac3","1","2025-07-09T11:11:47.935Z","","","","","","","","","","","MotivationQ","","50","","","","","","","","","","","","","","","","","","","","","","","","","","","","",""
"","","","","ctl-task-cpt","34","429856","0.0-5.0-0.5","28","1","2025-07-09 11:05:11","01610cd0009c79a99da7d0a3353eb402","76.221.209.152","Mozilla/5.0 (Windows NT 10.0; Win64; x64) AppleWebKit/537.36 (KHTML, like Gecko) Chrome/138.0.0.0 Safari/537.36","WebKit","Chrome","138.0.0.0","Windows","10.0","https://app.prolific.com/","en-US,en;q=0.9,de;q=0.8,zh-TW;q=0.7,zh-CN;q=0.6,zh;q=0.5","5d617ba9364f9a0019f1dac3","683db7602f5db6a34d12d064","686e4c08dd5ccc6b99cd6be4","1","5d617ba9364f9a0019f1dac3","1","2025-07-09T11:12:23.271Z","","","","","","","","","","","","","","win-only","0","g1:NW,g2:SE","0.5","6","0","396913.7","826.9","5831.5","32315.7","1","4","8","6","2","-8","-9","5","14","0.03787878787878788","809.1","3000","-3010","[""down"",""right""]","{""num_key_presses"":8,""num_perfect"":4,""num_errors"":1,""num_randdir"":3,""num_randdir_good_moves"":2,""num_whilered"":0,""num_whileblue"":1,""num_blue"":2,""num_good_moves"":6}","[419.0714133126395,411.57142761775424,0.9,419.0714133126395,411.57142761775424,100.5,421.5714133126395,414.07142761775424,203.4,521.5714133126395,462.82142761775424,303.5,539.0714133126395,467.82142761775424,410,554.0714133126395,461.57142761775424,514.7,707.8214133126395,654.0714276177542,619.1,780.3214133126395,757.8214276177542,724.9,785.3214133126395,765.3214276177542,828.5,786.5714133126395,765.3214276177542,934.3,325.3214133126395,551.5714276177542,1034.3,-342.1785866873605,375.32142761775424,1134.5,-345.9285866873605,375.32142761775424,1238.4,-345.9285866873605,375.32142761775424,1344.1,-345.9285866873605,375.32142761775424,1444.4,-345.9285866873605,375.32142761775424,1548.4,-345.9285866873605,375.32142761775424,1649.3,-345.9285866873605,375.32142761775424,1749.3,-345.9285866873605,375.32142761775424,1849.3,-345.9285866873605,375.32142761775424,1954.3,-345.9285866873605,375.32142761775424,2058.6,-345.9285866873605,375.32142761775424,2163.4,-345.9285866873605,375.32142761775424,2263.4,-345.9285866873605,375.32142761775424,2369.3,-345.9285866873605,375.32142761775424,2473.4,-345.9285866873605,375.32142761775424,2573.5,-345.9285866873605,375.32142761775424,2675.6,-345.9285866873605,375.32142761775424,2778.7,-345.9285866873605,375.32142761775424,2878.9,-345.9285866873605,375.32142761775424,2979.3,-345.9285866873605,375.32142761775424,3084.9,-345.9285866873605,375.32142761775424,3189.1,-345.9285866873605,375.32142761775424,3293.5,-345.9285866873605,375.32142761775424,3393.8,-345.9285866873605,375.32142761775424,3494,-345.9285866873605,375.32142761775424,3599.9,-345.9285866873605,375.32142761775424,3700.1,-345.9285866873605,375.32142761775424,3803.8,-345.9285866873605,375.32142761775424,3909.6,-345.9285866873605,375.32142761775424,4010,-345.9285866873605,375.32142761775424,4113.7,-345.9285866873605,375.32142761775424,4218.9,-345.9285866873605,375.32142761775424,4320.2,-345.9285866873605,375.32142761775424,4423.2,-345.9285866873605,375.32142761775424,4524.3,-345.9285866873605,375.32142761775424,4625.2,-345.9285866873605,375.32142761775424,4729.5,-345.9285866873605,375.32142761775424,4833.4,-345.9285866873605,375.32142761775424,4934.8]","[1370.3,1370.3,1000,0,370.3,""smooth"",""down"",""down"",""good_move"",3576.8,2206.1,1837.4,1370.8,368.7,""smooth"",""right"",""right"",""good_move"",6193.5,2615.9,2288.7,3577.6,327.2,""oops"",""right"",""down"",""good_move"",8825.2,2631.4,2311.5,6193.8,319.9,""oops"",""right"",""left"",""bad_move"",11937,3111.4,2793.9,8825.6,317.5,""while_blue"",""right"",""left"",""bad_move"",18817.2,6880.1,2268.7,16070.2,478.3,""smooth"",""right"",""right"",""good_move"",21840.8,3023.4,2515.2,18817.4,508.2,""oops"",""right"",""right"",""good_move"",24521,2680,2162.7,21841,517.3,""smooth"",""right"",""right"",""good_move""]","",""
"3338","","<div style=""width:500px;"">
  <p>What determined the result of this run?</p>
  </div>","2","html-slider-response","35","433195","0.0-5.0-1.5","28","1","2025-07-09 11:05:11","01610cd0009c79a99da7d0a3353eb402","76.221.209.152","Mozilla/5.0 (Windows NT 10.0; Win64; x64) AppleWebKit/537.36 (KHTML, like Gecko) Chrome/138.0.0.0 Safari/537.36","WebKit","Chrome","138.0.0.0","Windows","10.0","https://app.prolific.com/","en-US,en;q=0.9,de;q=0.8,zh-TW;q=0.7,zh-CN;q=0.6,zh;q=0.5","5d617ba9364f9a0019f1dac3","683db7602f5db6a34d12d064","686e4c08dd5ccc6b99cd6be4","1","5d617ba9364f9a0019f1dac3","1","2025-07-09T11:12:26.610Z","","","","","","","","","","","AttribQ","","50","","","","","","","","","","","","","","","","","","","","","","","","","","","","",""
"2640","","<div style=""width:500px;"">
  <p>How much control did you have over the ball?</p>
  </div>","27","html-slider-response","36","435837","0.0-5.0-2.5","28","1","2025-07-09 11:05:11","01610cd0009c79a99da7d0a3353eb402","76.221.209.152","Mozilla/5.0 (Windows NT 10.0; Win64; x64) AppleWebKit/537.36 (KHTML, like Gecko) Chrome/138.0.0.0 Safari/537.36","WebKit","Chrome","138.0.0.0","Windows","10.0","https://app.prolific.com/","en-US,en;q=0.9,de;q=0.8,zh-TW;q=0.7,zh-CN;q=0.6,zh;q=0.5","5d617ba9364f9a0019f1dac3","683db7602f5db6a34d12d064","686e4c08dd5ccc6b99cd6be4","1","5d617ba9364f9a0019f1dac3","1","2025-07-09T11:12:29.252Z","","","","","","","","","","","ControlQ","","50","","","","","","","","","","","","","","","","","","","","","","","","","","","","",""
"2128","","<div style=""width:500px;"">
  <p>How would you describe your current emotional state?</p>
  </div>","72","html-slider-response","37","437967","0.0-5.0-3.5","28","1","2025-07-09 11:05:11","01610cd0009c79a99da7d0a3353eb402","76.221.209.152","Mozilla/5.0 (Windows NT 10.0; Win64; x64) AppleWebKit/537.36 (KHTML, like Gecko) Chrome/138.0.0.0 Safari/537.36","WebKit","Chrome","138.0.0.0","Windows","10.0","https://app.prolific.com/","en-US,en;q=0.9,de;q=0.8,zh-TW;q=0.7,zh-CN;q=0.6,zh;q=0.5","5d617ba9364f9a0019f1dac3","683db7602f5db6a34d12d064","686e4c08dd5ccc6b99cd6be4","1","5d617ba9364f9a0019f1dac3","1","2025-07-09T11:12:31.382Z","","","","","","","","","","","StressQ","","50","","","","","","","","","","","","","","","","","","","","","","","","","","","","",""
"2563","","<div style=""width:500px;"">
  <p>What best describes how you currently feel?</p>
  </div>","24","html-slider-response","38","440531","0.0-5.0-4.5","28","1","2025-07-09 11:05:11","01610cd0009c79a99da7d0a3353eb402","76.221.209.152","Mozilla/5.0 (Windows NT 10.0; Win64; x64) AppleWebKit/537.36 (KHTML, like Gecko) Chrome/138.0.0.0 Safari/537.36","WebKit","Chrome","138.0.0.0","Windows","10.0","https://app.prolific.com/","en-US,en;q=0.9,de;q=0.8,zh-TW;q=0.7,zh-CN;q=0.6,zh;q=0.5","5d617ba9364f9a0019f1dac3","683db7602f5db6a34d12d064","686e4c08dd5ccc6b99cd6be4","1","5d617ba9364f9a0019f1dac3","1","2025-07-09T11:12:33.946Z","","","","","","","","","","","MotivationQ","","50","","","","","","","","","","","","","","","","","","","","","","","","","","","","",""
"","","","","ctl-task-cpt","39","482947","0.0-5.0-0.6","28","1","2025-07-09 11:05:11","01610cd0009c79a99da7d0a3353eb402","76.221.209.152","Mozilla/5.0 (Windows NT 10.0; Win64; x64) AppleWebKit/537.36 (KHTML, like Gecko) Chrome/138.0.0.0 Safari/537.36","WebKit","Chrome","138.0.0.0","Windows","10.0","https://app.prolific.com/","en-US,en;q=0.9,de;q=0.8,zh-TW;q=0.7,zh-CN;q=0.6,zh;q=0.5","5d617ba9364f9a0019f1dac3","683db7602f5db6a34d12d064","686e4c08dd5ccc6b99cd6be4","1","5d617ba9364f9a0019f1dac3","1","2025-07-09T11:13:16.362Z","","","","","","","","","","","","","","win-only","1","g1:NE,g2:SW","0.4","7","0","442923.1","1042","6046.6","39395.5","1","4","8","6","2","-8","-8","0","5","0","615","3000","-3005","[""down"",""left""]","{""num_key_presses"":6,""num_perfect"":3,""num_errors"":0,""num_randdir"":3,""num_randdir_good_moves"":1,""num_whilered"":0,""num_whileblue"":0,""num_blue"":4,""num_good_moves"":4}","[420.3214133126395,420.32142761775424,0.1,421.5714133126395,421.57142761775424,103.3,421.5714133126395,421.57142761775424,203.8,416.5714133126395,429.07142761775424,309.2,271.5714133126395,622.8214276177542,409.4,142.8214133126395,741.5714276177542,513.8,121.5714133126395,751.5714276177542,619.7,114.0714133126395,757.8214276177542,723.9,5.321413312639507,790.3214276177542,825,-208.4285866873605,845.3214276177542,929.4,-443.4285866873605,891.5714276177542,1031.2,-470.9285866873605,901.5714276177542,1133.2,-470.9285866873605,901.5714276177542,1234.1,-470.9285866873605,901.5714276177542,1338.9,-470.9285866873605,901.5714276177542,1443.6,-470.9285866873605,901.5714276177542,1544.3,-470.9285866873605,901.5714276177542,1648.3,-470.9285866873605,901.5714276177542,1749.2,-470.9285866873605,901.5714276177542,1854.2,-470.9285866873605,901.5714276177542,1956.3,-470.9285866873605,901.5714276177542,2059.3,-470.9285866873605,901.5714276177542,2159.6,-470.9285866873605,901.5714276177542,2259.6,-470.9285866873605,901.5714276177542,2364.7,-470.9285866873605,901.5714276177542,2468.5,-470.9285866873605,901.5714276177542,2574.3,-470.9285866873605,901.5714276177542,2679.2,-470.9285866873605,901.5714276177542,2779.3,-470.9285866873605,901.5714276177542,2883.2,-470.9285866873605,901.5714276177542,2985.4,-470.9285866873605,901.5714276177542,3088.3,-470.9285866873605,901.5714276177542,3189.2,-470.9285866873605,901.5714276177542,3289.3,-470.9285866873605,901.5714276177542,3393.7,-470.9285866873605,901.5714276177542,3494.1,-470.9285866873605,901.5714276177542,3594.5,-470.9285866873605,901.5714276177542,3698.1,-470.9285866873605,901.5714276177542,3798.5,-470.9285866873605,901.5714276177542,3903.2,-470.9285866873605,901.5714276177542,4004.4,-470.9285866873605,901.5714276177542,4108.4,-470.9285866873605,901.5714276177542,4208.5,-470.9285866873605,901.5714276177542,4309.3,-470.9285866873605,901.5714276177542,4409.6,-470.9285866873605,901.5714276177542,4513.6,-470.9285866873605,901.5714276177542,4614.5,-470.9285866873605,901.5714276177542,4718.4,-470.9285866873605,901.5714276177542,4818.4,-470.9285866873605,901.5714276177542,4918.6]","[1512.5,1512.5,1000,0,512.5,""oops"",""down"",""right"",""bad_move"",7497.7,5985,2241.9,4804.8,451,""oops"",""down"",""left"",""good_move"",10648.5,3150.2,2591.9,7498.3,558.3,""smooth"",""down"",""down"",""good_move"",24521.2,13872.3,3250,20878.8,392.4,""smooth"",""down"",""down"",""good_move"",27272.3,2750.6,2375.3,24521.7,375.3,""oops"",""left"",""right"",""bad_move"",30345.1,3072.6,2482.7,27272.5,589.9,""smooth"",""left"",""left"",""good_move""]","",""
"1964","","<div style=""width:500px;"">
  <p>What determined the result of this run?</p>
  </div>","0","html-slider-response","40","484912","0.0-5.0-1.6","28","1","2025-07-09 11:05:11","01610cd0009c79a99da7d0a3353eb402","76.221.209.152","Mozilla/5.0 (Windows NT 10.0; Win64; x64) AppleWebKit/537.36 (KHTML, like Gecko) Chrome/138.0.0.0 Safari/537.36","WebKit","Chrome","138.0.0.0","Windows","10.0","https://app.prolific.com/","en-US,en;q=0.9,de;q=0.8,zh-TW;q=0.7,zh-CN;q=0.6,zh;q=0.5","5d617ba9364f9a0019f1dac3","683db7602f5db6a34d12d064","686e4c08dd5ccc6b99cd6be4","1","5d617ba9364f9a0019f1dac3","1","2025-07-09T11:13:18.327Z","","","","","","","","","","","AttribQ","","50","","","","","","","","","","","","","","","","","","","","","","","","","","","","",""
"1470","","<div style=""width:500px;"">
  <p>How much control did you have over the ball?</p>
  </div>","11","html-slider-response","41","486382","0.0-5.0-2.6","28","1","2025-07-09 11:05:11","01610cd0009c79a99da7d0a3353eb402","76.221.209.152","Mozilla/5.0 (Windows NT 10.0; Win64; x64) AppleWebKit/537.36 (KHTML, like Gecko) Chrome/138.0.0.0 Safari/537.36","WebKit","Chrome","138.0.0.0","Windows","10.0","https://app.prolific.com/","en-US,en;q=0.9,de;q=0.8,zh-TW;q=0.7,zh-CN;q=0.6,zh;q=0.5","5d617ba9364f9a0019f1dac3","683db7602f5db6a34d12d064","686e4c08dd5ccc6b99cd6be4","1","5d617ba9364f9a0019f1dac3","1","2025-07-09T11:13:19.797Z","","","","","","","","","","","ControlQ","","50","","","","","","","","","","","","","","","","","","","","","","","","","","","","",""
"2364","","<div style=""width:500px;"">
  <p>How would you describe your current emotional state?</p>
  </div>","93","html-slider-response","42","488748","0.0-5.0-3.6","28","1","2025-07-09 11:05:11","01610cd0009c79a99da7d0a3353eb402","76.221.209.152","Mozilla/5.0 (Windows NT 10.0; Win64; x64) AppleWebKit/537.36 (KHTML, like Gecko) Chrome/138.0.0.0 Safari/537.36","WebKit","Chrome","138.0.0.0","Windows","10.0","https://app.prolific.com/","en-US,en;q=0.9,de;q=0.8,zh-TW;q=0.7,zh-CN;q=0.6,zh;q=0.5","5d617ba9364f9a0019f1dac3","683db7602f5db6a34d12d064","686e4c08dd5ccc6b99cd6be4","1","5d617ba9364f9a0019f1dac3","1","2025-07-09T11:13:22.163Z","","","","","","","","","","","StressQ","","50","","","","","","","","","","","","","","","","","","","","","","","","","","","","",""
"2833","","<div style=""width:500px;"">
  <p>What best describes how you currently feel?</p>
  </div>","7","html-slider-response","43","491583","0.0-5.0-4.6","28","1","2025-07-09 11:05:11","01610cd0009c79a99da7d0a3353eb402","76.221.209.152","Mozilla/5.0 (Windows NT 10.0; Win64; x64) AppleWebKit/537.36 (KHTML, like Gecko) Chrome/138.0.0.0 Safari/537.36","WebKit","Chrome","138.0.0.0","Windows","10.0","https://app.prolific.com/","en-US,en;q=0.9,de;q=0.8,zh-TW;q=0.7,zh-CN;q=0.6,zh;q=0.5","5d617ba9364f9a0019f1dac3","683db7602f5db6a34d12d064","686e4c08dd5ccc6b99cd6be4","1","5d617ba9364f9a0019f1dac3","1","2025-07-09T11:13:24.998Z","","","","","","","","","","","MotivationQ","","50","","","","","","","","","","","","","","","","","","","","","","","","","","","","",""
"","","","","ctl-task-cpt","44","524578","0.0-5.0-0.7","28","1","2025-07-09 11:05:11","01610cd0009c79a99da7d0a3353eb402","76.221.209.152","Mozilla/5.0 (Windows NT 10.0; Win64; x64) AppleWebKit/537.36 (KHTML, like Gecko) Chrome/138.0.0.0 Safari/537.36","WebKit","Chrome","138.0.0.0","Windows","10.0","https://app.prolific.com/","en-US,en;q=0.9,de;q=0.8,zh-TW;q=0.7,zh-CN;q=0.6,zh;q=0.5","5d617ba9364f9a0019f1dac3","683db7602f5db6a34d12d064","686e4c08dd5ccc6b99cd6be4","1","5d617ba9364f9a0019f1dac3","1","2025-07-09T11:13:57.993Z","","","","","","","","","","","","","","win-only","3","g1:SW,g2:NE","0.3","8","0","493974.7","757.1","5761.8","29975.8","1","4","4","6","1","-1","-1","0","0","0","1088.8","3000","-3010","[""down"",""left""]","{""num_key_presses"":6,""num_perfect"":3,""num_errors"":0,""num_randdir"":3,""num_randdir_good_moves"":1,""num_whilered"":0,""num_whileblue"":0,""num_blue"":2,""num_good_moves"":4}","[416.5714133126395,410.32142761775424,0.1,417.8214133126395,409.07142761775424,102.6,417.8214133126395,409.07142761775424,203.8,417.8214133126395,409.07142761775424,304,356.5714133126395,486.57142761775424,408.7,141.5714133126395,734.0714276177542,509.5,161.5714133126395,714.0714276177542,614.8,226.5714133126395,652.8214276177542,715.4,81.5714133126395,767.8214276177542,818.3,72.8214133126395,774.0714276177542,925.7,65.3214133126395,789.0714276177542,1028.3,65.3214133126395,792.8214276177542,1129.9,65.3214133126395,792.8214276177542,1234.3,65.3214133126395,792.8214276177542,1339.6,65.3214133126395,792.8214276177542,1445.9,65.3214133126395,792.8214276177542,1548.4,65.3214133126395,792.8214276177542,1648.9,65.3214133126395,792.8214276177542,1749.6,65.3214133126395,792.8214276177542,1854.6,65.3214133126395,792.8214276177542,1958.8,65.3214133126395,792.8214276177542,2059.5,65.3214133126395,792.8214276177542,2164.2,65.3214133126395,792.8214276177542,2265.1,65.3214133126395,792.8214276177542,2368.4,65.3214133126395,792.8214276177542,2473.2,65.3214133126395,792.8214276177542,2573.9,65.3214133126395,792.8214276177542,2674,65.3214133126395,792.8214276177542,2781.2,65.3214133126395,792.8214276177542,2883.1,65.3214133126395,792.8214276177542,2983.1,65.3214133126395,792.8214276177542,3084.4,65.3214133126395,792.8214276177542,3189,65.3214133126395,792.8214276177542,3293.6,65.3214133126395,792.8214276177542,3398.3,65.3214133126395,792.8214276177542,3499,65.3214133126395,792.8214276177542,3599.2,65.3214133126395,792.8214276177542,3704.3,65.3214133126395,792.8214276177542,3809.1,65.3214133126395,792.8214276177542,3915.8,65.3214133126395,792.8214276177542,4018.1,65.3214133126395,792.8214276177542,4118.5,65.3214133126395,792.8214276177542,4223.6,65.3214133126395,792.8214276177542,4329,65.3214133126395,792.8214276177542,4429.3,65.3214133126395,792.8214276177542,4533.1,65.3214133126395,792.8214276177542,4634.5,65.3214133126395,792.8214276177542,4740.8,65.3214133126395,792.8214276177542,4843.7,65.3214133126395,792.8214276177542,4943.9]","[1369.8,1369.8,1000,0,369.8,""oops"",""down"",""up"",""bad_move"",7393.6,6023.2,2234.7,4679.6,479.3,""oops"",""down"",""up"",""bad_move"",10474.1,3080.4,2396.6,7393.7,683.8,""smooth"",""left"",""left"",""good_move"",13059.2,2584.9,2140,10474.3,444.9,""oops"",""left"",""left"",""good_move"",15642.2,2582.8,2087.3,13059.4,495.5,""smooth"",""down"",""down"",""good_move"",21514.2,5871.5,2578.7,18449.9,485.6,""smooth"",""down"",""down"",""good_move""]","",""
"2146","","<div style=""width:500px;"">
  <p>What determined the result of this run?</p>
  </div>","1","html-slider-response","45","526724","0.0-5.0-1.7","28","1","2025-07-09 11:05:11","01610cd0009c79a99da7d0a3353eb402","76.221.209.152","Mozilla/5.0 (Windows NT 10.0; Win64; x64) AppleWebKit/537.36 (KHTML, like Gecko) Chrome/138.0.0.0 Safari/537.36","WebKit","Chrome","138.0.0.0","Windows","10.0","https://app.prolific.com/","en-US,en;q=0.9,de;q=0.8,zh-TW;q=0.7,zh-CN;q=0.6,zh;q=0.5","5d617ba9364f9a0019f1dac3","683db7602f5db6a34d12d064","686e4c08dd5ccc6b99cd6be4","1","5d617ba9364f9a0019f1dac3","1","2025-07-09T11:14:00.139Z","","","","","","","","","","","AttribQ","","50","","","","","","","","","","","","","","","","","","","","","","","","","","","","",""
"2151","","<div style=""width:500px;"">
  <p>How much control did you have over the ball?</p>
  </div>","74","html-slider-response","46","528876","0.0-5.0-2.7","28","1","2025-07-09 11:05:11","01610cd0009c79a99da7d0a3353eb402","76.221.209.152","Mozilla/5.0 (Windows NT 10.0; Win64; x64) AppleWebKit/537.36 (KHTML, like Gecko) Chrome/138.0.0.0 Safari/537.36","WebKit","Chrome","138.0.0.0","Windows","10.0","https://app.prolific.com/","en-US,en;q=0.9,de;q=0.8,zh-TW;q=0.7,zh-CN;q=0.6,zh;q=0.5","5d617ba9364f9a0019f1dac3","683db7602f5db6a34d12d064","686e4c08dd5ccc6b99cd6be4","1","5d617ba9364f9a0019f1dac3","1","2025-07-09T11:14:02.291Z","","","","","","","","","","","ControlQ","","50","","","","","","","","","","","","","","","","","","","","","","","","","","","","",""
"2361","","<div style=""width:500px;"">
  <p>How would you describe your current emotional state?</p>
  </div>","96","html-slider-response","47","531239","0.0-5.0-3.7","28","1","2025-07-09 11:05:11","01610cd0009c79a99da7d0a3353eb402","76.221.209.152","Mozilla/5.0 (Windows NT 10.0; Win64; x64) AppleWebKit/537.36 (KHTML, like Gecko) Chrome/138.0.0.0 Safari/537.36","WebKit","Chrome","138.0.0.0","Windows","10.0","https://app.prolific.com/","en-US,en;q=0.9,de;q=0.8,zh-TW;q=0.7,zh-CN;q=0.6,zh;q=0.5","5d617ba9364f9a0019f1dac3","683db7602f5db6a34d12d064","686e4c08dd5ccc6b99cd6be4","1","5d617ba9364f9a0019f1dac3","1","2025-07-09T11:14:04.654Z","","","","","","","","","","","StressQ","","50","","","","","","","","","","","","","","","","","","","","","","","","","","","","",""
"1859","","<div style=""width:500px;"">
  <p>What best describes how you currently feel?</p>
  </div>","11","html-slider-response","48","533099","0.0-5.0-4.7","28","1","2025-07-09 11:05:11","01610cd0009c79a99da7d0a3353eb402","76.221.209.152","Mozilla/5.0 (Windows NT 10.0; Win64; x64) AppleWebKit/537.36 (KHTML, like Gecko) Chrome/138.0.0.0 Safari/537.36","WebKit","Chrome","138.0.0.0","Windows","10.0","https://app.prolific.com/","en-US,en;q=0.9,de;q=0.8,zh-TW;q=0.7,zh-CN;q=0.6,zh;q=0.5","5d617ba9364f9a0019f1dac3","683db7602f5db6a34d12d064","686e4c08dd5ccc6b99cd6be4","1","5d617ba9364f9a0019f1dac3","1","2025-07-09T11:14:06.514Z","","","","","","","","","","","MotivationQ","","50","","","","","","","","","","","","","","","","","","","","","","","","","","","","",""
"","","","","ctl-task-cpt","49","564218","0.0-5.0-0.8","28","1","2025-07-09 11:05:11","01610cd0009c79a99da7d0a3353eb402","76.221.209.152","Mozilla/5.0 (Windows NT 10.0; Win64; x64) AppleWebKit/537.36 (KHTML, like Gecko) Chrome/138.0.0.0 Safari/537.36","WebKit","Chrome","138.0.0.0","Windows","10.0","https://app.prolific.com/","en-US,en;q=0.9,de;q=0.8,zh-TW;q=0.7,zh-CN;q=0.6,zh;q=0.5","5d617ba9364f9a0019f1dac3","683db7602f5db6a34d12d064","686e4c08dd5ccc6b99cd6be4","1","5d617ba9364f9a0019f1dac3","1","2025-07-09T11:14:37.633Z","","","","","","","","","","","","","","win-only","3","g1:SW,g2:NE","0.2","9","0","535490.1","1035.6","6036.2","28100.3","1","4","8","6","1","-1","-1","0","0","0","1999","3000","-2990","[""down"",""left""]","{""num_key_presses"":4,""num_perfect"":1,""num_errors"":0,""num_randdir"":3,""num_randdir_good_moves"":0,""num_whilered"":0,""num_whileblue"":0,""num_blue"":2,""num_good_moves"":1}","[412.8214133126395,416.57142761775424,0.3,416.5714133126395,416.57142761775424,103.3,416.5714133126395,416.57142761775424,205.5,416.5714133126395,416.57142761775424,310,426.5714133126395,436.57142761775424,410.9,511.5714133126395,527.8214276177542,511,511.5714133126395,529.0714276177542,611.5,511.5714133126395,529.0714276177542,715.4,512.8214133126395,529.0714276177542,816,531.5714133126395,519.0714276177542,916.7,600.3214133126395,415.32142761775424,1021,625.3214133126395,367.82142761775424,1126.6,641.5714133126395,332.82142761775424,1231,666.5714133126395,281.57142761775424,1331.2,675.3214133126395,261.57142761775424,1434.6,675.3214133126395,261.57142761775424,1535,675.3214133126395,261.57142761775424,1639.6,399.0714133126395,535.3214276177542,1740.1,125.3214133126395,690.3214276177542,1840.6,69.0714133126395,721.5714276177542,1947.6,26.571413312639507,751.5714276177542,2050.1,26.571413312639507,751.5714276177542,2150.9,-45.92858668736049,799.0714276177542,2256.5,-543.4285866873605,922.8214276177542,2360.1,-543.4285866873605,937.8214276177542,2465.9,-543.4285866873605,937.8214276177542,2571,-543.4285866873605,937.8214276177542,2671.8,-543.4285866873605,937.8214276177542,2776.1,-543.4285866873605,937.8214276177542,2880.7,-543.4285866873605,937.8214276177542,2981.4,-543.4285866873605,937.8214276177542,3085.2,-543.4285866873605,937.8214276177542,3190.7,-543.4285866873605,937.8214276177542,3295.5,-543.4285866873605,937.8214276177542,3396.5,-543.4285866873605,937.8214276177542,3499.7,-543.4285866873605,937.8214276177542,3599.7,-543.4285866873605,937.8214276177542,3704.9,-543.4285866873605,937.8214276177542,3807.4,-543.4285866873605,937.8214276177542,3911.4,-543.4285866873605,937.8214276177542,4016,-543.4285866873605,937.8214276177542,4119.8,-543.4285866873605,937.8214276177542,4221.8,-543.4285866873605,937.8214276177542,4325.7,-543.4285866873605,937.8214276177542,4429.9,-543.4285866873605,937.8214276177542,4530.1,-543.4285866873605,937.8214276177542,4630.1,-543.4285866873605,937.8214276177542,4730.3,-543.4285866873605,937.8214276177542,4830.6,-543.4285866873605,937.8214276177542,4934.6]","[4621.1,4621.1,2214.5,2009.2,397.4,""oops"",""down"",""up"",""bad_move"",11412.1,6790.8,2708.8,8164,539.3,""oops"",""down"",""up"",""bad_move"",15804,4391.4,3279.2,11412.7,1112.2,""smooth"",""down"",""down"",""good_move"",19437.3,3633,2891.7,15804.3,741.3,""oops"",""down"",""up"",""bad_move""]","",""
"4236","","<div style=""width:500px;"">
  <p>What determined the result of this run?</p>
  </div>","2","html-slider-response","50","568455","0.0-5.0-1.8","28","1","2025-07-09 11:05:11","01610cd0009c79a99da7d0a3353eb402","76.221.209.152","Mozilla/5.0 (Windows NT 10.0; Win64; x64) AppleWebKit/537.36 (KHTML, like Gecko) Chrome/138.0.0.0 Safari/537.36","WebKit","Chrome","138.0.0.0","Windows","10.0","https://app.prolific.com/","en-US,en;q=0.9,de;q=0.8,zh-TW;q=0.7,zh-CN;q=0.6,zh;q=0.5","5d617ba9364f9a0019f1dac3","683db7602f5db6a34d12d064","686e4c08dd5ccc6b99cd6be4","1","5d617ba9364f9a0019f1dac3","1","2025-07-09T11:14:41.870Z","","","","","","","","","","","AttribQ","","50","","","","","","","","","","","","","","","","","","","","","","","","","","","","",""
"1493","","<div style=""width:500px;"">
  <p>How much control did you have over the ball?</p>
  </div>","0","html-slider-response","51","569949","0.0-5.0-2.8","28","1","2025-07-09 11:05:11","01610cd0009c79a99da7d0a3353eb402","76.221.209.152","Mozilla/5.0 (Windows NT 10.0; Win64; x64) AppleWebKit/537.36 (KHTML, like Gecko) Chrome/138.0.0.0 Safari/537.36","WebKit","Chrome","138.0.0.0","Windows","10.0","https://app.prolific.com/","en-US,en;q=0.9,de;q=0.8,zh-TW;q=0.7,zh-CN;q=0.6,zh;q=0.5","5d617ba9364f9a0019f1dac3","683db7602f5db6a34d12d064","686e4c08dd5ccc6b99cd6be4","1","5d617ba9364f9a0019f1dac3","1","2025-07-09T11:14:43.364Z","","","","","","","","","","","ControlQ","","50","","","","","","","","","","","","","","","","","","","","","","","","","","","","",""
"2371","","<div style=""width:500px;"">
  <p>How would you describe your current emotional state?</p>
  </div>","97","html-slider-response","52","572321","0.0-5.0-3.8","28","1","2025-07-09 11:05:11","01610cd0009c79a99da7d0a3353eb402","76.221.209.152","Mozilla/5.0 (Windows NT 10.0; Win64; x64) AppleWebKit/537.36 (KHTML, like Gecko) Chrome/138.0.0.0 Safari/537.36","WebKit","Chrome","138.0.0.0","Windows","10.0","https://app.prolific.com/","en-US,en;q=0.9,de;q=0.8,zh-TW;q=0.7,zh-CN;q=0.6,zh;q=0.5","5d617ba9364f9a0019f1dac3","683db7602f5db6a34d12d064","686e4c08dd5ccc6b99cd6be4","1","5d617ba9364f9a0019f1dac3","1","2025-07-09T11:14:45.736Z","","","","","","","","","","","StressQ","","50","","","","","","","","","","","","","","","","","","","","","","","","","","","","",""
"2245","","<div style=""width:500px;"">
  <p>What best describes how you currently feel?</p>
  </div>","10","html-slider-response","53","574567","0.0-5.0-4.8","28","1","2025-07-09 11:05:11","01610cd0009c79a99da7d0a3353eb402","76.221.209.152","Mozilla/5.0 (Windows NT 10.0; Win64; x64) AppleWebKit/537.36 (KHTML, like Gecko) Chrome/138.0.0.0 Safari/537.36","WebKit","Chrome","138.0.0.0","Windows","10.0","https://app.prolific.com/","en-US,en;q=0.9,de;q=0.8,zh-TW;q=0.7,zh-CN;q=0.6,zh;q=0.5","5d617ba9364f9a0019f1dac3","683db7602f5db6a34d12d064","686e4c08dd5ccc6b99cd6be4","1","5d617ba9364f9a0019f1dac3","1","2025-07-09T11:14:47.982Z","","","","","","","","","","","MotivationQ","","50","","","","","","","","","","","","","","","","","","","","","","","","","","","","",""
"","","","","ctl-task-cpt","54","606201","0.0-5.0-0.9","28","1","2025-07-09 11:05:11","01610cd0009c79a99da7d0a3353eb402","76.221.209.152","Mozilla/5.0 (Windows NT 10.0; Win64; x64) AppleWebKit/537.36 (KHTML, like Gecko) Chrome/138.0.0.0 Safari/537.36","WebKit","Chrome","138.0.0.0","Windows","10.0","https://app.prolific.com/","en-US,en;q=0.9,de;q=0.8,zh-TW;q=0.7,zh-CN;q=0.6,zh;q=0.5","5d617ba9364f9a0019f1dac3","683db7602f5db6a34d12d064","686e4c08dd5ccc6b99cd6be4","1","5d617ba9364f9a0019f1dac3","1","2025-07-09T11:15:19.616Z","","","","","","","","","","","","","","win-only","3","g1:SW,g2:NE","0.4","10","0","576958.7","1321.7","6325.6","28616.8","1","4","4","6","1","-1","-1","0","0","0","926.1","3000","-2840","[""down"",""left""]","{""num_key_presses"":6,""num_perfect"":3,""num_errors"":0,""num_randdir"":3,""num_randdir_good_moves"":1,""num_whilered"":0,""num_whileblue"":0,""num_blue"":1,""num_good_moves"":2}","[421.5714133126395,417.82142761775424,0.1,421.5714133126395,416.57142761775424,100.5,424.0714133126395,416.57142761775424,204.9,447.8214133126395,482.82142761775424,308.6,447.8214133126395,482.82142761775424,409.9,446.5714133126395,482.82142761775424,513.8,382.8214133126395,552.8214276177542,614.1,194.0714133126395,786.5714276177542,714.3,141.5714133126395,784.0714276177542,819.8,81.5714133126395,766.5714276177542,921.3,75.3214133126395,770.3214276177542,1025.9,-79.6785866873605,857.8214276177542,1129.9,-428.4285866873605,960.3214276177542,1237.1,-438.4285866873605,960.3214276177542,1339,-438.4285866873605,960.3214276177542,1444.5,-438.4285866873605,960.3214276177542,1548.7,-438.4285866873605,960.3214276177542,1649.3,-438.4285866873605,960.3214276177542,1755.4,-438.4285866873605,960.3214276177542,1858.5,-438.4285866873605,960.3214276177542,1959.3,-438.4285866873605,960.3214276177542,2064.3,-438.4285866873605,960.3214276177542,2164.6,-438.4285866873605,960.3214276177542,2268.6,-438.4285866873605,960.3214276177542,2370.4,-438.4285866873605,960.3214276177542,2473.8,-438.4285866873605,960.3214276177542,2578.5,-438.4285866873605,960.3214276177542,2678.7,-438.4285866873605,960.3214276177542,2785.7,-438.4285866873605,960.3214276177542,2889.9,-438.4285866873605,960.3214276177542,2995.4,-438.4285866873605,960.3214276177542,3098.9,-438.4285866873605,960.3214276177542,3199.3,-438.4285866873605,960.3214276177542,3304.2,-438.4285866873605,960.3214276177542,3409.6,-438.4285866873605,960.3214276177542,3514,-438.4285866873605,960.3214276177542,3620.5,-438.4285866873605,960.3214276177542,3722.2,-438.4285866873605,960.3214276177542,3823.5,-438.4285866873605,960.3214276177542,3924.6,-438.4285866873605,960.3214276177542,4029.8,-438.4285866873605,960.3214276177542,4135.2,-438.4285866873605,960.3214276177542,4239.9,-438.4285866873605,960.3214276177542,4344.2,-438.4285866873605,960.3214276177542,4445.3,-438.4285866873605,960.3214276177542,4548.7,-438.4285866873605,960.3214276177542,4649.5,-438.4285866873605,960.3214276177542,4753.7,-438.4285866873605,960.3214276177542,4853.9,-438.4285866873605,960.3214276177542,4959.5]","[1398.2,1398.2,1000,0,398.2,""oops"",""down"",""left"",""good_move"",4495.9,3097.4,2695.9,1398.5,401.5,""smooth"",""down"",""down"",""good_move"",6885.6,2388.8,1998.4,4496.8,390.4,""oops"",""down"",""right"",""bad_move"",10318.5,3432.6,2954.4,6885.9,478.2,""oops"",""down"",""up"",""bad_move"",13568.2,3249.1,2269,10319.1,980.1,""smooth"",""up"",""up"",""bad_move"",20320.8,6752.2,2677.6,17322.6,320.6,""smooth"",""right"",""right"",""bad_move""]","",""
"2871","","<div style=""width:500px;"">
  <p>What determined the result of this run?</p>
  </div>","0","html-slider-response","55","609074","0.0-5.0-1.9","28","1","2025-07-09 11:05:11","01610cd0009c79a99da7d0a3353eb402","76.221.209.152","Mozilla/5.0 (Windows NT 10.0; Win64; x64) AppleWebKit/537.36 (KHTML, like Gecko) Chrome/138.0.0.0 Safari/537.36","WebKit","Chrome","138.0.0.0","Windows","10.0","https://app.prolific.com/","en-US,en;q=0.9,de;q=0.8,zh-TW;q=0.7,zh-CN;q=0.6,zh;q=0.5","5d617ba9364f9a0019f1dac3","683db7602f5db6a34d12d064","686e4c08dd5ccc6b99cd6be4","1","5d617ba9364f9a0019f1dac3","1","2025-07-09T11:15:22.489Z","","","","","","","","","","","AttribQ","","50","","","","","","","","","","","","","","","","","","","","","","","","","","","","",""
"2819","","<div style=""width:500px;"">
  <p>How much control did you have over the ball?</p>
  </div>","37","html-slider-response","56","611895","0.0-5.0-2.9","28","1","2025-07-09 11:05:11","01610cd0009c79a99da7d0a3353eb402","76.221.209.152","Mozilla/5.0 (Windows NT 10.0; Win64; x64) AppleWebKit/537.36 (KHTML, like Gecko) Chrome/138.0.0.0 Safari/537.36","WebKit","Chrome","138.0.0.0","Windows","10.0","https://app.prolific.com/","en-US,en;q=0.9,de;q=0.8,zh-TW;q=0.7,zh-CN;q=0.6,zh;q=0.5","5d617ba9364f9a0019f1dac3","683db7602f5db6a34d12d064","686e4c08dd5ccc6b99cd6be4","1","5d617ba9364f9a0019f1dac3","1","2025-07-09T11:15:25.310Z","","","","","","","","","","","ControlQ","","50","","","","","","","","","","","","","","","","","","","","","","","","","","","","",""
"2705","","<div style=""width:500px;"">
  <p>How would you describe your current emotional state?</p>
  </div>","100","html-slider-response","57","614602","0.0-5.0-3.9","28","1","2025-07-09 11:05:11","01610cd0009c79a99da7d0a3353eb402","76.221.209.152","Mozilla/5.0 (Windows NT 10.0; Win64; x64) AppleWebKit/537.36 (KHTML, like Gecko) Chrome/138.0.0.0 Safari/537.36","WebKit","Chrome","138.0.0.0","Windows","10.0","https://app.prolific.com/","en-US,en;q=0.9,de;q=0.8,zh-TW;q=0.7,zh-CN;q=0.6,zh;q=0.5","5d617ba9364f9a0019f1dac3","683db7602f5db6a34d12d064","686e4c08dd5ccc6b99cd6be4","1","5d617ba9364f9a0019f1dac3","1","2025-07-09T11:15:28.017Z","","","","","","","","","","","StressQ","","50","","","","","","","","","","","","","","","","","","","","","","","","","","","","",""
"2234","","<div style=""width:500px;"">
  <p>What best describes how you currently feel?</p>
  </div>","9","html-slider-response","58","616837","0.0-5.0-4.9","28","1","2025-07-09 11:05:11","01610cd0009c79a99da7d0a3353eb402","76.221.209.152","Mozilla/5.0 (Windows NT 10.0; Win64; x64) AppleWebKit/537.36 (KHTML, like Gecko) Chrome/138.0.0.0 Safari/537.36","WebKit","Chrome","138.0.0.0","Windows","10.0","https://app.prolific.com/","en-US,en;q=0.9,de;q=0.8,zh-TW;q=0.7,zh-CN;q=0.6,zh;q=0.5","5d617ba9364f9a0019f1dac3","683db7602f5db6a34d12d064","686e4c08dd5ccc6b99cd6be4","1","5d617ba9364f9a0019f1dac3","1","2025-07-09T11:15:30.252Z","","","","","","","","","","","MotivationQ","","50","","","","","","","","","","","","","","","","","","","","","","","","","","","","",""
"","","","","ctl-task-cpt","59","655620","0.0-5.0-0.10","28","1","2025-07-09 11:05:11","01610cd0009c79a99da7d0a3353eb402","76.221.209.152","Mozilla/5.0 (Windows NT 10.0; Win64; x64) AppleWebKit/537.36 (KHTML, like Gecko) Chrome/138.0.0.0 Safari/537.36","WebKit","Chrome","138.0.0.0","Windows","10.0","https://app.prolific.com/","en-US,en;q=0.9,de;q=0.8,zh-TW;q=0.7,zh-CN;q=0.6,zh;q=0.5","5d617ba9364f9a0019f1dac3","683db7602f5db6a34d12d064","686e4c08dd5ccc6b99cd6be4","1","5d617ba9364f9a0019f1dac3","1","2025-07-09T11:16:09.035Z","","","","","","","","","","","","","","win-only","1","g1:NE,g2:SW","0.5","11","0","619228.9","784.4","5786.2","35765.3","1","4","8","6","2","-8","-9","0","0","0","1159.9","3000","-2825","[""down"",""left""]","{""num_key_presses"":7,""num_perfect"":4,""num_errors"":1,""num_randdir"":2,""num_randdir_good_moves"":0,""num_whilered"":0,""num_whileblue"":0,""num_blue"":3,""num_good_moves"":4}","[420.3214133126395,416.57142761775424,0.5,420.3214133126395,416.57142761775424,100.8,420.3214133126395,416.57142761775424,201.9,419.0714133126395,416.57142761775424,303.7,334.0714133126395,536.5714276177542,407.1,166.5714133126395,712.8214276177542,515,99.0714133126395,744.0714276177542,619.6,91.5714133126395,747.8214276177542,719.7,86.5714133126395,751.5714276177542,823.1,86.5714133126395,751.5714276177542,927.3,86.5714133126395,751.5714276177542,1032,86.5714133126395,751.5714276177542,1136.1,86.5714133126395,751.5714276177542,1239.4,86.5714133126395,751.5714276177542,1340.8,86.5714133126395,751.5714276177542,1441.6,86.5714133126395,751.5714276177542,1544.4,86.5714133126395,751.5714276177542,1647.2,86.5714133126395,751.5714276177542,1749.1,86.5714133126395,751.5714276177542,1851.4,86.5714133126395,751.5714276177542,1956.1,86.5714133126395,751.5714276177542,2056.4,86.5714133126395,751.5714276177542,2157.7,86.5714133126395,751.5714276177542,2264.1,86.5714133126395,751.5714276177542,2367.5,86.5714133126395,751.5714276177542,2472.2,86.5714133126395,751.5714276177542,2572.7,86.5714133126395,751.5714276177542,2676.2,86.5714133126395,751.5714276177542,2776.4,86.5714133126395,751.5714276177542,2876.4,86.5714133126395,751.5714276177542,2976.6,86.5714133126395,751.5714276177542,3082,86.5714133126395,751.5714276177542,3186.7,86.5714133126395,751.5714276177542,3289.9,86.5714133126395,751.5714276177542,3391.6,86.5714133126395,751.5714276177542,3491.9,86.5714133126395,751.5714276177542,3592.2,86.5714133126395,751.5714276177542,3692.9,86.5714133126395,751.5714276177542,3797,86.5714133126395,751.5714276177542,3902.3,86.5714133126395,751.5714276177542,4006.5,86.5714133126395,751.5714276177542,4115.9,86.5714133126395,751.5714276177542,4215.9,86.5714133126395,751.5714276177542,4316.7,86.5714133126395,751.5714276177542,4422.7,86.5714133126395,751.5714276177542,4526.5,86.5714133126395,751.5714276177542,4631.9,86.5714133126395,751.5714276177542,4733.1,86.5714133126395,751.5714276177542,4839,86.5714133126395,751.5714276177542,4939.2]","[4570.8,4570.8,2203.3,2006,361.5,""smooth"",""down"",""down"",""good_move"",7354.9,2783.8,2438,4571.1,345.9,""smooth"",""down"",""down"",""good_move"",9932.2,2576.8,2201.5,7355.4,375.3,""oops"",""left"",""right"",""bad_move"",13860.9,3928.4,2470,13445.7,-2054.8,""error"",""-"",""-"",""no_move"",17276.9,3415.4,1987.5,14866.9,422.5,""smooth"",""left"",""left"",""good_move"",24714.4,7437.2,2751,21189,774.4,""oops"",""left"",""right"",""bad_move"",27818.6,3104,2349.7,24714.8,754.2,""smooth"",""down"",""down"",""good_move""]","",""
"2401","","<div style=""width:500px;"">
  <p>What determined the result of this run?</p>
  </div>","0","html-slider-response","60","658024","0.0-5.0-1.10","28","1","2025-07-09 11:05:11","01610cd0009c79a99da7d0a3353eb402","76.221.209.152","Mozilla/5.0 (Windows NT 10.0; Win64; x64) AppleWebKit/537.36 (KHTML, like Gecko) Chrome/138.0.0.0 Safari/537.36","WebKit","Chrome","138.0.0.0","Windows","10.0","https://app.prolific.com/","en-US,en;q=0.9,de;q=0.8,zh-TW;q=0.7,zh-CN;q=0.6,zh;q=0.5","5d617ba9364f9a0019f1dac3","683db7602f5db6a34d12d064","686e4c08dd5ccc6b99cd6be4","1","5d617ba9364f9a0019f1dac3","1","2025-07-09T11:16:11.439Z","","","","","","","","","","","AttribQ","","50","","","","","","","","","","","","","","","","","","","","","","","","","","","","",""
"2796","","<div style=""width:500px;"">
  <p>How much control did you have over the ball?</p>
  </div>","29","html-slider-response","61","660822","0.0-5.0-2.10","28","1","2025-07-09 11:05:11","01610cd0009c79a99da7d0a3353eb402","76.221.209.152","Mozilla/5.0 (Windows NT 10.0; Win64; x64) AppleWebKit/537.36 (KHTML, like Gecko) Chrome/138.0.0.0 Safari/537.36","WebKit","Chrome","138.0.0.0","Windows","10.0","https://app.prolific.com/","en-US,en;q=0.9,de;q=0.8,zh-TW;q=0.7,zh-CN;q=0.6,zh;q=0.5","5d617ba9364f9a0019f1dac3","683db7602f5db6a34d12d064","686e4c08dd5ccc6b99cd6be4","1","5d617ba9364f9a0019f1dac3","1","2025-07-09T11:16:14.238Z","","","","","","","","","","","ControlQ","","50","","","","","","","","","","","","","","","","","","","","","","","","","","","","",""
"1415","","<div style=""width:500px;"">
  <p>How would you describe your current emotional state?</p>
  </div>","100","html-slider-response","62","662238","0.0-5.0-3.10","28","1","2025-07-09 11:05:11","01610cd0009c79a99da7d0a3353eb402","76.221.209.152","Mozilla/5.0 (Windows NT 10.0; Win64; x64) AppleWebKit/537.36 (KHTML, like Gecko) Chrome/138.0.0.0 Safari/537.36","WebKit","Chrome","138.0.0.0","Windows","10.0","https://app.prolific.com/","en-US,en;q=0.9,de;q=0.8,zh-TW;q=0.7,zh-CN;q=0.6,zh;q=0.5","5d617ba9364f9a0019f1dac3","683db7602f5db6a34d12d064","686e4c08dd5ccc6b99cd6be4","1","5d617ba9364f9a0019f1dac3","1","2025-07-09T11:16:15.653Z","","","","","","","","","","","StressQ","","50","","","","","","","","","","","","","","","","","","","","","","","","","","","","",""
"1593","","<div style=""width:500px;"">
  <p>What best describes how you currently feel?</p>
  </div>","9","html-slider-response","63","663832","0.0-5.0-4.10","28","1","2025-07-09 11:05:11","01610cd0009c79a99da7d0a3353eb402","76.221.209.152","Mozilla/5.0 (Windows NT 10.0; Win64; x64) AppleWebKit/537.36 (KHTML, like Gecko) Chrome/138.0.0.0 Safari/537.36","WebKit","Chrome","138.0.0.0","Windows","10.0","https://app.prolific.com/","en-US,en;q=0.9,de;q=0.8,zh-TW;q=0.7,zh-CN;q=0.6,zh;q=0.5","5d617ba9364f9a0019f1dac3","683db7602f5db6a34d12d064","686e4c08dd5ccc6b99cd6be4","1","5d617ba9364f9a0019f1dac3","1","2025-07-09T11:16:17.247Z","","","","","","","","","","","MotivationQ","","50","","","","","","","","","","","","","","","","","","","","","","","","","","","","",""
"","","","","ctl-task-cpt","64","686958","0.0-5.0-0.11","28","1","2025-07-09 11:05:11","01610cd0009c79a99da7d0a3353eb402","76.221.209.152","Mozilla/5.0 (Windows NT 10.0; Win64; x64) AppleWebKit/537.36 (KHTML, like Gecko) Chrome/138.0.0.0 Safari/537.36","WebKit","Chrome","138.0.0.0","Windows","10.0","https://app.prolific.com/","en-US,en;q=0.9,de;q=0.8,zh-TW;q=0.7,zh-CN;q=0.6,zh;q=0.5","5d617ba9364f9a0019f1dac3","683db7602f5db6a34d12d064","686e4c08dd5ccc6b99cd6be4","1","5d617ba9364f9a0019f1dac3","1","2025-07-09T11:16:40.373Z","","","","","","","","","","","","","","win-only","0","g1:NW,g2:SE","0.6","12","0","666224.2","775","5775.6","20106.6","1","4","4","6","1","1","1","1","0","0.007575757575757576","1276.8","3000","1135","[""left"",""up""]","{""num_key_presses"":4,""num_perfect"":2,""num_errors"":0,""num_randdir"":2,""num_randdir_good_moves"":2,""num_whilered"":0,""num_whileblue"":0,""num_blue"":1,""num_good_moves"":4}","[407.8214133126395,414.07142761775424,0.5,407.8214133126395,414.07142761775424,100.3,407.8214133126395,415.32142761775424,201.7,407.8214133126395,415.32142761775424,302.7,407.8214133126395,415.32142761775424,407.3,407.8214133126395,415.32142761775424,516.1,601.5714133126395,606.5714276177542,616.3,727.8214133126395,700.3214276177542,717.1,727.8214133126395,701.5714276177542,822.7,646.5714133126395,601.5714276177542,928.4,237.8214133126395,234.07142761775424,1032.2,181.5714133126395,177.82142761775424,1135.7,57.82141331263951,110.32142761775425,1236.3,56.57141331263951,104.07142761775425,1338.6,56.57141331263951,104.07142761775425,1440.7,55.32141331263951,104.07142761775425,1541.7,55.32141331263951,104.07142761775425,1641.7,55.32141331263951,104.07142761775425,1742.3,55.32141331263951,104.07142761775425,1849.1,55.32141331263951,104.07142761775425,1951.1,55.32141331263951,104.07142761775425,2052,55.32141331263951,104.07142761775425,2152.4,55.32141331263951,104.07142761775425,2255.8,55.32141331263951,104.07142761775425,2355.9,55.32141331263951,104.07142761775425,2463,55.32141331263951,104.07142761775425,2563.5,55.32141331263951,104.07142761775425,2668,55.32141331263951,104.07142761775425,2772.5,55.32141331263951,104.07142761775425,2876.4,55.32141331263951,104.07142761775425,2976.6,55.32141331263951,104.07142761775425,3081.5,55.32141331263951,104.07142761775425,3189.5,55.32141331263951,104.07142761775425,3290.3,55.32141331263951,104.07142761775425,3392.9,55.32141331263951,104.07142761775425,3497.9,55.32141331263951,104.07142761775425,3598.1,55.32141331263951,104.07142761775425,3700.3,55.32141331263951,104.07142761775425,3800.8,55.32141331263951,104.07142761775425,3900.9,55.32141331263951,104.07142761775425,4006,55.32141331263951,104.07142761775425,4106.4,55.32141331263951,104.07142761775425,4206.8,55.32141331263951,104.07142761775425,4314.2,55.32141331263951,104.07142761775425,4419.3,55.32141331263951,104.07142761775425,4522.6,55.32141331263951,104.07142761775425,4622.6,55.32141331263951,104.07142761775425,4723.1,55.32141331263951,104.07142761775425,4826.2,55.32141331263951,104.07142761775425,4926.9]","[4906.5,4906.5,2303.4,2004.8,598.3,""smooth"",""up"",""up"",""good_move"",8666.4,3759.3,3208.4,4907.1,550.9,""oops"",""up"",""left"",""good_move"",11384,2717.3,2175.3,8666.7,542,""oops"",""up"",""left"",""good_move"",14235.4,2851.2,2464.6,11384.2,386.6,""smooth"",""up"",""up"",""good_move""]","",""
"4183","","<div style=""width:500px;"">
  <p>What determined the result of this run?</p>
  </div>","6","html-slider-response","65","691143","0.0-5.0-1.11","28","1","2025-07-09 11:05:11","01610cd0009c79a99da7d0a3353eb402","76.221.209.152","Mozilla/5.0 (Windows NT 10.0; Win64; x64) AppleWebKit/537.36 (KHTML, like Gecko) Chrome/138.0.0.0 Safari/537.36","WebKit","Chrome","138.0.0.0","Windows","10.0","https://app.prolific.com/","en-US,en;q=0.9,de;q=0.8,zh-TW;q=0.7,zh-CN;q=0.6,zh;q=0.5","5d617ba9364f9a0019f1dac3","683db7602f5db6a34d12d064","686e4c08dd5ccc6b99cd6be4","1","5d617ba9364f9a0019f1dac3","1","2025-07-09T11:16:44.558Z","","","","","","","","","","","AttribQ","","50","","","","","","","","","","","","","","","","","","","","","","","","","","","","",""
"3037","","<div style=""width:500px;"">
  <p>How much control did you have over the ball?</p>
  </div>","81","html-slider-response","66","694181","0.0-5.0-2.11","28","1","2025-07-09 11:05:11","01610cd0009c79a99da7d0a3353eb402","76.221.209.152","Mozilla/5.0 (Windows NT 10.0; Win64; x64) AppleWebKit/537.36 (KHTML, like Gecko) Chrome/138.0.0.0 Safari/537.36","WebKit","Chrome","138.0.0.0","Windows","10.0","https://app.prolific.com/","en-US,en;q=0.9,de;q=0.8,zh-TW;q=0.7,zh-CN;q=0.6,zh;q=0.5","5d617ba9364f9a0019f1dac3","683db7602f5db6a34d12d064","686e4c08dd5ccc6b99cd6be4","1","5d617ba9364f9a0019f1dac3","1","2025-07-09T11:16:47.596Z","","","","","","","","","","","ControlQ","","50","","","","","","","","","","","","","","","","","","","","","","","","","","","","",""
"3107","","<div style=""width:500px;"">
  <p>How would you describe your current emotional state?</p>
  </div>","73","html-slider-response","67","697289","0.0-5.0-3.11","28","1","2025-07-09 11:05:11","01610cd0009c79a99da7d0a3353eb402","76.221.209.152","Mozilla/5.0 (Windows NT 10.0; Win64; x64) AppleWebKit/537.36 (KHTML, like Gecko) Chrome/138.0.0.0 Safari/537.36","WebKit","Chrome","138.0.0.0","Windows","10.0","https://app.prolific.com/","en-US,en;q=0.9,de;q=0.8,zh-TW;q=0.7,zh-CN;q=0.6,zh;q=0.5","5d617ba9364f9a0019f1dac3","683db7602f5db6a34d12d064","686e4c08dd5ccc6b99cd6be4","1","5d617ba9364f9a0019f1dac3","1","2025-07-09T11:16:50.704Z","","","","","","","","","","","StressQ","","50","","","","","","","","","","","","","","","","","","","","","","","","","","","","",""
"2103","","<div style=""width:500px;"">
  <p>What best describes how you currently feel?</p>
  </div>","6","html-slider-response","68","699395","0.0-5.0-4.11","28","1","2025-07-09 11:05:11","01610cd0009c79a99da7d0a3353eb402","76.221.209.152","Mozilla/5.0 (Windows NT 10.0; Win64; x64) AppleWebKit/537.36 (KHTML, like Gecko) Chrome/138.0.0.0 Safari/537.36","WebKit","Chrome","138.0.0.0","Windows","10.0","https://app.prolific.com/","en-US,en;q=0.9,de;q=0.8,zh-TW;q=0.7,zh-CN;q=0.6,zh;q=0.5","5d617ba9364f9a0019f1dac3","683db7602f5db6a34d12d064","686e4c08dd5ccc6b99cd6be4","1","5d617ba9364f9a0019f1dac3","1","2025-07-09T11:16:52.810Z","","","","","","","","","","","MotivationQ","","50","","","","","","","","","","","","","","","","","","","","","","","","","","","","",""
"","","","","ctl-task-cpt","69","728746","0.0-5.0-0.12","28","1","2025-07-09 11:05:11","01610cd0009c79a99da7d0a3353eb402","76.221.209.152","Mozilla/5.0 (Windows NT 10.0; Win64; x64) AppleWebKit/537.36 (KHTML, like Gecko) Chrome/138.0.0.0 Safari/537.36","WebKit","Chrome","138.0.0.0","Windows","10.0","https://app.prolific.com/","en-US,en;q=0.9,de;q=0.8,zh-TW;q=0.7,zh-CN;q=0.6,zh;q=0.5","5d617ba9364f9a0019f1dac3","683db7602f5db6a34d12d064","686e4c08dd5ccc6b99cd6be4","1","5d617ba9364f9a0019f1dac3","1","2025-07-09T11:17:22.161Z","","","","","","","","","","","","","","win-only","1","g1:NE,g2:SW","0.7","13","0","701788","543.6","5544.7","26330.6","1","4","8","6","2","-8","-8","0","1","0","1437.3","3000","-2850","[""down"",""left""]","{""num_key_presses"":4,""num_perfect"":2,""num_errors"":0,""num_randdir"":2,""num_randdir_good_moves"":1,""num_whilered"":0,""num_whileblue"":0,""num_blue"":2,""num_good_moves"":3}","[411.5714133126395,415.32142761775424,0.1,412.8214133126395,417.82142761775424,100.4,416.5714133126395,416.57142761775424,204,432.8214133126395,389.07142761775424,304.4,411.5714133126395,431.57142761775424,407.9,225.3214133126395,740.3214276177542,507.9,169.0714133126395,800.3214276177542,613.8,169.0714133126395,800.3214276177542,714,162.8214133126395,801.5714276177542,816.7,135.3214133126395,802.8214276177542,917.1,104.0714133126395,805.3214276177542,1020,97.8214133126395,805.3214276177542,1121.8,97.8214133126395,805.3214276177542,1223,95.3214133126395,805.3214276177542,1329.6,92.8214133126395,805.3214276177542,1432.3,92.8214133126395,805.3214276177542,1537.1,31.571413312639507,834.0714276177542,1637.5,-543.4285866873605,960.3214276177542,1742,-543.4285866873605,960.3214276177542,1844.4,-543.4285866873605,960.3214276177542,1944.4,-543.4285866873605,960.3214276177542,2047.7,-543.4285866873605,960.3214276177542,2148.4,-543.4285866873605,960.3214276177542,2248.6,-543.4285866873605,960.3214276177542,2354.6,-543.4285866873605,960.3214276177542,2457.5,-543.4285866873605,960.3214276177542,2557.8,-543.4285866873605,960.3214276177542,2663.6,-543.4285866873605,960.3214276177542,2769.2,-543.4285866873605,960.3214276177542,2878,-543.4285866873605,960.3214276177542,2979.8,-543.4285866873605,960.3214276177542,3082,-543.4285866873605,960.3214276177542,3185.7,-543.4285866873605,960.3214276177542,3287.7,-543.4285866873605,960.3214276177542,3391.9,-543.4285866873605,960.3214276177542,3499.2,-543.4285866873605,960.3214276177542,3602.6,-543.4285866873605,960.3214276177542,3705.9,-543.4285866873605,960.3214276177542,3814.6,-543.4285866873605,960.3214276177542,3920.2,-543.4285866873605,960.3214276177542,4022.1,-543.4285866873605,960.3214276177542,4128.7,-543.4285866873605,960.3214276177542,4233.5,-543.4285866873605,960.3214276177542,4336.7,-543.4285866873605,960.3214276177542,4437.6,-543.4285866873605,960.3214276177542,4543.9,-543.4285866873605,960.3214276177542,4648,-543.4285866873605,960.3214276177542,4753.3,-543.4285866873605,960.3214276177542,4853.6,-543.4285866873605,960.3214276177542,4954]","[4430.7,4430.7,1954.1,2001.6,475,""oops"",""down"",""down"",""good_move"",8452.9,4021.7,3397.2,4431.2,624.5,""oops"",""down"",""up"",""bad_move"",11861.6,3408.5,2427.4,8453.1,981.1,""smooth"",""down"",""down"",""good_move"",14518.6,2656.2,2102.5,11862.4,553.7,""smooth"",""down"",""down"",""good_move""]","",""
"2411","","<div style=""width:500px;"">
  <p>What determined the result of this run?</p>
  </div>","0","html-slider-response","70","731160","0.0-5.0-1.12","28","1","2025-07-09 11:05:11","01610cd0009c79a99da7d0a3353eb402","76.221.209.152","Mozilla/5.0 (Windows NT 10.0; Win64; x64) AppleWebKit/537.36 (KHTML, like Gecko) Chrome/138.0.0.0 Safari/537.36","WebKit","Chrome","138.0.0.0","Windows","10.0","https://app.prolific.com/","en-US,en;q=0.9,de;q=0.8,zh-TW;q=0.7,zh-CN;q=0.6,zh;q=0.5","5d617ba9364f9a0019f1dac3","683db7602f5db6a34d12d064","686e4c08dd5ccc6b99cd6be4","1","5d617ba9364f9a0019f1dac3","1","2025-07-09T11:17:24.576Z","","","","","","","","","","","AttribQ","","50","","","","","","","","","","","","","","","","","","","","","","","","","","","","",""
"2598","","<div style=""width:500px;"">
  <p>How much control did you have over the ball?</p>
  </div>","30","html-slider-response","71","733761","0.0-5.0-2.12","28","1","2025-07-09 11:05:11","01610cd0009c79a99da7d0a3353eb402","76.221.209.152","Mozilla/5.0 (Windows NT 10.0; Win64; x64) AppleWebKit/537.36 (KHTML, like Gecko) Chrome/138.0.0.0 Safari/537.36","WebKit","Chrome","138.0.0.0","Windows","10.0","https://app.prolific.com/","en-US,en;q=0.9,de;q=0.8,zh-TW;q=0.7,zh-CN;q=0.6,zh;q=0.5","5d617ba9364f9a0019f1dac3","683db7602f5db6a34d12d064","686e4c08dd5ccc6b99cd6be4","1","5d617ba9364f9a0019f1dac3","1","2025-07-09T11:17:27.176Z","","","","","","","","","","","ControlQ","","50","","","","","","","","","","","","","","","","","","","","","","","","","","","","",""
"1762","","<div style=""width:500px;"">
  <p>How would you describe your current emotional state?</p>
  </div>","100","html-slider-response","72","735523","0.0-5.0-3.12","28","1","2025-07-09 11:05:11","01610cd0009c79a99da7d0a3353eb402","76.221.209.152","Mozilla/5.0 (Windows NT 10.0; Win64; x64) AppleWebKit/537.36 (KHTML, like Gecko) Chrome/138.0.0.0 Safari/537.36","WebKit","Chrome","138.0.0.0","Windows","10.0","https://app.prolific.com/","en-US,en;q=0.9,de;q=0.8,zh-TW;q=0.7,zh-CN;q=0.6,zh;q=0.5","5d617ba9364f9a0019f1dac3","683db7602f5db6a34d12d064","686e4c08dd5ccc6b99cd6be4","1","5d617ba9364f9a0019f1dac3","1","2025-07-09T11:17:28.938Z","","","","","","","","","","","StressQ","","50","","","","","","","","","","","","","","","","","","","","","","","","","","","","",""
"2368","","<div style=""width:500px;"">
  <p>What best describes how you currently feel?</p>
  </div>","7","html-slider-response","73","737892","0.0-5.0-4.12","28","1","2025-07-09 11:05:11","01610cd0009c79a99da7d0a3353eb402","76.221.209.152","Mozilla/5.0 (Windows NT 10.0; Win64; x64) AppleWebKit/537.36 (KHTML, like Gecko) Chrome/138.0.0.0 Safari/537.36","WebKit","Chrome","138.0.0.0","Windows","10.0","https://app.prolific.com/","en-US,en;q=0.9,de;q=0.8,zh-TW;q=0.7,zh-CN;q=0.6,zh;q=0.5","5d617ba9364f9a0019f1dac3","683db7602f5db6a34d12d064","686e4c08dd5ccc6b99cd6be4","1","5d617ba9364f9a0019f1dac3","1","2025-07-09T11:17:31.307Z","","","","","","","","","","","MotivationQ","","50","","","","","","","","","","","","","","","","","","","","","","","","","","","","",""
"","","","","ctl-task-cpt","74","764539","0.0-5.0-0.13","28","1","2025-07-09 11:05:11","01610cd0009c79a99da7d0a3353eb402","76.221.209.152","Mozilla/5.0 (Windows NT 10.0; Win64; x64) AppleWebKit/537.36 (KHTML, like Gecko) Chrome/138.0.0.0 Safari/537.36","WebKit","Chrome","138.0.0.0","Windows","10.0","https://app.prolific.com/","en-US,en;q=0.9,de;q=0.8,zh-TW;q=0.7,zh-CN;q=0.6,zh;q=0.5","5d617ba9364f9a0019f1dac3","683db7602f5db6a34d12d064","686e4c08dd5ccc6b99cd6be4","1","5d617ba9364f9a0019f1dac3","1","2025-07-09T11:17:57.955Z","","","","","","","","","","","","","","win-only","2","g1:SE,g2:NW","0.8","14","0","740283.9","1162.4","6172.4","23628.3","1","4","4","6","1","1","1","1","0","0.007575757575757576","972.3","3000","490","[""down"",""right""]","{""num_key_presses"":6,""num_perfect"":5,""num_errors"":0,""num_randdir"":1,""num_randdir_good_moves"":0,""num_whilered"":0,""num_whileblue"":0,""num_blue"":0,""num_good_moves"":5}","[421.5714133126395,416.57142761775424,0.4,421.5714133126395,416.57142761775424,101.7,421.5714133126395,416.57142761775424,207.4,421.5714133126395,416.57142761775424,309.3,419.0714133126395,415.32142761775424,424.5,240.3214133126395,266.57142761775424,530.1,177.8214133126395,211.57142761775424,634.8,636.5714133126395,664.0714276177542,735,731.5714133126395,761.5714276177542,835,781.5714133126395,772.8214276177542,936.1,797.8214133126395,777.8214276177542,1044.7,797.8214133126395,777.8214276177542,1149.8,797.8214133126395,777.8214276177542,1253.2,797.8214133126395,777.8214276177542,1353.4,797.8214133126395,777.8214276177542,1454.2,797.8214133126395,777.8214276177542,1557.7,797.8214133126395,777.8214276177542,1658.4,797.8214133126395,777.8214276177542,1759.9,797.8214133126395,777.8214276177542,1865.4,797.8214133126395,777.8214276177542,1968.8,797.8214133126395,777.8214276177542,2069.6,797.8214133126395,777.8214276177542,2173.3,797.8214133126395,777.8214276177542,2275.4,797.8214133126395,777.8214276177542,2382.3,797.8214133126395,777.8214276177542,2484.5,797.8214133126395,777.8214276177542,2584.9,797.8214133126395,777.8214276177542,2685.8,797.8214133126395,777.8214276177542,2790.6,797.8214133126395,777.8214276177542,2891.3,797.8214133126395,777.8214276177542,2994,797.8214133126395,777.8214276177542,3099.8,797.8214133126395,777.8214276177542,3207.3,797.8214133126395,777.8214276177542,3309.8,797.8214133126395,777.8214276177542,3410.9,797.8214133126395,777.8214276177542,3516.6,797.8214133126395,777.8214276177542,3620.2,797.8214133126395,777.8214276177542,3720.6,797.8214133126395,777.8214276177542,3824.3,797.8214133126395,777.8214276177542,3924.6,797.8214133126395,777.8214276177542,4030,797.8214133126395,777.8214276177542,4131.5,797.8214133126395,777.8214276177542,4233.7,797.8214133126395,777.8214276177542,4333.8,797.8214133126395,777.8214276177542,4434.3,797.8214133126395,777.8214276177542,4540.1,797.8214133126395,777.8214276177542,4642.9,797.8214133126395,777.8214276177542,4744.3,797.8214133126395,777.8214276177542,4848.7,797.8214133126395,777.8214276177542,4949]","[1427.6,1427.6,1000,0,427.6,""oops"",""down"",""up"",""bad_move"",5041.7,3612.9,3156.9,1428.8,456,""smooth"",""down"",""down"",""good_move"",7971.6,2928.5,2446,5043.1,482.5,""smooth"",""down"",""down"",""good_move"",11588.8,3617,2990.9,7971.9,626.1,""smooth"",""right"",""right"",""good_move"",14603.9,3014.4,2628.1,11589.5,386.3,""smooth"",""right"",""right"",""good_move"",17353.4,2749.1,2385.2,14604.4,363.8,""smooth"",""down"",""down"",""good_move""]","",""
"2124","","<div style=""width:500px;"">
  <p>What determined the result of this run?</p>
  </div>","0","html-slider-response","75","766666","0.0-5.0-1.13","28","1","2025-07-09 11:05:11","01610cd0009c79a99da7d0a3353eb402","76.221.209.152","Mozilla/5.0 (Windows NT 10.0; Win64; x64) AppleWebKit/537.36 (KHTML, like Gecko) Chrome/138.0.0.0 Safari/537.36","WebKit","Chrome","138.0.0.0","Windows","10.0","https://app.prolific.com/","en-US,en;q=0.9,de;q=0.8,zh-TW;q=0.7,zh-CN;q=0.6,zh;q=0.5","5d617ba9364f9a0019f1dac3","683db7602f5db6a34d12d064","686e4c08dd5ccc6b99cd6be4","1","5d617ba9364f9a0019f1dac3","1","2025-07-09T11:18:00.082Z","","","","","","","","","","","AttribQ","","50","","","","","","","","","","","","","","","","","","","","","","","","","","","","",""
"2370","","<div style=""width:500px;"">
  <p>How much control did you have over the ball?</p>
