"rt","response_timestamp","stimulus","response","trial_type","trial_index","time_elapsed","internal_node_id","run_id","condition","recorded_at","source_code_version","ip","user_agent","device","browser","browser_version","platform","platform_version","referer","accept_language","PROLIFIC_PID","STUDY_ID","SESSION_ID","WEEK","BATCH","prolific_id","week","batch","realtime","success","responses","item_order","radio_event_ids","radio_event_times","key_event_times","mouse_event_times","straightlining","zigzagging","honeypot","eventType","view_history","slider_start","which_type","canvas_config","goals_layout","control_level","trial_number","tutorial_trial_number","trial_start_time","phase1_start_time","phase2_start_time","phase3_start_time","goal_1_value","goal_1_distance","goal_2_value","goal_2_distance","goal_selected","outcome","outcome_total","participant_final_score","participant_initial_score","participant_final_score_prop","goal_choice_rt","allocated_time","allocated_time_remaining","goal_direction","counts","mouse_movements","key_presses","question_order","question_id"
"142284","1752655009500","<p style='font-size:40px;line-height:1.25'><strong>Welcome to the experiment!</strong></p><p style='font-size:1.1em;line-height:1.25'>Thank you for participanting in our experiment again! You will be asked to play the Dysfunctional Ball Game again. We will briefly recap the rules before we start.</p><p style='font-size:1.1em;line-height:1.25'>Press <strong>Next</strong> to continue.</p>","0","custom-html-button-response","0","142286","0.0-0.0","75","1","2025-07-16 08:34:26","1f75c3e559b7213887762d5229550c2b","93.108.112.26","Mozilla/5.0 (Windows NT 10.0; Win64; x64) AppleWebKit/537.36 (KHTML, like Gecko) Chrome/138.0.0.0 Safari/537.36","WebKit","Chrome","138.0.0.0","Windows","10.0","https://app.prolific.com/","en-US,en;q=0.9","6140ef8d27499e70e8740918","68764874ac79eee8c1d4cb03","687764061a6ea09268cbf29e","2","0","6140ef8d27499e70e8740918","2","0","2025-07-16T08:36:49.501Z","","","","","","","","","","","","","","","","","","","","","","","","","","","","","","","","","","","","","","","","","",""
"3052","","","","fullscreen","1","146369","0.0-1.0","75","1","2025-07-16 08:34:26","1f75c3e559b7213887762d5229550c2b","93.108.112.26","Mozilla/5.0 (Windows NT 10.0; Win64; x64) AppleWebKit/537.36 (KHTML, like Gecko) Chrome/138.0.0.0 Safari/537.36","WebKit","Chrome","138.0.0.0","Windows","10.0","https://app.prolific.com/","en-US,en;q=0.9","6140ef8d27499e70e8740918","68764874ac79eee8c1d4cb03","687764061a6ea09268cbf29e","2","0","6140ef8d27499e70e8740918","2","0","","true","","","","","","","","","","","","","","","","","","","","","","","","","","","","","","","","","","","","","","","","",""
"2152","1752655015736","<p style='font-size:1.1em;line-height:1.25'>In the following, we will ask you a few questions relating to your feelings in the last 24 hours.<br></p><p style='font-size:1.1em;line-height:1.25'>Press the <strong>Next</strong> button to continue.</p>","0","custom-html-button-response","2","148521","0.0-2.0-0.0","75","1","2025-07-16 08:34:26","1f75c3e559b7213887762d5229550c2b","93.108.112.26","Mozilla/5.0 (Windows NT 10.0; Win64; x64) AppleWebKit/537.36 (KHTML, like Gecko) Chrome/138.0.0.0 Safari/537.36","WebKit","Chrome","138.0.0.0","Windows","10.0","https://app.prolific.com/","en-US,en;q=0.9","6140ef8d27499e70e8740918","68764874ac79eee8c1d4cb03","687764061a6ea09268cbf29e","2","0","6140ef8d27499e70e8740918","2","0","2025-07-16T08:36:55.736Z","","","","","","","","","","","","","","","","","","","","","","","","","","","","","","","","","","","","","","","","","",""
"65097.700000047684","","","","survey-template","3","213622","0.0-2.0-1.0","75","1","2025-07-16 08:34:26","1f75c3e559b7213887762d5229550c2b","93.108.112.26","Mozilla/5.0 (Windows NT 10.0; Win64; x64) AppleWebKit/537.36 (KHTML, like Gecko) Chrome/138.0.0.0 Safari/537.36","WebKit","Chrome","138.0.0.0","Windows","10.0","https://app.prolific.com/","en-US,en;q=0.9","6140ef8d27499e70e8740918","68764874ac79eee8c1d4cb03","687764061a6ea09268cbf29e","2","0","6140ef8d27499e70e8740918","2","0","2025-07-16T08:38:00.837Z","","{""Q01"":""1"",""Q02"":""0"",""Q03"":""0"",""Q04"":""2"",""Q05"":""1"",""Q06"":""0"",""Q07"":""0"",""Q08"":""0"",""Q09"":""0"",""Q10"":""1"",""Q11"":""2"",""Q12"":""1"",""Q13"":""5"",""Q14"":""1"",""Q15"":""2"",""Q16"":""2"",""Q17"":""0"",""Q18"":""0"",""Q19"":""1"",""Q20"":""0"",""Q21"":""2"",""Q22"":""0""}","[0,1,2,3,4,5,6,7,8,9,10,11,12,13,14,15,16,17,18,19,20,21]","[""Q01"",""Q02"",""Q03"",""Q04"",""Q05"",""Q06"",""Q07"",""Q08"",""Q09"",""Q10"",""Q11"",""Q12"",""Q13"",""Q14"",""Q15"",""Q16"",""Q17"",""Q18"",""Q19"",""Q20"",""Q21"",""Q22""]","[8139.800000011921,10687.700000047684,14868.800000011921,18518.900000035763,19733.80000001192,23276.900000035763,24965.900000035763,25612.900000035763,27531.80000001192,29251.5,33011.700000047684,34689.80000001192,37416.10000002384,39419.700000047684,42084.60000002384,44854.60000002384,46677.80000001192,47514.700000047684,52646.700000047684,56344.700000047684,61296.5,64318.60000002384]","[]","[0,8139.800000011921,10687.700000047684,14868.800000011921,17645.80000001192,18518.900000035763,19733.80000001192,23276.900000035763,24265.80000001192,24965.900000035763,25612.900000035763,27531.80000001192,29251.5,32241.5,33011.700000047684,34689.80000001192,37416.10000002384,39419.700000047684,42084.60000002384,44854.60000002384,46677.80000001192,47514.700000047684,52646.700000047684,56344.700000047684,61296.5,64318.60000002384,65080.700000047684]","0.45454545454545453","0.42857142857142855","0","drsp","","","","","","","","","","","","","","","","","","","","","","","","","","","","","","",""
"19960.700000047684","","","","survey-template","4","233584","0.0-2.0-2.0","75","1","2025-07-16 08:34:26","1f75c3e559b7213887762d5229550c2b","93.108.112.26","Mozilla/5.0 (Windows NT 10.0; Win64; x64) AppleWebKit/537.36 (KHTML, like Gecko) Chrome/138.0.0.0 Safari/537.36","WebKit","Chrome","138.0.0.0","Windows","10.0","https://app.prolific.com/","en-US,en;q=0.9","6140ef8d27499e70e8740918","68764874ac79eee8c1d4cb03","687764061a6ea09268cbf29e","2","0","6140ef8d27499e70e8740918","2","0","2025-07-16T08:38:20.799Z","","{""Q01"":""1"",""Q02"":""2"",""Q03"":""0""}","[0,1,2]","[""Q01"",""Q01"",""Q02"",""Q03""]","[8757.200000047684,13167.100000023842,15298.200000047684,18292.200000047684]","[]","[8757.200000047684,13167.100000023842,14827,15298.200000047684,18292.200000047684,19960.100000023842]","0.3333333333333333","0","0","stress","","","","","","","","","","","","","","","","","","","","","","","","","","","","","","",""
"12115","","","","instructions","5","245699","0.0-3.0-0.0","75","1","2025-07-16 08:34:26","1f75c3e559b7213887762d5229550c2b","93.108.112.26","Mozilla/5.0 (Windows NT 10.0; Win64; x64) AppleWebKit/537.36 (KHTML, like Gecko) Chrome/138.0.0.0 Safari/537.36","WebKit","Chrome","138.0.0.0","Windows","10.0","https://app.prolific.com/","en-US,en;q=0.9","6140ef8d27499e70e8740918","68764874ac79eee8c1d4cb03","687764061a6ea09268cbf29e","2","0","6140ef8d27499e70e8740918","2","0","","","","","","","","","","","","","[{""page_index"":0,""viewing_time"":12114}]","","","","","","","","","","","","","","","","","","","","","","","","","","","","","",""
"6587","","<p>Before you start with this game please answer the following three questions yourself. </p>
  <p>Through this game, we measure several aspects of your cognitive performance, such as reaction times, multi-tasking capabilities </p>
  <p>and the ability to assess the situation you are in.</p>
  <p></p>
  <p><b>How good do you usually are in such tasks?</b></p>","63","html-slider-response","6","252301","0.0-4.0-0.0","75","1","2025-07-16 08:34:26","1f75c3e559b7213887762d5229550c2b","93.108.112.26","Mozilla/5.0 (Windows NT 10.0; Win64; x64) AppleWebKit/537.36 (KHTML, like Gecko) Chrome/138.0.0.0 Safari/537.36","WebKit","Chrome","138.0.0.0","Windows","10.0","https://app.prolific.com/","en-US,en;q=0.9","6140ef8d27499e70e8740918","68764874ac79eee8c1d4cb03","687764061a6ea09268cbf29e","2","0","6140ef8d27499e70e8740918","2","0","2025-07-16T08:38:39.516Z","","","","","","","","","","","PreSkillQ","","50","","","","","","","","","","","","","","","","","","","","","","","","","","","","",""
"7454","","<div style=""width:500px;"">
  <p>How well do you think you will perform in this task compared to other participants?</p>
  </div>","57","html-slider-response","7","259756","0.0-4.0-1.0","75","1","2025-07-16 08:34:26","1f75c3e559b7213887762d5229550c2b","93.108.112.26","Mozilla/5.0 (Windows NT 10.0; Win64; x64) AppleWebKit/537.36 (KHTML, like Gecko) Chrome/138.0.0.0 Safari/537.36","WebKit","Chrome","138.0.0.0","Windows","10.0","https://app.prolific.com/","en-US,en;q=0.9","6140ef8d27499e70e8740918","68764874ac79eee8c1d4cb03","687764061a6ea09268cbf29e","2","0","6140ef8d27499e70e8740918","2","0","2025-07-16T08:38:46.971Z","","","","","","","","","","","PrePerfQ","","50","","","","","","","","","","","","","","","","","","","","","","","","","","","","",""
"2850","","<div style=""width:500px;"">
  <p>What best describes how you currently feel?</p>
  </div>","86","html-slider-response","8","262606","0.0-4.0-2.0","75","1","2025-07-16 08:34:26","1f75c3e559b7213887762d5229550c2b","93.108.112.26","Mozilla/5.0 (Windows NT 10.0; Win64; x64) AppleWebKit/537.36 (KHTML, like Gecko) Chrome/138.0.0.0 Safari/537.36","WebKit","Chrome","138.0.0.0","Windows","10.0","https://app.prolific.com/","en-US,en;q=0.9","6140ef8d27499e70e8740918","68764874ac79eee8c1d4cb03","687764061a6ea09268cbf29e","2","0","6140ef8d27499e70e8740918","2","0","2025-07-16T08:38:49.821Z","","","","","","","","","","","PreMotivationQ","","50","","","","","","","","","","","","","","","","","","","","","","","","","","","","",""
"","","","","ctl-task-cpt","9","300698","0.0-5.0-0.0","75","1","2025-07-16 08:34:26","1f75c3e559b7213887762d5229550c2b","93.108.112.26","Mozilla/5.0 (Windows NT 10.0; Win64; x64) AppleWebKit/537.36 (KHTML, like Gecko) Chrome/138.0.0.0 Safari/537.36","WebKit","Chrome","138.0.0.0","Windows","10.0","https://app.prolific.com/","en-US,en;q=0.9","6140ef8d27499e70e8740918","68764874ac79eee8c1d4cb03","687764061a6ea09268cbf29e","2","0","6140ef8d27499e70e8740918","2","0","2025-07-16T08:39:27.913Z","","","","","","","","","","","","","","win-only","1","g1:NE,g2:SW","1","1","0","263727.5","2946.4","7950.6","35071.6","1","4","4","6","2","4","4","4","0","0.030303030303030304","4628.4","3000","770","[""down"",""left""]","{""num_key_presses"":6,""num_perfect"":6,""num_errors"":0,""num_randdir"":0,""num_randdir_good_moves"":0,""num_whilered"":0,""num_whileblue"":0,""num_blue"":3,""num_good_moves"":6}","[410.57142857142856,413.47767857142856,0.2,410.57142857142856,414.47767857142856,103.9,421.57142857142856,420.47767857142856,204.1,603.5714285714286,462.47767857142856,304.1,975.5714285714286,515.4776785714286,409.1,1144.5714285714287,544.4776785714286,509.3,1144.5714285714287,544.4776785714286,614.2,1144.5714285714287,544.4776785714286,719.9,1144.5714285714287,544.4776785714286,824.5,1144.5714285714287,544.4776785714286,929.4,1144.5714285714287,544.4776785714286,1034.6,1144.5714285714287,544.4776785714286,1138.7,1144.5714285714287,544.4776785714286,1239.9,1144.5714285714287,544.4776785714286,1344.3,1144.5714285714287,544.4776785714286,1444.3,1144.5714285714287,544.4776785714286,1549.7,1144.5714285714287,544.4776785714286,1653.9,1144.5714285714287,544.4776785714286,1753.9,1144.5714285714287,544.4776785714286,1853.9,1144.5714285714287,544.4776785714286,1953.9,1144.5714285714287,544.4776785714286,2054.5,1144.5714285714287,544.4776785714286,2160.3,1144.5714285714287,544.4776785714286,2264.3,1144.5714285714287,544.4776785714286,2369.3,1144.5714285714287,544.4776785714286,2469.3,1144.5714285714287,544.4776785714286,2570,1144.5714285714287,544.4776785714286,2674.8,1144.5714285714287,544.4776785714286,2780,1144.5714285714287,544.4776785714286,2880,1144.5714285714287,544.4776785714286,2983.9,1144.5714285714287,544.4776785714286,3084,1144.5714285714287,544.4776785714286,3184,1144.5714285714287,544.4776785714286,3284.5,1144.5714285714287,544.4776785714286,3389.1,1144.5714285714287,544.4776785714286,3489.1,1144.5714285714287,544.4776785714286,3590.1,1144.5714285714287,544.4776785714286,3694.6,1144.5714285714287,544.4776785714286,3799.3,1144.5714285714287,544.4776785714286,3899.3,1144.5714285714287,544.4776785714286,3999.8,1094.5714285714287,530.4776785714286,4104,-297.42857142857144,677.4776785714286,4204.1,-345.42857142857144,706.4776785714286,4309.1,-223.42857142857144,812.4776785714286,4414.2,-91.42857142857143,740.4776785714286,4520,33.57142857142857,725.4776785714286,4624.8,44.57142857142857,729.4776785714286,4729.1,148.57142857142856,741.4776785714286,4829.4,553.5714285714286,699.4776785714286,4933.9]","[1615.8,1615.8,1000,0,615.8,""smooth"",""down"",""down"",""good_move"",4431.4,2815.4,2492.7,1616.1,322.6,""smooth"",""down"",""down"",""good_move"",7335.6,2903.9,2619.9,4431.7,284,""smooth"",""down"",""down"",""good_move"",14479.6,7143.9,2970.1,11159.9,349.6,""smooth"",""left"",""left"",""good_move"",21295.4,6815.5,2125.5,18819.8,350.1,""smooth"",""left"",""left"",""good_move"",27031.4,5735.8,1827.7,24855.7,348,""smooth"",""left"",""left"",""good_move""]","",""
"2957","","<div style=""width:500px;"">
  <p>What determined the result of this run?</p>
  </div>","100","html-slider-response","10","303655","0.0-5.0-1.0","75","1","2025-07-16 08:34:26","1f75c3e559b7213887762d5229550c2b","93.108.112.26","Mozilla/5.0 (Windows NT 10.0; Win64; x64) AppleWebKit/537.36 (KHTML, like Gecko) Chrome/138.0.0.0 Safari/537.36","WebKit","Chrome","138.0.0.0","Windows","10.0","https://app.prolific.com/","en-US,en;q=0.9","6140ef8d27499e70e8740918","68764874ac79eee8c1d4cb03","687764061a6ea09268cbf29e","2","0","6140ef8d27499e70e8740918","2","0","2025-07-16T08:39:30.870Z","","","","","","","","","","","AttribQ","","50","","","","","","","","","","","","","","","","","","","","","","","","","","","","",""
"1931","","<div style=""width:500px;"">
  <p>How much control did you have over the ball?</p>
  </div>","100","html-slider-response","11","305587","0.0-5.0-2.0","75","1","2025-07-16 08:34:26","1f75c3e559b7213887762d5229550c2b","93.108.112.26","Mozilla/5.0 (Windows NT 10.0; Win64; x64) AppleWebKit/537.36 (KHTML, like Gecko) Chrome/138.0.0.0 Safari/537.36","WebKit","Chrome","138.0.0.0","Windows","10.0","https://app.prolific.com/","en-US,en;q=0.9","6140ef8d27499e70e8740918","68764874ac79eee8c1d4cb03","687764061a6ea09268cbf29e","2","0","6140ef8d27499e70e8740918","2","0","2025-07-16T08:39:32.802Z","","","","","","","","","","","ControlQ","","50","","","","","","","","","","","","","","","","","","","","","","","","","","","","",""
"3156","","<div style=""width:500px;"">
  <p>How would you describe your current emotional state?</p>
  </div>","19","html-slider-response","12","308744","0.0-5.0-3.0","75","1","2025-07-16 08:34:26","1f75c3e559b7213887762d5229550c2b","93.108.112.26","Mozilla/5.0 (Windows NT 10.0; Win64; x64) AppleWebKit/537.36 (KHTML, like Gecko) Chrome/138.0.0.0 Safari/537.36","WebKit","Chrome","138.0.0.0","Windows","10.0","https://app.prolific.com/","en-US,en;q=0.9","6140ef8d27499e70e8740918","68764874ac79eee8c1d4cb03","687764061a6ea09268cbf29e","2","0","6140ef8d27499e70e8740918","2","0","2025-07-16T08:39:35.959Z","","","","","","","","","","","StressQ","","50","","","","","","","","","","","","","","","","","","","","","","","","","","","","",""
"2347","","<div style=""width:500px;"">
  <p>What best describes how you currently feel?</p>
  </div>","100","html-slider-response","13","311092","0.0-5.0-4.0","75","1","2025-07-16 08:34:26","1f75c3e559b7213887762d5229550c2b","93.108.112.26","Mozilla/5.0 (Windows NT 10.0; Win64; x64) AppleWebKit/537.36 (KHTML, like Gecko) Chrome/138.0.0.0 Safari/537.36","WebKit","Chrome","138.0.0.0","Windows","10.0","https://app.prolific.com/","en-US,en;q=0.9","6140ef8d27499e70e8740918","68764874ac79eee8c1d4cb03","687764061a6ea09268cbf29e","2","0","6140ef8d27499e70e8740918","2","0","2025-07-16T08:39:38.307Z","","","","","","","","","","","MotivationQ","","50","","","","","","","","","","","","","","","","","","","","","","","","","","","","",""
"","","","","ctl-task-cpt","14","336489","0.0-5.0-0.1","75","1","2025-07-16 08:34:26","1f75c3e559b7213887762d5229550c2b","93.108.112.26","Mozilla/5.0 (Windows NT 10.0; Win64; x64) AppleWebKit/537.36 (KHTML, like Gecko) Chrome/138.0.0.0 Safari/537.36","WebKit","Chrome","138.0.0.0","Windows","10.0","https://app.prolific.com/","en-US,en;q=0.9","6140ef8d27499e70e8740918","68764874ac79eee8c1d4cb03","687764061a6ea09268cbf29e","2","0","6140ef8d27499e70e8740918","2","0","2025-07-16T08:40:03.704Z","","","","","","","","","","","","","","win-only","0","g1:NW,g2:SE","0.9","2","0","312198.9","1009.9","6010.7","22380.1","1","4","8","6","2","8","8","12","4","0.09090909090909091","924.2","3000","1010","[""down"",""right""]","{""num_key_presses"":6,""num_perfect"":6,""num_errors"":0,""num_randdir"":0,""num_randdir_good_moves"":0,""num_whilered"":0,""num_whileblue"":0,""num_blue"":0,""num_good_moves"":6}","[425.57142857142856,409.47767857142856,0,425.57142857142856,409.47767857142856,101,425.57142857142856,411.47767857142856,205.1,425.57142857142856,411.47767857142856,306.2,407.57142857142856,444.47767857142856,410.9,391.57142857142856,431.47767857142856,515.7,557.5714285714286,532.4776785714286,621.5,773.5714285714286,687.4776785714286,726.1,813.5714285714286,739.4776785714286,830.6,797.5714285714286,752.4776785714286,930.6,806.5714285714286,747.4776785714286,1031.4,1080.5714285714287,631.4776785714286,1135.4,1093.5714285714287,622.4776785714286,1235.4,1093.5714285714287,622.4776785714286,1335.7,1093.5714285714287,622.4776785714286,1440.4,1093.5714285714287,622.4776785714286,1540.8,1093.5714285714287,622.4776785714286,1641.1,1093.5714285714287,622.4776785714286,1745.7,1093.5714285714287,622.4776785714286,1845.9,1093.5714285714287,622.4776785714286,1946,1093.5714285714287,622.4776785714286,2051.2,1093.5714285714287,622.4776785714286,2155.5,1093.5714285714287,622.4776785714286,2255.6,1093.5714285714287,622.4776785714286,2360.4,1093.5714285714287,622.4776785714286,2460.4,1093.5714285714287,622.4776785714286,2560.4,1093.5714285714287,622.4776785714286,2660.4,1093.5714285714287,622.4776785714286,2765.3,1093.5714285714287,622.4776785714286,2865.9,1093.5714285714287,622.4776785714286,2971,1093.5714285714287,622.4776785714286,3071,1093.5714285714287,622.4776785714286,3171.1,1093.5714285714287,622.4776785714286,3271.4,1093.5714285714287,622.4776785714286,3375.4,1093.5714285714287,622.4776785714286,3475.5,1093.5714285714287,622.4776785714286,3580.3,1093.5714285714287,622.4776785714286,3680.4,1093.5714285714287,622.4776785714286,3785.6,1093.5714285714287,622.4776785714286,3890.1,1093.5714285714287,622.4776785714286,3991.1,1093.5714285714287,622.4776785714286,4096.1,1093.5714285714287,622.4776785714286,4200.3,1093.5714285714287,622.4776785714286,4305.9,1093.5714285714287,622.4776785714286,4410.2,1093.5714285714287,622.4776785714286,4511.1,1093.5714285714287,622.4776785714286,4615.3,1093.5714285714287,622.4776785714286,4715.3,1093.5714285714287,622.4776785714286,4815.4,1093.5714285714287,622.4776785714286,4920.2]","[1380,1380,1000,0,380,""smooth"",""down"",""down"",""good_move"",4403.6,3023.3,2671.6,1380.3,351.7,""smooth"",""down"",""down"",""good_move"",6883.6,2479.9,2144.5,4403.7,335.4,""smooth"",""right"",""right"",""good_move"",9795.7,2911.8,2545.2,6883.9,366.6,""smooth"",""down"",""down"",""good_move"",13627.7,3831.9,3539.9,9795.8,292,""smooth"",""right"",""right"",""good_move"",16283.6,2655.9,2358.5,13627.8,297.4,""smooth"",""right"",""right"",""good_move""]","",""
"4875","","<div style=""width:500px;"">
  <p>What determined the result of this run?</p>
  </div>","100","html-slider-response","15","341365","0.0-5.0-1.1","75","1","2025-07-16 08:34:26","1f75c3e559b7213887762d5229550c2b","93.108.112.26","Mozilla/5.0 (Windows NT 10.0; Win64; x64) AppleWebKit/537.36 (KHTML, like Gecko) Chrome/138.0.0.0 Safari/537.36","WebKit","Chrome","138.0.0.0","Windows","10.0","https://app.prolific.com/","en-US,en;q=0.9","6140ef8d27499e70e8740918","68764874ac79eee8c1d4cb03","687764061a6ea09268cbf29e","2","0","6140ef8d27499e70e8740918","2","0","2025-07-16T08:40:08.580Z","","","","","","","","","","","AttribQ","","50","","","","","","","","","","","","","","","","","","","","","","","","","","","","",""
"1842","","<div style=""width:500px;"">
  <p>How much control did you have over the ball?</p>
  </div>","100","html-slider-response","16","343208","0.0-5.0-2.1","75","1","2025-07-16 08:34:26","1f75c3e559b7213887762d5229550c2b","93.108.112.26","Mozilla/5.0 (Windows NT 10.0; Win64; x64) AppleWebKit/537.36 (KHTML, like Gecko) Chrome/138.0.0.0 Safari/537.36","WebKit","Chrome","138.0.0.0","Windows","10.0","https://app.prolific.com/","en-US,en;q=0.9","6140ef8d27499e70e8740918","68764874ac79eee8c1d4cb03","687764061a6ea09268cbf29e","2","0","6140ef8d27499e70e8740918","2","0","2025-07-16T08:40:10.423Z","","","","","","","","","","","ControlQ","","50","","","","","","","","","","","","","","","","","","","","","","","","","","","","",""
"2187","","<div style=""width:500px;"">
  <p>How would you describe your current emotional state?</p>
  </div>","4","html-slider-response","17","345396","0.0-5.0-3.1","75","1","2025-07-16 08:34:26","1f75c3e559b7213887762d5229550c2b","93.108.112.26","Mozilla/5.0 (Windows NT 10.0; Win64; x64) AppleWebKit/537.36 (KHTML, like Gecko) Chrome/138.0.0.0 Safari/537.36","WebKit","Chrome","138.0.0.0","Windows","10.0","https://app.prolific.com/","en-US,en;q=0.9","6140ef8d27499e70e8740918","68764874ac79eee8c1d4cb03","687764061a6ea09268cbf29e","2","0","6140ef8d27499e70e8740918","2","0","2025-07-16T08:40:12.611Z","","","","","","","","","","","StressQ","","50","","","","","","","","","","","","","","","","","","","","","","","","","","","","",""
"1446","","<div style=""width:500px;"">
  <p>What best describes how you currently feel?</p>
  </div>","100","html-slider-response","18","346843","0.0-5.0-4.1","75","1","2025-07-16 08:34:26","1f75c3e559b7213887762d5229550c2b","93.108.112.26","Mozilla/5.0 (Windows NT 10.0; Win64; x64) AppleWebKit/537.36 (KHTML, like Gecko) Chrome/138.0.0.0 Safari/537.36","WebKit","Chrome","138.0.0.0","Windows","10.0","https://app.prolific.com/","en-US,en;q=0.9","6140ef8d27499e70e8740918","68764874ac79eee8c1d4cb03","687764061a6ea09268cbf29e","2","0","6140ef8d27499e70e8740918","2","0","2025-07-16T08:40:14.058Z","","","","","","","","","","","MotivationQ","","50","","","","","","","","","","","","","","","","","","","","","","","","","","","","",""
"","","","","ctl-task-cpt","19","383385","0.0-5.0-0.2","75","1","2025-07-16 08:34:26","1f75c3e559b7213887762d5229550c2b","93.108.112.26","Mozilla/5.0 (Windows NT 10.0; Win64; x64) AppleWebKit/537.36 (KHTML, like Gecko) Chrome/138.0.0.0 Safari/537.36","WebKit","Chrome","138.0.0.0","Windows","10.0","https://app.prolific.com/","en-US,en;q=0.9","6140ef8d27499e70e8740918","68764874ac79eee8c1d4cb03","687764061a6ea09268cbf29e","2","0","6140ef8d27499e70e8740918","2","0","2025-07-16T08:40:50.600Z","","","","","","","","","","","","","","win-only","2","g1:SE,g2:NW","0.8","3","0","347949.6","929.8","5930.6","33526.6","1","4","4","6","2","4","4","16","12","0.12121212121212122","733.3","3000","555","[""left"",""up""]","{""num_key_presses"":8,""num_perfect"":7,""num_errors"":0,""num_randdir"":1,""num_randdir_good_moves"":0,""num_whilered"":0,""num_whileblue"":0,""num_blue"":2,""num_good_moves"":7}","[408.57142857142856,411.47767857142856,0.1,408.57142857142856,411.47767857142856,100.6,408.57142857142856,411.47767857142856,200.9,416.57142857142856,426.47767857142856,301,435.57142857142856,445.47767857142856,405.8,232.57142857142856,261.47767857142856,510.8,78.57142857142857,90.47767857142857,615.6,54.57142857142857,54.47767857142857,715.7,54.57142857142857,54.47767857142857,816.2,415.57142857142856,169.47767857142856,920.8,893.5714285714286,192.47767857142856,1025.7,905.5714285714286,191.47767857142856,1130.9,905.5714285714286,191.47767857142856,1235.7,905.5714285714286,191.47767857142856,1340.5,905.5714285714286,191.47767857142856,1440.9,905.5714285714286,191.47767857142856,1541.3,905.5714285714286,191.47767857142856,1646,905.5714285714286,191.47767857142856,1746,905.5714285714286,191.47767857142856,1846.1,905.5714285714286,191.47767857142856,1946.2,905.5714285714286,191.47767857142856,2050.5,905.5714285714286,191.47767857142856,2150.6,905.5714285714286,191.47767857142856,2250.6,905.5714285714286,191.47767857142856,2350.6,905.5714285714286,191.47767857142856,2450.6,905.5714285714286,191.47767857142856,2550.9,905.5714285714286,191.47767857142856,2655.7,905.5714285714286,191.47767857142856,2760.8,905.5714285714286,191.47767857142856,2861,905.5714285714286,191.47767857142856,2965.9,905.5714285714286,191.47767857142856,3066,905.5714285714286,191.47767857142856,3170.7,905.5714285714286,191.47767857142856,3275.6,905.5714285714286,191.47767857142856,3375.6,905.5714285714286,191.47767857142856,3476.1,905.5714285714286,191.47767857142856,3576.1,905.5714285714286,191.47767857142856,3680.5,905.5714285714286,191.47767857142856,3781.1,905.5714285714286,191.47767857142856,3885.7,905.5714285714286,191.47767857142856,3986,905.5714285714286,191.47767857142856,4090.4,905.5714285714286,191.47767857142856,4190.4,905.5714285714286,191.47767857142856,4290.4,905.5714285714286,191.47767857142856,4390.8,905.5714285714286,191.47767857142856,4490.9,905.5714285714286,191.47767857142856,4591,905.5714285714286,191.47767857142856,4695.6,905.5714285714286,191.47767857142856,4796.2,905.5714285714286,191.47767857142856,4900.6]","[1301.1,1301.1,1000,0,301.1,""smooth"",""up"",""up"",""good_move"",3948.9,2647.7,2363.3,1301.2,284.4,""smooth"",""up"",""up"",""good_move"",13716.6,9767.6,2377,11000.1,339.5,""smooth"",""up"",""up"",""good_move"",16868.7,3152,2815.2,13716.7,336.8,""smooth"",""left"",""left"",""good_move"",20284.7,3415.7,3102.1,16869,313.6,""oops"",""left"",""right"",""bad_move"",22948.5,2663.6,2329.6,20284.9,334,""smooth"",""left"",""left"",""good_move"",25244.7,2296.1,2006.6,22948.7,289.4,""smooth"",""left"",""left"",""good_move"",27508.4,2263.6,1967.6,25244.8,296,""smooth"",""left"",""left"",""good_move""]","",""
"1849","","<div style=""width:500px;"">
  <p>What determined the result of this run?</p>
  </div>","91","html-slider-response","20","385235","0.0-5.0-1.2","75","1","2025-07-16 08:34:26","1f75c3e559b7213887762d5229550c2b","93.108.112.26","Mozilla/5.0 (Windows NT 10.0; Win64; x64) AppleWebKit/537.36 (KHTML, like Gecko) Chrome/138.0.0.0 Safari/537.36","WebKit","Chrome","138.0.0.0","Windows","10.0","https://app.prolific.com/","en-US,en;q=0.9","6140ef8d27499e70e8740918","68764874ac79eee8c1d4cb03","687764061a6ea09268cbf29e","2","0","6140ef8d27499e70e8740918","2","0","2025-07-16T08:40:52.450Z","","","","","","","","","","","AttribQ","","50","","","","","","","","","","","","","","","","","","","","","","","","","","","","",""
"1682","","<div style=""width:500px;"">
  <p>How much control did you have over the ball?</p>
  </div>","88","html-slider-response","21","386918","0.0-5.0-2.2","75","1","2025-07-16 08:34:26","1f75c3e559b7213887762d5229550c2b","93.108.112.26","Mozilla/5.0 (Windows NT 10.0; Win64; x64) AppleWebKit/537.36 (KHTML, like Gecko) Chrome/138.0.0.0 Safari/537.36","WebKit","Chrome","138.0.0.0","Windows","10.0","https://app.prolific.com/","en-US,en;q=0.9","6140ef8d27499e70e8740918","68764874ac79eee8c1d4cb03","687764061a6ea09268cbf29e","2","0","6140ef8d27499e70e8740918","2","0","2025-07-16T08:40:54.133Z","","","","","","","","","","","ControlQ","","50","","","","","","","","","","","","","","","","","","","","","","","","","","","","",""
"1998","","<div style=""width:500px;"">
  <p>How would you describe your current emotional state?</p>
  </div>","4","html-slider-response","22","388917","0.0-5.0-3.2","75","1","2025-07-16 08:34:26","1f75c3e559b7213887762d5229550c2b","93.108.112.26","Mozilla/5.0 (Windows NT 10.0; Win64; x64) AppleWebKit/537.36 (KHTML, like Gecko) Chrome/138.0.0.0 Safari/537.36","WebKit","Chrome","138.0.0.0","Windows","10.0","https://app.prolific.com/","en-US,en;q=0.9","6140ef8d27499e70e8740918","68764874ac79eee8c1d4cb03","687764061a6ea09268cbf29e","2","0","6140ef8d27499e70e8740918","2","0","2025-07-16T08:40:56.132Z","","","","","","","","","","","StressQ","","50","","","","","","","","","","","","","","","","","","","","","","","","","","","","",""
"1475","","<div style=""width:500px;"">
  <p>What best describes how you currently feel?</p>
  </div>","100","html-slider-response","23","390393","0.0-5.0-4.2","75","1","2025-07-16 08:34:26","1f75c3e559b7213887762d5229550c2b","93.108.112.26","Mozilla/5.0 (Windows NT 10.0; Win64; x64) AppleWebKit/537.36 (KHTML, like Gecko) Chrome/138.0.0.0 Safari/537.36","WebKit","Chrome","138.0.0.0","Windows","10.0","https://app.prolific.com/","en-US,en;q=0.9","6140ef8d27499e70e8740918","68764874ac79eee8c1d4cb03","687764061a6ea09268cbf29e","2","0","6140ef8d27499e70e8740918","2","0","2025-07-16T08:40:57.608Z","","","","","","","","","","","MotivationQ","","50","","","","","","","","","","","","","","","","","","","","","","","","","","","","",""
"","","","","ctl-task-cpt","24","424300","0.0-5.0-0.3","75","1","2025-07-16 08:34:26","1f75c3e559b7213887762d5229550c2b","93.108.112.26","Mozilla/5.0 (Windows NT 10.0; Win64; x64) AppleWebKit/537.36 (KHTML, like Gecko) Chrome/138.0.0.0 Safari/537.36","WebKit","Chrome","138.0.0.0","Windows","10.0","https://app.prolific.com/","en-US,en;q=0.9","6140ef8d27499e70e8740918","68764874ac79eee8c1d4cb03","687764061a6ea09268cbf29e","2","0","6140ef8d27499e70e8740918","2","0","2025-07-16T08:41:31.515Z","","","","","","","","","","","","","","win-only","0","g1:NW,g2:SE","0.7","4","0","391499.3","748.2","5751.1","30890.1","1","4","8","6","2","8","8","24","16","0.18181818181818182","744.2","3000","1230","[""down"",""right""]","{""num_key_presses"":6,""num_perfect"":5,""num_errors"":0,""num_randdir"":1,""num_randdir_good_moves"":1,""num_whilered"":0,""num_whileblue"":0,""num_blue"":3,""num_good_moves"":6}","[410.57142857142856,421.47767857142856,0.1,410.57142857142856,421.47767857142856,101.9,410.57142857142856,421.47767857142856,202.5,314.57142857142856,325.47767857142856,307.5,241.57142857142856,273.47767857142856,412.5,517.5714285714286,566.4776785714286,516.9,711.5714285714286,709.4776785714286,617.5,736.5714285714286,727.4776785714286,722.2,748.5714285714286,729.4776785714286,822.4,1137.5714285714287,615.4776785714286,927.7,1328.5714285714287,527.4776785714286,1032.5,1328.5714285714287,527.4776785714286,1132.8,1328.5714285714287,527.4776785714286,1237.7,1328.5714285714287,527.4776785714286,1342.4,1328.5714285714287,527.4776785714286,1447,1328.5714285714287,527.4776785714286,1552.2,1328.5714285714287,527.4776785714286,1652.4,1328.5714285714287,527.4776785714286,1757.5,1328.5714285714287,527.4776785714286,1862.8,1328.5714285714287,527.4776785714286,1967,1328.5714285714287,527.4776785714286,2067.1,1328.5714285714287,527.4776785714286,2167.5,1328.5714285714287,527.4776785714286,2271.9,1328.5714285714287,527.4776785714286,2371.9,1328.5714285714287,527.4776785714286,2472.5,1328.5714285714287,527.4776785714286,2577.3,1328.5714285714287,527.4776785714286,2682.8,1328.5714285714287,527.4776785714286,2782.9,1328.5714285714287,527.4776785714286,2888.1,1328.5714285714287,527.4776785714286,2991.8,1328.5714285714287,527.4776785714286,3092.7,1328.5714285714287,527.4776785714286,3197.5,1328.5714285714287,527.4776785714286,3299,1328.5714285714287,527.4776785714286,3402.8,1328.5714285714287,527.4776785714286,3507.6,1328.5714285714287,527.4776785714286,3612.1,1328.5714285714287,527.4776785714286,3716.8,1328.5714285714287,527.4776785714286,3816.9,1328.5714285714287,527.4776785714286,3917.2,1328.5714285714287,527.4776785714286,4017.4,1328.5714285714287,527.4776785714286,4117.4,1328.5714285714287,527.4776785714286,4222.1,1328.5714285714287,527.4776785714286,4322.1,1328.5714285714287,527.4776785714286,4422.3,1328.5714285714287,527.4776785714286,4527.1,1328.5714285714287,527.4776785714286,4632.5,1328.5714285714287,527.4776785714286,4732.7,1328.5714285714287,527.4776785714286,4837.6,1328.5714285714287,527.4776785714286,4942]","[5522.5,5522.5,3254.9,2009.8,257.8,""smooth"",""down"",""down"",""good_move"",7442.1,1919.4,1585.7,5522.7,333.7,""oops"",""down"",""right"",""good_move"",10306,2863.8,2543.4,7442.2,320.4,""smooth"",""down"",""down"",""good_move"",13130.2,2824.1,2515.8,10306.1,308.3,""smooth"",""down"",""down"",""good_move"",22642,9511.6,2641.4,19724,276.6,""smooth"",""right"",""right"",""good_move"",25050,2407.8,2103.1,22642.2,304.7,""smooth"",""right"",""right"",""good_move""]","",""
"3853","","<div style=""width:500px;"">
  <p>What determined the result of this run?</p>
  </div>","78","html-slider-response","25","428153","0.0-5.0-1.3","75","1","2025-07-16 08:34:26","1f75c3e559b7213887762d5229550c2b","93.108.112.26","Mozilla/5.0 (Windows NT 10.0; Win64; x64) AppleWebKit/537.36 (KHTML, like Gecko) Chrome/138.0.0.0 Safari/537.36","WebKit","Chrome","138.0.0.0","Windows","10.0","https://app.prolific.com/","en-US,en;q=0.9","6140ef8d27499e70e8740918","68764874ac79eee8c1d4cb03","687764061a6ea09268cbf29e","2","0","6140ef8d27499e70e8740918","2","0","2025-07-16T08:41:35.368Z","","","","","","","","","","","AttribQ","","50","","","","","","","","","","","","","","","","","","","","","","","","","","","","",""
"1593","","<div style=""width:500px;"">
  <p>How much control did you have over the ball?</p>
  </div>","82","html-slider-response","26","429747","0.0-5.0-2.3","75","1","2025-07-16 08:34:26","1f75c3e559b7213887762d5229550c2b","93.108.112.26","Mozilla/5.0 (Windows NT 10.0; Win64; x64) AppleWebKit/537.36 (KHTML, like Gecko) Chrome/138.0.0.0 Safari/537.36","WebKit","Chrome","138.0.0.0","Windows","10.0","https://app.prolific.com/","en-US,en;q=0.9","6140ef8d27499e70e8740918","68764874ac79eee8c1d4cb03","687764061a6ea09268cbf29e","2","0","6140ef8d27499e70e8740918","2","0","2025-07-16T08:41:36.962Z","","","","","","","","","","","ControlQ","","50","","","","","","","","","","","","","","","","","","","","","","","","","","","","",""
"1924","","<div style=""width:500px;"">
  <p>How would you describe your current emotional state?</p>
  </div>","0","html-slider-response","27","431672","0.0-5.0-3.3","75","1","2025-07-16 08:34:26","1f75c3e559b7213887762d5229550c2b","93.108.112.26","Mozilla/5.0 (Windows NT 10.0; Win64; x64) AppleWebKit/537.36 (KHTML, like Gecko) Chrome/138.0.0.0 Safari/537.36","WebKit","Chrome","138.0.0.0","Windows","10.0","https://app.prolific.com/","en-US,en;q=0.9","6140ef8d27499e70e8740918","68764874ac79eee8c1d4cb03","687764061a6ea09268cbf29e","2","0","6140ef8d27499e70e8740918","2","0","2025-07-16T08:41:38.887Z","","","","","","","","","","","StressQ","","50","","","","","","","","","","","","","","","","","","","","","","","","","","","","",""
"1314","","<div style=""width:500px;"">
  <p>What best describes how you currently feel?</p>
  </div>","100","html-slider-response","28","432987","0.0-5.0-4.3","75","1","2025-07-16 08:34:26","1f75c3e559b7213887762d5229550c2b","93.108.112.26","Mozilla/5.0 (Windows NT 10.0; Win64; x64) AppleWebKit/537.36 (KHTML, like Gecko) Chrome/138.0.0.0 Safari/537.36","WebKit","Chrome","138.0.0.0","Windows","10.0","https://app.prolific.com/","en-US,en;q=0.9","6140ef8d27499e70e8740918","68764874ac79eee8c1d4cb03","687764061a6ea09268cbf29e","2","0","6140ef8d27499e70e8740918","2","0","2025-07-16T08:41:40.202Z","","","","","","","","","","","MotivationQ","","50","","","","","","","","","","","","","","","","","","","","","","","","","","","","",""
"","","","","ctl-task-cpt","29","460020","0.0-5.0-0.4","75","1","2025-07-16 08:34:26","1f75c3e559b7213887762d5229550c2b","93.108.112.26","Mozilla/5.0 (Windows NT 10.0; Win64; x64) AppleWebKit/537.36 (KHTML, like Gecko) Chrome/138.0.0.0 Safari/537.36","WebKit","Chrome","138.0.0.0","Windows","10.0","https://app.prolific.com/","en-US,en;q=0.9","6140ef8d27499e70e8740918","68764874ac79eee8c1d4cb03","687764061a6ea09268cbf29e","2","0","6140ef8d27499e70e8740918","2","0","2025-07-16T08:42:07.235Z","","","","","","","","","","","","","","win-only","2","g1:SE,g2:NW","0.6","5","0","434093.6","874.9","5876.1","24015.3","1","4","4","6","2","4","4","28","24","0.21212121212121213","806.9","3000","1230","[""left"",""up""]","{""num_key_presses"":6,""num_perfect"":5,""num_errors"":0,""num_randdir"":1,""num_randdir_good_moves"":1,""num_whilered"":0,""num_whileblue"":0,""num_blue"":1,""num_good_moves"":6}","[420.57142857142856,423.47767857142856,0.1,420.57142857142856,423.47767857142856,100.4,420.57142857142856,423.47767857142856,200.4,413.57142857142856,419.47767857142856,300.9,453.57142857142856,460.47767857142856,405.4,273.57142857142856,302.47767857142856,505.6,161.57142857142856,179.47767857142856,605.7,106.57142857142857,125.47767857142857,710.4,87.57142857142857,94.47767857142857,810.8,90.57142857142857,95.47767857142857,915.3,721.5714285714286,197.47767857142856,1015.5,1014.5714285714286,242.47767857142856,1115.5,1014.5714285714286,242.47767857142856,1215.7,1014.5714285714286,242.47767857142856,1315.9,1014.5714285714286,242.47767857142856,1420.5,1014.5714285714286,242.47767857142856,1520.8,1014.5714285714286,242.47767857142856,1626,1014.5714285714286,242.47767857142856,1730.3,1014.5714285714286,242.47767857142856,1830.7,1014.5714285714286,242.47767857142856,1937.1,1014.5714285714286,242.47767857142856,2040.6,1014.5714285714286,242.47767857142856,2145.7,1014.5714285714286,242.47767857142856,2246.1,1014.5714285714286,242.47767857142856,2350.7,1014.5714285714286,242.47767857142856,2455.4,1014.5714285714286,242.47767857142856,2556,1014.5714285714286,242.47767857142856,2656,1014.5714285714286,242.47767857142856,2760.5,1014.5714285714286,242.47767857142856,2860.5,1014.5714285714286,242.47767857142856,2960.6,1014.5714285714286,242.47767857142856,3065.7,1014.5714285714286,242.47767857142856,3165.7,1014.5714285714286,242.47767857142856,3270.4,1014.5714285714286,242.47767857142856,3371.2,1014.5714285714286,242.47767857142856,3476.2,1014.5714285714286,242.47767857142856,3580.2,1014.5714285714286,242.47767857142856,3681,1014.5714285714286,242.47767857142856,3785.9,1014.5714285714286,242.47767857142856,3890.7,1014.5714285714286,242.47767857142856,3996.1,1014.5714285714286,242.47767857142856,4101.2,1014.5714285714286,242.47767857142856,4205.4,1014.5714285714286,242.47767857142856,4305.4,1014.5714285714286,242.47767857142856,4411.2,1014.5714285714286,242.47767857142856,4515.7,1014.5714285714286,242.47767857142856,4615.7,1014.5714285714286,242.47767857142856,4716,1014.5714285714286,242.47767857142856,4821.1,1014.5714285714286,242.47767857142856,4925.9]","[1338.6,1338.6,1000,0,338.6,""smooth"",""up"",""up"",""good_move"",4898.6,3559.7,3315.3,1338.9,244.4,""smooth"",""up"",""up"",""good_move"",7474.4,2575.6,2280.6,4898.8,295,""oops"",""left"",""up"",""good_move"",10274.4,2799.8,2532.5,7474.6,267.3,""smooth"",""left"",""left"",""good_move"",16178.4,5903.8,1991.5,13890,296.9,""smooth"",""left"",""left"",""good_move"",18050.5,1872,1501.6,16178.5,370.4,""smooth"",""left"",""left"",""good_move""]","",""
"1668","","<div style=""width:500px;"">
  <p>What determined the result of this run?</p>
  </div>","81","html-slider-response","30","461688","0.0-5.0-1.4","75","1","2025-07-16 08:34:26","1f75c3e559b7213887762d5229550c2b","93.108.112.26","Mozilla/5.0 (Windows NT 10.0; Win64; x64) AppleWebKit/537.36 (KHTML, like Gecko) Chrome/138.0.0.0 Safari/537.36","WebKit","Chrome","138.0.0.0","Windows","10.0","https://app.prolific.com/","en-US,en;q=0.9","6140ef8d27499e70e8740918","68764874ac79eee8c1d4cb03","687764061a6ea09268cbf29e","2","0","6140ef8d27499e70e8740918","2","0","2025-07-16T08:42:08.903Z","","","","","","","","","","","AttribQ","","50","","","","","","","","","","","","","","","","","","","","","","","","","","","","",""
"1299","","<div style=""width:500px;"">
  <p>How much control did you have over the ball?</p>
  </div>","81","html-slider-response","31","462988","0.0-5.0-2.4","75","1","2025-07-16 08:34:26","1f75c3e559b7213887762d5229550c2b","93.108.112.26","Mozilla/5.0 (Windows NT 10.0; Win64; x64) AppleWebKit/537.36 (KHTML, like Gecko) Chrome/138.0.0.0 Safari/537.36","WebKit","Chrome","138.0.0.0","Windows","10.0","https://app.prolific.com/","en-US,en;q=0.9","6140ef8d27499e70e8740918","68764874ac79eee8c1d4cb03","687764061a6ea09268cbf29e","2","0","6140ef8d27499e70e8740918","2","0","2025-07-16T08:42:10.203Z","","","","","","","","","","","ControlQ","","50","","","","","","","","","","","","","","","","","","","","","","","","","","","","",""
"1820","","<div style=""width:500px;"">
  <p>How would you describe your current emotional state?</p>
  </div>","0","html-slider-response","32","464809","0.0-5.0-3.4","75","1","2025-07-16 08:34:26","1f75c3e559b7213887762d5229550c2b","93.108.112.26","Mozilla/5.0 (Windows NT 10.0; Win64; x64) AppleWebKit/537.36 (KHTML, like Gecko) Chrome/138.0.0.0 Safari/537.36","WebKit","Chrome","138.0.0.0","Windows","10.0","https://app.prolific.com/","en-US,en;q=0.9","6140ef8d27499e70e8740918","68764874ac79eee8c1d4cb03","687764061a6ea09268cbf29e","2","0","6140ef8d27499e70e8740918","2","0","2025-07-16T08:42:12.024Z","","","","","","","","","","","StressQ","","50","","","","","","","","","","","","","","","","","","","","","","","","","","","","",""
"1153","","<div style=""width:500px;"">
  <p>What best describes how you currently feel?</p>
  </div>","100","html-slider-response","33","465962","0.0-5.0-4.4","75","1","2025-07-16 08:34:26","1f75c3e559b7213887762d5229550c2b","93.108.112.26","Mozilla/5.0 (Windows NT 10.0; Win64; x64) AppleWebKit/537.36 (KHTML, like Gecko) Chrome/138.0.0.0 Safari/537.36","WebKit","Chrome","138.0.0.0","Windows","10.0","https://app.prolific.com/","en-US,en;q=0.9","6140ef8d27499e70e8740918","68764874ac79eee8c1d4cb03","687764061a6ea09268cbf29e","2","0","6140ef8d27499e70e8740918","2","0","2025-07-16T08:42:13.177Z","","","","","","","","","","","MotivationQ","","50","","","","","","","","","","","","","","","","","","","","","","","","","","","","",""
"","","","","ctl-task-cpt","34","505920","0.0-5.0-0.5","75","1","2025-07-16 08:34:26","1f75c3e559b7213887762d5229550c2b","93.108.112.26","Mozilla/5.0 (Windows NT 10.0; Win64; x64) AppleWebKit/537.36 (KHTML, like Gecko) Chrome/138.0.0.0 Safari/537.36","WebKit","Chrome","138.0.0.0","Windows","10.0","https://app.prolific.com/","en-US,en;q=0.9","6140ef8d27499e70e8740918","68764874ac79eee8c1d4cb03","687764061a6ea09268cbf29e","2","0","6140ef8d27499e70e8740918","2","0","2025-07-16T08:42:53.135Z","","","","","","","","","","","","","","win-only","2","g1:SE,g2:NW","0.5","6","0","467068.9","763.5","5765.6","36940.6","1","4","8","6","2","-8","-9","19","28","0.14393939393939395","567.2","3000","-3015","[""left"",""up""]","{""num_key_presses"":11,""num_perfect"":5,""num_errors"":1,""num_randdir"":5,""num_randdir_good_moves"":3,""num_whilered"":0,""num_whileblue"":1,""num_blue"":1,""num_good_moves"":8}","[413.57142857142856,413.47767857142856,0.2,413.57142857142856,413.47767857142856,102,412.57142857142856,413.47767857142856,202.2,336.57142857142856,348.47767857142856,307.1,160.57142857142856,201.47767857142856,407.4,65.57142857142857,79.47767857142857,512.5,66.57142857142857,74.47767857142857,616.6,313.57142857142856,151.47767857142856,716.8,993.5714285714286,284.47767857142856,816.8,1005.5714285714286,284.47767857142856,922,1005.5714285714286,284.47767857142856,1022.4,1005.5714285714286,284.47767857142856,1122.4,1005.5714285714286,284.47767857142856,1227,1005.5714285714286,284.47767857142856,1332.3,1005.5714285714286,284.47767857142856,1436.6,1005.5714285714286,284.47767857142856,1537.2,1005.5714285714286,284.47767857142856,1641.6,1005.5714285714286,284.47767857142856,1741.7,1005.5714285714286,284.47767857142856,1847.4,1005.5714285714286,284.47767857142856,1952.1,1005.5714285714286,284.47767857142856,2056.8,1005.5714285714286,284.47767857142856,2157.1,1005.5714285714286,284.47767857142856,2257.1,1005.5714285714286,284.47767857142856,2357.6,1005.5714285714286,284.47767857142856,2462.3,1005.5714285714286,284.47767857142856,2566.7,1005.5714285714286,284.47767857142856,2666.7,1005.5714285714286,284.47767857142856,2766.7,1005.5714285714286,284.47767857142856,2866.7,1005.5714285714286,284.47767857142856,2971.7,1005.5714285714286,284.47767857142856,3071.7,1005.5714285714286,284.47767857142856,3172.4,1005.5714285714286,284.47767857142856,3277.3,1005.5714285714286,284.47767857142856,3381.5,1005.5714285714286,284.47767857142856,3481.5,1005.5714285714286,284.47767857142856,3581.8,1005.5714285714286,284.47767857142856,3682.2,1005.5714285714286,284.47767857142856,3787,1005.5714285714286,284.47767857142856,3891.7,1005.5714285714286,284.47767857142856,3992,1005.5714285714286,284.47767857142856,4096.6,1005.5714285714286,284.47767857142856,4197.3,1005.5714285714286,284.47767857142856,4297.7,1005.5714285714286,284.47767857142856,4402,1005.5714285714286,284.47767857142856,4502.4,1005.5714285714286,284.47767857142856,4607.2,1005.5714285714286,284.47767857142856,4707.2,1005.5714285714286,284.47767857142856,4812.3,1005.5714285714286,284.47767857142856,4916.6]","[1353.4,1353.4,1000,0,353.4,""oops"",""up"",""up"",""good_move"",3777.5,2423.9,2154.1,1353.6,269.8,""smooth"",""up"",""up"",""good_move"",6233.2,2455.5,2202.4,3777.7,253.1,""smooth"",""left"",""left"",""good_move"",9089.2,2855.8,2591.4,6233.4,264.4,""smooth"",""up"",""up"",""good_move"",11953.2,2863.8,2620.1,9089.4,243.7,""while_blue"",""left"",""down"",""bad_move"",16225.3,4271.9,3933.2,11953.4,338.7,""oops"",""left"",""down"",""bad_move"",17833.1,1607.7,1193,16225.4,414.7,""oops"",""left"",""up"",""good_move"",20265.3,2432,2123.9,17833.3,308.1,""smooth"",""left"",""left"",""good_move"",23449.1,3183.5,2904.9,20265.6,278.6,""oops"",""up"",""up"",""good_move"",26393.2,2944,2673.9,23449.2,270.1,""oops"",""left"",""right"",""bad_move"",29265.2,2871.8,2595.1,26393.4,276.7,""smooth"",""left"",""left"",""good_move""]","",""
"2555","","<div style=""width:500px;"">
  <p>What determined the result of this run?</p>
  </div>","21","html-slider-response","35","508475","0.0-5.0-1.5","75","1","2025-07-16 08:34:26","1f75c3e559b7213887762d5229550c2b","93.108.112.26","Mozilla/5.0 (Windows NT 10.0; Win64; x64) AppleWebKit/537.36 (KHTML, like Gecko) Chrome/138.0.0.0 Safari/537.36","WebKit","Chrome","138.0.0.0","Windows","10.0","https://app.prolific.com/","en-US,en;q=0.9","6140ef8d27499e70e8740918","68764874ac79eee8c1d4cb03","687764061a6ea09268cbf29e","2","0","6140ef8d27499e70e8740918","2","0","2025-07-16T08:42:55.690Z","","","","","","","","","","","AttribQ","","50","","","","","","","","","","","","","","","","","","","","","","","","","","","","",""
"1756","","<div style=""width:500px;"">
  <p>How much control did you have over the ball?</p>
  </div>","38","html-slider-response","36","510232","0.0-5.0-2.5","75","1","2025-07-16 08:34:26","1f75c3e559b7213887762d5229550c2b","93.108.112.26","Mozilla/5.0 (Windows NT 10.0; Win64; x64) AppleWebKit/537.36 (KHTML, like Gecko) Chrome/138.0.0.0 Safari/537.36","WebKit","Chrome","138.0.0.0","Windows","10.0","https://app.prolific.com/","en-US,en;q=0.9","6140ef8d27499e70e8740918","68764874ac79eee8c1d4cb03","687764061a6ea09268cbf29e","2","0","6140ef8d27499e70e8740918","2","0","2025-07-16T08:42:57.447Z","","","","","","","","","","","ControlQ","","50","","","","","","","","","","","","","","","","","","","","","","","","","","","","",""
"2429","","<div style=""width:500px;"">
  <p>How would you describe your current emotional state?</p>
  </div>","24","html-slider-response","37","512662","0.0-5.0-3.5","75","1","2025-07-16 08:34:26","1f75c3e559b7213887762d5229550c2b","93.108.112.26","Mozilla/5.0 (Windows NT 10.0; Win64; x64) AppleWebKit/537.36 (KHTML, like Gecko) Chrome/138.0.0.0 Safari/537.36","WebKit","Chrome","138.0.0.0","Windows","10.0","https://app.prolific.com/","en-US,en;q=0.9","6140ef8d27499e70e8740918","68764874ac79eee8c1d4cb03","687764061a6ea09268cbf29e","2","0","6140ef8d27499e70e8740918","2","0","2025-07-16T08:42:59.877Z","","","","","","","","","","","StressQ","","50","","","","","","","","","","","","","","","","","","","","","","","","","","","","",""
"1933","","<div style=""width:500px;"">
  <p>What best describes how you currently feel?</p>
  </div>","100","html-slider-response","38","514595","0.0-5.0-4.5","75","1","2025-07-16 08:34:26","1f75c3e559b7213887762d5229550c2b","93.108.112.26","Mozilla/5.0 (Windows NT 10.0; Win64; x64) AppleWebKit/537.36 (KHTML, like Gecko) Chrome/138.0.0.0 Safari/537.36","WebKit","Chrome","138.0.0.0","Windows","10.0","https://app.prolific.com/","en-US,en;q=0.9","6140ef8d27499e70e8740918","68764874ac79eee8c1d4cb03","687764061a6ea09268cbf29e","2","0","6140ef8d27499e70e8740918","2","0","2025-07-16T08:43:01.810Z","","","","","","","","","","","MotivationQ","","50","","","","","","","","","","","","","","","","","","","","","","","","","","","","",""
"","","","","ctl-task-cpt","39","562253","0.0-5.0-0.6","75","1","2025-07-16 08:34:26","1f75c3e559b7213887762d5229550c2b","93.108.112.26","Mozilla/5.0 (Windows NT 10.0; Win64; x64) AppleWebKit/537.36 (KHTML, like Gecko) Chrome/138.0.0.0 Safari/537.36","WebKit","Chrome","138.0.0.0","Windows","10.0","https://app.prolific.com/","en-US,en;q=0.9","6140ef8d27499e70e8740918","68764874ac79eee8c1d4cb03","687764061a6ea09268cbf29e","2","0","6140ef8d27499e70e8740918","2","0","2025-07-16T08:43:49.468Z","","","","","","","","","","","","","","win-only","1","g1:NE,g2:SW","0.4","7","0","515701.9","544.4","5545.8","44640.6","1","4","4","6","2","-4","-5","14","19","0.10606060606060606","715.2","3000","-3015","[""down"",""left""]","{""num_key_presses"":10,""num_perfect"":4,""num_errors"":1,""num_randdir"":5,""num_randdir_good_moves"":1,""num_whilered"":0,""num_whileblue"":1,""num_blue"":4,""num_good_moves"":6}","[412.57142857142856,421.47767857142856,0.1,412.57142857142856,421.47767857142856,101.2,412.57142857142856,421.47767857142856,201.5,412.57142857142856,421.47767857142856,306.9,408.57142857142856,421.47767857142856,411.1,211.57142857142856,577.4776785714286,515.8,86.57142857142857,698.4776785714286,615.9,80.57142857142857,727.4776785714286,716.6,82.57142857142857,735.4776785714286,821.8,516.5714285714286,663.4776785714286,921.8,1062.5714285714287,556.4776785714286,1026,1070.5714285714287,551.4776785714286,1131.4,1070.5714285714287,551.4776785714286,1236.7,1070.5714285714287,551.4776785714286,1341.6,1070.5714285714287,551.4776785714286,1441.7,1070.5714285714287,551.4776785714286,1546.1,1070.5714285714287,551.4776785714286,1646.2,1070.5714285714287,551.4776785714286,1746.2,1070.5714285714287,551.4776785714286,1846.5,1070.5714285714287,551.4776785714286,1951.2,1070.5714285714287,551.4776785714286,2056.1,1070.5714285714287,551.4776785714286,2156.4,1070.5714285714287,551.4776785714286,2256.9,1070.5714285714287,551.4776785714286,2360.7,1070.5714285714287,551.4776785714286,2461,1070.5714285714287,551.4776785714286,2561,1070.5714285714287,551.4776785714286,2661,1070.5714285714287,551.4776785714286,2761,1070.5714285714287,551.4776785714286,2861,1070.5714285714287,551.4776785714286,2961,1070.5714285714287,551.4776785714286,3061.6,1070.5714285714287,551.4776785714286,3166.3,1070.5714285714287,551.4776785714286,3271.8,1070.5714285714287,551.4776785714286,3376.6,1070.5714285714287,551.4776785714286,3482.3,1070.5714285714287,551.4776785714286,3586,1070.5714285714287,551.4776785714286,3686,1070.5714285714287,551.4776785714286,3791.5,1070.5714285714287,551.4776785714286,3897.2,1070.5714285714287,551.4776785714286,4001,1070.5714285714287,551.4776785714286,4106,1070.5714285714287,551.4776785714286,4211,1070.5714285714287,551.4776785714286,4312.4,1070.5714285714287,551.4776785714286,4416.1,1070.5714285714287,551.4776785714286,4521.7,1070.5714285714287,551.4776785714286,4627.2,1070.5714285714287,551.4776785714286,4731.4,1070.5714285714287,551.4776785714286,4831.5,1070.5714285714287,551.4776785714286,4936]","[1347.8,1347.8,1000,0,347.8,""smooth"",""down"",""down"",""good_move"",4067.5,2719.5,2445.6,1348,273.9,""smooth"",""down"",""down"",""good_move"",6931.7,2864,2482.2,4067.7,381.8,""smooth"",""down"",""down"",""good_move"",10107.5,3175.7,2772.9,6931.8,402.8,""oops"",""left"",""right"",""bad_move"",13299.7,3192,2917.4,10107.7,274.6,""oops"",""left"",""right"",""bad_move"",15731.6,2431.8,2067.4,13299.8,364.4,""smooth"",""left"",""left"",""good_move"",17491.7,1759.9,1456.5,15731.8,303.4,""oops"",""left"",""right"",""bad_move"",20131.8,2640,2368.2,17491.8,271.8,""while_blue"",""left"",""left"",""good_move"",34259.5,14127.6,2774.1,31206,279.5,""oops"",""left"",""left"",""good_move"",36763.4,2503.6,2238,34259.8,265.6,""oops"",""left"",""right"",""bad_move""]","",""
"2018","","<div style=""width:500px;"">
  <p>What determined the result of this run?</p>
  </div>","0","html-slider-response","40","564271","0.0-5.0-1.6","75","1","2025-07-16 08:34:26","1f75c3e559b7213887762d5229550c2b","93.108.112.26","Mozilla/5.0 (Windows NT 10.0; Win64; x64) AppleWebKit/537.36 (KHTML, like Gecko) Chrome/138.0.0.0 Safari/537.36","WebKit","Chrome","138.0.0.0","Windows","10.0","https://app.prolific.com/","en-US,en;q=0.9","6140ef8d27499e70e8740918","68764874ac79eee8c1d4cb03","687764061a6ea09268cbf29e","2","0","6140ef8d27499e70e8740918","2","0","2025-07-16T08:43:51.486Z","","","","","","","","","","","AttribQ","","50","","","","","","","","","","","","","","","","","","","","","","","","","","","","",""
"1491","","<div style=""width:500px;"">
  <p>How much control did you have over the ball?</p>
  </div>","0","html-slider-response","41","565763","0.0-5.0-2.6","75","1","2025-07-16 08:34:26","1f75c3e559b7213887762d5229550c2b","93.108.112.26","Mozilla/5.0 (Windows NT 10.0; Win64; x64) AppleWebKit/537.36 (KHTML, like Gecko) Chrome/138.0.0.0 Safari/537.36","WebKit","Chrome","138.0.0.0","Windows","10.0","https://app.prolific.com/","en-US,en;q=0.9","6140ef8d27499e70e8740918","68764874ac79eee8c1d4cb03","687764061a6ea09268cbf29e","2","0","6140ef8d27499e70e8740918","2","0","2025-07-16T08:43:52.978Z","","","","","","","","","","","ControlQ","","50","","","","","","","","","","","","","","","","","","","","","","","","","","","","",""
"1714","","<div style=""width:500px;"">
  <p>How would you describe your current emotional state?</p>
  </div>","32","html-slider-response","42","567478","0.0-5.0-3.6","75","1","2025-07-16 08:34:26","1f75c3e559b7213887762d5229550c2b","93.108.112.26","Mozilla/5.0 (Windows NT 10.0; Win64; x64) AppleWebKit/537.36 (KHTML, like Gecko) Chrome/138.0.0.0 Safari/537.36","WebKit","Chrome","138.0.0.0","Windows","10.0","https://app.prolific.com/","en-US,en;q=0.9","6140ef8d27499e70e8740918","68764874ac79eee8c1d4cb03","687764061a6ea09268cbf29e","2","0","6140ef8d27499e70e8740918","2","0","2025-07-16T08:43:54.693Z","","","","","","","","","","","StressQ","","50","","","","","","","","","","","","","","","","","","","","","","","","","","","","",""
"1306","","<div style=""width:500px;"">
  <p>What best describes how you currently feel?</p>
  </div>","100","html-slider-response","43","568784","0.0-5.0-4.6","75","1","2025-07-16 08:34:26","1f75c3e559b7213887762d5229550c2b","93.108.112.26","Mozilla/5.0 (Windows NT 10.0; Win64; x64) AppleWebKit/537.36 (KHTML, like Gecko) Chrome/138.0.0.0 Safari/537.36","WebKit","Chrome","138.0.0.0","Windows","10.0","https://app.prolific.com/","en-US,en;q=0.9","6140ef8d27499e70e8740918","68764874ac79eee8c1d4cb03","687764061a6ea09268cbf29e","2","0","6140ef8d27499e70e8740918","2","0","2025-07-16T08:43:55.999Z","","","","","","","","","","","MotivationQ","","50","","","","","","","","","","","","","","","","","","","","","","","","","","","","",""
"","","","","ctl-task-cpt","44","607263","0.0-5.0-0.7","75","1","2025-07-16 08:34:26","1f75c3e559b7213887762d5229550c2b","93.108.112.26","Mozilla/5.0 (Windows NT 10.0; Win64; x64) AppleWebKit/537.36 (KHTML, like Gecko) Chrome/138.0.0.0 Safari/537.36","WebKit","Chrome","138.0.0.0","Windows","10.0","https://app.prolific.com/","en-US,en;q=0.9","6140ef8d27499e70e8740918","68764874ac79eee8c1d4cb03","687764061a6ea09268cbf29e","2","0","6140ef8d27499e70e8740918","2","0","2025-07-16T08:44:34.478Z","","","","","","","","","","","","","","win-only","2","g1:SE,g2:NW","0.3","8","0","569890.4","892.9","5895.5","35461","1","4","8","6","2","-8","-9","5","14","0.03787878787878788","554.3","3000","-3015","[""left"",""up""]","{""num_key_presses"":10,""num_perfect"":3,""num_errors"":1,""num_randdir"":6,""num_randdir_good_moves"":3,""num_whilered"":0,""num_whileblue"":1,""num_blue"":1,""num_good_moves"":7}","[414.57142857142856,403.47767857142856,0.1,414.57142857142856,403.47767857142856,102.4,412.57142857142856,408.47767857142856,202.4,376.57142857142856,381.47767857142856,307.3,205.57142857142856,231.47767857142856,407.4,88.57142857142857,86.47767857142857,507.5,87.57142857142857,76.47767857142857,613,407.57142857142856,215.47767857142856,718,1130.5714285714287,401.47767857142856,822.7,1165.5714285714287,405.47767857142856,927.5,1165.5714285714287,405.47767857142856,1027.8,1165.5714285714287,405.47767857142856,1133,1165.5714285714287,405.47767857142856,1237.7,1165.5714285714287,405.47767857142856,1342.3,1165.5714285714287,405.47767857142856,1442.3,1165.5714285714287,405.47767857142856,1542.6,1165.5714285714287,405.47767857142856,1644.2,1165.5714285714287,405.47767857142856,1748,1165.5714285714287,405.47767857142856,1852.4,1165.5714285714287,405.47767857142856,1957.2,1165.5714285714287,405.47767857142856,2057.2,1165.5714285714287,405.47767857142856,2157.3,1165.5714285714287,405.47767857142856,2257.3,1165.5714285714287,405.47767857142856,2357.9,1165.5714285714287,405.47767857142856,2463.2,1165.5714285714287,405.47767857142856,2567.6,1165.5714285714287,405.47767857142856,2672.7,1165.5714285714287,405.47767857142856,2772.7,1165.5714285714287,405.47767857142856,2877.3,1165.5714285714287,405.47767857142856,2978.2,1165.5714285714287,405.47767857142856,3082.2,1165.5714285714287,405.47767857142856,3182.3,1165.5714285714287,405.47767857142856,3287.7,1165.5714285714287,405.47767857142856,3392.5,1165.5714285714287,405.47767857142856,3492.8,1165.5714285714287,405.47767857142856,3597.8,1165.5714285714287,405.47767857142856,3702.5,1165.5714285714287,405.47767857142856,3807.3,1165.5714285714287,405.47767857142856,3907.3,1165.5714285714287,405.47767857142856,4007.6,1165.5714285714287,405.47767857142856,4107.6,1165.5714285714287,405.47767857142856,4212.8,1165.5714285714287,405.47767857142856,4317.7,1165.5714285714287,405.47767857142856,4422.5,1165.5714285714287,405.47767857142856,4523.1,1165.5714285714287,405.47767857142856,4627.8,1165.5714285714287,405.47767857142856,4732.2,1165.5714285714287,405.47767857142856,4832.6,1165.5714285714287,405.47767857142856,4937.7]","[1305.2,1305.2,1000,0,305.2,""oops"",""up"",""right"",""bad_move"",4497.1,3191.7,2846.8,1305.4,344.9,""oops"",""up"",""left"",""good_move"",7129,2631.6,2362.5,4497.4,269.1,""while_blue"",""up"",""left"",""good_move"",9528.9,2399.7,2036.4,7129.2,363.3,""oops"",""up"",""up"",""good_move"",12137,2607.9,2225.9,9529.1,382,""smooth"",""up"",""up"",""good_move"",15256.9,3119.7,2760.9,12137.2,358.8,""oops"",""left"",""down"",""bad_move"",18657,3399.9,3061.4,15257.1,338.5,""oops"",""left"",""up"",""good_move"",20888.7,2231.5,1890.2,18657.2,341.3,""smooth"",""up"",""up"",""good_move"",23504.9,2616.1,2339.6,20888.8,276.5,""smooth"",""left"",""left"",""good_move"",26376.8,2871.6,2648.7,23505.2,222.9,""oops"",""left"",""right"",""bad_move""]","",""
"1301","","<div style=""width:500px;"">
  <p>What determined the result of this run?</p>
  </div>","0","html-slider-response","45","608564","0.0-5.0-1.7","75","1","2025-07-16 08:34:26","1f75c3e559b7213887762d5229550c2b","93.108.112.26","Mozilla/5.0 (Windows NT 10.0; Win64; x64) AppleWebKit/537.36 (KHTML, like Gecko) Chrome/138.0.0.0 Safari/537.36","WebKit","Chrome","138.0.0.0","Windows","10.0","https://app.prolific.com/","en-US,en;q=0.9","6140ef8d27499e70e8740918","68764874ac79eee8c1d4cb03","687764061a6ea09268cbf29e","2","0","6140ef8d27499e70e8740918","2","0","2025-07-16T08:44:35.779Z","","","","","","","","","","","AttribQ","","50","","","","","","","","","","","","","","","","","","","","","","","","","","","","",""
"1659","","<div style=""width:500px;"">
  <p>How much control did you have over the ball?</p>
  </div>","0","html-slider-response","46","610224","0.0-5.0-2.7","75","1","2025-07-16 08:34:26","1f75c3e559b7213887762d5229550c2b","93.108.112.26","Mozilla/5.0 (Windows NT 10.0; Win64; x64) AppleWebKit/537.36 (KHTML, like Gecko) Chrome/138.0.0.0 Safari/537.36","WebKit","Chrome","138.0.0.0","Windows","10.0","https://app.prolific.com/","en-US,en;q=0.9","6140ef8d27499e70e8740918","68764874ac79eee8c1d4cb03","687764061a6ea09268cbf29e","2","0","6140ef8d27499e70e8740918","2","0","2025-07-16T08:44:37.439Z","","","","","","","","","","","ControlQ","","50","","","","","","","","","","","","","","","","","","","","","","","","","","","","",""
"2126","","<div style=""width:500px;"">
  <p>How would you describe your current emotional state?</p>
  </div>","38","html-slider-response","47","612351","0.0-5.0-3.7","75","1","2025-07-16 08:34:26","1f75c3e559b7213887762d5229550c2b","93.108.112.26","Mozilla/5.0 (Windows NT 10.0; Win64; x64) AppleWebKit/537.36 (KHTML, like Gecko) Chrome/138.0.0.0 Safari/537.36","WebKit","Chrome","138.0.0.0","Windows","10.0","https://app.prolific.com/","en-US,en;q=0.9","6140ef8d27499e70e8740918","68764874ac79eee8c1d4cb03","687764061a6ea09268cbf29e","2","0","6140ef8d27499e70e8740918","2","0","2025-07-16T08:44:39.566Z","","","","","","","","","","","StressQ","","50","","","","","","","","","","","","","","","","","","","","","","","","","","","","",""
"992","","<div style=""width:500px;"">
  <p>What best describes how you currently feel?</p>
  </div>","100","html-slider-response","48","613344","0.0-5.0-4.7","75","1","2025-07-16 08:34:26","1f75c3e559b7213887762d5229550c2b","93.108.112.26","Mozilla/5.0 (Windows NT 10.0; Win64; x64) AppleWebKit/537.36 (KHTML, like Gecko) Chrome/138.0.0.0 Safari/537.36","WebKit","Chrome","138.0.0.0","Windows","10.0","https://app.prolific.com/","en-US,en;q=0.9","6140ef8d27499e70e8740918","68764874ac79eee8c1d4cb03","687764061a6ea09268cbf29e","2","0","6140ef8d27499e70e8740918","2","0","2025-07-16T08:44:40.559Z","","","","","","","","","","","MotivationQ","","50","","","","","","","","","","","","","","","","","","","","","","","","","","","","",""
"","","","","ctl-task-cpt","49","654172","0.0-5.0-0.8","75","1","2025-07-16 08:34:26","1f75c3e559b7213887762d5229550c2b","93.108.112.26","Mozilla/5.0 (Windows NT 10.0; Win64; x64) AppleWebKit/537.36 (KHTML, like Gecko) Chrome/138.0.0.0 Safari/537.36","WebKit","Chrome","138.0.0.0","Windows","10.0","https://app.prolific.com/","en-US,en;q=0.9","6140ef8d27499e70e8740918","68764874ac79eee8c1d4cb03","687764061a6ea09268cbf29e","2","0","6140ef8d27499e70e8740918","2","0","2025-07-16T08:45:21.387Z","","","","","","","","","","","","","","win-only","0","g1:NW,g2:SE","0.2","9","0","614450.5","949.8","5950.6","37810.7","1","4","4","6","2","-4","-4","1","5","0.007575757575757576","722.1","3000","-3015","[""down"",""right""]","{""num_key_presses"":9,""num_perfect"":2,""num_errors"":0,""num_randdir"":7,""num_randdir_good_moves"":4,""num_whilered"":0,""num_whileblue"":0,""num_blue"":2,""num_good_moves"":6}","[409.57142857142856,420.47767857142856,0.1,409.57142857142856,420.47767857142856,100.8,409.57142857142856,420.47767857142856,200.9,380.57142857142856,373.47767857142856,300.9,306.57142857142856,281.47767857142856,405.7,583.5714285714286,561.4776785714286,511.2,745.5714285714286,708.4776785714286,615.5,764.5714285714286,743.4776785714286,715.7,780.5714285714286,741.4776785714286,820.3,1126.5714285714287,513.4776785714286,920.4,1163.5714285714287,477.47767857142856,1020.6,1163.5714285714287,477.47767857142856,1120.6,1163.5714285714287,477.47767857142856,1225.7,1163.5714285714287,477.47767857142856,1326.3,1163.5714285714287,477.47767857142856,1430.4,1163.5714285714287,477.47767857142856,1530.7,1163.5714285714287,477.47767857142856,1631.1,1163.5714285714287,477.47767857142856,1735.8,1163.5714285714287,477.47767857142856,1835.8,1163.5714285714287,477.47767857142856,1940.3,1163.5714285714287,477.47767857142856,2040.7,1163.5714285714287,477.47767857142856,2141.6,1163.5714285714287,477.47767857142856,2246.1,1163.5714285714287,477.47767857142856,2350.7,1163.5714285714287,477.47767857142856,2455.5,1163.5714285714287,477.47767857142856,2556,1163.5714285714287,477.47767857142856,2656.2,1163.5714285714287,477.47767857142856,2761.2,1163.5714285714287,477.47767857142856,2865.5,1163.5714285714287,477.47767857142856,2966.3,1163.5714285714287,477.47767857142856,3070.7,1163.5714285714287,477.47767857142856,3170.8,1163.5714285714287,477.47767857142856,3270.9,1163.5714285714287,477.47767857142856,3371.2,1163.5714285714287,477.47767857142856,3475.5,1163.5714285714287,477.47767857142856,3575.5,1163.5714285714287,477.47767857142856,3675.7,1163.5714285714287,477.47767857142856,3775.9,1163.5714285714287,477.47767857142856,3880.7,1163.5714285714287,477.47767857142856,3980.9,1163.5714285714287,477.47767857142856,4085.3,1163.5714285714287,477.47767857142856,4186.1,1163.5714285714287,477.47767857142856,4290.6,1163.5714285714287,477.47767857142856,4391.2,1163.5714285714287,477.47767857142856,4495.9,1163.5714285714287,477.47767857142856,4596.1,1163.5714285714287,477.47767857142856,4696.3,1163.5714285714287,477.47767857142856,4801.1,1163.5714285714287,477.47767857142856,4905.8]","[4833.3,4833.3,2506.8,2005.3,321.2,""oops"",""down"",""right"",""good_move"",8297.5,3463.8,3116.3,4833.7,347.5,""oops"",""down"",""down"",""good_move"",10585.3,2287.6,1893.2,8297.7,394.4,""smooth"",""down"",""down"",""good_move"",13169.3,2583.8,2258.3,10585.5,325.5,""oops"",""right"",""down"",""good_move"",15689.4,2520,2187.5,13169.4,332.5,""oops"",""right"",""up"",""bad_move"",18409.2,2719.7,2367.3,15689.6,352.3,""oops"",""right"",""right"",""good_move"",20873.2,2463.7,2161.7,18409.5,302,""oops"",""down"",""up"",""bad_move"",23129.2,2255.8,1951.8,20873.4,304,""smooth"",""down"",""down"",""good_move"",25833.2,2703.8,2441.8,23129.4,262,""oops"",""down"",""left"",""bad_move""]","",""
"1237","","<div style=""width:500px;"">
  <p>What determined the result of this run?</p>
  </div>","0","html-slider-response","50","655410","0.0-5.0-1.8","75","1","2025-07-16 08:34:26","1f75c3e559b7213887762d5229550c2b","93.108.112.26","Mozilla/5.0 (Windows NT 10.0; Win64; x64) AppleWebKit/537.36 (KHTML, like Gecko) Chrome/138.0.0.0 Safari/537.36","WebKit","Chrome","138.0.0.0","Windows","10.0","https://app.prolific.com/","en-US,en;q=0.9","6140ef8d27499e70e8740918","68764874ac79eee8c1d4cb03","687764061a6ea09268cbf29e","2","0","6140ef8d27499e70e8740918","2","0","2025-07-16T08:45:22.625Z","","","","","","","","","","","AttribQ","","50","","","","","","","","","","","","","","","","","","","","","","","","","","","","",""
"1380","","<div style=""width:500px;"">
  <p>How much control did you have over the ball?</p>
  </div>","0","html-slider-response","51","656791","0.0-5.0-2.8","75","1","2025-07-16 08:34:26","1f75c3e559b7213887762d5229550c2b","93.108.112.26","Mozilla/5.0 (Windows NT 10.0; Win64; x64) AppleWebKit/537.36 (KHTML, like Gecko) Chrome/138.0.0.0 Safari/537.36","WebKit","Chrome","138.0.0.0","Windows","10.0","https://app.prolific.com/","en-US,en;q=0.9","6140ef8d27499e70e8740918","68764874ac79eee8c1d4cb03","687764061a6ea09268cbf29e","2","0","6140ef8d27499e70e8740918","2","0","2025-07-16T08:45:24.006Z","","","","","","","","","","","ControlQ","","50","","","","","","","","","","","","","","","","","","","","","","","","","","","","",""
"1419","","<div style=""width:500px;"">
  <p>How would you describe your current emotional state?</p>
  </div>","76","html-slider-response","52","658211","0.0-5.0-3.8","75","1","2025-07-16 08:34:26","1f75c3e559b7213887762d5229550c2b","93.108.112.26","Mozilla/5.0 (Windows NT 10.0; Win64; x64) AppleWebKit/537.36 (KHTML, like Gecko) Chrome/138.0.0.0 Safari/537.36","WebKit","Chrome","138.0.0.0","Windows","10.0","https://app.prolific.com/","en-US,en;q=0.9","6140ef8d27499e70e8740918","68764874ac79eee8c1d4cb03","687764061a6ea09268cbf29e","2","0","6140ef8d27499e70e8740918","2","0","2025-07-16T08:45:25.426Z","","","","","","","","","","","StressQ","","50","","","","","","","","","","","","","","","","","","","","","","","","","","","","",""
"1818","","<div style=""width:500px;"">
  <p>What best describes how you currently feel?</p>
  </div>","100","html-slider-response","53","660030","0.0-5.0-4.8","75","1","2025-07-16 08:34:26","1f75c3e559b7213887762d5229550c2b","93.108.112.26","Mozilla/5.0 (Windows NT 10.0; Win64; x64) AppleWebKit/537.36 (KHTML, like Gecko) Chrome/138.0.0.0 Safari/537.36","WebKit","Chrome","138.0.0.0","Windows","10.0","https://app.prolific.com/","en-US,en;q=0.9","6140ef8d27499e70e8740918","68764874ac79eee8c1d4cb03","687764061a6ea09268cbf29e","2","0","6140ef8d27499e70e8740918","2","0","2025-07-16T08:45:27.245Z","","","","","","","","","","","MotivationQ","","50","","","","","","","","","","","","","","","","","","","","","","","","","","","","",""
"","","","","ctl-task-cpt","54","704219","0.0-5.0-0.9","75","1","2025-07-16 08:34:26","1f75c3e559b7213887762d5229550c2b","93.108.112.26","Mozilla/5.0 (Windows NT 10.0; Win64; x64) AppleWebKit/537.36 (KHTML, like Gecko) Chrome/138.0.0.0 Safari/537.36","WebKit","Chrome","138.0.0.0","Windows","10.0","https://app.prolific.com/","en-US,en;q=0.9","6140ef8d27499e70e8740918","68764874ac79eee8c1d4cb03","687764061a6ea09268cbf29e","2","0","6140ef8d27499e70e8740918","2","0","2025-07-16T08:46:11.434Z","","","","","","","","","","","","","","win-only","3","g1:SW,g2:NE","0.4","10","0","661136.5","846.7","5850.4","41170.4","1","4","8","6","2","-8","-10","0","1","0","801.1","3000","-3015","[""up"",""right""]","{""num_key_presses"":10,""num_perfect"":2,""num_errors"":2,""num_randdir"":6,""num_randdir_good_moves"":3,""num_whilered"":0,""num_whileblue"":2,""num_blue"":4,""num_good_moves"":7}","[416.57142857142856,406.47767857142856,0.2,416.57142857142856,406.47767857142856,103.4,416.57142857142856,406.47767857142856,203.8,416.57142857142856,408.47767857142856,309,616.5714285714286,207.47767857142856,409.3,676.5714285714286,151.47767857142856,509.5,705.5714285714286,105.47767857142857,613.9,756.5714285714286,75.47767857142857,719.2,773.5714285714286,69.47767857142857,819.3,780.5714285714286,77.47767857142857,923.8,916.5714285714286,200.47767857142856,1023.9,1234.5714285714287,393.47767857142856,1128.6,1245.5714285714287,403.47767857142856,1229.5,1245.5714285714287,403.47767857142856,1329.6,1245.5714285714287,403.47767857142856,1433.5,1245.5714285714287,403.47767857142856,1534.5,1245.5714285714287,403.47767857142856,1639.1,1245.5714285714287,403.47767857142856,1739.4,1245.5714285714287,403.47767857142856,1843.7,1245.5714285714287,403.47767857142856,1949.1,1245.5714285714287,403.47767857142856,2053.8,1245.5714285714287,403.47767857142856,2159.3,1245.5714285714287,403.47767857142856,2263.6,1245.5714285714287,403.47767857142856,2363.6,1245.5714285714287,403.47767857142856,2468.5,1245.5714285714287,403.47767857142856,2569.1,1245.5714285714287,403.47767857142856,2669.3,1245.5714285714287,403.47767857142856,2774.2,1245.5714285714287,403.47767857142856,2879.5,1245.5714285714287,403.47767857142856,2984.4,1245.5714285714287,403.47767857142856,3090.4,1245.5714285714287,403.47767857142856,3193.8,1245.5714285714287,403.47767857142856,3294.1,1245.5714285714287,403.47767857142856,3398.9,1245.5714285714287,403.47767857142856,3498.9,1245.5714285714287,403.47767857142856,3599.4,1245.5714285714287,403.47767857142856,3703.5,1245.5714285714287,403.47767857142856,3803.8,1245.5714285714287,403.47767857142856,3903.8,1245.5714285714287,403.47767857142856,4004.3,1245.5714285714287,403.47767857142856,4109.2,1245.5714285714287,403.47767857142856,4209.3,1245.5714285714287,403.47767857142856,4310.2,1245.5714285714287,403.47767857142856,4413.8,1245.5714285714287,403.47767857142856,4519.3,1245.5714285714287,403.47767857142856,4619.4,1245.5714285714287,403.47767857142856,4723.6,1245.5714285714287,403.47767857142856,4823.8,1245.5714285714287,403.47767857142856,4923.9]","[1327.2,1327.2,1000,0,327.2,""oops"",""up"",""up"",""good_move"",3903,2575.6,2294.8,1327.5,280.8,""oops"",""up"",""up"",""good_move"",5839.3,1936,1531.8,3903.3,404.2,""oops"",""right"",""left"",""bad_move"",8119.2,2279.7,2017.5,5839.5,262.2,""oops"",""up"",""left"",""bad_move"",11007,2887.7,2446.7,8119.3,441,""oops"",""up"",""right"",""good_move"",14063,3055.8,2788,11007.2,267.8,""while_blue"",""up"",""right"",""good_move"",21310.9,7247.7,2789.5,18130.1,391.3,""oops"",""up"",""down"",""bad_move"",26815.1,5503.9,2265.5,24179.8,369.8,""smooth"",""up"",""up"",""good_move"",29463,2647.7,2395.4,26815.3,252.3,""while_blue"",""right"",""right"",""good_move"",32567,3103.8,2796.3,29463.2,307.5,""smooth"",""right"",""right"",""good_move""]","",""
"1977","","<div style=""width:500px;"">
  <p>What determined the result of this run?</p>
  </div>","0","html-slider-response","55","706196","0.0-5.0-1.9","75","1","2025-07-16 08:34:26","1f75c3e559b7213887762d5229550c2b","93.108.112.26","Mozilla/5.0 (Windows NT 10.0; Win64; x64) AppleWebKit/537.36 (KHTML, like Gecko) Chrome/138.0.0.0 Safari/537.36","WebKit","Chrome","138.0.0.0","Windows","10.0","https://app.prolific.com/","en-US,en;q=0.9","6140ef8d27499e70e8740918","68764874ac79eee8c1d4cb03","687764061a6ea09268cbf29e","2","0","6140ef8d27499e70e8740918","2","0","2025-07-16T08:46:13.411Z","","","","","","","","","","","AttribQ","","50","","","","","","","","","","","","","","","","","","","","","","","","","","","","",""
"1492","","<div style=""width:500px;"">
  <p>How much control did you have over the ball?</p>
  </div>","0","html-slider-response","56","707689","0.0-5.0-2.9","75","1","2025-07-16 08:34:26","1f75c3e559b7213887762d5229550c2b","93.108.112.26","Mozilla/5.0 (Windows NT 10.0; Win64; x64) AppleWebKit/537.36 (KHTML, like Gecko) Chrome/138.0.0.0 Safari/537.36","WebKit","Chrome","138.0.0.0","Windows","10.0","https://app.prolific.com/","en-US,en;q=0.9","6140ef8d27499e70e8740918","68764874ac79eee8c1d4cb03","687764061a6ea09268cbf29e","2","0","6140ef8d27499e70e8740918","2","0","2025-07-16T08:46:14.904Z","","","","","","","","","","","ControlQ","","50","","","","","","","","","","","","","","","","","","","","","","","","","","","","",""
"1474","","<div style=""width:500px;"">
  <p>How would you describe your current emotional state?</p>
  </div>","100","html-slider-response","57","709164","0.0-5.0-3.9","75","1","2025-07-16 08:34:26","1f75c3e559b7213887762d5229550c2b","93.108.112.26","Mozilla/5.0 (Windows NT 10.0; Win64; x64) AppleWebKit/537.36 (KHTML, like Gecko) Chrome/138.0.0.0 Safari/537.36","WebKit","Chrome","138.0.0.0","Windows","10.0","https://app.prolific.com/","en-US,en;q=0.9","6140ef8d27499e70e8740918","68764874ac79eee8c1d4cb03","687764061a6ea09268cbf29e","2","0","6140ef8d27499e70e8740918","2","0","2025-07-16T08:46:16.379Z","","","","","","","","","","","StressQ","","50","","","","","","","","","","","","","","","","","","","","","","","","","","","","",""
"1663","","<div style=""width:500px;"">
  <p>What best describes how you currently feel?</p>
  </div>","100","html-slider-response","58","710828","0.0-5.0-4.9","75","1","2025-07-16 08:34:26","1f75c3e559b7213887762d5229550c2b","93.108.112.26","Mozilla/5.0 (Windows NT 10.0; Win64; x64) AppleWebKit/537.36 (KHTML, like Gecko) Chrome/138.0.0.0 Safari/537.36","WebKit","Chrome","138.0.0.0","Windows","10.0","https://app.prolific.com/","en-US,en;q=0.9","6140ef8d27499e70e8740918","68764874ac79eee8c1d4cb03","687764061a6ea09268cbf29e","2","0","6140ef8d27499e70e8740918","2","0","2025-07-16T08:46:18.043Z","","","","","","","","","","","MotivationQ","","50","","","","","","","","","","","","","","","","","","","","","","","","","","","","",""
"","","","","ctl-task-cpt","59","755745","0.0-5.0-0.10","75","1","2025-07-16 08:34:26","1f75c3e559b7213887762d5229550c2b","93.108.112.26","Mozilla/5.0 (Windows NT 10.0; Win64; x64) AppleWebKit/537.36 (KHTML, like Gecko) Chrome/138.0.0.0 Safari/537.36","WebKit","Chrome","138.0.0.0","Windows","10.0","https://app.prolific.com/","en-US,en;q=0.9","6140ef8d27499e70e8740918","68764874ac79eee8c1d4cb03","687764061a6ea09268cbf29e","2","0","6140ef8d27499e70e8740918","2","0","2025-07-16T08:47:02.960Z","","","","","","","","","","","","","","win-only","0","g1:NW,g2:SE","0.5","11","0","711934.2","761.2","5766.1","41900.2","1","4","4","6","2","-4","-4","0","0","0","970.8","3000","-3015","[""down"",""right""]","{""num_key_presses"":8,""num_perfect"":4,""num_errors"":0,""num_randdir"":4,""num_randdir_good_moves"":0,""num_whilered"":0,""num_whileblue"":0,""num_blue"":3,""num_good_moves"":4}","[409.57142857142856,422.47767857142856,0.2,409.57142857142856,422.47767857142856,104,409.57142857142856,422.47767857142856,204.7,409.57142857142856,422.47767857142856,309.9,409.57142857142856,422.47767857142856,414.3,409.57142857142856,422.47767857142856,514.3,409.57142857142856,422.47767857142856,620,453.57142857142856,493.47767857142856,724.2,691.5714285714286,707.4776785714286,824.8,714.5714285714286,737.4776785714286,929,715.5714285714286,743.4776785714286,1029.5,906.5714285714286,728.4776785714286,1134.5,1054.5714285714287,681.4776785714286,1239.5,1054.5714285714287,681.4776785714286,1344.3,1054.5714285714287,680.4776785714286,1444.8,1054.5714285714287,680.4776785714286,1549.1,1054.5714285714287,680.4776785714286,1649.4,1054.5714285714287,680.4776785714286,1750.1,1054.5714285714287,680.4776785714286,1854,1054.5714285714287,680.4776785714286,1954.8,1054.5714285714287,680.4776785714286,2058.9,1054.5714285714287,680.4776785714286,2159.3,1054.5714285714287,680.4776785714286,2264.9,1054.5714285714287,680.4776785714286,2364.9,1054.5714285714287,680.4776785714286,2469.6,1054.5714285714287,680.4776785714286,2569.9,1054.5714285714287,680.4776785714286,2674.1,1054.5714285714287,680.4776785714286,2774.4,1054.5714285714287,680.4776785714286,2874.4,1054.5714285714287,680.4776785714286,2975.1,1054.5714285714287,680.4776785714286,3080.1,1054.5714285714287,680.4776785714286,3184.7,1054.5714285714287,680.4776785714286,3289.3,1054.5714285714287,680.4776785714286,3389.3,1054.5714285714287,680.4776785714286,3489.6,1054.5714285714287,680.4776785714286,3594,1054.5714285714287,680.4776785714286,3694.6,1054.5714285714287,680.4776785714286,3794.6,1054.5714285714287,680.4776785714286,3895.8,1054.5714285714287,680.4776785714286,3999.3,1054.5714285714287,680.4776785714286,4100.1,1054.5714285714287,680.4776785714286,4204.2,1054.5714285714287,680.4776785714286,4309.6,1054.5714285714287,680.4776785714286,4409.8,1054.5714285714287,680.4776785714286,4510.1,1054.5714285714287,680.4776785714286,4616,1054.5714285714287,680.4776785714286,4719.2,1054.5714285714287,680.4776785714286,4819.9,1054.5714285714287,680.4776785714286,4924.4]","[5101.4,5101.4,2698.5,2005.1,397.8,""smooth"",""down"",""down"",""good_move"",15037.1,9935.4,2776.1,11935.1,325.9,""smooth"",""right"",""right"",""good_move"",18021.3,2984,2659.7,15037.3,324.3,""oops"",""down"",""up"",""bad_move"",21341.3,3319.7,3002.1,18021.6,317.6,""smooth"",""right"",""right"",""good_move"",23941.1,2599.6,2248.5,21341.5,351.1,""smooth"",""down"",""down"",""good_move"",26525,2583.6,2192.9,23941.4,390.7,""oops"",""down"",""left"",""bad_move"",29701.2,3175.9,2873.9,26525.3,302,""oops"",""down"",""up"",""bad_move"",32892.9,3191.5,2838.6,29701.4,352.9,""oops"",""down"",""up"",""bad_move""]","",""
"1938","","<div style=""width:500px;"">
  <p>What determined the result of this run?</p>
  </div>","0","html-slider-response","60","757684","0.0-5.0-1.10","75","1","2025-07-16 08:34:26","1f75c3e559b7213887762d5229550c2b","93.108.112.26","Mozilla/5.0 (Windows NT 10.0; Win64; x64) AppleWebKit/537.36 (KHTML, like Gecko) Chrome/138.0.0.0 Safari/537.36","WebKit","Chrome","138.0.0.0","Windows","10.0","https://app.prolific.com/","en-US,en;q=0.9","6140ef8d27499e70e8740918","68764874ac79eee8c1d4cb03","687764061a6ea09268cbf29e","2","0","6140ef8d27499e70e8740918","2","0","2025-07-16T08:47:04.899Z","","","","","","","","","","","AttribQ","","50","","","","","","","","","","","","","","","","","","","","","","","","","","","","",""
"1291","","<div style=""width:500px;"">
  <p>How much control did you have over the ball?</p>
  </div>","0","html-slider-response","61","758976","0.0-5.0-2.10","75","1","2025-07-16 08:34:26","1f75c3e559b7213887762d5229550c2b","93.108.112.26","Mozilla/5.0 (Windows NT 10.0; Win64; x64) AppleWebKit/537.36 (KHTML, like Gecko) Chrome/138.0.0.0 Safari/537.36","WebKit","Chrome","138.0.0.0","Windows","10.0","https://app.prolific.com/","en-US,en;q=0.9","6140ef8d27499e70e8740918","68764874ac79eee8c1d4cb03","687764061a6ea09268cbf29e","2","0","6140ef8d27499e70e8740918","2","0","2025-07-16T08:47:06.191Z","","","","","","","","","","","ControlQ","","50","","","","","","","","","","","","","","","","","","","","","","","","","","","","",""
"1916","","<div style=""width:500px;"">
  <p>How would you describe your current emotional state?</p>
  </div>","79","html-slider-response","62","760893","0.0-5.0-3.10","75","1","2025-07-16 08:34:26","1f75c3e559b7213887762d5229550c2b","93.108.112.26","Mozilla/5.0 (Windows NT 10.0; Win64; x64) AppleWebKit/537.36 (KHTML, like Gecko) Chrome/138.0.0.0 Safari/537.36","WebKit","Chrome","138.0.0.0","Windows","10.0","https://app.prolific.com/","en-US,en;q=0.9","6140ef8d27499e70e8740918","68764874ac79eee8c1d4cb03","687764061a6ea09268cbf29e","2","0","6140ef8d27499e70e8740918","2","0","2025-07-16T08:47:08.108Z","","","","","","","","","","","StressQ","","50","","","","","","","","","","","","","","","","","","","","","","","","","","","","",""
"1316","","<div style=""width:500px;"">
  <p>What best describes how you currently feel?</p>
  </div>","100","html-slider-response","63","762209","0.0-5.0-4.10","75","1","2025-07-16 08:34:26","1f75c3e559b7213887762d5229550c2b","93.108.112.26","Mozilla/5.0 (Windows NT 10.0; Win64; x64) AppleWebKit/537.36 (KHTML, like Gecko) Chrome/138.0.0.0 Safari/537.36","WebKit","Chrome","138.0.0.0","Windows","10.0","https://app.prolific.com/","en-US,en;q=0.9","6140ef8d27499e70e8740918","68764874ac79eee8c1d4cb03","687764061a6ea09268cbf29e","2","0","6140ef8d27499e70e8740918","2","0","2025-07-16T08:47:09.424Z","","","","","","","","","","","MotivationQ","","50","","","","","","","","","","","","","","","","","","","","","","","","","","","","",""
"","","","","ctl-task-cpt","64","780277","0.0-5.0-0.11","75","1","2025-07-16 08:34:26","1f75c3e559b7213887762d5229550c2b","93.108.112.26","Mozilla/5.0 (Windows NT 10.0; Win64; x64) AppleWebKit/537.36 (KHTML, like Gecko) Chrome/138.0.0.0 Safari/537.36","WebKit","Chrome","138.0.0.0","Windows","10.0","https://app.prolific.com/","en-US,en;q=0.9","6140ef8d27499e70e8740918","68764874ac79eee8c1d4cb03","687764061a6ea09268cbf29e","2","0","6140ef8d27499e70e8740918","2","0","2025-07-16T08:47:27.492Z","","","","","","","","","","","","","","win-only","3","g1:SW,g2:NE","0.6","12","0","763315.5","436.6","5441","15050.3","1","4","8","6","1","1","1","1","0","0.007575757575757576","583","3000","1735","[""down"",""left""]","{""num_key_presses"":4,""num_perfect"":3,""num_errors"":0,""num_randdir"":1,""num_randdir_good_moves"":1,""num_whilered"":0,""num_whileblue"":0,""num_blue"":0,""num_good_moves"":4}","[417.57142857142856,412.47767857142856,0.1,417.57142857142856,412.47767857142856,103.6,417.57142857142856,412.47767857142856,204.3,417.57142857142856,412.47767857142856,304.3,279.57142857142856,531.4776785714286,409.3,100.57142857142857,716.4776785714286,513.6,94.57142857142857,728.4776785714286,613.6,152.57142857142856,733.4776785714286,713.8,785.5714285714286,653.4776785714286,813.8,958.5714285714286,639.4776785714286,914.2,958.5714285714286,639.4776785714286,1018.8,958.5714285714286,639.4776785714286,1124.5,958.5714285714286,639.4776785714286,1229.3,958.5714285714286,639.4776785714286,1334.3,958.5714285714286,639.4776785714286,1438.8,958.5714285714286,639.4776785714286,1539.2,958.5714285714286,639.4776785714286,1644.8,958.5714285714286,639.4776785714286,1748.8,958.5714285714286,639.4776785714286,1849,958.5714285714286,639.4776785714286,1949.2,958.5714285714286,639.4776785714286,2053.8,958.5714285714286,639.4776785714286,2159,958.5714285714286,639.4776785714286,2259.2,958.5714285714286,639.4776785714286,2359.3,958.5714285714286,639.4776785714286,2463.7,958.5714285714286,639.4776785714286,2563.7,958.5714285714286,639.4776785714286,2663.9,958.5714285714286,639.4776785714286,2769.4,958.5714285714286,639.4776785714286,2874.1,958.5714285714286,639.4776785714286,2974.5,958.5714285714286,639.4776785714286,3078.8,958.5714285714286,639.4776785714286,3178.8,958.5714285714286,639.4776785714286,3283.9,958.5714285714286,639.4776785714286,3384.3,958.5714285714286,639.4776785714286,3488.8,958.5714285714286,639.4776785714286,3588.9,958.5714285714286,639.4776785714286,3689.3,958.5714285714286,639.4776785714286,3793.7,958.5714285714286,639.4776785714286,3894,958.5714285714286,639.4776785714286,3999.5,958.5714285714286,639.4776785714286,4099.6,958.5714285714286,639.4776785714286,4203.6,958.5714285714286,639.4776785714286,4303.7,958.5714285714286,639.4776785714286,4404.3,958.5714285714286,639.4776785714286,4504.6,958.5714285714286,639.4776785714286,4608.8,958.5714285714286,639.4776785714286,4709.2,958.5714285714286,639.4776785714286,4813.9,958.5714285714286,639.4776785714286,4914.5]","[1308.7,1308.7,1000,0,308.7,""smooth"",""down"",""down"",""good_move"",4300.7,2991.7,2693.8,1309,297.9,""oops"",""down"",""left"",""good_move"",7028.6,2727.7,2357.7,4300.9,370,""smooth"",""down"",""down"",""good_move"",9524.7,2495.9,2183.9,7028.8,312,""smooth"",""left"",""left"",""good_move""]","",""
"2538","","<div style=""width:500px;"">
  <p>What determined the result of this run?</p>
  </div>","61","html-slider-response","65","782816","0.0-5.0-1.11","75","1","2025-07-16 08:34:26","1f75c3e559b7213887762d5229550c2b","93.108.112.26","Mozilla/5.0 (Windows NT 10.0; Win64; x64) AppleWebKit/537.36 (KHTML, like Gecko) Chrome/138.0.0.0 Safari/537.36","WebKit","Chrome","138.0.0.0","Windows","10.0","https://app.prolific.com/","en-US,en;q=0.9","6140ef8d27499e70e8740918","68764874ac79eee8c1d4cb03","687764061a6ea09268cbf29e","2","0","6140ef8d27499e70e8740918","2","0","2025-07-16T08:47:30.031Z","","","","","","","","","","","AttribQ","","50","","","","","","","","","","","","","","","","","","","","","","","","","","","","",""
"1729","","<div style=""width:500px;"">
  <p>How much control did you have over the ball?</p>
  </div>","57","html-slider-response","66","784546","0.0-5.0-2.11","75","1","2025-07-16 08:34:26","1f75c3e559b7213887762d5229550c2b","93.108.112.26","Mozilla/5.0 (Windows NT 10.0; Win64; x64) AppleWebKit/537.36 (KHTML, like Gecko) Chrome/138.0.0.0 Safari/537.36","WebKit","Chrome","138.0.0.0","Windows","10.0","https://app.prolific.com/","en-US,en;q=0.9","6140ef8d27499e70e8740918","68764874ac79eee8c1d4cb03","687764061a6ea09268cbf29e","2","0","6140ef8d27499e70e8740918","2","0","2025-07-16T08:47:31.761Z","","","","","","","","","","","ControlQ","","50","","","","","","","","","","","","","","","","","","","","","","","","","","","","",""
"2475","","<div style=""width:500px;"">
  <p>How would you describe your current emotional state?</p>
  </div>","64","html-slider-response","67","787022","0.0-5.0-3.11","75","1","2025-07-16 08:34:26","1f75c3e559b7213887762d5229550c2b","93.108.112.26","Mozilla/5.0 (Windows NT 10.0; Win64; x64) AppleWebKit/537.36 (KHTML, like Gecko) Chrome/138.0.0.0 Safari/537.36","WebKit","Chrome","138.0.0.0","Windows","10.0","https://app.prolific.com/","en-US,en;q=0.9","6140ef8d27499e70e8740918","68764874ac79eee8c1d4cb03","687764061a6ea09268cbf29e","2","0","6140ef8d27499e70e8740918","2","0","2025-07-16T08:47:34.237Z","","","","","","","","","","","StressQ","","50","","","","","","","","","","","","","","","","","","","","","","","","","","","","",""
"1901","","<div style=""width:500px;"">
  <p>What best describes how you currently feel?</p>
  </div>","100","html-slider-response","68","788924","0.0-5.0-4.11","75","1","2025-07-16 08:34:26","1f75c3e559b7213887762d5229550c2b","93.108.112.26","Mozilla/5.0 (Windows NT 10.0; Win64; x64) AppleWebKit/537.36 (KHTML, like Gecko) Chrome/138.0.0.0 Safari/537.36","WebKit","Chrome","138.0.0.0","Windows","10.0","https://app.prolific.com/","en-US,en;q=0.9","6140ef8d27499e70e8740918","68764874ac79eee8c1d4cb03","687764061a6ea09268cbf29e","2","0","6140ef8d27499e70e8740918","2","0","2025-07-16T08:47:36.139Z","","","","","","","","","","","MotivationQ","","50","","","","","","","","","","","","","","","","","","","","","","","","","","","","",""
"","","","","ctl-task-cpt","69","833271","0.0-5.0-0.12","75","1","2025-07-16 08:34:26","1f75c3e559b7213887762d5229550c2b","93.108.112.26","Mozilla/5.0 (Windows NT 10.0; Win64; x64) AppleWebKit/537.36 (KHTML, like Gecko) Chrome/138.0.0.0 Safari/537.36","WebKit","Chrome","138.0.0.0","Windows","10.0","https://app.prolific.com/","en-US,en;q=0.9","6140ef8d27499e70e8740918","68764874ac79eee8c1d4cb03","687764061a6ea09268cbf29e","2","0","6140ef8d27499e70e8740918","2","0","2025-07-16T08:48:20.486Z","","","","","","","","","","","","","","win-only","2","g1:SE,g2:NW","0.7","13","0","790030.2","985","5985.2","41330.2","1","4","4","6","1","1","1","2","1","0.015151515151515152","705.1","3000","335","[""down"",""right""]","{""num_key_presses"":8,""num_perfect"":5,""num_errors"":0,""num_randdir"":3,""num_randdir_good_moves"":1,""num_whilered"":0,""num_whileblue"":0,""num_blue"":4,""num_good_moves"":6}","[421.57142857142856,410.47767857142856,0.1,421.57142857142856,410.47767857142856,100.6,421.57142857142856,411.47767857142856,205.2,415.57142857142856,420.47767857142856,306,415.57142857142856,420.47767857142856,411,522.5714285714286,556.4776785714286,515.4,714.5714285714286,706.4776785714286,615.6,732.5714285714286,737.4776785714286,716,748.5714285714286,751.4776785714286,816,1026.5714285714287,684.4776785714286,920.3,1286.5714285714287,610.4776785714286,1020.8,1288.5714285714287,608.4776785714286,1121,1288.5714285714287,608.4776785714286,1225.9,1288.5714285714287,608.4776785714286,1330.2,1288.5714285714287,608.4776785714286,1435.3,1288.5714285714287,608.4776785714286,1540.5,1288.5714285714287,608.4776785714286,1645.4,1288.5714285714287,608.4776785714286,1750.2,1288.5714285714287,608.4776785714286,1855.1,1288.5714285714287,608.4776785714286,1955.5,1288.5714285714287,608.4776785714286,2060.4,1288.5714285714287,608.4776785714286,2165.4,1288.5714285714287,608.4776785714286,2265.4,1288.5714285714287,608.4776785714286,2366,1288.5714285714287,608.4776785714286,2470.9,1288.5714285714287,608.4776785714286,2575.4,1288.5714285714287,608.4776785714286,2681,1288.5714285714287,608.4776785714286,2785.7,1288.5714285714287,608.4776785714286,2890.6,1288.5714285714287,608.4776785714286,2995.3,1288.5714285714287,608.4776785714286,3095.9,1288.5714285714287,608.4776785714286,3200.8,1288.5714285714287,608.4776785714286,3301,1288.5714285714287,608.4776785714286,3405.9,1288.5714285714287,608.4776785714286,3506,1288.5714285714287,608.4776785714286,3610.3,1288.5714285714287,608.4776785714286,3710.4,1288.5714285714287,608.4776785714286,3810.5,1288.5714285714287,608.4776785714286,3915.1,1288.5714285714287,608.4776785714286,4015.2,1288.5714285714287,608.4776785714286,4115.3,1288.5714285714287,608.4776785714286,4215.5,1288.5714285714287,608.4776785714286,4320,1288.5714285714287,608.4776785714286,4420.8,1288.5714285714287,608.4776785714286,4525.4,1288.5714285714287,608.4776785714286,4630.2,1288.5714285714287,608.4776785714286,4730.8,1288.5714285714287,608.4776785714286,4835.4,1288.5714285714287,608.4776785714286,4935.4]","[1265.5,1265.5,1000,0,265.5,""smooth"",""right"",""right"",""good_move"",11713.4,10447.6,2821,8535.7,356.7,""oops"",""down"",""left"",""bad_move"",14273.6,2560.1,2177.8,11713.6,382.3,""oops"",""right"",""left"",""bad_move"",19897.6,5623.8,1685,17795,417.6,""smooth"",""down"",""down"",""good_move"",25361.4,5463.5,1613.8,23420.2,327.4,""smooth"",""right"",""right"",""good_move"",28961.2,3599.6,3275.8,25361.6,323.8,""smooth"",""down"",""down"",""good_move"",32441.3,3479.8,3143.6,28961.5,336.2,""oops"",""right"",""right"",""good_move"",35257.2,2815.6,2513.7,32441.6,301.9,""smooth"",""right"",""right"",""good_move""]","",""
"3406","","<div style=""width:500px;"">
  <p>What determined the result of this run?</p>
  </div>","63","html-slider-response","70","836678","0.0-5.0-1.12","75","1","2025-07-16 08:34:26","1f75c3e559b7213887762d5229550c2b","93.108.112.26","Mozilla/5.0 (Windows NT 10.0; Win64; x64) AppleWebKit/537.36 (KHTML, like Gecko) Chrome/138.0.0.0 Safari/537.36","WebKit","Chrome","138.0.0.0","Windows","10.0","https://app.prolific.com/","en-US,en;q=0.9","6140ef8d27499e70e8740918","68764874ac79eee8c1d4cb03","687764061a6ea09268cbf29e","2","0","6140ef8d27499e70e8740918","2","0","2025-07-16T08:48:23.893Z","","","","","","","","","","","AttribQ","","50","","","","","","","","","","","","","","","","","","","","","","","","","","","","",""
"1756","","<div style=""width:500px;"">
  <p>How much control did you have over the ball?</p>
  </div>","60","html-slider-response","71","838435","0.0-5.0-2.12","75","1","2025-07-16 08:34:26","1f75c3e559b7213887762d5229550c2b","93.108.112.26","Mozilla/5.0 (Windows NT 10.0; Win64; x64) AppleWebKit/537.36 (KHTML, like Gecko) Chrome/138.0.0.0 Safari/537.36","WebKit","Chrome","138.0.0.0","Windows","10.0","https://app.prolific.com/","en-US,en;q=0.9","6140ef8d27499e70e8740918","68764874ac79eee8c1d4cb03","687764061a6ea09268cbf29e","2","0","6140ef8d27499e70e8740918","2","0","2025-07-16T08:48:25.650Z","","","","","","","","","","","ControlQ","","50","","","","","","","","","","","","","","","","","","","","","","","","","","","","",""
"2096","","<div style=""width:500px;"">
  <p>How would you describe your current emotional state?</p>
  </div>","65","html-slider-response","72","840532","0.0-5.0-3.12","75","1","2025-07-16 08:34:26","1f75c3e559b7213887762d5229550c2b","93.108.112.26","Mozilla/5.0 (Windows NT 10.0; Win64; x64) AppleWebKit/537.36 (KHTML, like Gecko) Chrome/138.0.0.0 Safari/537.36","WebKit","Chrome","138.0.0.0","Windows","10.0","https://app.prolific.com/","en-US,en;q=0.9","6140ef8d27499e70e8740918","68764874ac79eee8c1d4cb03","687764061a6ea09268cbf29e","2","0","6140ef8d27499e70e8740918","2","0","2025-07-16T08:48:27.747Z","","","","","","","","","","","StressQ","","50","","","","","","","","","","","","","","","","","","","","","","","","","","","","",""
"1465","","<div style=""width:500px;"">
  <p>What best describes how you currently feel?</p>
  </div>","100","html-slider-response","73","841998","0.0-5.0-4.12","75","1","2025-07-16 08:34:26","1f75c3e559b7213887762d5229550c2b","93.108.112.26","Mozilla/5.0 (Windows NT 10.0; Win64; x64) AppleWebKit/537.36 (KHTML, like Gecko) Chrome/138.0.0.0 Safari/537.36","WebKit","Chrome","138.0.0.0","Windows","10.0","https://app.prolific.com/","en-US,en;q=0.9","6140ef8d27499e70e8740918","68764874ac79eee8c1d4cb03","687764061a6ea09268cbf29e","2","0","6140ef8d27499e70e8740918","2","0","2025-07-16T08:48:29.213Z","","","","","","","","","","","MotivationQ","","50","","","","","","","","","","","","","","","","","","","","","","","","","","","","",""
"","","","","ctl-task-cpt","74","869486","0.0-5.0-0.13","75","1","2025-07-16 08:34:26","1f75c3e559b7213887762d5229550c2b","93.108.112.26","Mozilla/5.0 (Windows NT 10.0; Win64; x64) AppleWebKit/537.36 (KHTML, like Gecko) Chrome/138.0.0.0 Safari/537.36","WebKit","Chrome","138.0.0.0","Windows","10.0","https://app.prolific.com/","en-US,en;q=0.9","6140ef8d27499e70e8740918","68764874ac79eee8c1d4cb03","687764061a6ea09268cbf29e","2","0","6140ef8d27499e70e8740918","2","0","2025-07-16T08:48:56.701Z","","","","","","","","","","","","","","win-only","0","g1:NW,g2:SE","0.8","14","0","843104","768.9","5770.4","24470.2","1","4","8","6","1","1","1","3","2","0.022727272727272728","722.3","3000","845","[""left"",""up""]","{""num_key_presses"":6,""num_perfect"":5,""num_errors"":0,""num_randdir"":1,""num_randdir_good_moves"":0,""num_whilered"":0,""num_whileblue"":0,""num_blue"":1,""num_good_moves"":5}","[407.57142857142856,420.47767857142856,0.1,407.57142857142856,420.47767857142856,102,407.57142857142856,420.47767857142856,206.5,407.57142857142856,420.47767857142856,311.6,343.57142857142856,344.47767857142856,417,213.57142857142856,226.47767857142856,517.1,94.57142857142857,125.47767857142857,617.9,80.57142857142857,94.47767857142857,721.3,83.57142857142857,97.47767857142857,821.9,693.5714285714286,270.47767857142856,926.9,1122.5714285714287,320.47767857142856,1027,1122.5714285714287,320.47767857142856,1131.5,1122.5714285714287,320.47767857142856,1232.1,1122.5714285714287,320.47767857142856,1332.3,1122.5714285714287,320.47767857142856,1436.9,1122.5714285714287,320.47767857142856,1537.2,1122.5714285714287,320.47767857142856,1642.8,1122.5714285714287,320.47767857142856,1746.8,1122.5714285714287,320.47767857142856,1852.1,1122.5714285714287,320.47767857142856,1957.1,1122.5714285714287,320.47767857142856,2062.1,1122.5714285714287,320.47767857142856,2166.7,1122.5714285714287,320.47767857142856,2266.8,1122.5714285714287,320.47767857142856,2366.8,1122.5714285714287,320.47767857142856,2467.1,1122.5714285714287,320.47767857142856,2571.4,1122.5714285714287,320.47767857142856,2671.5,1122.5714285714287,320.47767857142856,2776.2,1122.5714285714287,320.47767857142856,2876.6,1122.5714285714287,320.47767857142856,2982.6,1122.5714285714287,320.47767857142856,3086.7,1122.5714285714287,320.47767857142856,3191.7,1122.5714285714287,320.47767857142856,3291.8,1122.5714285714287,320.47767857142856,3392,1122.5714285714287,320.47767857142856,3492.1,1122.5714285714287,320.47767857142856,3592.1,1122.5714285714287,320.47767857142856,3696.5,1122.5714285714287,320.47767857142856,3796.5,1122.5714285714287,320.47767857142856,3896.7,1122.5714285714287,320.47767857142856,4001.2,1122.5714285714287,320.47767857142856,4101.6,1122.5714285714287,320.47767857142856,4202.1,1122.5714285714287,320.47767857142856,4307.3,1122.5714285714287,320.47767857142856,4412.1,1122.5714285714287,320.47767857142856,4512.3,1122.5714285714287,320.47767857142856,4616.6,1122.5714285714287,320.47767857142856,4716.9,1122.5714285714287,320.47767857142856,4816.9,1122.5714285714287,320.47767857142856,4916.9]","[1302.3,1302.3,1000,0,302.3,""smooth"",""up"",""up"",""good_move"",4405.9,3103.4,2744.4,1302.5,359,""smooth"",""up"",""up"",""good_move"",6734,2328,1943.9,4406,384.1,""smooth"",""left"",""left"",""good_move"",9838.1,3103.9,2778.2,6734.2,325.7,""oops"",""left"",""down"",""bad_move"",15366.1,5527.8,1799.4,13150.1,416.6,""smooth"",""left"",""left"",""good_move"",18613.9,3247.5,2846.6,15366.4,400.9,""smooth"",""up"",""up"",""good_move""]","",""
"4874","","<div style=""width:500px;"">
  <p>What determined the result of this run?</p>
  </div>","84","html-slider-response","75","874360","0.0-5.0-1.13","75","1","2025-07-16 08:34:26","1f75c3e559b7213887762d5229550c2b","93.108.112.26","Mozilla/5.0 (Windows NT 10.0; Win64; x64) AppleWebKit/537.36 (KHTML, like Gecko) Chrome/138.0.0.0 Safari/537.36","WebKit","Chrome","138.0.0.0","Windows","10.0","https://app.prolific.com/","en-US,en;q=0.9","6140ef8d27499e70e8740918","68764874ac79eee8c1d4cb03","687764061a6ea09268cbf29e","2","0","6140ef8d27499e70e8740918","2","0","2025-07-16T08:49:01.575Z","","","","","","","","","","","AttribQ","","50","","","","","","","","","","","","","","","","","","","","","","","","","","","","",""
"1789","","<div style=""width:500px;"">
  <p>How much control did you have over the ball?</p>
