"rt","response_timestamp","stimulus","response","trial_type","trial_index","time_elapsed","internal_node_id","run_id","condition","recorded_at","source_code_version","ip","user_agent","device","browser","browser_version","platform","platform_version","referer","accept_language","PROLIFIC_PID","STUDY_ID","SESSION_ID","WEEK","BATCH","prolific_id","week","batch","realtime","success","responses","item_order","radio_event_ids","radio_event_times","key_event_times","mouse_event_times","straightlining","zigzagging","honeypot","eventType","view_history","slider_start","which_type","canvas_config","goals_layout","control_level","trial_number","tutorial_trial_number","trial_start_time","phase1_start_time","phase2_start_time","phase3_start_time","goal_1_value","goal_1_distance","goal_2_value","goal_2_distance","goal_selected","outcome","outcome_total","participant_final_score","participant_initial_score","participant_final_score_prop","goal_choice_rt","allocated_time","allocated_time_remaining","goal_direction","counts","mouse_movements","key_presses","question_order","question_id"
"1563","1753259896031","<p style='font-size:40px;line-height:1.25'><strong>Welcome to the experiment!</strong></p><p style='font-size:1.1em;line-height:1.25'>Thank you for participanting in our experiment again! You will be asked to play the Dysfunctional Ball Game again. We will briefly recap the rules before we start.</p><p style='font-size:1.1em;line-height:1.25'>Press <strong>Next</strong> to continue.</p>","0","custom-html-button-response","0","1577","0.0-0.0","195","1","2025-07-23 08:38:08","1f75c3e559b7213887762d5229550c2b","220.240.86.112","Mozilla/5.0 (Windows NT 10.0; Win64; x64; rv:140.0) Gecko/20100101 Firefox/140.0","","Firefox","140.0","Windows","10.0","https://app.prolific.com/","en-US,en;q=0.5","642cb1f7f42c4e0a6c5d4eef","683db9eb0562dbf637994deb","68809f628746bb47f5a3fe3e","2","1","642cb1f7f42c4e0a6c5d4eef","2","1","2025-07-23T08:38:16.031Z","","","","","","","","","","","","","","","","","","","","","","","","","","","","","","","","","","","","","","","","","",""
"1894","","","","fullscreen","1","4476","0.0-1.0","195","1","2025-07-23 08:38:08","1f75c3e559b7213887762d5229550c2b","220.240.86.112","Mozilla/5.0 (Windows NT 10.0; Win64; x64; rv:140.0) Gecko/20100101 Firefox/140.0","","Firefox","140.0","Windows","10.0","https://app.prolific.com/","en-US,en;q=0.5","642cb1f7f42c4e0a6c5d4eef","683db9eb0562dbf637994deb","68809f628746bb47f5a3fe3e","2","1","642cb1f7f42c4e0a6c5d4eef","2","1","","true","","","","","","","","","","","","","","","","","","","","","","","","","","","","","","","","","","","","","","","","",""
"1870","1753259900802","<p style='font-size:1.1em;line-height:1.25'>In the following, we will ask you a few questions relating to your feelings in the last 24 hours.<br></p><p style='font-size:1.1em;line-height:1.25'>Press the <strong>Next</strong> button to continue.</p>","0","custom-html-button-response","2","6348","0.0-2.0-0.0","195","1","2025-07-23 08:38:08","1f75c3e559b7213887762d5229550c2b","220.240.86.112","Mozilla/5.0 (Windows NT 10.0; Win64; x64; rv:140.0) Gecko/20100101 Firefox/140.0","","Firefox","140.0","Windows","10.0","https://app.prolific.com/","en-US,en;q=0.5","642cb1f7f42c4e0a6c5d4eef","683db9eb0562dbf637994deb","68809f628746bb47f5a3fe3e","2","1","642cb1f7f42c4e0a6c5d4eef","2","1","2025-07-23T08:38:20.802Z","","","","","","","","","","","","","","","","","","","","","","","","","","","","","","","","","","","","","","","","","",""
"49539","","","","survey-template","3","55896","0.0-2.0-1.0","195","1","2025-07-23 08:38:08","1f75c3e559b7213887762d5229550c2b","220.240.86.112","Mozilla/5.0 (Windows NT 10.0; Win64; x64; rv:140.0) Gecko/20100101 Firefox/140.0","","Firefox","140.0","Windows","10.0","https://app.prolific.com/","en-US,en;q=0.5","642cb1f7f42c4e0a6c5d4eef","683db9eb0562dbf637994deb","68809f628746bb47f5a3fe3e","2","1","642cb1f7f42c4e0a6c5d4eef","2","1","2025-07-23T08:39:10.350Z","","{""Q01"":""0"",""Q02"":""0"",""Q03"":""0"",""Q04"":""2"",""Q05"":""0"",""Q06"":""1"",""Q07"":""0"",""Q08"":""1"",""Q09"":""0"",""Q10"":""3"",""Q11"":""1"",""Q12"":""0"",""Q13"":""5"",""Q14"":""1"",""Q15"":""0"",""Q16"":""1"",""Q17"":""1"",""Q18"":""0"",""Q19"":""2"",""Q20"":""3"",""Q21"":""1"",""Q22"":""0""}","[0,1,2,3,4,5,6,7,8,9,10,11,12,13,14,15,16,17,18,19,20,21]","[""Q01"",""Q01"",""Q02"",""Q03"",""Q04"",""Q05"",""Q06"",""Q06"",""Q04"",""Q07"",""Q08"",""Q09"",""Q10"",""Q11"",""Q12"",""Q13"",""Q14"",""Q15"",""Q16"",""Q17"",""Q18"",""Q19"",""Q20"",""Q21"",""Q22""]","[3044,4225,6210,7228,8540,9734,11319,12577,15138,17102,18467,19994,24122,25683,27171,28559,30134,32827,34395,36795,38302,41663,44809,46545,48400]","[]","[1,3044,4225,5420,6210,7228,8540,9734,11319,12577,13695,15138,17102,18467,19994,22569,24122,25683,27171,28559,30134,32827,34395,36795,38302,41663,44809,46545,48400,49534]","0.45454545454545453","0.5238095238095238","0","drsp","","","","","","","","","","","","","","","","","","","","","","","","","","","","","","",""
"26829","","","","survey-template","4","82733","0.0-2.0-2.0","195","1","2025-07-23 08:38:08","1f75c3e559b7213887762d5229550c2b","220.240.86.112","Mozilla/5.0 (Windows NT 10.0; Win64; x64; rv:140.0) Gecko/20100101 Firefox/140.0","","Firefox","140.0","Windows","10.0","https://app.prolific.com/","en-US,en;q=0.5","642cb1f7f42c4e0a6c5d4eef","683db9eb0562dbf637994deb","68809f628746bb47f5a3fe3e","2","1","642cb1f7f42c4e0a6c5d4eef","2","1","2025-07-23T08:39:37.187Z","","{""Q01"":""2"",""Q02"":""3"",""Q03"":""1""}","[0,1,2]","[""Q01"",""Q02"",""Q03""]","[2298,6507,25180]","[]","[2298,6507,25180,26828]","0.6666666666666666","0.5","0","stress","","","","","","","","","","","","","","","","","","","","","","","","","","","","","","",""
"4677","","","","instructions","5","87415","0.0-3.0-0.0","195","1","2025-07-23 08:38:08","1f75c3e559b7213887762d5229550c2b","220.240.86.112","Mozilla/5.0 (Windows NT 10.0; Win64; x64; rv:140.0) Gecko/20100101 Firefox/140.0","","Firefox","140.0","Windows","10.0","https://app.prolific.com/","en-US,en;q=0.5","642cb1f7f42c4e0a6c5d4eef","683db9eb0562dbf637994deb","68809f628746bb47f5a3fe3e","2","1","642cb1f7f42c4e0a6c5d4eef","2","1","","","","","","","","","","","","","[{""page_index"":0,""viewing_time"":4677}]","","","","","","","","","","","","","","","","","","","","","","","","","","","","","",""
"8271","","<p>Before you start with this game please answer the following three questions yourself. </p>
  <p>Through this game, we measure several aspects of your cognitive performance, such as reaction times, multi-tasking capabilities </p>
  <p>and the ability to assess the situation you are in.</p>
  <p></p>
  <p><b>How good do you usually are in such tasks?</b></p>","64","html-slider-response","6","95689","0.0-4.0-0.0","195","1","2025-07-23 08:38:08","1f75c3e559b7213887762d5229550c2b","220.240.86.112","Mozilla/5.0 (Windows NT 10.0; Win64; x64; rv:140.0) Gecko/20100101 Firefox/140.0","","Firefox","140.0","Windows","10.0","https://app.prolific.com/","en-US,en;q=0.5","642cb1f7f42c4e0a6c5d4eef","683db9eb0562dbf637994deb","68809f628746bb47f5a3fe3e","2","1","642cb1f7f42c4e0a6c5d4eef","2","1","2025-07-23T08:39:50.143Z","","","","","","","","","","","PreSkillQ","","50","","","","","","","","","","","","","","","","","","","","","","","","","","","","",""
"2607","","<div style=""width:500px;"">
  <p>How well do you think you will perform in this task compared to other participants?</p>
  </div>","50","html-slider-response","7","98298","0.0-4.0-1.0","195","1","2025-07-23 08:38:08","1f75c3e559b7213887762d5229550c2b","220.240.86.112","Mozilla/5.0 (Windows NT 10.0; Win64; x64; rv:140.0) Gecko/20100101 Firefox/140.0","","Firefox","140.0","Windows","10.0","https://app.prolific.com/","en-US,en;q=0.5","642cb1f7f42c4e0a6c5d4eef","683db9eb0562dbf637994deb","68809f628746bb47f5a3fe3e","2","1","642cb1f7f42c4e0a6c5d4eef","2","1","2025-07-23T08:39:52.752Z","","","","","","","","","","","PrePerfQ","","50","","","","","","","","","","","","","","","","","","","","","","","","","","","","",""
"2780","","<div style=""width:500px;"">
  <p>What best describes how you currently feel?</p>
  </div>","42","html-slider-response","8","101081","0.0-4.0-2.0","195","1","2025-07-23 08:38:08","1f75c3e559b7213887762d5229550c2b","220.240.86.112","Mozilla/5.0 (Windows NT 10.0; Win64; x64; rv:140.0) Gecko/20100101 Firefox/140.0","","Firefox","140.0","Windows","10.0","https://app.prolific.com/","en-US,en;q=0.5","642cb1f7f42c4e0a6c5d4eef","683db9eb0562dbf637994deb","68809f628746bb47f5a3fe3e","2","1","642cb1f7f42c4e0a6c5d4eef","2","1","2025-07-23T08:39:55.535Z","","","","","","","","","","","PreMotivationQ","","50","","","","","","","","","","","","","","","","","","","","","","","","","","","","",""
"","","","","ctl-task-cpt","9","136791","0.0-5.0-0.0","195","1","2025-07-23 08:38:08","1f75c3e559b7213887762d5229550c2b","220.240.86.112","Mozilla/5.0 (Windows NT 10.0; Win64; x64; rv:140.0) Gecko/20100101 Firefox/140.0","","Firefox","140.0","Windows","10.0","https://app.prolific.com/","en-US,en;q=0.5","642cb1f7f42c4e0a6c5d4eef","683db9eb0562dbf637994deb","68809f628746bb47f5a3fe3e","2","1","642cb1f7f42c4e0a6c5d4eef","2","1","2025-07-23T08:40:31.246Z","","","","","","","","","","","","","","win-only","2","g1:SE,g2:NW","1","1","0","109003","1211","6221","32661","1","4","4","6","2","4","3","3","0","0.022727272727272728","2009","3000","2245","[""left"",""up""]","{""num_key_presses"":8,""num_perfect"":7,""num_errors"":1,""num_randdir"":0,""num_randdir_good_moves"":0,""num_whilered"":0,""num_whileblue"":1,""num_blue"":2,""num_good_moves"":7}","[422.8214133126395,423.8214362008231,0,422.8214133126395,423.8214362008231,110,422.8214133126395,423.8214362008231,221,422.8214133126395,423.8214362008231,333,422.8214133126395,423.8214362008231,443,881.5714133126395,438.8214362008231,554,979.0714133126395,442.5714362008231,666,979.0714133126395,442.5714362008231,777,979.0714133126395,442.5714362008231,888,979.0714133126395,442.5714362008231,1001,979.0714133126395,442.5714362008231,1111,979.0714133126395,442.5714362008231,1222,979.0714133126395,442.5714362008231,1333,979.0714133126395,442.5714362008231,1445,979.0714133126395,442.5714362008231,1559,100.3214133126395,58.8214362008231,1669,57.82141331263951,33.8214362008231,1781,55.32141331263951,22.5714362008231,1891,55.32141331263951,22.5714362008231,2002,55.32141331263951,22.5714362008231,2114,55.32141331263951,22.5714362008231,2223,55.32141331263951,22.5714362008231,2335,55.32141331263951,22.5714362008231,2445,55.32141331263951,22.5714362008231,2554,55.32141331263951,22.5714362008231,2666,55.32141331263951,22.5714362008231,2777,55.32141331263951,22.5714362008231,2890,55.32141331263951,22.5714362008231,3000,55.32141331263951,22.5714362008231,3111,55.32141331263951,22.5714362008231,3222,55.32141331263951,22.5714362008231,3333,55.32141331263951,22.5714362008231,3445,55.32141331263951,22.5714362008231,3556,55.32141331263951,22.5714362008231,3670,55.32141331263951,22.5714362008231,3780,55.32141331263951,22.5714362008231,3891,55.32141331263951,22.5714362008231,4002,55.32141331263951,22.5714362008231,4115,55.32141331263951,22.5714362008231,4222,55.32141331263951,22.5714362008231,4335,55.32141331263951,22.5714362008231,4445,55.32141331263951,22.5714362008231,4559,55.32141331263951,22.5714362008231,4659,55.32141331263951,22.5714362008231,4771,55.32141331263951,22.5714362008231,4884,55.32141331263951,22.5714362008231,4993]","[4745,4745,2348.6,2008,388.4,""smooth"",""left"",""left"",""good_move"",7838,3092,2275.5,4746,816.5,""smooth"",""left"",""left"",""good_move"",10892,3054,2710,7838,344,""while_blue"",""left"",""right"",""bad_move"",13979,3087,2667,10892,420,""smooth"",""left"",""left"",""good_move"",17045,3066,1238.9,13979,1827.1,""smooth"",""left"",""left"",""good_move"",20044,2997,1876.9,17047,1120.1,""smooth"",""up"",""up"",""good_move"",23096,3052,2406.8,20044,645.2,""smooth"",""up"",""up"",""good_move"",26143,3046,2511.7,23097,534.3,""smooth"",""up"",""up"",""good_move""]","",""
"3622","","<div style=""width:500px;"">
  <p>What determined the result of this run?</p>
  </div>","77","html-slider-response","10","140419","0.0-5.0-1.0","195","1","2025-07-23 08:38:08","1f75c3e559b7213887762d5229550c2b","220.240.86.112","Mozilla/5.0 (Windows NT 10.0; Win64; x64; rv:140.0) Gecko/20100101 Firefox/140.0","","Firefox","140.0","Windows","10.0","https://app.prolific.com/","en-US,en;q=0.5","642cb1f7f42c4e0a6c5d4eef","683db9eb0562dbf637994deb","68809f628746bb47f5a3fe3e","2","1","642cb1f7f42c4e0a6c5d4eef","2","1","2025-07-23T08:40:34.873Z","","","","","","","","","","","AttribQ","","50","","","","","","","","","","","","","","","","","","","","","","","","","","","","",""
"4662","","<div style=""width:500px;"">
  <p>How much control did you have over the ball?</p>
  </div>","58","html-slider-response","11","145085","0.0-5.0-2.0","195","1","2025-07-23 08:38:08","1f75c3e559b7213887762d5229550c2b","220.240.86.112","Mozilla/5.0 (Windows NT 10.0; Win64; x64; rv:140.0) Gecko/20100101 Firefox/140.0","","Firefox","140.0","Windows","10.0","https://app.prolific.com/","en-US,en;q=0.5","642cb1f7f42c4e0a6c5d4eef","683db9eb0562dbf637994deb","68809f628746bb47f5a3fe3e","2","1","642cb1f7f42c4e0a6c5d4eef","2","1","2025-07-23T08:40:39.539Z","","","","","","","","","","","ControlQ","","50","","","","","","","","","","","","","","","","","","","","","","","","","","","","",""
"2864","","<div style=""width:500px;"">
  <p>How would you describe your current emotional state?</p>
  </div>","50","html-slider-response","12","147953","0.0-5.0-3.0","195","1","2025-07-23 08:38:08","1f75c3e559b7213887762d5229550c2b","220.240.86.112","Mozilla/5.0 (Windows NT 10.0; Win64; x64; rv:140.0) Gecko/20100101 Firefox/140.0","","Firefox","140.0","Windows","10.0","https://app.prolific.com/","en-US,en;q=0.5","642cb1f7f42c4e0a6c5d4eef","683db9eb0562dbf637994deb","68809f628746bb47f5a3fe3e","2","1","642cb1f7f42c4e0a6c5d4eef","2","1","2025-07-23T08:40:42.407Z","","","","","","","","","","","StressQ","","50","","","","","","","","","","","","","","","","","","","","","","","","","","","","",""
"2936","","<div style=""width:500px;"">
  <p>What best describes how you currently feel?</p>
  </div>","45","html-slider-response","13","150889","0.0-5.0-4.0","195","1","2025-07-23 08:38:08","1f75c3e559b7213887762d5229550c2b","220.240.86.112","Mozilla/5.0 (Windows NT 10.0; Win64; x64; rv:140.0) Gecko/20100101 Firefox/140.0","","Firefox","140.0","Windows","10.0","https://app.prolific.com/","en-US,en;q=0.5","642cb1f7f42c4e0a6c5d4eef","683db9eb0562dbf637994deb","68809f628746bb47f5a3fe3e","2","1","642cb1f7f42c4e0a6c5d4eef","2","1","2025-07-23T08:40:45.344Z","","","","","","","","","","","MotivationQ","","50","","","","","","","","","","","","","","","","","","","","","","","","","","","","",""
"","","","","ctl-task-cpt","14","183204","0.0-5.0-0.1","195","1","2025-07-23 08:38:08","1f75c3e559b7213887762d5229550c2b","220.240.86.112","Mozilla/5.0 (Windows NT 10.0; Win64; x64; rv:140.0) Gecko/20100101 Firefox/140.0","","Firefox","140.0","Windows","10.0","https://app.prolific.com/","en-US,en;q=0.5","642cb1f7f42c4e0a6c5d4eef","683db9eb0562dbf637994deb","68809f628746bb47f5a3fe3e","2","1","642cb1f7f42c4e0a6c5d4eef","2","1","2025-07-23T08:41:17.659Z","","","","","","","","","","","","","","win-only","1","g1:NE,g2:SW","0.9","2","0","158772","1032","6041","29299","1","4","8","6","2","8","8","11","3","0.08333333333333333","1272","3000","2155","[""down"",""left""]","{""num_key_presses"":8,""num_perfect"":7,""num_errors"":0,""num_randdir"":1,""num_randdir_good_moves"":0,""num_whilered"":0,""num_whileblue"":0,""num_blue"":0,""num_good_moves"":7}","[410.3214133126395,410.0714362008231,0,410.3214133126395,410.0714362008231,102,410.3214133126395,410.0714362008231,213,410.3214133126395,410.0714362008231,326,514.0714133126395,307.5714362008231,435,816.5714133126395,56.3214362008231,547,795.3214133126395,63.8214362008231,658,236.5714133126395,671.3214362008231,766,202.8214133126395,690.0714362008231,878,135.3214133126395,713.8214362008231,990,76.5714133126395,751.3214362008231,1100,69.0714133126395,755.0714362008231,1214,69.0714133126395,755.0714362008231,1323,69.0714133126395,755.0714362008231,1435,69.0714133126395,755.0714362008231,1547,69.0714133126395,755.0714362008231,1662,69.0714133126395,755.0714362008231,1770,69.0714133126395,755.0714362008231,1881,69.0714133126395,755.0714362008231,1991,69.0714133126395,755.0714362008231,2101,69.0714133126395,755.0714362008231,2214,69.0714133126395,755.0714362008231,2314,69.0714133126395,755.0714362008231,2423,69.0714133126395,755.0714362008231,2536,69.0714133126395,755.0714362008231,2648,69.0714133126395,755.0714362008231,2760,69.0714133126395,755.0714362008231,2871,69.0714133126395,755.0714362008231,2982,69.0714133126395,755.0714362008231,3093,69.0714133126395,755.0714362008231,3204,69.0714133126395,755.0714362008231,3319,69.0714133126395,755.0714362008231,3431,69.0714133126395,755.0714362008231,3543,69.0714133126395,755.0714362008231,3653,69.0714133126395,755.0714362008231,3764,69.0714133126395,755.0714362008231,3876,69.0714133126395,755.0714362008231,3987,69.0714133126395,755.0714362008231,4097,69.0714133126395,755.0714362008231,4208,69.0714133126395,755.0714362008231,4319,69.0714133126395,755.0714362008231,4419,69.0714133126395,755.0714362008231,4530,69.0714133126395,755.0714362008231,4644,69.0714133126395,755.0714362008231,4753,69.0714133126395,755.0714362008231,4866,69.0714133126395,755.0714362008231,4978]","[1444,1444,1000,1,443,""smooth"",""down"",""down"",""good_move"",5059,3614,3298.1,1445,315.9,""smooth"",""down"",""down"",""good_move"",7745,2686,2322.8,5059,363.2,""oops"",""down"",""right"",""bad_move"",10541,2796,2448.7,7745,347.3,""smooth"",""down"",""down"",""good_move"",13441,2898,2527.7,10543,370.3,""smooth"",""left"",""left"",""good_move"",16441,2999,1911.9,13442,1087.1,""smooth"",""left"",""left"",""good_move"",19475,3034,2511.4,16441,522.6,""smooth"",""left"",""left"",""good_move"",22975,3499,3190.2,19476,308.8,""smooth"",""left"",""left"",""good_move""]","",""
"8713","","<div style=""width:500px;"">
  <p>What determined the result of this run?</p>
  </div>","68","html-slider-response","15","191922","0.0-5.0-1.1","195","1","2025-07-23 08:38:08","1f75c3e559b7213887762d5229550c2b","220.240.86.112","Mozilla/5.0 (Windows NT 10.0; Win64; x64; rv:140.0) Gecko/20100101 Firefox/140.0","","Firefox","140.0","Windows","10.0","https://app.prolific.com/","en-US,en;q=0.5","642cb1f7f42c4e0a6c5d4eef","683db9eb0562dbf637994deb","68809f628746bb47f5a3fe3e","2","1","642cb1f7f42c4e0a6c5d4eef","2","1","2025-07-23T08:41:26.376Z","","","","","","","","","","","AttribQ","","50","","","","","","","","","","","","","","","","","","","","","","","","","","","","",""
"3754","","<div style=""width:500px;"">
  <p>How much control did you have over the ball?</p>
  </div>","61","html-slider-response","16","195678","0.0-5.0-2.1","195","1","2025-07-23 08:38:08","1f75c3e559b7213887762d5229550c2b","220.240.86.112","Mozilla/5.0 (Windows NT 10.0; Win64; x64; rv:140.0) Gecko/20100101 Firefox/140.0","","Firefox","140.0","Windows","10.0","https://app.prolific.com/","en-US,en;q=0.5","642cb1f7f42c4e0a6c5d4eef","683db9eb0562dbf637994deb","68809f628746bb47f5a3fe3e","2","1","642cb1f7f42c4e0a6c5d4eef","2","1","2025-07-23T08:41:30.132Z","","","","","","","","","","","ControlQ","","50","","","","","","","","","","","","","","","","","","","","","","","","","","","","",""
"2772","","<div style=""width:500px;"">
  <p>How would you describe your current emotional state?</p>
  </div>","50","html-slider-response","17","198452","0.0-5.0-3.1","195","1","2025-07-23 08:38:08","1f75c3e559b7213887762d5229550c2b","220.240.86.112","Mozilla/5.0 (Windows NT 10.0; Win64; x64; rv:140.0) Gecko/20100101 Firefox/140.0","","Firefox","140.0","Windows","10.0","https://app.prolific.com/","en-US,en;q=0.5","642cb1f7f42c4e0a6c5d4eef","683db9eb0562dbf637994deb","68809f628746bb47f5a3fe3e","2","1","642cb1f7f42c4e0a6c5d4eef","2","1","2025-07-23T08:41:32.906Z","","","","","","","","","","","StressQ","","50","","","","","","","","","","","","","","","","","","","","","","","","","","","","",""
"3084","","<div style=""width:500px;"">
  <p>What best describes how you currently feel?</p>
  </div>","46","html-slider-response","18","201540","0.0-5.0-4.1","195","1","2025-07-23 08:38:08","1f75c3e559b7213887762d5229550c2b","220.240.86.112","Mozilla/5.0 (Windows NT 10.0; Win64; x64; rv:140.0) Gecko/20100101 Firefox/140.0","","Firefox","140.0","Windows","10.0","https://app.prolific.com/","en-US,en;q=0.5","642cb1f7f42c4e0a6c5d4eef","683db9eb0562dbf637994deb","68809f628746bb47f5a3fe3e","2","1","642cb1f7f42c4e0a6c5d4eef","2","1","2025-07-23T08:41:35.994Z","","","","","","","","","","","MotivationQ","","50","","","","","","","","","","","","","","","","","","","","","","","","","","","","",""
"","","","","ctl-task-cpt","19","255508","0.0-5.0-0.2","195","1","2025-07-23 08:38:08","1f75c3e559b7213887762d5229550c2b","220.240.86.112","Mozilla/5.0 (Windows NT 10.0; Win64; x64; rv:140.0) Gecko/20100101 Firefox/140.0","","Firefox","140.0","Windows","10.0","https://app.prolific.com/","en-US,en;q=0.5","642cb1f7f42c4e0a6c5d4eef","683db9eb0562dbf637994deb","68809f628746bb47f5a3fe3e","2","1","642cb1f7f42c4e0a6c5d4eef","2","1","2025-07-23T08:42:29.962Z","","","","","","","","","","","","","","win-only","2","g1:SE,g2:NW","0.8","3","0","209423","1436","6450","50960","1","4","4","6","2","4","3","14","11","0.10606060606060606","995","3000","1565","[""left"",""up""]","{""num_key_presses"":14,""num_perfect"":10,""num_errors"":1,""num_randdir"":3,""num_randdir_good_moves"":0,""num_whilered"":0,""num_whileblue"":1,""num_blue"":2,""num_good_moves"":10}","[411.5714133126395,415.0714362008231,0,411.5714133126395,415.0714362008231,113,411.5714133126395,415.0714362008231,226,411.5714133126395,415.0714362008231,335,264.0714133126395,198.8214362008231,446,164.0714133126395,61.3214362008231,559,145.3214133126395,51.3214362008231,669,107.8214133126395,57.5714362008231,778,97.8214133126395,57.5714362008231,890,97.8214133126395,57.5714362008231,1000,97.8214133126395,57.5714362008231,1110,97.8214133126395,57.5714362008231,1222,97.8214133126395,57.5714362008231,1333,97.8214133126395,57.5714362008231,1444,97.8214133126395,57.5714362008231,1554,97.8214133126395,57.5714362008231,1665,97.8214133126395,57.5714362008231,1776,97.8214133126395,57.5714362008231,1887,97.8214133126395,57.5714362008231,2002,97.8214133126395,57.5714362008231,2112,97.8214133126395,57.5714362008231,2222,97.8214133126395,57.5714362008231,2332,97.8214133126395,57.5714362008231,2443,97.8214133126395,57.5714362008231,2558,97.8214133126395,57.5714362008231,2667,97.8214133126395,57.5714362008231,2778,97.8214133126395,57.5714362008231,2892,97.8214133126395,57.5714362008231,3001,97.8214133126395,57.5714362008231,3113,97.8214133126395,57.5714362008231,3226,97.8214133126395,57.5714362008231,3336,97.8214133126395,57.5714362008231,3448,97.8214133126395,57.5714362008231,3561,97.8214133126395,57.5714362008231,3673,97.8214133126395,57.5714362008231,3784,97.8214133126395,57.5714362008231,3897,97.8214133126395,57.5714362008231,4007,97.8214133126395,57.5714362008231,4117,97.8214133126395,57.5714362008231,4229,97.8214133126395,57.5714362008231,4340,97.8214133126395,57.5714362008231,4452,97.8214133126395,57.5714362008231,4565,97.8214133126395,57.5714362008231,4679,97.8214133126395,57.5714362008231,4790,97.8214133126395,57.5714362008231,4901]","[1440,1440,1000,0,440,""smooth"",""left"",""left"",""good_move"",4509,3069,2686.7,1440,382.3,""oops"",""left"",""down"",""bad_move"",7586,3077,2719.2,4509,357.8,""smooth"",""left"",""left"",""good_move"",10988,3402,3085.9,7586,316.1,""oops"",""left"",""right"",""bad_move"",14071,3082,2749.3,10989,332.7,""smooth"",""left"",""left"",""good_move"",17250,3178,2857,14072,321,""smooth"",""left"",""left"",""good_move"",20266,3016,2695,17250,321,""while_blue"",""up"",""down"",""bad_move"",22620,2354,1952.1,20266,401.9,""smooth"",""up"",""up"",""good_move"",25691,3071,1874.6,22620,1196.4,""smooth"",""up"",""up"",""good_move"",32151,6460,1707.8,30044,399.2,""smooth"",""up"",""up"",""good_move"",35252,3101,2139.7,32151,961.3,""smooth"",""up"",""up"",""good_move"",38324,3072,2312.4,35252,759.6,""oops"",""up"",""right"",""bad_move"",41200,2876,2537,38324,339,""smooth"",""up"",""up"",""good_move"",44236,3035,1786.5,41201,1248.5,""smooth"",""left"",""left"",""good_move""]","",""
"6783","","<div style=""width:500px;"">
  <p>What determined the result of this run?</p>
  </div>","57","html-slider-response","20","262297","0.0-5.0-1.2","195","1","2025-07-23 08:38:08","1f75c3e559b7213887762d5229550c2b","220.240.86.112","Mozilla/5.0 (Windows NT 10.0; Win64; x64; rv:140.0) Gecko/20100101 Firefox/140.0","","Firefox","140.0","Windows","10.0","https://app.prolific.com/","en-US,en;q=0.5","642cb1f7f42c4e0a6c5d4eef","683db9eb0562dbf637994deb","68809f628746bb47f5a3fe3e","2","1","642cb1f7f42c4e0a6c5d4eef","2","1","2025-07-23T08:42:36.751Z","","","","","","","","","","","AttribQ","","50","","","","","","","","","","","","","","","","","","","","","","","","","","","","",""
"3196","","<div style=""width:500px;"">
  <p>How much control did you have over the ball?</p>
  </div>","66","html-slider-response","21","265496","0.0-5.0-2.2","195","1","2025-07-23 08:38:08","1f75c3e559b7213887762d5229550c2b","220.240.86.112","Mozilla/5.0 (Windows NT 10.0; Win64; x64; rv:140.0) Gecko/20100101 Firefox/140.0","","Firefox","140.0","Windows","10.0","https://app.prolific.com/","en-US,en;q=0.5","642cb1f7f42c4e0a6c5d4eef","683db9eb0562dbf637994deb","68809f628746bb47f5a3fe3e","2","1","642cb1f7f42c4e0a6c5d4eef","2","1","2025-07-23T08:42:39.951Z","","","","","","","","","","","ControlQ","","50","","","","","","","","","","","","","","","","","","","","","","","","","","","","",""
"2264","","<div style=""width:500px;"">
  <p>How would you describe your current emotional state?</p>
  </div>","50","html-slider-response","22","267762","0.0-5.0-3.2","195","1","2025-07-23 08:38:08","1f75c3e559b7213887762d5229550c2b","220.240.86.112","Mozilla/5.0 (Windows NT 10.0; Win64; x64; rv:140.0) Gecko/20100101 Firefox/140.0","","Firefox","140.0","Windows","10.0","https://app.prolific.com/","en-US,en;q=0.5","642cb1f7f42c4e0a6c5d4eef","683db9eb0562dbf637994deb","68809f628746bb47f5a3fe3e","2","1","642cb1f7f42c4e0a6c5d4eef","2","1","2025-07-23T08:42:42.216Z","","","","","","","","","","","StressQ","","50","","","","","","","","","","","","","","","","","","","","","","","","","","","","",""
"3008","","<div style=""width:500px;"">
  <p>What best describes how you currently feel?</p>
  </div>","45","html-slider-response","23","270774","0.0-5.0-4.2","195","1","2025-07-23 08:38:08","1f75c3e559b7213887762d5229550c2b","220.240.86.112","Mozilla/5.0 (Windows NT 10.0; Win64; x64; rv:140.0) Gecko/20100101 Firefox/140.0","","Firefox","140.0","Windows","10.0","https://app.prolific.com/","en-US,en;q=0.5","642cb1f7f42c4e0a6c5d4eef","683db9eb0562dbf637994deb","68809f628746bb47f5a3fe3e","2","1","642cb1f7f42c4e0a6c5d4eef","2","1","2025-07-23T08:42:45.228Z","","","","","","","","","","","MotivationQ","","50","","","","","","","","","","","","","","","","","","","","","","","","","","","","",""
"","","","","ctl-task-cpt","24","307560","0.0-5.0-0.3","195","1","2025-07-23 08:38:08","1f75c3e559b7213887762d5229550c2b","220.240.86.112","Mozilla/5.0 (Windows NT 10.0; Win64; x64; rv:140.0) Gecko/20100101 Firefox/140.0","","Firefox","140.0","Windows","10.0","https://app.prolific.com/","en-US,en;q=0.5","642cb1f7f42c4e0a6c5d4eef","683db9eb0562dbf637994deb","68809f628746bb47f5a3fe3e","2","1","642cb1f7f42c4e0a6c5d4eef","2","1","2025-07-23T08:43:22.014Z","","","","","","","","","","","","","","win-only","0","g1:NW,g2:SE","0.7","4","0","278657","1141","6156","33778","1","4","8","6","2","8","6","20","14","0.15151515151515152","1193","3000","2125","[""down"",""right""]","{""num_key_presses"":10,""num_perfect"":7,""num_errors"":2,""num_randdir"":1,""num_randdir_good_moves"":0,""num_whilered"":0,""num_whileblue"":2,""num_blue"":2,""num_good_moves"":8}","[409.0714133126395,421.3214362008231,0,409.0714133126395,421.3214362008231,110,409.0714133126395,421.3214362008231,220,409.0714133126395,421.3214362008231,331,409.0714133126395,421.3214362008231,443,119.0714133126395,3.8214362008231006,556,477.8214133126395,426.3214362008231,667,724.0714133126395,732.5714362008231,777,716.5714133126395,742.5714362008231,890,752.8214133126395,808.8214362008231,999,752.8214133126395,808.8214362008231,1114,752.8214133126395,808.8214362008231,1214,752.8214133126395,808.8214362008231,1324,752.8214133126395,808.8214362008231,1434,752.8214133126395,808.8214362008231,1544,752.8214133126395,808.8214362008231,1660,752.8214133126395,808.8214362008231,1767,752.8214133126395,808.8214362008231,1878,752.8214133126395,808.8214362008231,1991,752.8214133126395,808.8214362008231,2100,752.8214133126395,808.8214362008231,2211,752.8214133126395,808.8214362008231,2324,752.8214133126395,808.8214362008231,2434,752.8214133126395,808.8214362008231,2545,752.8214133126395,808.8214362008231,2659,752.8214133126395,808.8214362008231,2767,752.8214133126395,808.8214362008231,2878,752.8214133126395,808.8214362008231,2991,752.8214133126395,808.8214362008231,3100,752.8214133126395,808.8214362008231,3213,752.8214133126395,808.8214362008231,3325,752.8214133126395,808.8214362008231,3438,752.8214133126395,808.8214362008231,3549,752.8214133126395,808.8214362008231,3661,752.8214133126395,808.8214362008231,3773,752.8214133126395,808.8214362008231,3883,752.8214133126395,808.8214362008231,3994,752.8214133126395,808.8214362008231,4106,752.8214133126395,808.8214362008231,4218,752.8214133126395,808.8214362008231,4330,752.8214133126395,808.8214362008231,4444,752.8214133126395,808.8214362008231,4553,752.8214133126395,808.8214362008231,4664,752.8214133126395,808.8214362008231,4775,752.8214133126395,808.8214362008231,4888,752.8214133126395,808.8214362008231,4999]","[1373,1373,1000,1,372,""smooth"",""down"",""down"",""good_move"",4308,2935,2547.3,1373,387.7,""oops"",""down"",""left"",""bad_move"",7327,3018,2573.1,4309,444.9,""smooth"",""down"",""down"",""good_move"",10929,3602,3276.2,7327,325.8,""smooth"",""right"",""right"",""good_move"",13327,2397,1996,10930,401,""while_blue"",""right"",""left"",""bad_move"",16433,3105,2490.4,13328,614.6,""smooth"",""right"",""right"",""good_move"",19262,2829,2471.2,16433,357.8,""smooth"",""right"",""right"",""good_move"",22011,2749,2374.1,19262,374.9,""smooth"",""right"",""right"",""good_move"",24424,2412,2054.9,22012,357.1,""smooth"",""right"",""right"",""good_move"",27325,2900,2577,24425,323,""while_blue"",""down"",""down"",""good_move""]","",""
"3046","","<div style=""width:500px;"">
  <p>What determined the result of this run?</p>
  </div>","73","html-slider-response","25","310610","0.0-5.0-1.3","195","1","2025-07-23 08:38:08","1f75c3e559b7213887762d5229550c2b","220.240.86.112","Mozilla/5.0 (Windows NT 10.0; Win64; x64; rv:140.0) Gecko/20100101 Firefox/140.0","","Firefox","140.0","Windows","10.0","https://app.prolific.com/","en-US,en;q=0.5","642cb1f7f42c4e0a6c5d4eef","683db9eb0562dbf637994deb","68809f628746bb47f5a3fe3e","2","1","642cb1f7f42c4e0a6c5d4eef","2","1","2025-07-23T08:43:25.064Z","","","","","","","","","","","AttribQ","","50","","","","","","","","","","","","","","","","","","","","","","","","","","","","",""
"2365","","<div style=""width:500px;"">
  <p>How much control did you have over the ball?</p>
  </div>","61","html-slider-response","26","312979","0.0-5.0-2.3","195","1","2025-07-23 08:38:08","1f75c3e559b7213887762d5229550c2b","220.240.86.112","Mozilla/5.0 (Windows NT 10.0; Win64; x64; rv:140.0) Gecko/20100101 Firefox/140.0","","Firefox","140.0","Windows","10.0","https://app.prolific.com/","en-US,en;q=0.5","642cb1f7f42c4e0a6c5d4eef","683db9eb0562dbf637994deb","68809f628746bb47f5a3fe3e","2","1","642cb1f7f42c4e0a6c5d4eef","2","1","2025-07-23T08:43:27.433Z","","","","","","","","","","","ControlQ","","50","","","","","","","","","","","","","","","","","","","","","","","","","","","","",""
"3103","","<div style=""width:500px;"">
  <p>How would you describe your current emotional state?</p>
  </div>","52","html-slider-response","27","316083","0.0-5.0-3.3","195","1","2025-07-23 08:38:08","1f75c3e559b7213887762d5229550c2b","220.240.86.112","Mozilla/5.0 (Windows NT 10.0; Win64; x64; rv:140.0) Gecko/20100101 Firefox/140.0","","Firefox","140.0","Windows","10.0","https://app.prolific.com/","en-US,en;q=0.5","642cb1f7f42c4e0a6c5d4eef","683db9eb0562dbf637994deb","68809f628746bb47f5a3fe3e","2","1","642cb1f7f42c4e0a6c5d4eef","2","1","2025-07-23T08:43:30.537Z","","","","","","","","","","","StressQ","","50","","","","","","","","","","","","","","","","","","","","","","","","","","","","",""
"3555","","<div style=""width:500px;"">
  <p>What best describes how you currently feel?</p>
  </div>","51","html-slider-response","28","319641","0.0-5.0-4.3","195","1","2025-07-23 08:38:08","1f75c3e559b7213887762d5229550c2b","220.240.86.112","Mozilla/5.0 (Windows NT 10.0; Win64; x64; rv:140.0) Gecko/20100101 Firefox/140.0","","Firefox","140.0","Windows","10.0","https://app.prolific.com/","en-US,en;q=0.5","642cb1f7f42c4e0a6c5d4eef","683db9eb0562dbf637994deb","68809f628746bb47f5a3fe3e","2","1","642cb1f7f42c4e0a6c5d4eef","2","1","2025-07-23T08:43:34.095Z","","","","","","","","","","","MotivationQ","","50","","","","","","","","","","","","","","","","","","","","","","","","","","","","",""
"","","","","ctl-task-cpt","29","360323","0.0-5.0-0.4","195","1","2025-07-23 08:38:08","1f75c3e559b7213887762d5229550c2b","220.240.86.112","Mozilla/5.0 (Windows NT 10.0; Win64; x64; rv:140.0) Gecko/20100101 Firefox/140.0","","Firefox","140.0","Windows","10.0","https://app.prolific.com/","en-US,en;q=0.5","642cb1f7f42c4e0a6c5d4eef","683db9eb0562dbf637994deb","68809f628746bb47f5a3fe3e","2","1","642cb1f7f42c4e0a6c5d4eef","2","1","2025-07-23T08:44:14.777Z","","","","","","","","","","","","","","win-only","2","g1:SE,g2:NW","0.6","5","0","327523","1036","6046","37673","1","4","4","6","2","4","4","24","20","0.18181818181818182","1038","3000","1955","[""left"",""up""]","{""num_key_presses"":8,""num_perfect"":5,""num_errors"":0,""num_randdir"":3,""num_randdir_good_moves"":2,""num_whilered"":0,""num_whileblue"":0,""num_blue"":2,""num_good_moves"":7}","[422.8214133126395,413.8214362008231,0,422.8214133126395,413.8214362008231,107,422.8214133126395,413.8214362008231,219,422.8214133126395,413.8214362008231,329,422.8214133126395,413.8214362008231,441,225.3214133126395,207.5714362008231,553,130.3214133126395,98.8214362008231,666,124.0714133126395,90.0714362008231,776,107.8214133126395,73.8214362008231,887,107.8214133126395,73.8214362008231,999,107.8214133126395,73.8214362008231,1110,107.8214133126395,73.8214362008231,1221,107.8214133126395,73.8214362008231,1333,107.8214133126395,73.8214362008231,1444,107.8214133126395,73.8214362008231,1555,107.8214133126395,73.8214362008231,1667,107.8214133126395,73.8214362008231,1779,107.8214133126395,73.8214362008231,1890,107.8214133126395,73.8214362008231,2001,107.8214133126395,73.8214362008231,2110,107.8214133126395,73.8214362008231,2221,107.8214133126395,73.8214362008231,2332,107.8214133126395,73.8214362008231,2443,107.8214133126395,73.8214362008231,2554,107.8214133126395,73.8214362008231,2666,107.8214133126395,73.8214362008231,2767,107.8214133126395,73.8214362008231,2873,107.8214133126395,73.8214362008231,2985,107.8214133126395,73.8214362008231,3098,107.8214133126395,73.8214362008231,3205,107.8214133126395,73.8214362008231,3320,107.8214133126395,73.8214362008231,3434,107.8214133126395,73.8214362008231,3543,107.8214133126395,73.8214362008231,3657,107.8214133126395,73.8214362008231,3770,107.8214133126395,73.8214362008231,3882,107.8214133126395,73.8214362008231,3984,107.8214133126395,73.8214362008231,4087,107.8214133126395,73.8214362008231,4187,107.8214133126395,73.8214362008231,4296,107.8214133126395,73.8214362008231,4405,107.8214133126395,73.8214362008231,4516,107.8214133126395,73.8214362008231,4627,107.8214133126395,73.8214362008231,4737,107.8214133126395,73.8214362008231,4850,107.8214133126395,73.8214362008231,4963]","[1436,1436,1000,0,436,""smooth"",""left"",""left"",""good_move"",4460,3024,2216.7,1437,806.3,""oops"",""up"",""up"",""good_move"",7699,3239,2460.8,4460,778.2,""oops"",""up"",""down"",""bad_move"",11448,3749,3009.7,7699,739.3,""smooth"",""up"",""up"",""good_move"",14491,3043,2529.8,11448,513.2,""smooth"",""up"",""up"",""good_move"",17518,3027,2448.4,14491,578.6,""smooth"",""left"",""left"",""good_move"",27948,10430,3115.3,24484,348.7,""oops"",""left"",""left"",""good_move"",31327,3379,3035.1,27948,343.9,""smooth"",""up"",""up"",""good_move""]","",""
"11158","","<div style=""width:500px;"">
  <p>What determined the result of this run?</p>
  </div>","60","html-slider-response","30","371490","0.0-5.0-1.4","195","1","2025-07-23 08:38:08","1f75c3e559b7213887762d5229550c2b","220.240.86.112","Mozilla/5.0 (Windows NT 10.0; Win64; x64; rv:140.0) Gecko/20100101 Firefox/140.0","","Firefox","140.0","Windows","10.0","https://app.prolific.com/","en-US,en;q=0.5","642cb1f7f42c4e0a6c5d4eef","683db9eb0562dbf637994deb","68809f628746bb47f5a3fe3e","2","1","642cb1f7f42c4e0a6c5d4eef","2","1","2025-07-23T08:44:25.944Z","","","","","","","","","","","AttribQ","","50","","","","","","","","","","","","","","","","","","","","","","","","","","","","",""
"2580","","<div style=""width:500px;"">
  <p>How much control did you have over the ball?</p>
  </div>","64","html-slider-response","31","374075","0.0-5.0-2.4","195","1","2025-07-23 08:38:08","1f75c3e559b7213887762d5229550c2b","220.240.86.112","Mozilla/5.0 (Windows NT 10.0; Win64; x64; rv:140.0) Gecko/20100101 Firefox/140.0","","Firefox","140.0","Windows","10.0","https://app.prolific.com/","en-US,en;q=0.5","642cb1f7f42c4e0a6c5d4eef","683db9eb0562dbf637994deb","68809f628746bb47f5a3fe3e","2","1","642cb1f7f42c4e0a6c5d4eef","2","1","2025-07-23T08:44:28.529Z","","","","","","","","","","","ControlQ","","50","","","","","","","","","","","","","","","","","","","","","","","","","","","","",""
"3686","","<div style=""width:500px;"">
  <p>How would you describe your current emotional state?</p>
  </div>","54","html-slider-response","32","377765","0.0-5.0-3.4","195","1","2025-07-23 08:38:08","1f75c3e559b7213887762d5229550c2b","220.240.86.112","Mozilla/5.0 (Windows NT 10.0; Win64; x64; rv:140.0) Gecko/20100101 Firefox/140.0","","Firefox","140.0","Windows","10.0","https://app.prolific.com/","en-US,en;q=0.5","642cb1f7f42c4e0a6c5d4eef","683db9eb0562dbf637994deb","68809f628746bb47f5a3fe3e","2","1","642cb1f7f42c4e0a6c5d4eef","2","1","2025-07-23T08:44:32.219Z","","","","","","","","","","","StressQ","","50","","","","","","","","","","","","","","","","","","","","","","","","","","","","",""
"4087","","<div style=""width:500px;"">
  <p>What best describes how you currently feel?</p>
  </div>","47","html-slider-response","33","381855","0.0-5.0-4.4","195","1","2025-07-23 08:38:08","1f75c3e559b7213887762d5229550c2b","220.240.86.112","Mozilla/5.0 (Windows NT 10.0; Win64; x64; rv:140.0) Gecko/20100101 Firefox/140.0","","Firefox","140.0","Windows","10.0","https://app.prolific.com/","en-US,en;q=0.5","642cb1f7f42c4e0a6c5d4eef","683db9eb0562dbf637994deb","68809f628746bb47f5a3fe3e","2","1","642cb1f7f42c4e0a6c5d4eef","2","1","2025-07-23T08:44:36.309Z","","","","","","","","","","","MotivationQ","","50","","","","","","","","","","","","","","","","","","","","","","","","","","","","",""
"","","","","ctl-task-cpt","34","413925","0.0-5.0-0.5","195","1","2025-07-23 08:38:08","1f75c3e559b7213887762d5229550c2b","220.240.86.112","Mozilla/5.0 (Windows NT 10.0; Win64; x64; rv:140.0) Gecko/20100101 Firefox/140.0","","Firefox","140.0","Windows","10.0","https://app.prolific.com/","en-US,en;q=0.5","642cb1f7f42c4e0a6c5d4eef","683db9eb0562dbf637994deb","68809f628746bb47f5a3fe3e","2","1","642cb1f7f42c4e0a6c5d4eef","2","1","2025-07-23T08:45:08.379Z","","","","","","","","","","","","","","win-only","1","g1:NE,g2:SW","0.5","6","0","389738","1630","6640","29056","1","4","8","6","2","8","7","31","24","0.23484848484848486","1170","3000","2305","[""down"",""left""]","{""num_key_presses"":7,""num_perfect"":4,""num_errors"":1,""num_randdir"":2,""num_randdir_good_moves"":2,""num_whilered"":0,""num_whileblue"":0,""num_blue"":1,""num_good_moves"":6}","[420.3214133126395,422.5714362008231,0,420.3214133126395,422.5714362008231,100,420.3214133126395,422.5714362008231,213,420.3214133126395,422.5714362008231,327,420.3214133126395,422.5714362008231,438,620.3214133126395,158.8214362008231,550,196.5714133126395,627.5714362008231,659,45.32141331263951,783.8214362008231,770,49.07141331263951,783.8214362008231,881,84.0714133126395,776.3214362008231,997,86.5714133126395,775.0714362008231,1108,86.5714133126395,775.0714362008231,1217,86.5714133126395,775.0714362008231,1331,86.5714133126395,775.0714362008231,1443,86.5714133126395,775.0714362008231,1557,86.5714133126395,775.0714362008231,1666,86.5714133126395,775.0714362008231,1777,86.5714133126395,775.0714362008231,1892,86.5714133126395,775.0714362008231,2000,86.5714133126395,775.0714362008231,2112,86.5714133126395,775.0714362008231,2224,86.5714133126395,775.0714362008231,2336,86.5714133126395,775.0714362008231,2446,86.5714133126395,775.0714362008231,2559,86.5714133126395,775.0714362008231,2667,86.5714133126395,775.0714362008231,2777,86.5714133126395,775.0714362008231,2877,86.5714133126395,775.0714362008231,2988,86.5714133126395,775.0714362008231,3098,86.5714133126395,775.0714362008231,3211,86.5714133126395,775.0714362008231,3321,86.5714133126395,775.0714362008231,3435,86.5714133126395,775.0714362008231,3548,86.5714133126395,775.0714362008231,3660,86.5714133126395,775.0714362008231,3769,86.5714133126395,775.0714362008231,3880,86.5714133126395,775.0714362008231,3992,86.5714133126395,775.0714362008231,4103,86.5714133126395,775.0714362008231,4215,86.5714133126395,775.0714362008231,4325,86.5714133126395,775.0714362008231,4434,86.5714133126395,775.0714362008231,4547,86.5714133126395,775.0714362008231,4660,86.5714133126395,775.0714362008231,4770,86.5714133126395,775.0714362008231,4883,86.5714133126395,775.0714362008231,4993]","[1389,1389,1000,0,389,""oops"",""down"",""down"",""good_move"",5224,3835,3396,1389,439,""oops"",""down"",""down"",""good_move"",8205,2981,2636.4,5224,344.6,""smooth"",""left"",""left"",""good_move"",11239,3033,2522.5,8206,510.5,""smooth"",""left"",""left"",""good_move"",14459,3220,2818.5,11239,401.5,""smooth"",""left"",""left"",""good_move"",18526,4066,3064.1,18165,-2703.1,""error"",""-"",""-"",""no_move"",22121,3595,2214.9,19527,379.1,""smooth"",""down"",""down"",""good_move""]","",""
"5337","","<div style=""width:500px;"">
  <p>What determined the result of this run?</p>
  </div>","69","html-slider-response","35","419265","0.0-5.0-1.5","195","1","2025-07-23 08:38:08","1f75c3e559b7213887762d5229550c2b","220.240.86.112","Mozilla/5.0 (Windows NT 10.0; Win64; x64; rv:140.0) Gecko/20100101 Firefox/140.0","","Firefox","140.0","Windows","10.0","https://app.prolific.com/","en-US,en;q=0.5","642cb1f7f42c4e0a6c5d4eef","683db9eb0562dbf637994deb","68809f628746bb47f5a3fe3e","2","1","642cb1f7f42c4e0a6c5d4eef","2","1","2025-07-23T08:45:13.719Z","","","","","","","","","","","AttribQ","","50","","","","","","","","","","","","","","","","","","","","","","","","","","","","",""
"2668","","<div style=""width:500px;"">
  <p>How much control did you have over the ball?</p>
  </div>","62","html-slider-response","36","421934","0.0-5.0-2.5","195","1","2025-07-23 08:38:08","1f75c3e559b7213887762d5229550c2b","220.240.86.112","Mozilla/5.0 (Windows NT 10.0; Win64; x64; rv:140.0) Gecko/20100101 Firefox/140.0","","Firefox","140.0","Windows","10.0","https://app.prolific.com/","en-US,en;q=0.5","642cb1f7f42c4e0a6c5d4eef","683db9eb0562dbf637994deb","68809f628746bb47f5a3fe3e","2","1","642cb1f7f42c4e0a6c5d4eef","2","1","2025-07-23T08:45:16.389Z","","","","","","","","","","","ControlQ","","50","","","","","","","","","","","","","","","","","","","","","","","","","","","","",""
"2808","","<div style=""width:500px;"">
  <p>How would you describe your current emotional state?</p>
  </div>","55","html-slider-response","37","424747","0.0-5.0-3.5","195","1","2025-07-23 08:38:08","1f75c3e559b7213887762d5229550c2b","220.240.86.112","Mozilla/5.0 (Windows NT 10.0; Win64; x64; rv:140.0) Gecko/20100101 Firefox/140.0","","Firefox","140.0","Windows","10.0","https://app.prolific.com/","en-US,en;q=0.5","642cb1f7f42c4e0a6c5d4eef","683db9eb0562dbf637994deb","68809f628746bb47f5a3fe3e","2","1","642cb1f7f42c4e0a6c5d4eef","2","1","2025-07-23T08:45:19.201Z","","","","","","","","","","","StressQ","","50","","","","","","","","","","","","","","","","","","","","","","","","","","","","",""
"2904","","<div style=""width:500px;"">
  <p>What best describes how you currently feel?</p>
  </div>","44","html-slider-response","38","427652","0.0-5.0-4.5","195","1","2025-07-23 08:38:08","1f75c3e559b7213887762d5229550c2b","220.240.86.112","Mozilla/5.0 (Windows NT 10.0; Win64; x64; rv:140.0) Gecko/20100101 Firefox/140.0","","Firefox","140.0","Windows","10.0","https://app.prolific.com/","en-US,en;q=0.5","642cb1f7f42c4e0a6c5d4eef","683db9eb0562dbf637994deb","68809f628746bb47f5a3fe3e","2","1","642cb1f7f42c4e0a6c5d4eef","2","1","2025-07-23T08:45:22.106Z","","","","","","","","","","","MotivationQ","","50","","","","","","","","","","","","","","","","","","","","","","","","","","","","",""
"","","","","ctl-task-cpt","39","487602","0.0-5.0-0.6","195","1","2025-07-23 08:38:08","1f75c3e559b7213887762d5229550c2b","220.240.86.112","Mozilla/5.0 (Windows NT 10.0; Win64; x64; rv:140.0) Gecko/20100101 Firefox/140.0","","Firefox","140.0","Windows","10.0","https://app.prolific.com/","en-US,en;q=0.5","642cb1f7f42c4e0a6c5d4eef","683db9eb0562dbf637994deb","68809f628746bb47f5a3fe3e","2","1","642cb1f7f42c4e0a6c5d4eef","2","1","2025-07-23T08:46:22.056Z","","","","","","","","","","","","","","win-only","2","g1:SE,g2:NW","0.4","7","0","435536","1728","6730","56942","1","4","8","6","2","8","8","39","31","0.29545454545454547","753","3000","1530","[""left"",""up""]","{""num_key_presses"":12,""num_perfect"":6,""num_errors"":0,""num_randdir"":6,""num_randdir_good_moves"":3,""num_whilered"":0,""num_whileblue"":0,""num_blue"":4,""num_good_moves"":9}","[419.0714133126395,403.8214362008231,0,419.0714133126395,403.8214362008231,103,419.0714133126395,403.8214362008231,214,419.0714133126395,403.8214362008231,327,121.5714133126395,108.8214362008231,442,95.3214133126395,81.3214362008231,552,95.3214133126395,81.3214362008231,665,95.3214133126395,81.3214362008231,773,95.3214133126395,81.3214362008231,887,95.3214133126395,81.3214362008231,1003,95.3214133126395,81.3214362008231,1111,95.3214133126395,81.3214362008231,1222,95.3214133126395,81.3214362008231,1332,95.3214133126395,81.3214362008231,1443,95.3214133126395,81.3214362008231,1558,95.3214133126395,81.3214362008231,1658,95.3214133126395,81.3214362008231,1768,95.3214133126395,81.3214362008231,1881,95.3214133126395,81.3214362008231,1992,95.3214133126395,81.3214362008231,2102,95.3214133126395,81.3214362008231,2214,95.3214133126395,81.3214362008231,2325,95.3214133126395,81.3214362008231,2438,95.3214133126395,81.3214362008231,2551,95.3214133126395,81.3214362008231,2658,95.3214133126395,81.3214362008231,2769,95.3214133126395,81.3214362008231,2883,95.3214133126395,81.3214362008231,2983,95.3214133126395,81.3214362008231,3091,95.3214133126395,81.3214362008231,3201,95.3214133126395,81.3214362008231,3313,95.3214133126395,81.3214362008231,3422,95.3214133126395,81.3214362008231,3534,95.3214133126395,81.3214362008231,3647,95.3214133126395,81.3214362008231,3757,95.3214133126395,81.3214362008231,3870,95.3214133126395,81.3214362008231,3978,95.3214133126395,81.3214362008231,4091,95.3214133126395,81.3214362008231,4201,95.3214133126395,81.3214362008231,4314,95.3214133126395,81.3214362008231,4423,95.3214133126395,81.3214362008231,4535,95.3214133126395,81.3214362008231,4648,95.3214133126395,81.3214362008231,4758,95.3214133126395,81.3214362008231,4871,95.3214133126395,81.3214362008231,4985]","[4454,4454,2007.4,2020,426.6,""smooth"",""up"",""up"",""good_move"",7911,3457,2967.1,4454,489.9,""smooth"",""up"",""up"",""good_move"",11005,3094,1939.4,7911,1154.6,""oops"",""up"",""up"",""good_move"",14082,3077,2582.8,11005,494.2,""oops"",""left"",""right"",""bad_move"",24667,10584,3194,21115,358,""smooth"",""left"",""left"",""good_move"",31251,6584,2509.2,28380,361.8,""oops"",""left"",""right"",""bad_move"",34261,3011,2501.7,31251,509.3,""oops"",""left"",""left"",""good_move"",37571,3309,2912.5,34262,396.5,""smooth"",""left"",""left"",""good_move"",40718,3147,2557.1,37571,589.9,""oops"",""left"",""down"",""bad_move"",43817,3099,2729.3,40718,369.7,""oops"",""left"",""up"",""good_move"",46859,3042,2633.7,43817,408.3,""smooth"",""left"",""left"",""good_move"",49922,3063,2122.6,46859,940.4,""smooth"",""left"",""left"",""good_move""]","",""
"4648","","<div style=""width:500px;"">
  <p>What determined the result of this run?</p>
  </div>","62","html-slider-response","40","492256","0.0-5.0-1.6","195","1","2025-07-23 08:38:08","1f75c3e559b7213887762d5229550c2b","220.240.86.112","Mozilla/5.0 (Windows NT 10.0; Win64; x64; rv:140.0) Gecko/20100101 Firefox/140.0","","Firefox","140.0","Windows","10.0","https://app.prolific.com/","en-US,en;q=0.5","642cb1f7f42c4e0a6c5d4eef","683db9eb0562dbf637994deb","68809f628746bb47f5a3fe3e","2","1","642cb1f7f42c4e0a6c5d4eef","2","1","2025-07-23T08:46:26.710Z","","","","","","","","","","","AttribQ","","50","","","","","","","","","","","","","","","","","","","","","","","","","","","","",""
"2162","","<div style=""width:500px;"">
  <p>How much control did you have over the ball?</p>
  </div>","63","html-slider-response","41","494420","0.0-5.0-2.6","195","1","2025-07-23 08:38:08","1f75c3e559b7213887762d5229550c2b","220.240.86.112","Mozilla/5.0 (Windows NT 10.0; Win64; x64; rv:140.0) Gecko/20100101 Firefox/140.0","","Firefox","140.0","Windows","10.0","https://app.prolific.com/","en-US,en;q=0.5","642cb1f7f42c4e0a6c5d4eef","683db9eb0562dbf637994deb","68809f628746bb47f5a3fe3e","2","1","642cb1f7f42c4e0a6c5d4eef","2","1","2025-07-23T08:46:28.874Z","","","","","","","","","","","ControlQ","","50","","","","","","","","","","","","","","","","","","","","","","","","","","","","",""
"3537","","<div style=""width:500px;"">
  <p>How would you describe your current emotional state?</p>
  </div>","56","html-slider-response","42","497960","0.0-5.0-3.6","195","1","2025-07-23 08:38:08","1f75c3e559b7213887762d5229550c2b","220.240.86.112","Mozilla/5.0 (Windows NT 10.0; Win64; x64; rv:140.0) Gecko/20100101 Firefox/140.0","","Firefox","140.0","Windows","10.0","https://app.prolific.com/","en-US,en;q=0.5","642cb1f7f42c4e0a6c5d4eef","683db9eb0562dbf637994deb","68809f628746bb47f5a3fe3e","2","1","642cb1f7f42c4e0a6c5d4eef","2","1","2025-07-23T08:46:32.414Z","","","","","","","","","","","StressQ","","50","","","","","","","","","","","","","","","","","","","","","","","","","","","","",""
"2875","","<div style=""width:500px;"">
  <p>What best describes how you currently feel?</p>
  </div>","40","html-slider-response","43","500837","0.0-5.0-4.6","195","1","2025-07-23 08:38:08","1f75c3e559b7213887762d5229550c2b","220.240.86.112","Mozilla/5.0 (Windows NT 10.0; Win64; x64; rv:140.0) Gecko/20100101 Firefox/140.0","","Firefox","140.0","Windows","10.0","https://app.prolific.com/","en-US,en;q=0.5","642cb1f7f42c4e0a6c5d4eef","683db9eb0562dbf637994deb","68809f628746bb47f5a3fe3e","2","1","642cb1f7f42c4e0a6c5d4eef","2","1","2025-07-23T08:46:35.291Z","","","","","","","","","","","MotivationQ","","50","","","","","","","","","","","","","","","","","","","","","","","","","","","","",""
"","","","","ctl-task-cpt","44","544760","0.0-5.0-0.7","195","1","2025-07-23 08:38:08","1f75c3e559b7213887762d5229550c2b","220.240.86.112","Mozilla/5.0 (Windows NT 10.0; Win64; x64; rv:140.0) Gecko/20100101 Firefox/140.0","","Firefox","140.0","Windows","10.0","https://app.prolific.com/","en-US,en;q=0.5","642cb1f7f42c4e0a6c5d4eef","683db9eb0562dbf637994deb","68809f628746bb47f5a3fe3e","2","1","642cb1f7f42c4e0a6c5d4eef","2","1","2025-07-23T08:47:19.214Z","","","","","","","","","","","","","","win-only","3","g1:SW,g2:NE","0.3","8","0","508720","1921","6922","40912","1","4","4","6","2","4","4","43","39","0.32575757575757575","1051","3000","2080","[""up"",""right""]","{""num_key_presses"":8,""num_perfect"":2,""num_errors"":0,""num_randdir"":6,""num_randdir_good_moves"":5,""num_whilered"":0,""num_whileblue"":0,""num_blue"":3,""num_good_moves"":7}","[414.0714133126395,408.8214362008231,0,414.0714133126395,408.8214362008231,111,414.0714133126395,408.8214362008231,217,414.0714133126395,408.8214362008231,326,414.0714133126395,408.8214362008231,440,764.0714133126395,86.3214362008231,550,827.8214133126395,41.3214362008231,662,816.5714133126395,45.0714362008231,775,789.0714133126395,60.0714362008231,886,789.0714133126395,60.0714362008231,1001,789.0714133126395,60.0714362008231,1114,789.0714133126395,60.0714362008231,1226,789.0714133126395,60.0714362008231,1336,789.0714133126395,60.0714362008231,1447,789.0714133126395,60.0714362008231,1559,789.0714133126395,60.0714362008231,1672,789.0714133126395,60.0714362008231,1783,789.0714133126395,60.0714362008231,1896,789.0714133126395,60.0714362008231,2005,789.0714133126395,60.0714362008231,2117,789.0714133126395,60.0714362008231,2228,789.0714133126395,60.0714362008231,2339,789.0714133126395,60.0714362008231,2451,789.0714133126395,60.0714362008231,2561,789.0714133126395,60.0714362008231,2675,789.0714133126395,60.0714362008231,2786,789.0714133126395,60.0714362008231,2898,789.0714133126395,60.0714362008231,3008,789.0714133126395,60.0714362008231,3120,789.0714133126395,60.0714362008231,3229,789.0714133126395,60.0714362008231,3342,789.0714133126395,60.0714362008231,3453,789.0714133126395,60.0714362008231,3563,789.0714133126395,60.0714362008231,3676,789.0714133126395,60.0714362008231,3783,789.0714133126395,60.0714362008231,3897,789.0714133126395,60.0714362008231,4009,789.0714133126395,60.0714362008231,4120,789.0714133126395,60.0714362008231,4231,789.0714133126395,60.0714362008231,4343,789.0714133126395,60.0714362008231,4454,789.0714133126395,60.0714362008231,4564,789.0714133126395,60.0714362008231,4677,789.0714133126395,60.0714362008231,4792,789.0714133126395,60.0714362008231,4905]","[8478,8478,2496.7,5551,430.3,""oops"",""up"",""right"",""good_move"",11293,2815,2381.7,8478,433.3,""oops"",""up"",""right"",""good_move"",14793,3499,3137.5,11294,361.5,""oops"",""up"",""up"",""good_move"",17873,3080,2448.7,14793,631.3,""oops"",""up"",""left"",""bad_move"",20898,3025,1958.7,17873,1066.3,""oops"",""up"",""right"",""good_move"",24051,3153,2817.2,20898,335.8,""oops"",""up"",""right"",""good_move"",26677,2626,2226.9,24051,399.1,""smooth"",""up"",""up"",""good_move"",33722,7046,2981.7,30358,383.3,""smooth"",""up"",""up"",""good_move""]","",""
"3350","","<div style=""width:500px;"">
  <p>What determined the result of this run?</p>
  </div>","62","html-slider-response","45","548115","0.0-5.0-1.7","195","1","2025-07-23 08:38:08","1f75c3e559b7213887762d5229550c2b","220.240.86.112","Mozilla/5.0 (Windows NT 10.0; Win64; x64; rv:140.0) Gecko/20100101 Firefox/140.0","","Firefox","140.0","Windows","10.0","https://app.prolific.com/","en-US,en;q=0.5","642cb1f7f42c4e0a6c5d4eef","683db9eb0562dbf637994deb","68809f628746bb47f5a3fe3e","2","1","642cb1f7f42c4e0a6c5d4eef","2","1","2025-07-23T08:47:22.569Z","","","","","","","","","","","AttribQ","","50","","","","","","","","","","","","","","","","","","","","","","","","","","","","",""
"4776","","<div style=""width:500px;"">
  <p>How much control did you have over the ball?</p>
  </div>","66","html-slider-response","46","552894","0.0-5.0-2.7","195","1","2025-07-23 08:38:08","1f75c3e559b7213887762d5229550c2b","220.240.86.112","Mozilla/5.0 (Windows NT 10.0; Win64; x64; rv:140.0) Gecko/20100101 Firefox/140.0","","Firefox","140.0","Windows","10.0","https://app.prolific.com/","en-US,en;q=0.5","642cb1f7f42c4e0a6c5d4eef","683db9eb0562dbf637994deb","68809f628746bb47f5a3fe3e","2","1","642cb1f7f42c4e0a6c5d4eef","2","1","2025-07-23T08:47:27.348Z","","","","","","","","","","","ControlQ","","50","","","","","","","","","","","","","","","","","","","","","","","","","","","","",""
"6668","","<div style=""width:500px;"">
  <p>How would you describe your current emotional state?</p>
  </div>","55","html-slider-response","47","559565","0.0-5.0-3.7","195","1","2025-07-23 08:38:08","1f75c3e559b7213887762d5229550c2b","220.240.86.112","Mozilla/5.0 (Windows NT 10.0; Win64; x64; rv:140.0) Gecko/20100101 Firefox/140.0","","Firefox","140.0","Windows","10.0","https://app.prolific.com/","en-US,en;q=0.5","642cb1f7f42c4e0a6c5d4eef","683db9eb0562dbf637994deb","68809f628746bb47f5a3fe3e","2","1","642cb1f7f42c4e0a6c5d4eef","2","1","2025-07-23T08:47:34.019Z","","","","","","","","","","","StressQ","","50","","","","","","","","","","","","","","","","","","","","","","","","","","","","",""
"2276","","<div style=""width:500px;"">
  <p>What best describes how you currently feel?</p>
  </div>","45","html-slider-response","48","561845","0.0-5.0-4.7","195","1","2025-07-23 08:38:08","1f75c3e559b7213887762d5229550c2b","220.240.86.112","Mozilla/5.0 (Windows NT 10.0; Win64; x64; rv:140.0) Gecko/20100101 Firefox/140.0","","Firefox","140.0","Windows","10.0","https://app.prolific.com/","en-US,en;q=0.5","642cb1f7f42c4e0a6c5d4eef","683db9eb0562dbf637994deb","68809f628746bb47f5a3fe3e","2","1","642cb1f7f42c4e0a6c5d4eef","2","1","2025-07-23T08:47:36.299Z","","","","","","","","","","","MotivationQ","","50","","","","","","","","","","","","","","","","","","","","","","","","","","","","",""
"","","","","ctl-task-cpt","49","669587","0.0-5.0-0.8","195","1","2025-07-23 08:38:08","1f75c3e559b7213887762d5229550c2b","220.240.86.112","Mozilla/5.0 (Windows NT 10.0; Win64; x64; rv:140.0) Gecko/20100101 Firefox/140.0","","Firefox","140.0","Windows","10.0","https://app.prolific.com/","en-US,en;q=0.5","642cb1f7f42c4e0a6c5d4eef","683db9eb0562dbf637994deb","68809f628746bb47f5a3fe3e","2","1","642cb1f7f42c4e0a6c5d4eef","2","1","2025-07-23T08:49:24.042Z","","","","","","","","","","","","","","win-only","1","g1:NE,g2:SW","0.2","9","0","569728","1792","6808","104729","1","4","8","6","2","-8","-9","34","43","0.25757575757575757","996","3000","-945","[""down"",""left""]","{""num_key_presses"":26,""num_perfect"":6,""num_errors"":1,""num_randdir"":19,""num_randdir_good_moves"":7,""num_whilered"":0,""num_whileblue"":1,""num_blue"":6,""num_good_moves"":14}","[411.5714133126395,418.8214362008231,0,411.5714133126395,418.8214362008231,111,411.5714133126395,418.8214362008231,221,411.5714133126395,418.8214362008231,332,411.5714133126395,418.8214362008231,442,332.8214133126395,477.5714362008231,554,61.57141331263951,762.5714362008231,667,56.57141331263951,768.8214362008231,775,54.07141331263951,772.5714362008231,889,54.07141331263951,772.5714362008231,1002,54.07141331263951,772.5714362008231,1115,54.07141331263951,772.5714362008231,1223,54.07141331263951,772.5714362008231,1335,54.07141331263951,772.5714362008231,1447,54.07141331263951,772.5714362008231,1561,54.07141331263951,772.5714362008231,1673,54.07141331263951,772.5714362008231,1785,54.07141331263951,772.5714362008231,1897,54.07141331263951,772.5714362008231,2005,54.07141331263951,772.5714362008231,2117,54.07141331263951,772.5714362008231,2228,54.07141331263951,772.5714362008231,2339,54.07141331263951,772.5714362008231,2451,54.07141331263951,772.5714362008231,2566,54.07141331263951,772.5714362008231,2676,54.07141331263951,772.5714362008231,2787,54.07141331263951,772.5714362008231,2900,54.07141331263951,772.5714362008231,3001,54.07141331263951,772.5714362008231,3107,54.07141331263951,772.5714362008231,3222,54.07141331263951,772.5714362008231,3335,54.07141331263951,772.5714362008231,3445,54.07141331263951,772.5714362008231,3555,54.07141331263951,772.5714362008231,3668,54.07141331263951,772.5714362008231,3779,54.07141331263951,772.5714362008231,3887,54.07141331263951,772.5714362008231,4000,54.07141331263951,772.5714362008231,4110,54.07141331263951,772.5714362008231,4221,54.07141331263951,772.5714362008231,4334,54.07141331263951,772.5714362008231,4446,54.07141331263951,772.5714362008231,4555,54.07141331263951,772.5714362008231,4667,54.07141331263951,772.5714362008231,4776,54.07141331263951,772.5714362008231,4887,54.07141331263951,772.5714362008231,5000]","[1469,1469,1000,0,469,""oops"",""down"",""right"",""bad_move"",4939,3469,3089.3,1470,379.7,""oops"",""down"",""down"",""good_move"",11021,6082,2321.6,8314,385.4,""oops"",""down"",""down"",""good_move"",14401,3380,2997.7,11021,382.3,""smooth"",""down"",""down"",""good_move"",18120,3719,3341.4,14401,377.6,""smooth"",""left"",""left"",""good_move"",24222,6102,2022.3,21851,348.7,""oops"",""left"",""right"",""bad_move"",27508,3285,2893.6,24223,392.4,""oops"",""left"",""up"",""bad_move"",30629,3120,2740.8,27509,379.2,""oops"",""left"",""right"",""bad_move"",33316,2687,2261,30629,426,""while_blue"",""left"",""down"",""good_move"",35842,2526,2063.8,33316,462.2,""oops"",""left"",""up"",""bad_move"",38945,3102,2351.4,35843,750.6,""oops"",""left"",""up"",""bad_move"",41995,3050,2408.5,38945,641.5,""smooth"",""left"",""left"",""good_move"",45175,3178,2571.4,41997,606.6,""smooth"",""left"",""left"",""good_move"",48210,3034,2526.9,45176,507.1,""oops"",""left"",""down"",""good_move"",51090,2880,2519.3,48210,360.7,""oops"",""left"",""down"",""good_move"",54261,3171,2848.4,51090,322.6,""oops"",""left"",""left"",""good_move"",57843,3581,3249.5,54262,331.5,""oops"",""left"",""up"",""bad_move"",63656,5813,1723.3,61519,413.7,""oops"",""left"",""right"",""bad_move"",65665,2009,1543.1,63656,465.9,""oops"",""left"",""up"",""bad_move"",68963,3297,2948.5,65666,348.5,""oops"",""left"",""up"",""bad_move"",72037,3074,2615.6,68963,458.4,""oops"",""left"",""down"",""good_move"",78032,5995,2696.3,74968,367.7,""smooth"",""left"",""left"",""good_move"",85123,7091,2992.4,81757,373.6,""oops"",""left"",""up"",""bad_move"",88225,3102,2315.2,85123,786.8,""oops"",""left"",""left"",""good_move"",91284,3059,2708,88225,351,""smooth"",""left"",""left"",""good_move"",94263,2979,2667.3,91284,311.7,""oops"",""down"",""up"",""bad_move""]","",""
"3235","","<div style=""width:500px;"">
  <p>What determined the result of this run?</p>
  </div>","30","html-slider-response","50","672829","0.0-5.0-1.8","195","1","2025-07-23 08:38:08","1f75c3e559b7213887762d5229550c2b","220.240.86.112","Mozilla/5.0 (Windows NT 10.0; Win64; x64; rv:140.0) Gecko/20100101 Firefox/140.0","","Firefox","140.0","Windows","10.0","https://app.prolific.com/","en-US,en;q=0.5","642cb1f7f42c4e0a6c5d4eef","683db9eb0562dbf637994deb","68809f628746bb47f5a3fe3e","2","1","642cb1f7f42c4e0a6c5d4eef","2","1","2025-07-23T08:49:27.283Z","","","","","","","","","","","AttribQ","","50","","","","","","","","","","","","","","","","","","","","","","","","","","","","",""
"2515","","<div style=""width:500px;"">
  <p>How much control did you have over the ball?</p>
  </div>","36","html-slider-response","51","675345","0.0-5.0-2.8","195","1","2025-07-23 08:38:08","1f75c3e559b7213887762d5229550c2b","220.240.86.112","Mozilla/5.0 (Windows NT 10.0; Win64; x64; rv:140.0) Gecko/20100101 Firefox/140.0","","Firefox","140.0","Windows","10.0","https://app.prolific.com/","en-US,en;q=0.5","642cb1f7f42c4e0a6c5d4eef","683db9eb0562dbf637994deb","68809f628746bb47f5a3fe3e","2","1","642cb1f7f42c4e0a6c5d4eef","2","1","2025-07-23T08:49:29.799Z","","","","","","","","","","","ControlQ","","50","","","","","","","","","","","","","","","","","","","","","","","","","","","","",""
"3093","","<div style=""width:500px;"">
  <p>How would you describe your current emotional state?</p>
  </div>","54","html-slider-response","52","678441","0.0-5.0-3.8","195","1","2025-07-23 08:38:08","1f75c3e559b7213887762d5229550c2b","220.240.86.112","Mozilla/5.0 (Windows NT 10.0; Win64; x64; rv:140.0) Gecko/20100101 Firefox/140.0","","Firefox","140.0","Windows","10.0","https://app.prolific.com/","en-US,en;q=0.5","642cb1f7f42c4e0a6c5d4eef","683db9eb0562dbf637994deb","68809f628746bb47f5a3fe3e","2","1","642cb1f7f42c4e0a6c5d4eef","2","1","2025-07-23T08:49:32.895Z","","","","","","","","","","","StressQ","","50","","","","","","","","","","","","","","","","","","","","","","","","","","","","",""
"2259","","<div style=""width:500px;"">
  <p>What best describes how you currently feel?</p>
  </div>","43","html-slider-response","53","680703","0.0-5.0-4.8","195","1","2025-07-23 08:38:08","1f75c3e559b7213887762d5229550c2b","220.240.86.112","Mozilla/5.0 (Windows NT 10.0; Win64; x64; rv:140.0) Gecko/20100101 Firefox/140.0","","Firefox","140.0","Windows","10.0","https://app.prolific.com/","en-US,en;q=0.5","642cb1f7f42c4e0a6c5d4eef","683db9eb0562dbf637994deb","68809f628746bb47f5a3fe3e","2","1","642cb1f7f42c4e0a6c5d4eef","2","1","2025-07-23T08:49:35.157Z","","","","","","","","","","","MotivationQ","","50","","","","","","","","","","","","","","","","","","","","","","","","","","","","",""
"","","","","ctl-task-cpt","54","763076","0.0-5.0-0.9","195","1","2025-07-23 08:38:08","1f75c3e559b7213887762d5229550c2b","220.240.86.112","Mozilla/5.0 (Windows NT 10.0; Win64; x64; rv:140.0) Gecko/20100101 Firefox/140.0","","Firefox","140.0","Windows","10.0","https://app.prolific.com/","en-US,en;q=0.5","642cb1f7f42c4e0a6c5d4eef","683db9eb0562dbf637994deb","68809f628746bb47f5a3fe3e","2","1","642cb1f7f42c4e0a6c5d4eef","2","1","2025-07-23T08:50:57.530Z","","","","","","","","","","","","","","win-only","2","g1:SE,g2:NW","0.4","10","0","688586","1565","6572","79360","1","4","4","6","2","4","3","37","34","0.2803030303030303","878","3000","1025","[""left"",""up""]","{""num_key_presses"":18,""num_perfect"":8,""num_errors"":1,""num_randdir"":9,""num_randdir_good_moves"":4,""num_whilered"":0,""num_whileblue"":1,""num_blue"":6,""num_good_moves"":12}","[421.5714133126395,411.3214362008231,0,421.5714133126395,411.3214362008231,106,421.5714133126395,411.3214362008231,216,421.5714133126395,411.3214362008231,316,421.5714133126395,411.3214362008231,427,119.0714133126395,78.8214362008231,542,89.0714133126395,40.0714362008231,648,85.3214133126395,37.5714362008231,760,85.3214133126395,37.5714362008231,877,85.3214133126395,37.5714362008231,983,85.3214133126395,37.5714362008231,1094,85.3214133126395,37.5714362008231,1203,85.3214133126395,37.5714362008231,1313,85.3214133126395,37.5714362008231,1424,85.3214133126395,37.5714362008231,1538,85.3214133126395,37.5714362008231,1654,85.3214133126395,37.5714362008231,1762,85.3214133126395,37.5714362008231,1874,85.3214133126395,37.5714362008231,1985,85.3214133126395,37.5714362008231,2095,85.3214133126395,37.5714362008231,2208,85.3214133126395,37.5714362008231,2318,85.3214133126395,37.5714362008231,2430,85.3214133126395,37.5714362008231,2543,85.3214133126395,37.5714362008231,2656,85.3214133126395,37.5714362008231,2764,85.3214133126395,37.5714362008231,2875,85.3214133126395,37.5714362008231,2988,85.3214133126395,37.5714362008231,3100,85.3214133126395,37.5714362008231,3212,85.3214133126395,37.5714362008231,3325,85.3214133126395,37.5714362008231,3437,85.3214133126395,37.5714362008231,3550,85.3214133126395,37.5714362008231,3662,85.3214133126395,37.5714362008231,3774,85.3214133126395,37.5714362008231,3883,85.3214133126395,37.5714362008231,3993,85.3214133126395,37.5714362008231,4106,85.3214133126395,37.5714362008231,4215,85.3214133126395,37.5714362008231,4326,85.3214133126395,37.5714362008231,4438,85.3214133126395,37.5714362008231,4548,85.3214133126395,37.5714362008231,4658,85.3214133126395,37.5714362008231,4771,85.3214133126395,37.5714362008231,4880,85.3214133126395,37.5714362008231,4991]","[11788,11788,2953.1,8491,343.9,""oops"",""left"",""right"",""bad_move"",15059,3271,2867.6,11788,403.4,""oops"",""left"",""left"",""good_move"",18134,3074,2617.4,15060,456.6,""smooth"",""left"",""left"",""good_move"",24267,6133,2085.3,21844,337.7,""smooth"",""left"",""left"",""good_move"",27375,3108,2709.7,24267,398.3,""smooth"",""left"",""left"",""good_move"",30440,3065,1923.6,27375,1141.4,""smooth"",""up"",""up"",""good_move"",33515,3075,1713.3,30440,1361.7,""oops"",""up"",""down"",""bad_move"",36360,2845,2456.6,33515,388.4,""oops"",""up"",""down"",""bad_move"",40173,3813,3493.5,36360,319.5,""oops"",""up"",""down"",""bad_move"",43915,3742,3423.6,40173,318.4,""oops"",""up"",""right"",""bad_move"",46686,2771,2362.4,43915,408.6,""oops"",""up"",""up"",""good_move"",49752,3066,2629.5,46686,436.5,""smooth"",""up"",""up"",""good_move"",53305,3553,3252,49752,301,""while_blue"",""up"",""right"",""bad_move"",55497,2191,1735.8,53306,455.2,""smooth"",""up"",""up"",""good_move"",62914,7417,3316.3,59209,388.7,""oops"",""up"",""left"",""good_move"",66025,3110,1640.8,62915,1469.2,""smooth"",""up"",""up"",""good_move"",69415,3390,2956.1,66025,433.9,""smooth"",""up"",""up"",""good_move"",72511,3096,2524.6,69415,571.4,""oops"",""left"",""left"",""good_move""]","",""
"3498","","<div style=""width:500px;"">
  <p>What determined the result of this run?</p>
  </div>","61","html-slider-response","55","766577","0.0-5.0-1.9","195","1","2025-07-23 08:38:08","1f75c3e559b7213887762d5229550c2b","220.240.86.112","Mozilla/5.0 (Windows NT 10.0; Win64; x64; rv:140.0) Gecko/20100101 Firefox/140.0","","Firefox","140.0","Windows","10.0","https://app.prolific.com/","en-US,en;q=0.5","642cb1f7f42c4e0a6c5d4eef","683db9eb0562dbf637994deb","68809f628746bb47f5a3fe3e","2","1","642cb1f7f42c4e0a6c5d4eef","2","1","2025-07-23T08:51:01.031Z","","","","","","","","","","","AttribQ","","50","","","","","","","","","","","","","","","","","","","","","","","","","","","","",""
"2705","","<div style=""width:500px;"">
  <p>How much control did you have over the ball?</p>
  </div>","59","html-slider-response","56","769283","0.0-5.0-2.9","195","1","2025-07-23 08:38:08","1f75c3e559b7213887762d5229550c2b","220.240.86.112","Mozilla/5.0 (Windows NT 10.0; Win64; x64; rv:140.0) Gecko/20100101 Firefox/140.0","","Firefox","140.0","Windows","10.0","https://app.prolific.com/","en-US,en;q=0.5","642cb1f7f42c4e0a6c5d4eef","683db9eb0562dbf637994deb","68809f628746bb47f5a3fe3e","2","1","642cb1f7f42c4e0a6c5d4eef","2","1","2025-07-23T08:51:03.737Z","","","","","","","","","","","ControlQ","","50","","","","","","","","","","","","","","","","","","","","","","","","","","","","",""
"2983","","<div style=""width:500px;"">
  <p>How would you describe your current emotional state?</p>
  </div>","56","html-slider-response","57","772267","0.0-5.0-3.9","195","1","2025-07-23 08:38:08","1f75c3e559b7213887762d5229550c2b","220.240.86.112","Mozilla/5.0 (Windows NT 10.0; Win64; x64; rv:140.0) Gecko/20100101 Firefox/140.0","","Firefox","140.0","Windows","10.0","https://app.prolific.com/","en-US,en;q=0.5","642cb1f7f42c4e0a6c5d4eef","683db9eb0562dbf637994deb","68809f628746bb47f5a3fe3e","2","1","642cb1f7f42c4e0a6c5d4eef","2","1","2025-07-23T08:51:06.721Z","","","","","","","","","","","StressQ","","50","","","","","","","","","","","","","","","","","","","","","","","","","","","","",""
"2690","","<div style=""width:500px;"">
  <p>What best describes how you currently feel?</p>
  </div>","39","html-slider-response","58","774960","0.0-5.0-4.9","195","1","2025-07-23 08:38:08","1f75c3e559b7213887762d5229550c2b","220.240.86.112","Mozilla/5.0 (Windows NT 10.0; Win64; x64; rv:140.0) Gecko/20100101 Firefox/140.0","","Firefox","140.0","Windows","10.0","https://app.prolific.com/","en-US,en;q=0.5","642cb1f7f42c4e0a6c5d4eef","683db9eb0562dbf637994deb","68809f628746bb47f5a3fe3e","2","1","642cb1f7f42c4e0a6c5d4eef","2","1","2025-07-23T08:51:09.414Z","","","","","","","","","","","MotivationQ","","50","","","","","","","","","","","","","","","","","","","","","","","","","","","","",""
"","","","","ctl-task-cpt","59","811710","0.0-5.0-0.10","195","1","2025-07-23 08:38:08","1f75c3e559b7213887762d5229550c2b","220.240.86.112","Mozilla/5.0 (Windows NT 10.0; Win64; x64; rv:140.0) Gecko/20100101 Firefox/140.0","","Firefox","140.0","Windows","10.0","https://app.prolific.com/","en-US,en;q=0.5","642cb1f7f42c4e0a6c5d4eef","683db9eb0562dbf637994deb","68809f628746bb47f5a3fe3e","2","1","642cb1f7f42c4e0a6c5d4eef","2","1","2025-07-23T08:51:46.164Z","","","","","","","","","","","","","","win-only","3","g1:SW,g2:NE","0.5","11","0","782843","1928","6936","33735","1","4","8","6","2","8","8","45","37","0.3409090909090909","1093","3000","2090","[""up"",""right""]","{""num_key_presses"":8,""num_perfect"":4,""num_errors"":0,""num_randdir"":4,""num_randdir_good_moves"":3,""num_whilered"":0,""num_whileblue"":0,""num_blue"":1,""num_good_moves"":7}","[414.0714133126395,415.0714362008231,0,414.0714133126395,415.0714362008231,103,414.0714133126395,415.0714362008231,213,414.0714133126395,415.0714362008231,325,434.0714133126395,390.0714362008231,426,784.0714133126395,61.3214362008231,536,806.5714133126395,38.8214362008231,648,826.5714133126395,15.0714362008231,758,759.0714133126395,55.0714362008231,870,755.3214133126395,57.5714362008231,983,755.3214133126395,57.5714362008231,1095,755.3214133126395,57.5714362008231,1207,755.3214133126395,57.5714362008231,1318,755.3214133126395,57.5714362008231,1430,755.3214133126395,57.5714362008231,1542,755.3214133126395,57.5714362008231,1652,755.3214133126395,57.5714362008231,1763,755.3214133126395,57.5714362008231,1874,755.3214133126395,57.5714362008231,1983,755.3214133126395,57.5714362008231,2095,755.3214133126395,57.5714362008231,2198,755.3214133126395,57.5714362008231,2309,755.3214133126395,57.5714362008231,2420,755.3214133126395,57.5714362008231,2529,755.3214133126395,57.5714362008231,2643,755.3214133126395,57.5714362008231,2754,755.3214133126395,57.5714362008231,2863,755.3214133126395,57.5714362008231,2975,755.3214133126395,57.5714362008231,3086,755.3214133126395,57.5714362008231,3198,755.3214133126395,57.5714362008231,3310,755.3214133126395,57.5714362008231,3424,755.3214133126395,57.5714362008231,3532,755.3214133126395,57.5714362008231,3644,755.3214133126395,57.5714362008231,3755,755.3214133126395,57.5714362008231,3870,755.3214133126395,57.5714362008231,3982,755.3214133126395,57.5714362008231,4093,755.3214133126395,57.5714362008231,4206,755.3214133126395,57.5714362008231,4315,755.3214133126395,57.5714362008231,4428,755.3214133126395,57.5714362008231,4540,755.3214133126395,57.5714362008231,4650,755.3214133126395,57.5714362008231,4764,755.3214133126395,57.5714362008231,4880,755.3214133126395,57.5714362008231,4994]","[1434,1434,1000,0,434,""smooth"",""right"",""right"",""good_move"",4022,2587,2247.8,1435,339.2,""oops"",""up"",""left"",""bad_move"",7097,3075,1971.5,4022,1103.5,""oops"",""up"",""right"",""good_move"",9808,2710,2325.8,7098,384.2,""smooth"",""up"",""up"",""good_move"",12872,3063,2198.7,9809,864.3,""smooth"",""up"",""up"",""good_move"",15977,3105,1907.9,12872,1197.1,""smooth"",""up"",""up"",""good_move"",19473,3496,3150.5,15977,345.5,""oops"",""right"",""right"",""good_move"",26502,7028,3375.5,22745,381.5,""oops"",""right"",""right"",""good_move""]","",""
"2645","","<div style=""width:500px;"">
  <p>What determined the result of this run?</p>
  </div>","67","html-slider-response","60","814363","0.0-5.0-1.10","195","1","2025-07-23 08:38:08","1f75c3e559b7213887762d5229550c2b","220.240.86.112","Mozilla/5.0 (Windows NT 10.0; Win64; x64; rv:140.0) Gecko/20100101 Firefox/140.0","","Firefox","140.0","Windows","10.0","https://app.prolific.com/","en-US,en;q=0.5","642cb1f7f42c4e0a6c5d4eef","683db9eb0562dbf637994deb","68809f628746bb47f5a3fe3e","2","1","642cb1f7f42c4e0a6c5d4eef","2","1","2025-07-23T08:51:48.817Z","","","","","","","","","","","AttribQ","","50","","","","","","","","","","","","","","","","","","","","","","","","","","","","",""
"4032","","<div style=""width:500px;"">
  <p>How much control did you have over the ball?</p>
  </div>","69","html-slider-response","61","818397","0.0-5.0-2.10","195","1","2025-07-23 08:38:08","1f75c3e559b7213887762d5229550c2b","220.240.86.112","Mozilla/5.0 (Windows NT 10.0; Win64; x64; rv:140.0) Gecko/20100101 Firefox/140.0","","Firefox","140.0","Windows","10.0","https://app.prolific.com/","en-US,en;q=0.5","642cb1f7f42c4e0a6c5d4eef","683db9eb0562dbf637994deb","68809f628746bb47f5a3fe3e","2","1","642cb1f7f42c4e0a6c5d4eef","2","1","2025-07-23T08:51:52.851Z","","","","","","","","","","","ControlQ","","50","","","","","","","","","","","","","","","","","","","","","","","","","","","","",""
"2703","","<div style=""width:500px;"">
  <p>How would you describe your current emotional state?</p>
  </div>","55","html-slider-response","62","821103","0.0-5.0-3.10","195","1","2025-07-23 08:38:08","1f75c3e559b7213887762d5229550c2b","220.240.86.112","Mozilla/5.0 (Windows NT 10.0; Win64; x64; rv:140.0) Gecko/20100101 Firefox/140.0","","Firefox","140.0","Windows","10.0","https://app.prolific.com/","en-US,en;q=0.5","642cb1f7f42c4e0a6c5d4eef","683db9eb0562dbf637994deb","68809f628746bb47f5a3fe3e","2","1","642cb1f7f42c4e0a6c5d4eef","2","1","2025-07-23T08:51:55.557Z","","","","","","","","","","","StressQ","","50","","","","","","","","","","","","","","","","","","","","","","","","","","","","",""
"1924","","<div style=""width:500px;"">
  <p>What best describes how you currently feel?</p>
  </div>","42","html-slider-response","63","823030","0.0-5.0-4.10","195","1","2025-07-23 08:38:08","1f75c3e559b7213887762d5229550c2b","220.240.86.112","Mozilla/5.0 (Windows NT 10.0; Win64; x64; rv:140.0) Gecko/20100101 Firefox/140.0","","Firefox","140.0","Windows","10.0","https://app.prolific.com/","en-US,en;q=0.5","642cb1f7f42c4e0a6c5d4eef","683db9eb0562dbf637994deb","68809f628746bb47f5a3fe3e","2","1","642cb1f7f42c4e0a6c5d4eef","2","1","2025-07-23T08:51:57.484Z","","","","","","","","","","","MotivationQ","","50","","","","","","","","","","","","","","","","","","","","","","","","","","","","",""
"","","","","ctl-task-cpt","64","864124","0.0-5.0-0.11","195","1","2025-07-23 08:38:08","1f75c3e559b7213887762d5229550c2b","220.240.86.112","Mozilla/5.0 (Windows NT 10.0; Win64; x64; rv:140.0) Gecko/20100101 Firefox/140.0","","Firefox","140.0","Windows","10.0","https://app.prolific.com/","en-US,en;q=0.5","642cb1f7f42c4e0a6c5d4eef","683db9eb0562dbf637994deb","68809f628746bb47f5a3fe3e","2","1","642cb1f7f42c4e0a6c5d4eef","2","1","2025-07-23T08:52:38.578Z","","","","","","","","","","","","","","win-only","1","g1:NE,g2:SW","0.6","12","0","830914","1532","6541","38086","1","4","4","6","2","4","3","48","45","0.36363636363636365","1254","3000","1985","[""down"",""left""]","{""num_key_presses"":10,""num_perfect"":6,""num_errors"":1,""num_randdir"":3,""num_randdir_good_moves"":1,""num_whilered"":0,""num_whileblue"":1,""num_blue"":2,""num_good_moves"":8}","[415.3214133126395,418.8214362008231,0,415.3214133126395,418.8214362008231,102,415.3214133126395,418.8214362008231,212,415.3214133126395,418.8214362008231,326,415.3214133126395,418.8214362008231,439,674.0714133126395,202.5714362008231,551,686.5714133126395,190.0714362008231,660,274.0714133126395,581.3214362008231,770,155.3214133126395,713.8214362008231,883,126.5714133126395,738.8214362008231,994,109.0714133126395,747.5714362008231,1105,109.0714133126395,747.5714362008231,1217,109.0714133126395,747.5714362008231,1327,109.0714133126395,747.5714362008231,1442,109.0714133126395,747.5714362008231,1554,109.0714133126395,747.5714362008231,1671,109.0714133126395,747.5714362008231,1777,109.0714133126395,747.5714362008231,1886,109.0714133126395,747.5714362008231,1996,109.0714133126395,747.5714362008231,2108,109.0714133126395,747.5714362008231,2218,109.0714133126395,747.5714362008231,2332,109.0714133126395,747.5714362008231,2443,109.0714133126395,747.5714362008231,2554,109.0714133126395,747.5714362008231,2668,109.0714133126395,747.5714362008231,2778,109.0714133126395,747.5714362008231,2888,109.0714133126395,747.5714362008231,3000,109.0714133126395,747.5714362008231,3113,109.0714133126395,747.5714362008231,3224,109.0714133126395,747.5714362008231,3337,109.0714133126395,747.5714362008231,3448,109.0714133126395,747.5714362008231,3562,109.0714133126395,747.5714362008231,3668,109.0714133126395,747.5714362008231,3769,109.0714133126395,747.5714362008231,3880,109.0714133126395,747.5714362008231,3994,109.0714133126395,747.5714362008231,4103,109.0714133126395,747.5714362008231,4217,109.0714133126395,747.5714362008231,4328,109.0714133126395,747.5714362008231,4436,109.0714133126395,747.5714362008231,4548,109.0714133126395,747.5714362008231,4659,109.0714133126395,747.5714362008231,4771,109.0714133126395,747.5714362008231,4883,109.0714133126395,747.5714362008231,4993]","[1443,1443,1000,0,443,""oops"",""left"",""right"",""bad_move"",4066,2623,2255.7,1443,367.3,""smooth"",""left"",""left"",""good_move"",7096,3029,2459.1,4067,569.9,""smooth"",""left"",""left"",""good_move"",10108,3012,2408.2,7096,603.8,""oops"",""left"",""right"",""bad_move"",12267,2158,1823.5,10109,334.5,""smooth"",""left"",""left"",""good_move"",15279,3012,2198.3,12267,813.7,""smooth"",""left"",""left"",""good_move"",18280,3000,2689,15280,311,""while_blue"",""left"",""left"",""good_move"",21350,3070,2660.4,18280,409.6,""smooth"",""down"",""down"",""good_move"",28129,6779,2809.8,24910,409.2,""smooth"",""down"",""down"",""good_move"",31265,3136,2706.7,28129,429.3,""oops"",""down"",""down"",""good_move""]","",""
"3576","","<div style=""width:500px;"">
  <p>What determined the result of this run?</p>
  </div>","65","html-slider-response","65","867704","0.0-5.0-1.11","195","1","2025-07-23 08:38:08","1f75c3e559b7213887762d5229550c2b","220.240.86.112","Mozilla/5.0 (Windows NT 10.0; Win64; x64; rv:140.0) Gecko/20100101 Firefox/140.0","","Firefox","140.0","Windows","10.0","https://app.prolific.com/","en-US,en;q=0.5","642cb1f7f42c4e0a6c5d4eef","683db9eb0562dbf637994deb","68809f628746bb47f5a3fe3e","2","1","642cb1f7f42c4e0a6c5d4eef","2","1","2025-07-23T08:52:42.158Z","","","","","","","","","","","AttribQ","","50","","","","","","","","","","","","","","","","","","","","","","","","","","","","",""
"2246","","<div style=""width:500px;"">
  <p>How much control did you have over the ball?</p>
  </div>","63","html-slider-response","66","869953","0.0-5.0-2.11","195","1","2025-07-23 08:38:08","1f75c3e559b7213887762d5229550c2b","220.240.86.112","Mozilla/5.0 (Windows NT 10.0; Win64; x64; rv:140.0) Gecko/20100101 Firefox/140.0","","Firefox","140.0","Windows","10.0","https://app.prolific.com/","en-US,en;q=0.5","642cb1f7f42c4e0a6c5d4eef","683db9eb0562dbf637994deb","68809f628746bb47f5a3fe3e","2","1","642cb1f7f42c4e0a6c5d4eef","2","1","2025-07-23T08:52:44.407Z","","","","","","","","","","","ControlQ","","50","","","","","","","","","","","","","","","","","","","","","","","","","","","","",""
"3121","","<div style=""width:500px;"">
  <p>How would you describe your current emotional state?</p>
  </div>","54","html-slider-response","67","873076","0.0-5.0-3.11","195","1","2025-07-23 08:38:08","1f75c3e559b7213887762d5229550c2b","220.240.86.112","Mozilla/5.0 (Windows NT 10.0; Win64; x64; rv:140.0) Gecko/20100101 Firefox/140.0","","Firefox","140.0","Windows","10.0","https://app.prolific.com/","en-US,en;q=0.5","642cb1f7f42c4e0a6c5d4eef","683db9eb0562dbf637994deb","68809f628746bb47f5a3fe3e","2","1","642cb1f7f42c4e0a6c5d4eef","2","1","2025-07-23T08:52:47.530Z","","","","","","","","","","","StressQ","","50","","","","","","","","","","","","","","","","","","","","","","","","","","","","",""
"1817","","<div style=""width:500px;"">
  <p>What best describes how you currently feel?</p>
  </div>","43","html-slider-response","68","874896","0.0-5.0-4.11","195","1","2025-07-23 08:38:08","1f75c3e559b7213887762d5229550c2b","220.240.86.112","Mozilla/5.0 (Windows NT 10.0; Win64; x64; rv:140.0) Gecko/20100101 Firefox/140.0","","Firefox","140.0","Windows","10.0","https://app.prolific.com/","en-US,en;q=0.5","642cb1f7f42c4e0a6c5d4eef","683db9eb0562dbf637994deb","68809f628746bb47f5a3fe3e","2","1","642cb1f7f42c4e0a6c5d4eef","2","1","2025-07-23T08:52:49.350Z","","","","","","","","","","","MotivationQ","","50","","","","","","","","","","","","","","","","","","","","","","","","","","","","",""
"","","","","ctl-task-cpt","69","913144","0.0-5.0-0.12","195","1","2025-07-23 08:38:08","1f75c3e559b7213887762d5229550c2b","220.240.86.112","Mozilla/5.0 (Windows NT 10.0; Win64; x64; rv:140.0) Gecko/20100101 Firefox/140.0","","Firefox","140.0","Windows","10.0","https://app.prolific.com/","en-US,en;q=0.5","642cb1f7f42c4e0a6c5d4eef","683db9eb0562dbf637994deb","68809f628746bb47f5a3fe3e","2","1","642cb1f7f42c4e0a6c5d4eef","2","1","2025-07-23T08:53:27.598Z","","","","","","","","","","","","","","win-only","3","g1:SW,g2:NE","0.7","13","0","882780","1843","6859","35242","1","4","4","6","2","4","3","51","48","0.38636363636363635","1215","3000","2275","[""up"",""right""]","{""num_key_presses"":7,""num_perfect"":5,""num_errors"":1,""num_randdir"":1,""num_randdir_good_moves"":1,""num_whilered"":0,""num_whileblue"":0,""num_blue"":3,""num_good_moves"":6}","[419.0714133126395,423.8214362008231,1,419.0714133126395,423.8214362008231,112,419.0714133126395,423.8214362008231,222,419.0714133126395,423.8214362008231,337,419.0714133126395,423.8214362008231,448,341.5714133126395,495.0714362008231,561,446.5714133126395,433.8214362008231,668,747.8214133126395,146.3214362008231,780,750.3214133126395,131.3214362008231,894,761.5714133126395,85.0714362008231,1002,766.5714133126395,67.5714362008231,1116,766.5714133126395,67.5714362008231,1229,766.5714133126395,67.5714362008231,1337,766.5714133126395,67.5714362008231,1451,766.5714133126395,67.5714362008231,1562,766.5714133126395,67.5714362008231,1672,766.5714133126395,67.5714362008231,1781,766.5714133126395,67.5714362008231,1881,766.5714133126395,67.5714362008231,1987,766.5714133126395,67.5714362008231,2098,766.5714133126395,67.5714362008231,2212,766.5714133126395,67.5714362008231,2323,766.5714133126395,67.5714362008231,2435,766.5714133126395,67.5714362008231,2547,766.5714133126395,67.5714362008231,2661,766.5714133126395,67.5714362008231,2774,766.5714133126395,67.5714362008231,2881,766.5714133126395,67.5714362008231,2995,766.5714133126395,67.5714362008231,3106,766.5714133126395,67.5714362008231,3216,766.5714133126395,67.5714362008231,3329,766.5714133126395,67.5714362008231,3443,766.5714133126395,67.5714362008231,3556,766.5714133126395,67.5714362008231,3668,766.5714133126395,67.5714362008231,3782,766.5714133126395,67.5714362008231,3895,766.5714133126395,67.5714362008231,4008,766.5714133126395,67.5714362008231,4118,766.5714133126395,67.5714362008231,4230,766.5714133126395,67.5714362008231,4345,766.5714133126395,67.5714362008231,4459,766.5714133126395,67.5714362008231,4568,766.5714133126395,67.5714362008231,4680,766.5714133126395,67.5714362008231,4791,766.5714133126395,67.5714362008231,4894,766.5714133126395,67.5714362008231,5000]","[1401,1401,1000,0,401,""smooth"",""up"",""up"",""good_move"",5574,4173,3391.2,5116,-2933.2,""error"",""-"",""-"",""no_move"",9417,3842,2483.6,6581,352.4,""smooth"",""up"",""up"",""good_move"",12701,3283,2859.6,9418,423.4,""smooth"",""up"",""up"",""good_move"",15788,3087,2261.3,12701,825.7,""oops"",""right"",""right"",""good_move"",25529,9741,1899,23239,391,""smooth"",""right"",""right"",""good_move"",28095,2566,2133.7,25529,432.3,""smooth"",""right"",""right"",""good_move""]","",""
"33235","","<div style=""width:500px;"">
  <p>What determined the result of this run?</p>
  </div>","72","html-slider-response","70","946382","0.0-5.0-1.12","195","1","2025-07-23 08:38:08","1f75c3e559b7213887762d5229550c2b","220.240.86.112","Mozilla/5.0 (Windows NT 10.0; Win64; x64; rv:140.0) Gecko/20100101 Firefox/140.0","","Firefox","140.0","Windows","10.0","https://app.prolific.com/","en-US,en;q=0.5","642cb1f7f42c4e0a6c5d4eef","683db9eb0562dbf637994deb","68809f628746bb47f5a3fe3e","2","1","642cb1f7f42c4e0a6c5d4eef","2","1","2025-07-23T08:54:00.836Z","","","","","","","","","","","AttribQ","","50","","","","","","","","","","","","","","","","","","","","","","","","","","","","",""
"3070","","<div style=""width:500px;"">
  <p>How much control did you have over the ball?</p>
  </div>","63","html-slider-response","71","949457","0.0-5.0-2.12","195","1","2025-07-23 08:38:08","1f75c3e559b7213887762d5229550c2b","220.240.86.112","Mozilla/5.0 (Windows NT 10.0; Win64; x64; rv:140.0) Gecko/20100101 Firefox/140.0","","Firefox","140.0","Windows","10.0","https://app.prolific.com/","en-US,en;q=0.5","642cb1f7f42c4e0a6c5d4eef","683db9eb0562dbf637994deb","68809f628746bb47f5a3fe3e","2","1","642cb1f7f42c4e0a6c5d4eef","2","1","2025-07-23T08:54:03.912Z","","","","","","","","","","","ControlQ","","50","","","","","","","","","","","","","","","","","","","","","","","","","","","","",""
"2672","","<div style=""width:500px;"">
  <p>How would you describe your current emotional state?</p>
  </div>","55","html-slider-response","72","952132","0.0-5.0-3.12","195","1","2025-07-23 08:38:08","1f75c3e559b7213887762d5229550c2b","220.240.86.112","Mozilla/5.0 (Windows NT 10.0; Win64; x64; rv:140.0) Gecko/20100101 Firefox/140.0","","Firefox","140.0","Windows","10.0","https://app.prolific.com/","en-US,en;q=0.5","642cb1f7f42c4e0a6c5d4eef","683db9eb0562dbf637994deb","68809f628746bb47f5a3fe3e","2","1","642cb1f7f42c4e0a6c5d4eef","2","1","2025-07-23T08:54:06.586Z","","","","","","","","","","","StressQ","","50","","","","","","","","","","","","","","","","","","","","","","","","","","","","",""
"2804","","<div style=""width:500px;"">
  <p>What best describes how you currently feel?</p>
  </div>","46","html-slider-response","73","954938","0.0-5.0-4.12","195","1","2025-07-23 08:38:08","1f75c3e559b7213887762d5229550c2b","220.240.86.112","Mozilla/5.0 (Windows NT 10.0; Win64; x64; rv:140.0) Gecko/20100101 Firefox/140.0","","Firefox","140.0","Windows","10.0","https://app.prolific.com/","en-US,en;q=0.5","642cb1f7f42c4e0a6c5d4eef","683db9eb0562dbf637994deb","68809f628746bb47f5a3fe3e","2","1","642cb1f7f42c4e0a6c5d4eef","2","1","2025-07-23T08:54:09.392Z","","","","","","","","","","","MotivationQ","","50","","","","","","","","","","","","","","","","","","","","","","","","","","","","",""
"","","","","ctl-task-cpt","74","991181","0.0-5.0-0.13","195","1","2025-07-23 08:38:08","1f75c3e559b7213887762d5229550c2b","220.240.86.112","Mozilla/5.0 (Windows NT 10.0; Win64; x64; rv:140.0) Gecko/20100101 Firefox/140.0","","Firefox","140.0","Windows","10.0","https://app.prolific.com/","en-US,en;q=0.5","642cb1f7f42c4e0a6c5d4eef","683db9eb0562dbf637994deb","68809f628746bb47f5a3fe3e","2","1","642cb1f7f42c4e0a6c5d4eef","2","1","2025-07-23T08:54:45.636Z","","","","","","","","","","","","","","win-only","3","g1:SW,g2:NE","0.8","14","0","962822","3975","8990","33225","1","4","8","6","2","8","8","59","51","0.44696969696969696","1140","3000","2175","[""up"",""right""]","{""num_key_presses"":6,""num_perfect"":6,""num_errors"":0,""num_randdir"":0,""num_randdir_good_moves"":0,""num_whilered"":0,""num_whileblue"":0,""num_blue"":2,""num_good_moves"":6}","[427.8214133126395,421.3214362008231,0,427.8214133126395,421.3214362008231,110,427.8214133126395,421.3214362008231,214,427.8214133126395,421.3214362008231,315,427.8214133126395,421.3214362008231,416,427.8214133126395,421.3214362008231,528,599.0714133126395,268.8214362008231,631,634.0714133126395,211.3214362008231,734,679.0714133126395,142.5714362008231,846,724.0714133126395,108.8214362008231,949,734.0714133126395,106.3214362008231,1054,734.0714133126395,106.3214362008231,1163,734.0714133126395,106.3214362008231,1269,734.0714133126395,106.3214362008231,1382,734.0714133126395,106.3214362008231,1490,734.0714133126395,106.3214362008231,1596,734.0714133126395,106.3214362008231,1700,734.0714133126395,106.3214362008231,1813,734.0714133126395,106.3214362008231,1920,734.0714133126395,106.3214362008231,2029,734.0714133126395,106.3214362008231,2134,734.0714133126395,106.3214362008231,2242,734.0714133126395,106.3214362008231,2360,734.0714133126395,106.3214362008231,2466,734.0714133126395,106.3214362008231,2570,734.0714133126395,106.3214362008231,2680,734.0714133126395,106.3214362008231,2784,734.0714133126395,106.3214362008231,2887,734.0714133126395,106.3214362008231,2997,734.0714133126395,106.3214362008231,3105,734.0714133126395,106.3214362008231,3213,734.0714133126395,106.3214362008231,3316,734.0714133126395,106.3214362008231,3427,734.0714133126395,106.3214362008231,3538,734.0714133126395,106.3214362008231,3650,734.0714133126395,106.3214362008231,3763,734.0714133126395,106.3214362008231,3875,734.0714133126395,106.3214362008231,3986,734.0714133126395,106.3214362008231,4099,734.0714133126395,106.3214362008231,4213,734.0714133126395,106.3214362008231,4323,734.0714133126395,106.3214362008231,4438,734.0714133126395,106.3214362008231,4548,734.0714133126395,106.3214362008231,4661,734.0714133126395,106.3214362008231,4762,734.0714133126395,106.3214362008231,4874,734.0714133126395,106.3214362008231,4985]","[7785,7785,2302.4,5083,399.6,""smooth"",""up"",""up"",""good_move"",11020,3236,1973.5,7785,1262.5,""smooth"",""up"",""up"",""good_move"",14179,3158,2433.6,11021,724.4,""smooth"",""up"",""up"",""good_move"",17349,3170,2429.9,14179,740.1,""smooth"",""right"",""right"",""good_move"",20739,3389,2974.9,17350,414.1,""smooth"",""right"",""right"",""good_move"",23935,3196,2781.6,20739,414.4,""smooth"",""right"",""right"",""good_move""]","",""
"12251","","<div style=""width:500px;"">
  <p>What determined the result of this run?</p>
  </div>","62","html-slider-response","75","1003434","0.0-5.0-1.13","195","1","2025-07-23 08:38:08","1f75c3e559b7213887762d5229550c2b","220.240.86.112","Mozilla/5.0 (Windows NT 10.0; Win64; x64; rv:140.0) Gecko/20100101 Firefox/140.0","","Firefox","140.0","Windows","10.0","https://app.prolific.com/","en-US,en;q=0.5","642cb1f7f42c4e0a6c5d4eef","683db9eb0562dbf637994deb","68809f628746bb47f5a3fe3e","2","1","642cb1f7f42c4e0a6c5d4eef","2","1","2025-07-23T08:54:57.888Z","","","","","","","","","","","AttribQ","","50","","","","","","","","","","","","","","","","","","","","","","","","","","","","",""
"2231","","<div style=""width:500px;"">
  <p>How much control did you have over the ball?</p>
  </div>","64","html-slider-response","76","1005669","0.0-5.0-2.13","195","1","2025-07-23 08:38:08","1f75c3e559b7213887762d5229550c2b","220.240.86.112","Mozilla/5.0 (Windows NT 10.0; Win64; x64; rv:140.0) Gecko/20100101 Firefox/140.0","","Firefox","140.0","Windows","10.0","https://app.prolific.com/","en-US,en;q=0.5","642cb1f7f42c4e0a6c5d4eef","683db9eb0562dbf637994deb","68809f628746bb47f5a3fe3e","2","1","642cb1f7f42c4e0a6c5d4eef","2","1","2025-07-23T08:55:00.123Z","","","","","","","","","","","ControlQ","","50","","","","","","","","","","","","","","","","","","","","","","","","","","","","",""
"2474","","<div style=""width:500px;"">
  <p>How would you describe your current emotional state?</p>
  </div>","55","html-slider-response","77","1008148","0.0-5.0-3.13","195","1","2025-07-23 08:38:08","1f75c3e559b7213887762d5229550c2b","220.240.86.112","Mozilla/5.0 (Windows NT 10.0; Win64; x64; rv:140.0) Gecko/20100101 Firefox/140.0","","Firefox","140.0","Windows","10.0","https://app.prolific.com/","en-US,en;q=0.5","642cb1f7f42c4e0a6c5d4eef","683db9eb0562dbf637994deb","68809f628746bb47f5a3fe3e","2","1","642cb1f7f42c4e0a6c5d4eef","2","1","2025-07-23T08:55:02.602Z","","","","","","","","","","","StressQ","","50","","","","","","","","","","","","","","","","","","","","","","","","","","","","",""
"2145","","<div style=""width:500px;"">
  <p>What best describes how you currently feel?</p>
  </div>","42","html-slider-response","78","1010294","0.0-5.0-4.13","195","1","2025-07-23 08:38:08","1f75c3e559b7213887762d5229550c2b","220.240.86.112","Mozilla/5.0 (Windows NT 10.0; Win64; x64; rv:140.0) Gecko/20100101 Firefox/140.0","","Firefox","140.0","Windows","10.0","https://app.prolific.com/","en-US,en;q=0.5","642cb1f7f42c4e0a6c5d4eef","683db9eb0562dbf637994deb","68809f628746bb47f5a3fe3e","2","1","642cb1f7f42c4e0a6c5d4eef","2","1","2025-07-23T08:55:04.748Z","","","","","","","","","","","MotivationQ","","50","","","","","","","","","","","","","","","","","","","","","","","","","","","","",""
"","","","","ctl-task-cpt","79","1037392","0.0-5.0-0.14","195","1","2025-07-23 08:38:08","1f75c3e559b7213887762d5229550c2b","220.240.86.112","Mozilla/5.0 (Windows NT 10.0; Win64; x64; rv:140.0) Gecko/20100101 Firefox/140.0","","Firefox","140.0","Windows","10.0","https://app.prolific.com/","en-US,en;q=0.5","642cb1f7f42c4e0a6c5d4eef","683db9eb0562dbf637994deb","68809f628746bb47f5a3fe3e","2","1","642cb1f7f42c4e0a6c5d4eef","2","1","2025-07-23T08:55:31.847Z","","","","","","","","","","","","","","win-only","1","g1:NE,g2:SW","0.9","15","0","1018176","2773","7786","24082","1","4","8","6","2","8","8","67","59","0.5075757575757576","1015","3000","2295","[""down"",""left""]","{""num_key_presses"":6,""num_perfect"":6,""num_errors"":0,""num_randdir"":0,""num_randdir_good_moves"":0,""num_whilered"":0,""num_whileblue"":0,""num_blue"":0,""num_good_moves"":6}","[414.0714133126395,422.5714362008231,0,414.0714133126395,422.5714362008231,101,414.0714133126395,422.5714362008231,214,414.0714133126395,422.5714362008231,325,449.0714133126395,348.8214362008231,434,540.3214133126395,253.8214362008231,545,119.0714133126395,776.3214362008231,656,112.8214133126395,783.8214362008231,766,97.8214133126395,783.8214362008231,879,97.8214133126395,783.8214362008231,991,97.8214133126395,783.8214362008231,1101,97.8214133126395,783.8214362008231,1214,97.8214133126395,783.8214362008231,1326,97.8214133126395,783.8214362008231,1438,97.8214133126395,783.8214362008231,1549,97.8214133126395,783.8214362008231,1659,97.8214133126395,783.8214362008231,1759,97.8214133126395,783.8214362008231,1868,97.8214133126395,783.8214362008231,1979,97.8214133126395,783.8214362008231,2092,97.8214133126395,783.8214362008231,2203,97.8214133126395,783.8214362008231,2314,97.8214133126395,783.8214362008231,2427,97.8214133126395,783.8214362008231,2540,97.8214133126395,783.8214362008231,2649,97.8214133126395,783.8214362008231,2760,97.8214133126395,783.8214362008231,2872,97.8214133126395,783.8214362008231,2980,97.8214133126395,783.8214362008231,3094,97.8214133126395,783.8214362008231,3205,97.8214133126395,783.8214362008231,3315,97.8214133126395,783.8214362008231,3425,97.8214133126395,783.8214362008231,3538,97.8214133126395,783.8214362008231,3651,97.8214133126395,783.8214362008231,3762,97.8214133126395,783.8214362008231,3874,97.8214133126395,783.8214362008231,3981,97.8214133126395,783.8214362008231,4093,97.8214133126395,783.8214362008231,4204,97.8214133126395,783.8214362008231,4317,97.8214133126395,783.8214362008231,4429,97.8214133126395,783.8214362008231,4540,97.8214133126395,783.8214362008231,4643,97.8214133126395,783.8214362008231,4745,97.8214133126395,783.8214362008231,4856,97.8214133126395,783.8214362008231,4966]","[1413,1413,1000,0,413,""smooth"",""down"",""down"",""good_move"",3857,2444,2051,1413,393,""smooth"",""down"",""down"",""good_move"",6597,2740,2351,3857,389,""smooth"",""down"",""down"",""good_move"",9868,3271,2869.8,6597,401.2,""smooth"",""left"",""left"",""good_move"",12955,3087,2312.9,9868,774.1,""smooth"",""left"",""left"",""good_move"",16005,3050,2618.2,12955,431.8,""smooth"",""left"",""left"",""good_move""]","",""
"4685","","<div style=""width:500px;"">
  <p>What determined the result of this run?</p>
