"rt","response_timestamp","stimulus","response","trial_type","trial_index","time_elapsed","internal_node_id","run_id","condition","recorded_at","source_code_version","ip","user_agent","device","browser","browser_version","platform","platform_version","referer","accept_language","PROLIFIC_PID","STUDY_ID","SESSION_ID","WEEK","BATCH","prolific_id","week","batch","realtime","success","responses","item_order","radio_event_ids","radio_event_times","key_event_times","mouse_event_times","straightlining","zigzagging","honeypot","eventType","view_history","slider_start","which_type","canvas_config","goals_layout","control_level","trial_number","tutorial_trial_number","trial_start_time","phase1_start_time","phase2_start_time","phase3_start_time","goal_1_value","goal_1_distance","goal_2_value","goal_2_distance","goal_selected","outcome","outcome_total","participant_final_score","participant_initial_score","participant_final_score_prop","goal_choice_rt","allocated_time","allocated_time_remaining","goal_direction","counts","mouse_movements","key_presses","question_order","question_id"
"5464","1753257899179","<p style='font-size:40px;line-height:1.25'><strong>Welcome to the experiment!</strong></p><p style='font-size:1.1em;line-height:1.25'>Thank you for participanting in our experiment again! You will be asked to play the Dysfunctional Ball Game again. We will briefly recap the rules before we start.</p><p style='font-size:1.1em;line-height:1.25'>Press <strong>Next</strong> to continue.</p>","0","custom-html-button-response","0","5485","0.0-0.0","189","1","2025-07-23 08:04:51","1f75c3e559b7213887762d5229550c2b","37.47.213.160","Mozilla/5.0 (Windows NT 10.0; Win64; x64; rv:140.0) Gecko/20100101 Firefox/140.0","","Firefox","140.0","Windows","10.0","https://app.prolific.com/","pl","66a6211743bf2623c0a8eb81","683db9eb0562dbf637994deb","68809799e5fa5f85a26d544b","2","1","66a6211743bf2623c0a8eb81","2","1","2025-07-23T08:04:59.181Z","","","","","","","","","","","","","","","","","","","","","","","","","","","","","","","","","","","","","","","","","",""
"19708","","","","fullscreen","1","26213","0.0-1.0","189","1","2025-07-23 08:04:51","1f75c3e559b7213887762d5229550c2b","37.47.213.160","Mozilla/5.0 (Windows NT 10.0; Win64; x64; rv:140.0) Gecko/20100101 Firefox/140.0","","Firefox","140.0","Windows","10.0","https://app.prolific.com/","pl","66a6211743bf2623c0a8eb81","683db9eb0562dbf637994deb","68809799e5fa5f85a26d544b","2","1","66a6211743bf2623c0a8eb81","2","1","","true","","","","","","","","","","","","","","","","","","","","","","","","","","","","","","","","","","","","","","","","",""
"1680","1753257921599","<p style='font-size:1.1em;line-height:1.25'>In the following, we will ask you a few questions relating to your feelings in the last 24 hours.<br></p><p style='font-size:1.1em;line-height:1.25'>Press the <strong>Next</strong> button to continue.</p>","0","custom-html-button-response","2","27904","0.0-2.0-0.0","189","1","2025-07-23 08:04:51","1f75c3e559b7213887762d5229550c2b","37.47.213.160","Mozilla/5.0 (Windows NT 10.0; Win64; x64; rv:140.0) Gecko/20100101 Firefox/140.0","","Firefox","140.0","Windows","10.0","https://app.prolific.com/","pl","66a6211743bf2623c0a8eb81","683db9eb0562dbf637994deb","68809799e5fa5f85a26d544b","2","1","66a6211743bf2623c0a8eb81","2","1","2025-07-23T08:05:21.600Z","","","","","","","","","","","","","","","","","","","","","","","","","","","","","","","","","","","","","","","","","",""
"54347","","","","survey-template","3","82280","0.0-2.0-1.0","189","1","2025-07-23 08:04:51","1f75c3e559b7213887762d5229550c2b","37.47.213.160","Mozilla/5.0 (Windows NT 10.0; Win64; x64; rv:140.0) Gecko/20100101 Firefox/140.0","","Firefox","140.0","Windows","10.0","https://app.prolific.com/","pl","66a6211743bf2623c0a8eb81","683db9eb0562dbf637994deb","68809799e5fa5f85a26d544b","2","1","66a6211743bf2623c0a8eb81","2","1","2025-07-23T08:06:15.976Z","","{""Q01"":""0"",""Q02"":""0"",""Q03"":""0"",""Q04"":""0"",""Q05"":""0"",""Q06"":""0"",""Q07"":""0"",""Q08"":""0"",""Q09"":""1"",""Q10"":""1"",""Q11"":""0"",""Q12"":""0"",""Q13"":""5"",""Q14"":""0"",""Q15"":""1"",""Q16"":""0"",""Q17"":""0"",""Q18"":""0"",""Q19"":""0"",""Q20"":""0"",""Q21"":""0"",""Q22"":""0""}","[0,1,2,3,4,5,6,7,8,9,10,11,12,13,14,15,16,17,18,19,20,21]","[""Q01"",""Q02"",""Q03"",""Q04"",""Q05"",""Q06"",""Q07"",""Q08"",""Q09"",""Q10"",""Q11"",""Q12"",""Q13"",""Q13"",""Q14"",""Q15"",""Q16"",""Q17"",""Q18"",""Q20"",""Q19"",""Q21"",""Q22""]","[4848,5938,9560,10742,11955,14400,16757,19030,20732,26864,28388,31013,32040,33946,37440,39442,41205,42815,43952,47774,49351,51657,53171]","[]","[0,4848,5938,7739,9560,10742,11955,14400,16757,19030,20732,26864,28388,30397,31013,32040,33946,37440,39442,41205,42815,43952,45817,47774,48510,49351,51657,53171,54342]","0.8181818181818182","0.2857142857142857","0","drsp","","","","","","","","","","","","","","","","","","","","","","","","","","","","","","",""
"54665","","","","survey-template","4","136959","0.0-2.0-2.0","189","1","2025-07-23 08:04:51","1f75c3e559b7213887762d5229550c2b","37.47.213.160","Mozilla/5.0 (Windows NT 10.0; Win64; x64; rv:140.0) Gecko/20100101 Firefox/140.0","","Firefox","140.0","Windows","10.0","https://app.prolific.com/","pl","66a6211743bf2623c0a8eb81","683db9eb0562dbf637994deb","68809799e5fa5f85a26d544b","2","1","66a6211743bf2623c0a8eb81","2","1","2025-07-23T08:07:10.656Z","","{""Q01"":""0"",""Q02"":""1"",""Q03"":""0""}","[0,1,2]","[""Q01"",""Q02"",""Q02"",""Q03""]","[3262,5032,41014,49542]","[]","[3262,5032,41014,49542,54664]","0.6666666666666666","0","0","stress","","","","","","","","","","","","","","","","","","","","","","","","","","","","","","",""
"17060","","","","instructions","5","154028","0.0-3.0-0.0","189","1","2025-07-23 08:04:51","1f75c3e559b7213887762d5229550c2b","37.47.213.160","Mozilla/5.0 (Windows NT 10.0; Win64; x64; rv:140.0) Gecko/20100101 Firefox/140.0","","Firefox","140.0","Windows","10.0","https://app.prolific.com/","pl","66a6211743bf2623c0a8eb81","683db9eb0562dbf637994deb","68809799e5fa5f85a26d544b","2","1","66a6211743bf2623c0a8eb81","2","1","","","","","","","","","","","","","[{""page_index"":0,""viewing_time"":17059}]","","","","","","","","","","","","","","","","","","","","","","","","","","","","","",""
"4145","","<p>Before you start with this game please answer the following three questions yourself. </p>
  <p>Through this game, we measure several aspects of your cognitive performance, such as reaction times, multi-tasking capabilities </p>
  <p>and the ability to assess the situation you are in.</p>
  <p></p>
  <p><b>How good do you usually are in such tasks?</b></p>","64","html-slider-response","6","158186","0.0-4.0-0.0","189","1","2025-07-23 08:04:51","1f75c3e559b7213887762d5229550c2b","37.47.213.160","Mozilla/5.0 (Windows NT 10.0; Win64; x64; rv:140.0) Gecko/20100101 Firefox/140.0","","Firefox","140.0","Windows","10.0","https://app.prolific.com/","pl","66a6211743bf2623c0a8eb81","683db9eb0562dbf637994deb","68809799e5fa5f85a26d544b","2","1","66a6211743bf2623c0a8eb81","2","1","2025-07-23T08:07:31.882Z","","","","","","","","","","","PreSkillQ","","50","","","","","","","","","","","","","","","","","","","","","","","","","","","","",""
"3754","","<div style=""width:500px;"">
  <p>How well do you think you will perform in this task compared to other participants?</p>
  </div>","52","html-slider-response","7","161943","0.0-4.0-1.0","189","1","2025-07-23 08:04:51","1f75c3e559b7213887762d5229550c2b","37.47.213.160","Mozilla/5.0 (Windows NT 10.0; Win64; x64; rv:140.0) Gecko/20100101 Firefox/140.0","","Firefox","140.0","Windows","10.0","https://app.prolific.com/","pl","66a6211743bf2623c0a8eb81","683db9eb0562dbf637994deb","68809799e5fa5f85a26d544b","2","1","66a6211743bf2623c0a8eb81","2","1","2025-07-23T08:07:35.639Z","","","","","","","","","","","PrePerfQ","","50","","","","","","","","","","","","","","","","","","","","","","","","","","","","",""
"4355","","<div style=""width:500px;"">
  <p>What best describes how you currently feel?</p>
  </div>","83","html-slider-response","8","166304","0.0-4.0-2.0","189","1","2025-07-23 08:04:51","1f75c3e559b7213887762d5229550c2b","37.47.213.160","Mozilla/5.0 (Windows NT 10.0; Win64; x64; rv:140.0) Gecko/20100101 Firefox/140.0","","Firefox","140.0","Windows","10.0","https://app.prolific.com/","pl","66a6211743bf2623c0a8eb81","683db9eb0562dbf637994deb","68809799e5fa5f85a26d544b","2","1","66a6211743bf2623c0a8eb81","2","1","2025-07-23T08:07:40.000Z","","","","","","","","","","","PreMotivationQ","","50","","","","","","","","","","","","","","","","","","","","","","","","","","","","",""
"","","","","ctl-task-cpt","9","197575","0.0-5.0-0.0","189","1","2025-07-23 08:04:51","1f75c3e559b7213887762d5229550c2b","37.47.213.160","Mozilla/5.0 (Windows NT 10.0; Win64; x64; rv:140.0) Gecko/20100101 Firefox/140.0","","Firefox","140.0","Windows","10.0","https://app.prolific.com/","pl","66a6211743bf2623c0a8eb81","683db9eb0562dbf637994deb","68809799e5fa5f85a26d544b","2","1","66a6211743bf2623c0a8eb81","2","1","2025-07-23T08:08:11.271Z","","","","","","","","","","","","","","win-only","1","g1:NE,g2:SW","1","1","0","168367","1465","6476","28254","1","4","4","6","2","4","4","4","0","0.030303030303030304","2724","3000","1965","[""down"",""left""]","{""num_key_presses"":6,""num_perfect"":6,""num_errors"":0,""num_randdir"":0,""num_randdir_good_moves"":0,""num_whilered"":0,""num_whileblue"":0,""num_blue"":1,""num_good_moves"":6}","[298.22857753208706,294.92857448032925,0,298.22857753208706,294.92857448032925,109,298.22857753208706,294.92857448032925,218,299.22857753208706,294.92857448032925,327,806.228577532087,374.92857448032925,437,808.228577532087,374.92857448032925,548,808.228577532087,374.92857448032925,658,808.228577532087,374.92857448032925,766,808.228577532087,374.92857448032925,877,808.228577532087,374.92857448032925,988,808.228577532087,374.92857448032925,1097,808.228577532087,374.92857448032925,1208,808.228577532087,374.92857448032925,1321,808.228577532087,374.92857448032925,1432,808.228577532087,374.92857448032925,1542,806.228577532087,377.92857448032925,1651,363.22857753208706,648.9285744803292,1762,361.22857753208706,648.9285744803292,1872,357.22857753208706,641.9285744803292,1981,105.22857753208706,507.92857448032925,2091,81.22857753208706,494.92857448032925,2201,-48.77142246791295,498.92857448032925,2313,-19.77142246791295,514.9285744803292,2423,3.2285775320870513,526.9285744803292,2533,47.22857753208705,538.9285744803292,2644,47.22857753208705,538.9285744803292,2755,47.22857753208705,538.9285744803292,2863,47.22857753208705,538.9285744803292,2974,224.22857753208706,594.9285744803292,3085,294.22857753208706,620.9285744803292,3198,294.22857753208706,620.9285744803292,3310,294.22857753208706,620.9285744803292,3421,294.22857753208706,620.9285744803292,3530,294.22857753208706,620.9285744803292,3641,294.22857753208706,620.9285744803292,3751,294.22857753208706,620.9285744803292,3861,294.22857753208706,620.9285744803292,3971,294.22857753208706,620.9285744803292,4081,294.22857753208706,620.9285744803292,4191,294.22857753208706,620.9285744803292,4304,294.22857753208706,620.9285744803292,4412,294.22857753208706,620.9285744803292,4522,294.22857753208706,620.9285744803292,4633,294.22857753208706,620.9285744803292,4744,294.22857753208706,620.9285744803292,4854,294.22857753208706,620.9285744803292,4964]","[1465,1465,1000,0,465,""smooth"",""down"",""down"",""good_move"",7839,6374,3205,4088,546,""smooth"",""down"",""down"",""good_move"",12054,4215,3194.4,7839,1020.6,""smooth"",""left"",""left"",""good_move"",15138,3084,2525.2,12054,558.8,""smooth"",""left"",""left"",""good_move"",18302,3164,2724.9,15138,439.1,""smooth"",""down"",""down"",""good_move"",21489,3187,2769.2,18302,417.8,""smooth"",""left"",""left"",""good_move""]","",""
"4683","","<div style=""width:500px;"">
  <p>What determined the result of this run?</p>
  </div>","96","html-slider-response","10","202259","0.0-5.0-1.0","189","1","2025-07-23 08:04:51","1f75c3e559b7213887762d5229550c2b","37.47.213.160","Mozilla/5.0 (Windows NT 10.0; Win64; x64; rv:140.0) Gecko/20100101 Firefox/140.0","","Firefox","140.0","Windows","10.0","https://app.prolific.com/","pl","66a6211743bf2623c0a8eb81","683db9eb0562dbf637994deb","68809799e5fa5f85a26d544b","2","1","66a6211743bf2623c0a8eb81","2","1","2025-07-23T08:08:15.956Z","","","","","","","","","","","AttribQ","","50","","","","","","","","","","","","","","","","","","","","","","","","","","","","",""
"3754","","<div style=""width:500px;"">
  <p>How much control did you have over the ball?</p>
  </div>","100","html-slider-response","11","206018","0.0-5.0-2.0","189","1","2025-07-23 08:04:51","1f75c3e559b7213887762d5229550c2b","37.47.213.160","Mozilla/5.0 (Windows NT 10.0; Win64; x64; rv:140.0) Gecko/20100101 Firefox/140.0","","Firefox","140.0","Windows","10.0","https://app.prolific.com/","pl","66a6211743bf2623c0a8eb81","683db9eb0562dbf637994deb","68809799e5fa5f85a26d544b","2","1","66a6211743bf2623c0a8eb81","2","1","2025-07-23T08:08:19.715Z","","","","","","","","","","","ControlQ","","50","","","","","","","","","","","","","","","","","","","","","","","","","","","","",""
"3267","","<div style=""width:500px;"">
  <p>How would you describe your current emotional state?</p>
  </div>","7","html-slider-response","12","209289","0.0-5.0-3.0","189","1","2025-07-23 08:04:51","1f75c3e559b7213887762d5229550c2b","37.47.213.160","Mozilla/5.0 (Windows NT 10.0; Win64; x64; rv:140.0) Gecko/20100101 Firefox/140.0","","Firefox","140.0","Windows","10.0","https://app.prolific.com/","pl","66a6211743bf2623c0a8eb81","683db9eb0562dbf637994deb","68809799e5fa5f85a26d544b","2","1","66a6211743bf2623c0a8eb81","2","1","2025-07-23T08:08:22.985Z","","","","","","","","","","","StressQ","","50","","","","","","","","","","","","","","","","","","","","","","","","","","","","",""
"2544","","<div style=""width:500px;"">
  <p>What best describes how you currently feel?</p>
  </div>","95","html-slider-response","13","211836","0.0-5.0-4.0","189","1","2025-07-23 08:04:51","1f75c3e559b7213887762d5229550c2b","37.47.213.160","Mozilla/5.0 (Windows NT 10.0; Win64; x64; rv:140.0) Gecko/20100101 Firefox/140.0","","Firefox","140.0","Windows","10.0","https://app.prolific.com/","pl","66a6211743bf2623c0a8eb81","683db9eb0562dbf637994deb","68809799e5fa5f85a26d544b","2","1","66a6211743bf2623c0a8eb81","2","1","2025-07-23T08:08:25.532Z","","","","","","","","","","","MotivationQ","","50","","","","","","","","","","","","","","","","","","","","","","","","","","","","",""
"","","","","ctl-task-cpt","14","238096","0.0-5.0-0.1","189","1","2025-07-23 08:04:51","1f75c3e559b7213887762d5229550c2b","37.47.213.160","Mozilla/5.0 (Windows NT 10.0; Win64; x64; rv:140.0) Gecko/20100101 Firefox/140.0","","Firefox","140.0","Windows","10.0","https://app.prolific.com/","pl","66a6211743bf2623c0a8eb81","683db9eb0562dbf637994deb","68809799e5fa5f85a26d544b","2","1","66a6211743bf2623c0a8eb81","2","1","2025-07-23T08:08:51.793Z","","","","","","","","","","","","","","win-only","2","g1:SE,g2:NW","0.9","2","0","213887","1198","6215","23250","1","4","8","6","2","8","8","12","4","0.09090909090909091","1550","3000","2285","[""left"",""up""]","{""num_key_presses"":6,""num_perfect"":6,""num_errors"":0,""num_randdir"":0,""num_randdir_good_moves"":0,""num_whilered"":0,""num_whileblue"":0,""num_blue"":0,""num_good_moves"":6}","[297.22857753208706,295.92857448032925,0,297.22857753208706,295.92857448032925,105,297.22857753208706,295.92857448032925,215,297.22857753208706,295.92857448032925,325,297.22857753208706,295.92857448032925,433,297.22857753208706,295.92857448032925,545,297.22857753208706,295.92857448032925,653,297.22857753208706,295.92857448032925,763,129.22857753208706,106.92857448032925,873,100.22857753208706,87.92857448032925,982,100.22857753208706,87.92857448032925,1093,100.22857753208706,87.92857448032925,1200,78.22857753208706,70.92857448032925,1312,77.22857753208706,69.92857448032925,1417,77.22857753208706,69.92857448032925,1526,77.22857753208706,69.92857448032925,1636,77.22857753208706,69.92857448032925,1746,77.22857753208706,69.92857448032925,1856,77.22857753208706,69.92857448032925,1966,77.22857753208706,69.92857448032925,2077,-170.77142246791294,91.92857448032925,2186,-187.77142246791294,95.92857448032925,2295,-187.77142246791294,95.92857448032925,2406,-187.77142246791294,95.92857448032925,2514,-187.77142246791294,95.92857448032925,2625,-187.77142246791294,95.92857448032925,2732,-187.77142246791294,95.92857448032925,2840,-187.77142246791294,95.92857448032925,2948,-187.77142246791294,95.92857448032925,3058,-187.77142246791294,95.92857448032925,3166,-187.77142246791294,95.92857448032925,3276,-187.77142246791294,95.92857448032925,3383,-187.77142246791294,95.92857448032925,3492,-187.77142246791294,95.92857448032925,3601,-187.77142246791294,95.92857448032925,3710,-187.77142246791294,95.92857448032925,3818,-187.77142246791294,95.92857448032925,3928,-187.77142246791294,95.92857448032925,4035,-187.77142246791294,95.92857448032925,4144,-187.77142246791294,95.92857448032925,4251,-187.77142246791294,95.92857448032925,4360,-187.77142246791294,95.92857448032925,4469,-187.77142246791294,95.92857448032925,4578,-187.77142246791294,95.92857448032925,4689,-187.77142246791294,95.92857448032925,4798,-187.77142246791294,95.92857448032925,4907]","[1434,1434,1000,0,434,""smooth"",""up"",""up"",""good_move"",4478,3045,2056.7,1434,988.3,""smooth"",""up"",""up"",""good_move"",7717,3238,2888.4,4479,349.6,""smooth"",""left"",""left"",""good_move"",10674,2956,1637,7718,1319,""smooth"",""left"",""left"",""good_move"",13642,2968,2363,10674,605,""smooth"",""left"",""left"",""good_move"",16744,3101,2758.6,13643,342.4,""smooth"",""up"",""up"",""good_move""]","",""
"2600","","<div style=""width:500px;"">
  <p>What determined the result of this run?</p>
  </div>","96","html-slider-response","15","240699","0.0-5.0-1.1","189","1","2025-07-23 08:04:51","1f75c3e559b7213887762d5229550c2b","37.47.213.160","Mozilla/5.0 (Windows NT 10.0; Win64; x64; rv:140.0) Gecko/20100101 Firefox/140.0","","Firefox","140.0","Windows","10.0","https://app.prolific.com/","pl","66a6211743bf2623c0a8eb81","683db9eb0562dbf637994deb","68809799e5fa5f85a26d544b","2","1","66a6211743bf2623c0a8eb81","2","1","2025-07-23T08:08:54.395Z","","","","","","","","","","","AttribQ","","50","","","","","","","","","","","","","","","","","","","","","","","","","","","","",""
"2249","","<div style=""width:500px;"">
  <p>How much control did you have over the ball?</p>
  </div>","100","html-slider-response","16","242951","0.0-5.0-2.1","189","1","2025-07-23 08:04:51","1f75c3e559b7213887762d5229550c2b","37.47.213.160","Mozilla/5.0 (Windows NT 10.0; Win64; x64; rv:140.0) Gecko/20100101 Firefox/140.0","","Firefox","140.0","Windows","10.0","https://app.prolific.com/","pl","66a6211743bf2623c0a8eb81","683db9eb0562dbf637994deb","68809799e5fa5f85a26d544b","2","1","66a6211743bf2623c0a8eb81","2","1","2025-07-23T08:08:56.647Z","","","","","","","","","","","ControlQ","","50","","","","","","","","","","","","","","","","","","","","","","","","","","","","",""
"2440","","<div style=""width:500px;"">
  <p>How would you describe your current emotional state?</p>
  </div>","8","html-slider-response","17","245394","0.0-5.0-3.1","189","1","2025-07-23 08:04:51","1f75c3e559b7213887762d5229550c2b","37.47.213.160","Mozilla/5.0 (Windows NT 10.0; Win64; x64; rv:140.0) Gecko/20100101 Firefox/140.0","","Firefox","140.0","Windows","10.0","https://app.prolific.com/","pl","66a6211743bf2623c0a8eb81","683db9eb0562dbf637994deb","68809799e5fa5f85a26d544b","2","1","66a6211743bf2623c0a8eb81","2","1","2025-07-23T08:08:59.090Z","","","","","","","","","","","StressQ","","50","","","","","","","","","","","","","","","","","","","","","","","","","","","","",""
"2740","","<div style=""width:500px;"">
  <p>What best describes how you currently feel?</p>
  </div>","97","html-slider-response","18","248138","0.0-5.0-4.1","189","1","2025-07-23 08:04:51","1f75c3e559b7213887762d5229550c2b","37.47.213.160","Mozilla/5.0 (Windows NT 10.0; Win64; x64; rv:140.0) Gecko/20100101 Firefox/140.0","","Firefox","140.0","Windows","10.0","https://app.prolific.com/","pl","66a6211743bf2623c0a8eb81","683db9eb0562dbf637994deb","68809799e5fa5f85a26d544b","2","1","66a6211743bf2623c0a8eb81","2","1","2025-07-23T08:09:01.834Z","","","","","","","","","","","MotivationQ","","50","","","","","","","","","","","","","","","","","","","","","","","","","","","","",""
"","","","","ctl-task-cpt","19","289042","0.0-5.0-0.2","189","1","2025-07-23 08:04:51","1f75c3e559b7213887762d5229550c2b","37.47.213.160","Mozilla/5.0 (Windows NT 10.0; Win64; x64; rv:140.0) Gecko/20100101 Firefox/140.0","","Firefox","140.0","Windows","10.0","https://app.prolific.com/","pl","66a6211743bf2623c0a8eb81","683db9eb0562dbf637994deb","68809799e5fa5f85a26d544b","2","1","66a6211743bf2623c0a8eb81","2","1","2025-07-23T08:09:42.738Z","","","","","","","","","","","","","","win-only","3","g1:SW,g2:NE","0.8","3","0","250188","1067","6071","37900","1","4","8","6","2","8","7","19","12","0.14393939393939395","1971","3000","1890","[""up"",""right""]","{""num_key_presses"":10,""num_perfect"":7,""num_errors"":1,""num_randdir"":2,""num_randdir_good_moves"":1,""num_whilered"":0,""num_whileblue"":1,""num_blue"":2,""num_good_moves"":8}","[296.22857753208706,297.92857448032925,0,296.22857753208706,297.92857448032925,111,296.22857753208706,297.92857448032925,215,296.22857753208706,297.92857448032925,328,296.22857753208706,297.92857448032925,428,296.22857753208706,297.92857448032925,528,296.22857753208706,297.92857448032925,636,265.22857753208706,327.92857448032925,744,240.22857753208706,359.92857448032925,851,227.22857753208706,375.92857448032925,954,226.22857753208706,375.92857448032925,1059,344.22857753208706,268.92857448032925,1159,476.22857753208706,161.92857448032925,1274,476.22857753208706,161.92857448032925,1386,476.22857753208706,161.92857448032925,1495,537.228577532087,91.92857448032925,1605,545.228577532087,79.92857448032925,1716,548.228577532087,73.92857448032925,1826,548.228577532087,73.92857448032925,1937,548.228577532087,73.92857448032925,2046,548.228577532087,73.92857448032925,2156,548.228577532087,73.92857448032925,2267,548.228577532087,73.92857448032925,2380,567.228577532087,71.92857448032925,2491,860.228577532087,37.92857448032924,2601,860.228577532087,37.92857448032924,2711,860.228577532087,37.92857448032924,2821,860.228577532087,37.92857448032924,2931,860.228577532087,37.92857448032924,3042,860.228577532087,37.92857448032924,3152,860.228577532087,37.92857448032924,3261,860.228577532087,37.92857448032924,3373,860.228577532087,37.92857448032924,3485,860.228577532087,37.92857448032924,3594,860.228577532087,37.92857448032924,3704,860.228577532087,37.92857448032924,3813,860.228577532087,37.92857448032924,3919,860.228577532087,37.92857448032924,4028,860.228577532087,37.92857448032924,4137,860.228577532087,37.92857448032924,4247,860.228577532087,37.92857448032924,4359,860.228577532087,37.92857448032924,4471,860.228577532087,37.92857448032924,4581,860.228577532087,37.92857448032924,4690,860.228577532087,37.92857448032924,4801,860.228577532087,37.92857448032924,4910]","[1403,1403,1000,0,403,""oops"",""up"",""left"",""bad_move"",4451,3048,2147.3,1403,900.7,""oops"",""up"",""right"",""good_move"",6994,2543,2094.4,4451,448.6,""smooth"",""up"",""up"",""good_move"",10000,3006,2348.7,6994,657.3,""smooth"",""up"",""up"",""good_move"",13009,3009,2444.3,10000,564.7,""smooth"",""up"",""up"",""good_move"",15995,2985,2651,13010,334,""while_blue"",""right"",""left"",""bad_move"",22455,6459,2278.8,19766,410.2,""smooth"",""right"",""right"",""good_move"",25480,3024,2628.7,22456,395.3,""smooth"",""right"",""right"",""good_move"",28819,3339,2882.6,25480,456.4,""smooth"",""right"",""right"",""good_move"",31534,2716,2313.5,28819,402.5,""smooth"",""right"",""right"",""good_move""]","",""
"2972","","<div style=""width:500px;"">
  <p>What determined the result of this run?</p>
  </div>","86","html-slider-response","20","292016","0.0-5.0-1.2","189","1","2025-07-23 08:04:51","1f75c3e559b7213887762d5229550c2b","37.47.213.160","Mozilla/5.0 (Windows NT 10.0; Win64; x64; rv:140.0) Gecko/20100101 Firefox/140.0","","Firefox","140.0","Windows","10.0","https://app.prolific.com/","pl","66a6211743bf2623c0a8eb81","683db9eb0562dbf637994deb","68809799e5fa5f85a26d544b","2","1","66a6211743bf2623c0a8eb81","2","1","2025-07-23T08:09:45.712Z","","","","","","","","","","","AttribQ","","50","","","","","","","","","","","","","","","","","","","","","","","","","","","","",""
"2149","","<div style=""width:500px;"">
  <p>How much control did you have over the ball?</p>
  </div>","82","html-slider-response","21","294167","0.0-5.0-2.2","189","1","2025-07-23 08:04:51","1f75c3e559b7213887762d5229550c2b","37.47.213.160","Mozilla/5.0 (Windows NT 10.0; Win64; x64; rv:140.0) Gecko/20100101 Firefox/140.0","","Firefox","140.0","Windows","10.0","https://app.prolific.com/","pl","66a6211743bf2623c0a8eb81","683db9eb0562dbf637994deb","68809799e5fa5f85a26d544b","2","1","66a6211743bf2623c0a8eb81","2","1","2025-07-23T08:09:47.863Z","","","","","","","","","","","ControlQ","","50","","","","","","","","","","","","","","","","","","","","","","","","","","","","",""
"2611","","<div style=""width:500px;"">
  <p>How would you describe your current emotional state?</p>
  </div>","23","html-slider-response","22","296781","0.0-5.0-3.2","189","1","2025-07-23 08:04:51","1f75c3e559b7213887762d5229550c2b","37.47.213.160","Mozilla/5.0 (Windows NT 10.0; Win64; x64; rv:140.0) Gecko/20100101 Firefox/140.0","","Firefox","140.0","Windows","10.0","https://app.prolific.com/","pl","66a6211743bf2623c0a8eb81","683db9eb0562dbf637994deb","68809799e5fa5f85a26d544b","2","1","66a6211743bf2623c0a8eb81","2","1","2025-07-23T08:09:50.477Z","","","","","","","","","","","StressQ","","50","","","","","","","","","","","","","","","","","","","","","","","","","","","","",""
"2215","","<div style=""width:500px;"">
  <p>What best describes how you currently feel?</p>
  </div>","96","html-slider-response","23","298999","0.0-5.0-4.2","189","1","2025-07-23 08:04:51","1f75c3e559b7213887762d5229550c2b","37.47.213.160","Mozilla/5.0 (Windows NT 10.0; Win64; x64; rv:140.0) Gecko/20100101 Firefox/140.0","","Firefox","140.0","Windows","10.0","https://app.prolific.com/","pl","66a6211743bf2623c0a8eb81","683db9eb0562dbf637994deb","68809799e5fa5f85a26d544b","2","1","66a6211743bf2623c0a8eb81","2","1","2025-07-23T08:09:52.695Z","","","","","","","","","","","MotivationQ","","50","","","","","","","","","","","","","","","","","","","","","","","","","","","","",""
"","","","","ctl-task-cpt","24","318884","0.0-5.0-0.3","189","1","2025-07-23 08:04:51","1f75c3e559b7213887762d5229550c2b","37.47.213.160","Mozilla/5.0 (Windows NT 10.0; Win64; x64; rv:140.0) Gecko/20100101 Firefox/140.0","","Firefox","140.0","Windows","10.0","https://app.prolific.com/","pl","66a6211743bf2623c0a8eb81","683db9eb0562dbf637994deb","68809799e5fa5f85a26d544b","2","1","66a6211743bf2623c0a8eb81","2","1","2025-07-23T08:10:12.580Z","","","","","","","","","","","","","","win-only","2","g1:SE,g2:NW","0.7","4","0","301049","950","5958","16869","1","4","4","6","1","1","1","20","19","0.15151515151515152","1312","3000","2285","[""down"",""right""]","{""num_key_presses"":4,""num_perfect"":3,""num_errors"":0,""num_randdir"":1,""num_randdir_good_moves"":1,""num_whilered"":0,""num_whileblue"":0,""num_blue"":0,""num_good_moves"":4}","[301.22857753208706,291.92857448032925,0,301.22857753208706,291.92857448032925,102,301.22857753208706,291.92857448032925,211,301.22857753208706,291.92857448032925,313,301.22857753208706,291.92857448032925,418,301.22857753208706,291.92857448032925,527,301.22857753208706,291.92857448032925,638,490.22857753208706,481.92857448032925,749,514.228577532087,511.92857448032925,851,514.228577532087,511.92857448032925,968,514.228577532087,511.92857448032925,1072,529.228577532087,522.9285744803292,1178,529.228577532087,522.9285744803292,1278,529.228577532087,522.9285744803292,1378,529.228577532087,522.9285744803292,1483,529.228577532087,522.9285744803292,1583,529.228577532087,522.9285744803292,1694,588.228577532087,496.92857448032925,1794,884.228577532087,381.92857448032925,1900,890.228577532087,380.92857448032925,2000,890.228577532087,380.92857448032925,2104,890.228577532087,380.92857448032925,2209,890.228577532087,380.92857448032925,2315,890.228577532087,380.92857448032925,2416,890.228577532087,380.92857448032925,2528,890.228577532087,380.92857448032925,2637,890.228577532087,380.92857448032925,2749,890.228577532087,380.92857448032925,2859,890.228577532087,380.92857448032925,2965,890.228577532087,380.92857448032925,3078,890.228577532087,380.92857448032925,3191,890.228577532087,380.92857448032925,3292,890.228577532087,380.92857448032925,3398,890.228577532087,380.92857448032925,3499,890.228577532087,380.92857448032925,3610,890.228577532087,380.92857448032925,3715,890.228577532087,380.92857448032925,3820,890.228577532087,380.92857448032925,3930,890.228577532087,380.92857448032925,4030,890.228577532087,380.92857448032925,4144,890.228577532087,380.92857448032925,4252,890.228577532087,380.92857448032925,4354,890.228577532087,380.92857448032925,4464,890.228577532087,380.92857448032925,4580,890.228577532087,380.92857448032925,4696,890.228577532087,380.92857448032925,4797,890.228577532087,380.92857448032925,4902]","[1470,1470,1000,0,470,""smooth"",""down"",""down"",""good_move"",4139,2669,1982.3,1470,686.7,""smooth"",""right"",""right"",""good_move"",7843,3704,3121,4139,583,""smooth"",""down"",""down"",""good_move"",10633,2789,2334.2,7844,454.8,""oops"",""right"",""right"",""good_move""]","",""
"3171","","<div style=""width:500px;"">
  <p>What determined the result of this run?</p>
  </div>","94","html-slider-response","25","322058","0.0-5.0-1.3","189","1","2025-07-23 08:04:51","1f75c3e559b7213887762d5229550c2b","37.47.213.160","Mozilla/5.0 (Windows NT 10.0; Win64; x64; rv:140.0) Gecko/20100101 Firefox/140.0","","Firefox","140.0","Windows","10.0","https://app.prolific.com/","pl","66a6211743bf2623c0a8eb81","683db9eb0562dbf637994deb","68809799e5fa5f85a26d544b","2","1","66a6211743bf2623c0a8eb81","2","1","2025-07-23T08:10:15.754Z","","","","","","","","","","","AttribQ","","50","","","","","","","","","","","","","","","","","","","","","","","","","","","","",""
"2257","","<div style=""width:500px;"">
  <p>How much control did you have over the ball?</p>
  </div>","95","html-slider-response","26","324317","0.0-5.0-2.3","189","1","2025-07-23 08:04:51","1f75c3e559b7213887762d5229550c2b","37.47.213.160","Mozilla/5.0 (Windows NT 10.0; Win64; x64; rv:140.0) Gecko/20100101 Firefox/140.0","","Firefox","140.0","Windows","10.0","https://app.prolific.com/","pl","66a6211743bf2623c0a8eb81","683db9eb0562dbf637994deb","68809799e5fa5f85a26d544b","2","1","66a6211743bf2623c0a8eb81","2","1","2025-07-23T08:10:18.013Z","","","","","","","","","","","ControlQ","","50","","","","","","","","","","","","","","","","","","","","","","","","","","","","",""
"2714","","<div style=""width:500px;"">
  <p>How would you describe your current emotional state?</p>
  </div>","8","html-slider-response","27","327034","0.0-5.0-3.3","189","1","2025-07-23 08:04:51","1f75c3e559b7213887762d5229550c2b","37.47.213.160","Mozilla/5.0 (Windows NT 10.0; Win64; x64; rv:140.0) Gecko/20100101 Firefox/140.0","","Firefox","140.0","Windows","10.0","https://app.prolific.com/","pl","66a6211743bf2623c0a8eb81","683db9eb0562dbf637994deb","68809799e5fa5f85a26d544b","2","1","66a6211743bf2623c0a8eb81","2","1","2025-07-23T08:10:20.730Z","","","","","","","","","","","StressQ","","50","","","","","","","","","","","","","","","","","","","","","","","","","","","","",""
"2416","","<div style=""width:500px;"">
  <p>What best describes how you currently feel?</p>
  </div>","91","html-slider-response","28","329452","0.0-5.0-4.3","189","1","2025-07-23 08:04:51","1f75c3e559b7213887762d5229550c2b","37.47.213.160","Mozilla/5.0 (Windows NT 10.0; Win64; x64; rv:140.0) Gecko/20100101 Firefox/140.0","","Firefox","140.0","Windows","10.0","https://app.prolific.com/","pl","66a6211743bf2623c0a8eb81","683db9eb0562dbf637994deb","68809799e5fa5f85a26d544b","2","1","66a6211743bf2623c0a8eb81","2","1","2025-07-23T08:10:23.148Z","","","","","","","","","","","MotivationQ","","50","","","","","","","","","","","","","","","","","","","","","","","","","","","","",""
"","","","","ctl-task-cpt","29","387580","0.0-5.0-0.4","189","1","2025-07-23 08:04:51","1f75c3e559b7213887762d5229550c2b","37.47.213.160","Mozilla/5.0 (Windows NT 10.0; Win64; x64; rv:140.0) Gecko/20100101 Firefox/140.0","","Firefox","140.0","Windows","10.0","https://app.prolific.com/","pl","66a6211743bf2623c0a8eb81","683db9eb0562dbf637994deb","68809799e5fa5f85a26d544b","2","1","66a6211743bf2623c0a8eb81","2","1","2025-07-23T08:11:21.276Z","","","","","","","","","","","","","","win-only","3","g1:SW,g2:NE","0.6","5","0","331503","1282","6291","55114","1","4","8","6","2","8","8","28","20","0.21212121212121213","1353","3000","1355","[""up"",""right""]","{""num_key_presses"":14,""num_perfect"":9,""num_errors"":0,""num_randdir"":5,""num_randdir_good_moves"":1,""num_whilered"":0,""num_whileblue"":0,""num_blue"":2,""num_good_moves"":10}","[294.22857753208706,299.92857448032925,0,294.22857753208706,299.92857448032925,106,294.22857753208706,299.92857448032925,215,294.22857753208706,299.92857448032925,324,294.22857753208706,299.92857448032925,433,294.22857753208706,299.92857448032925,542,294.22857753208706,299.92857448032925,650,428.22857753208706,175.92857448032925,763,475.22857753208706,138.92857448032925,869,489.22857753208706,128.92857448032925,979,515.228577532087,104.92857448032925,1088,533.228577532087,84.92857448032925,1196,533.228577532087,84.92857448032925,1305,533.228577532087,84.92857448032925,1415,533.228577532087,84.92857448032925,1527,533.228577532087,84.92857448032925,1636,533.228577532087,84.92857448032925,1745,776.228577532087,72.92857448032925,1853,827.228577532087,81.92857448032925,1962,827.228577532087,81.92857448032925,2070,827.228577532087,81.92857448032925,2180,827.228577532087,81.92857448032925,2288,827.228577532087,81.92857448032925,2399,827.228577532087,81.92857448032925,2510,827.228577532087,81.92857448032925,2617,827.228577532087,81.92857448032925,2725,827.228577532087,81.92857448032925,2834,827.228577532087,81.92857448032925,2943,827.228577532087,81.92857448032925,3052,827.228577532087,81.92857448032925,3159,827.228577532087,81.92857448032925,3270,827.228577532087,81.92857448032925,3380,827.228577532087,81.92857448032925,3489,827.228577532087,81.92857448032925,3598,827.228577532087,81.92857448032925,3710,827.228577532087,81.92857448032925,3818,827.228577532087,81.92857448032925,3929,827.228577532087,81.92857448032925,4038,827.228577532087,81.92857448032925,4148,827.228577532087,81.92857448032925,4259,827.228577532087,81.92857448032925,4367,827.228577532087,81.92857448032925,4475,827.228577532087,81.92857448032925,4586,827.228577532087,81.92857448032925,4696,827.228577532087,81.92857448032925,4809,827.228577532087,81.92857448032925,4915]","[1436,1436,1000,0,436,""smooth"",""up"",""up"",""good_move"",4528,3092,2498.4,1436,593.6,""oops"",""right"",""down"",""bad_move"",7632,3103,2730.7,4529,372.3,""oops"",""right"",""left"",""bad_move"",10683,3051,2301.9,7632,749.1,""smooth"",""up"",""up"",""good_move"",14491,3808,3363,10683,445,""smooth"",""up"",""up"",""good_move"",20586,6095,2043.9,18166,376.1,""smooth"",""up"",""up"",""good_move"",23629,3043,1943.6,20586,1099.4,""oops"",""right"",""down"",""bad_move"",26831,3202,2842.1,23629,359.9,""smooth"",""right"",""right"",""good_move"",30142,3311,2939.8,26831,371.2,""smooth"",""right"",""right"",""good_move"",33005,2863,2514.9,30142,348.1,""oops"",""right"",""left"",""bad_move"",39450,6445,2142.6,36961,346.4,""oops"",""right"",""up"",""good_move"",42345,2895,2544,39450,351,""smooth"",""right"",""right"",""good_move"",45407,3062,2697.9,42345,364.1,""smooth"",""right"",""right"",""good_move"",48539,3131,2784.7,45408,346.3,""smooth"",""right"",""right"",""good_move""]","",""
"2536","","<div style=""width:500px;"">
  <p>What determined the result of this run?</p>
  </div>","88","html-slider-response","30","390118","0.0-5.0-1.4","189","1","2025-07-23 08:04:51","1f75c3e559b7213887762d5229550c2b","37.47.213.160","Mozilla/5.0 (Windows NT 10.0; Win64; x64; rv:140.0) Gecko/20100101 Firefox/140.0","","Firefox","140.0","Windows","10.0","https://app.prolific.com/","pl","66a6211743bf2623c0a8eb81","683db9eb0562dbf637994deb","68809799e5fa5f85a26d544b","2","1","66a6211743bf2623c0a8eb81","2","1","2025-07-23T08:11:23.814Z","","","","","","","","","","","AttribQ","","50","","","","","","","","","","","","","","","","","","","","","","","","","","","","",""
"2905","","<div style=""width:500px;"">
  <p>How much control did you have over the ball?</p>
  </div>","67","html-slider-response","31","393025","0.0-5.0-2.4","189","1","2025-07-23 08:04:51","1f75c3e559b7213887762d5229550c2b","37.47.213.160","Mozilla/5.0 (Windows NT 10.0; Win64; x64; rv:140.0) Gecko/20100101 Firefox/140.0","","Firefox","140.0","Windows","10.0","https://app.prolific.com/","pl","66a6211743bf2623c0a8eb81","683db9eb0562dbf637994deb","68809799e5fa5f85a26d544b","2","1","66a6211743bf2623c0a8eb81","2","1","2025-07-23T08:11:26.721Z","","","","","","","","","","","ControlQ","","50","","","","","","","","","","","","","","","","","","","","","","","","","","","","",""
"2199","","<div style=""width:500px;"">
  <p>How would you describe your current emotional state?</p>
  </div>","16","html-slider-response","32","395227","0.0-5.0-3.4","189","1","2025-07-23 08:04:51","1f75c3e559b7213887762d5229550c2b","37.47.213.160","Mozilla/5.0 (Windows NT 10.0; Win64; x64; rv:140.0) Gecko/20100101 Firefox/140.0","","Firefox","140.0","Windows","10.0","https://app.prolific.com/","pl","66a6211743bf2623c0a8eb81","683db9eb0562dbf637994deb","68809799e5fa5f85a26d544b","2","1","66a6211743bf2623c0a8eb81","2","1","2025-07-23T08:11:28.923Z","","","","","","","","","","","StressQ","","50","","","","","","","","","","","","","","","","","","","","","","","","","","","","",""
"3469","","<div style=""width:500px;"">
  <p>What best describes how you currently feel?</p>
  </div>","96","html-slider-response","33","398700","0.0-5.0-4.4","189","1","2025-07-23 08:04:51","1f75c3e559b7213887762d5229550c2b","37.47.213.160","Mozilla/5.0 (Windows NT 10.0; Win64; x64; rv:140.0) Gecko/20100101 Firefox/140.0","","Firefox","140.0","Windows","10.0","https://app.prolific.com/","pl","66a6211743bf2623c0a8eb81","683db9eb0562dbf637994deb","68809799e5fa5f85a26d544b","2","1","66a6211743bf2623c0a8eb81","2","1","2025-07-23T08:11:32.396Z","","","","","","","","","","","MotivationQ","","50","","","","","","","","","","","","","","","","","","","","","","","","","","","","",""
"","","","","ctl-task-cpt","34","448180","0.0-5.0-0.5","189","1","2025-07-23 08:04:51","1f75c3e559b7213887762d5229550c2b","37.47.213.160","Mozilla/5.0 (Windows NT 10.0; Win64; x64; rv:140.0) Gecko/20100101 Firefox/140.0","","Firefox","140.0","Windows","10.0","https://app.prolific.com/","pl","66a6211743bf2623c0a8eb81","683db9eb0562dbf637994deb","68809799e5fa5f85a26d544b","2","1","66a6211743bf2623c0a8eb81","2","1","2025-07-23T08:12:21.876Z","","","","","","","","","","","","","","win-only","1","g1:NE,g2:SW","0.5","6","0","400750","1036","6043","46473","1","4","4","6","1","1","1","29","28","0.2196969696969697","1387","3000","1010","[""up"",""right""]","{""num_key_presses"":12,""num_perfect"":6,""num_errors"":0,""num_randdir"":6,""num_randdir_good_moves"":2,""num_whilered"":0,""num_whileblue"":0,""num_blue"":1,""num_good_moves"":8}","[294.22857753208706,302.92857448032925,1,294.22857753208706,302.92857448032925,103,294.22857753208706,302.92857448032925,212,294.22857753208706,302.92857448032925,322,294.22857753208706,302.92857448032925,431,294.22857753208706,302.92857448032925,545,294.22857753208706,302.92857448032925,651,294.22857753208706,302.92857448032925,761,393.22857753208706,206.92857448032925,871,558.228577532087,66.92857448032925,982,558.228577532087,65.92857448032925,1093,557.228577532087,62.92857448032924,1202,557.228577532087,62.92857448032924,1314,557.228577532087,62.92857448032924,1426,557.228577532087,62.92857448032924,1535,557.228577532087,62.92857448032924,1647,557.228577532087,62.92857448032924,1759,557.228577532087,62.92857448032924,1871,756.228577532087,87.92857448032925,1981,767.228577532087,87.92857448032925,2091,767.228577532087,87.92857448032925,2200,767.228577532087,87.92857448032925,2312,767.228577532087,87.92857448032925,2423,767.228577532087,87.92857448032925,2533,767.228577532087,87.92857448032925,2643,767.228577532087,87.92857448032925,2753,767.228577532087,87.92857448032925,2863,767.228577532087,87.92857448032925,2975,767.228577532087,87.92857448032925,3082,767.228577532087,87.92857448032925,3192,767.228577532087,87.92857448032925,3305,767.228577532087,87.92857448032925,3417,767.228577532087,87.92857448032925,3525,767.228577532087,87.92857448032925,3636,767.228577532087,87.92857448032925,3746,767.228577532087,87.92857448032925,3857,767.228577532087,87.92857448032925,3967,767.228577532087,87.92857448032925,4075,767.228577532087,87.92857448032925,4185,767.228577532087,87.92857448032925,4297,767.228577532087,87.92857448032925,4408,767.228577532087,87.92857448032925,4519,767.228577532087,87.92857448032925,4629,767.228577532087,87.92857448032925,4740,767.228577532087,87.92857448032925,4849,767.228577532087,87.92857448032925,4959]","[1525,1525,1000,0,525,""smooth"",""up"",""up"",""good_move"",8423,6898,2770.1,5189,463.9,""oops"",""up"",""left"",""bad_move"",11657,3234,2418.1,8423,815.9,""smooth"",""up"",""up"",""good_move"",14776,3118,2100.4,11658,1017.6,""smooth"",""right"",""right"",""good_move"",17720,2944,2384.9,14776,559.1,""smooth"",""right"",""right"",""good_move"",21042,3322,2654.4,17720,667.6,""oops"",""right"",""left"",""bad_move"",24045,3003,2093.3,21042,909.7,""smooth"",""right"",""right"",""good_move"",27456,3411,2851.4,24045,559.6,""oops"",""right"",""left"",""bad_move"",30621,3165,1719.6,27456,1445.4,""oops"",""right"",""down"",""bad_move"",33741,3120,2644,30621,476,""oops"",""right"",""right"",""good_move"",36359,2618,2097.3,33741,520.7,""smooth"",""up"",""up"",""good_move"",40140,3780,3186.2,36360,593.8,""oops"",""right"",""right"",""good_move""]","",""
"2311","","<div style=""width:500px;"">
  <p>What determined the result of this run?</p>
  </div>","78","html-slider-response","35","450493","0.0-5.0-1.5","189","1","2025-07-23 08:04:51","1f75c3e559b7213887762d5229550c2b","37.47.213.160","Mozilla/5.0 (Windows NT 10.0; Win64; x64; rv:140.0) Gecko/20100101 Firefox/140.0","","Firefox","140.0","Windows","10.0","https://app.prolific.com/","pl","66a6211743bf2623c0a8eb81","683db9eb0562dbf637994deb","68809799e5fa5f85a26d544b","2","1","66a6211743bf2623c0a8eb81","2","1","2025-07-23T08:12:24.189Z","","","","","","","","","","","AttribQ","","50","","","","","","","","","","","","","","","","","","","","","","","","","","","","",""
"2731","","<div style=""width:500px;"">
  <p>How much control did you have over the ball?</p>
  </div>","63","html-slider-response","36","453226","0.0-5.0-2.5","189","1","2025-07-23 08:04:51","1f75c3e559b7213887762d5229550c2b","37.47.213.160","Mozilla/5.0 (Windows NT 10.0; Win64; x64; rv:140.0) Gecko/20100101 Firefox/140.0","","Firefox","140.0","Windows","10.0","https://app.prolific.com/","pl","66a6211743bf2623c0a8eb81","683db9eb0562dbf637994deb","68809799e5fa5f85a26d544b","2","1","66a6211743bf2623c0a8eb81","2","1","2025-07-23T08:12:26.922Z","","","","","","","","","","","ControlQ","","50","","","","","","","","","","","","","","","","","","","","","","","","","","","","",""
"2807","","<div style=""width:500px;"">
  <p>How would you describe your current emotional state?</p>
  </div>","27","html-slider-response","37","456036","0.0-5.0-3.5","189","1","2025-07-23 08:04:51","1f75c3e559b7213887762d5229550c2b","37.47.213.160","Mozilla/5.0 (Windows NT 10.0; Win64; x64; rv:140.0) Gecko/20100101 Firefox/140.0","","Firefox","140.0","Windows","10.0","https://app.prolific.com/","pl","66a6211743bf2623c0a8eb81","683db9eb0562dbf637994deb","68809799e5fa5f85a26d544b","2","1","66a6211743bf2623c0a8eb81","2","1","2025-07-23T08:12:29.732Z","","","","","","","","","","","StressQ","","50","","","","","","","","","","","","","","","","","","","","","","","","","","","","",""
"2291","","<div style=""width:500px;"">
  <p>What best describes how you currently feel?</p>
  </div>","84","html-slider-response","38","458330","0.0-5.0-4.5","189","1","2025-07-23 08:04:51","1f75c3e559b7213887762d5229550c2b","37.47.213.160","Mozilla/5.0 (Windows NT 10.0; Win64; x64; rv:140.0) Gecko/20100101 Firefox/140.0","","Firefox","140.0","Windows","10.0","https://app.prolific.com/","pl","66a6211743bf2623c0a8eb81","683db9eb0562dbf637994deb","68809799e5fa5f85a26d544b","2","1","66a6211743bf2623c0a8eb81","2","1","2025-07-23T08:12:32.026Z","","","","","","","","","","","MotivationQ","","50","","","","","","","","","","","","","","","","","","","","","","","","","","","","",""
"","","","","ctl-task-cpt","39","487052","0.0-5.0-0.6","189","1","2025-07-23 08:04:51","1f75c3e559b7213887762d5229550c2b","37.47.213.160","Mozilla/5.0 (Windows NT 10.0; Win64; x64; rv:140.0) Gecko/20100101 Firefox/140.0","","Firefox","140.0","Windows","10.0","https://app.prolific.com/","pl","66a6211743bf2623c0a8eb81","683db9eb0562dbf637994deb","68809799e5fa5f85a26d544b","2","1","66a6211743bf2623c0a8eb81","2","1","2025-07-23T08:13:00.748Z","","","","","","","","","","","","","","win-only","0","g1:NW,g2:SE","0.4","7","0","460381","859","5864","25710","1","4","4","6","2","4","4","33","29","0.25","2547","3000","2195","[""down"",""right""]","{""num_key_presses"":6,""num_perfect"":4,""num_errors"":0,""num_randdir"":2,""num_randdir_good_moves"":2,""num_whilered"":0,""num_whileblue"":0,""num_blue"":1,""num_good_moves"":6}","[302.22857753208706,296.92857448032925,1,302.22857753208706,296.92857448032925,107,302.22857753208706,296.92857448032925,217,302.22857753208706,296.92857448032925,326,302.22857753208706,296.92857448032925,436,302.22857753208706,296.92857448032925,548,302.22857753208706,296.92857448032925,655,378.22857753208706,364.92857448032925,765,382.22857753208706,367.92857448032925,875,382.22857753208706,367.92857448032925,984,382.22857753208706,367.92857448032925,1097,382.22857753208706,367.92857448032925,1205,382.22857753208706,367.92857448032925,1318,467.22857753208706,436.92857448032925,1424,474.22857753208706,446.92857448032925,1525,474.22857753208706,446.92857448032925,1633,474.22857753208706,446.92857448032925,1739,539.228577532087,532.9285744803292,1850,540.228577532087,532.9285744803292,1958,540.228577532087,532.9285744803292,2066,540.228577532087,532.9285744803292,2170,540.228577532087,532.9285744803292,2276,540.228577532087,532.9285744803292,2378,540.228577532087,532.9285744803292,2481,540.228577532087,532.9285744803292,2583,540.228577532087,532.9285744803292,2687,540.228577532087,532.9285744803292,2792,540.228577532087,532.9285744803292,2900,540.228577532087,532.9285744803292,3008,657.228577532087,437.92857448032925,3116,797.228577532087,342.92857448032925,3222,797.228577532087,342.92857448032925,3333,797.228577532087,342.92857448032925,3439,797.228577532087,342.92857448032925,3548,797.228577532087,342.92857448032925,3651,797.228577532087,342.92857448032925,3766,797.228577532087,342.92857448032925,3877,797.228577532087,342.92857448032925,3984,797.228577532087,342.92857448032925,4095,797.228577532087,342.92857448032925,4200,797.228577532087,342.92857448032925,4311,797.228577532087,342.92857448032925,4424,797.228577532087,342.92857448032925,4533,797.228577532087,342.92857448032925,4644,797.228577532087,342.92857448032925,4753,797.228577532087,342.92857448032925,4863,797.228577532087,342.92857448032925,4973]","[4985,4985,2544.2,2016,424.8,""oops"",""down"",""right"",""good_move"",8378,3393,2965.9,4985,427.1,""oops"",""right"",""down"",""good_move"",11134,2756,2226.5,8378,529.5,""smooth"",""right"",""right"",""good_move"",13743,2609,2190.6,11134,418.4,""smooth"",""right"",""right"",""good_move"",16446,2703,2237.3,13743,465.7,""smooth"",""down"",""down"",""good_move"",19559,3113,2755.7,16446,357.3,""smooth"",""down"",""down"",""good_move""]","",""
"3333","","<div style=""width:500px;"">
  <p>What determined the result of this run?</p>
  </div>","88","html-slider-response","40","490387","0.0-5.0-1.6","189","1","2025-07-23 08:04:51","1f75c3e559b7213887762d5229550c2b","37.47.213.160","Mozilla/5.0 (Windows NT 10.0; Win64; x64; rv:140.0) Gecko/20100101 Firefox/140.0","","Firefox","140.0","Windows","10.0","https://app.prolific.com/","pl","66a6211743bf2623c0a8eb81","683db9eb0562dbf637994deb","68809799e5fa5f85a26d544b","2","1","66a6211743bf2623c0a8eb81","2","1","2025-07-23T08:13:04.083Z","","","","","","","","","","","AttribQ","","50","","","","","","","","","","","","","","","","","","","","","","","","","","","","",""
"2165","","<div style=""width:500px;"">
  <p>How much control did you have over the ball?</p>
  </div>","86","html-slider-response","41","492555","0.0-5.0-2.6","189","1","2025-07-23 08:04:51","1f75c3e559b7213887762d5229550c2b","37.47.213.160","Mozilla/5.0 (Windows NT 10.0; Win64; x64; rv:140.0) Gecko/20100101 Firefox/140.0","","Firefox","140.0","Windows","10.0","https://app.prolific.com/","pl","66a6211743bf2623c0a8eb81","683db9eb0562dbf637994deb","68809799e5fa5f85a26d544b","2","1","66a6211743bf2623c0a8eb81","2","1","2025-07-23T08:13:06.251Z","","","","","","","","","","","ControlQ","","50","","","","","","","","","","","","","","","","","","","","","","","","","","","","",""
"2324","","<div style=""width:500px;"">
  <p>How would you describe your current emotional state?</p>
  </div>","18","html-slider-response","42","494882","0.0-5.0-3.6","189","1","2025-07-23 08:04:51","1f75c3e559b7213887762d5229550c2b","37.47.213.160","Mozilla/5.0 (Windows NT 10.0; Win64; x64; rv:140.0) Gecko/20100101 Firefox/140.0","","Firefox","140.0","Windows","10.0","https://app.prolific.com/","pl","66a6211743bf2623c0a8eb81","683db9eb0562dbf637994deb","68809799e5fa5f85a26d544b","2","1","66a6211743bf2623c0a8eb81","2","1","2025-07-23T08:13:08.578Z","","","","","","","","","","","StressQ","","50","","","","","","","","","","","","","","","","","","","","","","","","","","","","",""
"2211","","<div style=""width:500px;"">
  <p>What best describes how you currently feel?</p>
  </div>","96","html-slider-response","43","497097","0.0-5.0-4.6","189","1","2025-07-23 08:04:51","1f75c3e559b7213887762d5229550c2b","37.47.213.160","Mozilla/5.0 (Windows NT 10.0; Win64; x64; rv:140.0) Gecko/20100101 Firefox/140.0","","Firefox","140.0","Windows","10.0","https://app.prolific.com/","pl","66a6211743bf2623c0a8eb81","683db9eb0562dbf637994deb","68809799e5fa5f85a26d544b","2","1","66a6211743bf2623c0a8eb81","2","1","2025-07-23T08:13:10.793Z","","","","","","","","","","","MotivationQ","","50","","","","","","","","","","","","","","","","","","","","","","","","","","","","",""
"","","","","ctl-task-cpt","44","596226","0.0-5.0-0.7","189","1","2025-07-23 08:04:51","1f75c3e559b7213887762d5229550c2b","37.47.213.160","Mozilla/5.0 (Windows NT 10.0; Win64; x64; rv:140.0) Gecko/20100101 Firefox/140.0","","Firefox","140.0","Windows","10.0","https://app.prolific.com/","pl","66a6211743bf2623c0a8eb81","683db9eb0562dbf637994deb","68809799e5fa5f85a26d544b","2","1","66a6211743bf2623c0a8eb81","2","1","2025-07-23T08:14:49.922Z","","","","","","","","","","","","","","win-only","3","g1:SW,g2:NE","0.3","8","0","499149","1139","6154","96115","1","4","8","6","2","-8","-9","24","33","0.18181818181818182","1184","3000","-955","[""up"",""right""]","{""num_key_presses"":22,""num_perfect"":6,""num_errors"":1,""num_randdir"":15,""num_randdir_good_moves"":5,""num_whilered"":0,""num_whileblue"":1,""num_blue"":7,""num_good_moves"":10}","[295.22857753208706,293.92857448032925,0,295.22857753208706,293.92857448032925,111,295.22857753208706,293.92857448032925,220,295.22857753208706,293.92857448032925,330,295.22857753208706,293.92857448032925,441,295.22857753208706,293.92857448032925,551,295.22857753208706,293.92857448032925,662,444.22857753208706,148.92857448032925,770,560.228577532087,71.92857448032925,880,560.228577532087,71.92857448032925,980,560.228577532087,71.92857448032925,1083,560.228577532087,71.92857448032925,1195,560.228577532087,71.92857448032925,1306,560.228577532087,71.92857448032925,1418,560.228577532087,71.92857448032925,1530,560.228577532087,71.92857448032925,1640,780.228577532087,51.92857448032924,1751,794.228577532087,48.92857448032924,1861,794.228577532087,48.92857448032924,1971,794.228577532087,48.92857448032924,2080,794.228577532087,48.92857448032924,2191,794.228577532087,48.92857448032924,2302,794.228577532087,48.92857448032924,2414,794.228577532087,48.92857448032924,2525,794.228577532087,48.92857448032924,2635,794.228577532087,48.92857448032924,2744,794.228577532087,48.92857448032924,2855,794.228577532087,48.92857448032924,2965,794.228577532087,48.92857448032924,3076,794.228577532087,48.92857448032924,3185,794.228577532087,48.92857448032924,3297,794.228577532087,48.92857448032924,3407,794.228577532087,48.92857448032924,3517,794.228577532087,48.92857448032924,3628,794.228577532087,48.92857448032924,3738,794.228577532087,48.92857448032924,3848,794.228577532087,48.92857448032924,3958,794.228577532087,48.92857448032924,4068,794.228577532087,48.92857448032924,4177,794.228577532087,48.92857448032924,4289,794.228577532087,48.92857448032924,4400,794.228577532087,48.92857448032924,4510,794.228577532087,48.92857448032924,4620,794.228577532087,48.92857448032924,4731,794.228577532087,48.92857448032924,4841,794.228577532087,48.92857448032924,4951]","[1381,1381,1000,0,381,""oops"",""right"",""up"",""good_move"",4865,3484,3012.7,1381,471.3,""oops"",""right"",""left"",""bad_move"",7928,3063,2695.2,4865,367.8,""oops"",""up"",""right"",""good_move"",10493,2565,2172.1,7928,392.9,""oops"",""up"",""up"",""good_move"",13539,3046,2152.9,10493,893.1,""smooth"",""up"",""up"",""good_move"",24506,10966,2973,21202,331,""while_blue"",""right"",""left"",""bad_move"",31734,7228,3034.1,28197,502.9,""smooth"",""right"",""right"",""good_move"",39064,7330,2797.8,35808,458.2,""oops"",""right"",""left"",""bad_move"",42265,3200,2314.6,39065,885.4,""smooth"",""right"",""right"",""good_move"",44952,2687,2112.6,42265,574.4,""oops"",""right"",""down"",""bad_move"",51250,6297,1847.5,49018,384.5,""oops"",""right"",""left"",""bad_move"",54367,3117,2308,51250,809,""oops"",""up"",""left"",""bad_move"",57488,3120,1718.9,54368,1401.1,""smooth"",""up"",""up"",""good_move"",60630,3142,2415.9,57488,726.1,""oops"",""right"",""up"",""good_move"",63782,3151,2199.8,60631,951.2,""smooth"",""right"",""right"",""good_move"",66723,2941,2453.7,63782,487.3,""oops"",""down"",""right"",""good_move"",69254,2531,2093.4,66723,437.6,""smooth"",""down"",""down"",""bad_move"",72089,2835,2452.8,69254,382.2,""oops"",""right"",""left"",""bad_move"",75144,3055,2413.7,72089,641.3,""oops"",""right"",""down"",""bad_move"",78548,3403,3025.3,75145,377.7,""oops"",""right"",""down"",""bad_move"",80953,2405,2060.7,78548,344.3,""oops"",""up"",""left"",""bad_move"",83960,3007,2309.1,80953,697.9,""oops"",""up"",""down"",""bad_move""]","",""
"3410","","<div style=""width:500px;"">
  <p>What determined the result of this run?</p>
  </div>","66","html-slider-response","45","599637","0.0-5.0-1.7","189","1","2025-07-23 08:04:51","1f75c3e559b7213887762d5229550c2b","37.47.213.160","Mozilla/5.0 (Windows NT 10.0; Win64; x64; rv:140.0) Gecko/20100101 Firefox/140.0","","Firefox","140.0","Windows","10.0","https://app.prolific.com/","pl","66a6211743bf2623c0a8eb81","683db9eb0562dbf637994deb","68809799e5fa5f85a26d544b","2","1","66a6211743bf2623c0a8eb81","2","1","2025-07-23T08:14:53.333Z","","","","","","","","","","","AttribQ","","50","","","","","","","","","","","","","","","","","","","","","","","","","","","","",""
"3183","","<div style=""width:500px;"">
  <p>How much control did you have over the ball?</p>
  </div>","15","html-slider-response","46","602823","0.0-5.0-2.7","189","1","2025-07-23 08:04:51","1f75c3e559b7213887762d5229550c2b","37.47.213.160","Mozilla/5.0 (Windows NT 10.0; Win64; x64; rv:140.0) Gecko/20100101 Firefox/140.0","","Firefox","140.0","Windows","10.0","https://app.prolific.com/","pl","66a6211743bf2623c0a8eb81","683db9eb0562dbf637994deb","68809799e5fa5f85a26d544b","2","1","66a6211743bf2623c0a8eb81","2","1","2025-07-23T08:14:56.519Z","","","","","","","","","","","ControlQ","","50","","","","","","","","","","","","","","","","","","","","","","","","","","","","",""
"3668","","<div style=""width:500px;"">
  <p>How would you describe your current emotional state?</p>
  </div>","43","html-slider-response","47","606494","0.0-5.0-3.7","189","1","2025-07-23 08:04:51","1f75c3e559b7213887762d5229550c2b","37.47.213.160","Mozilla/5.0 (Windows NT 10.0; Win64; x64; rv:140.0) Gecko/20100101 Firefox/140.0","","Firefox","140.0","Windows","10.0","https://app.prolific.com/","pl","66a6211743bf2623c0a8eb81","683db9eb0562dbf637994deb","68809799e5fa5f85a26d544b","2","1","66a6211743bf2623c0a8eb81","2","1","2025-07-23T08:15:00.190Z","","","","","","","","","","","StressQ","","50","","","","","","","","","","","","","","","","","","","","","","","","","","","","",""
"2154","","<div style=""width:500px;"">
  <p>What best describes how you currently feel?</p>
  </div>","83","html-slider-response","48","608651","0.0-5.0-4.7","189","1","2025-07-23 08:04:51","1f75c3e559b7213887762d5229550c2b","37.47.213.160","Mozilla/5.0 (Windows NT 10.0; Win64; x64; rv:140.0) Gecko/20100101 Firefox/140.0","","Firefox","140.0","Windows","10.0","https://app.prolific.com/","pl","66a6211743bf2623c0a8eb81","683db9eb0562dbf637994deb","68809799e5fa5f85a26d544b","2","1","66a6211743bf2623c0a8eb81","2","1","2025-07-23T08:15:02.347Z","","","","","","","","","","","MotivationQ","","50","","","","","","","","","","","","","","","","","","","","","","","","","","","","",""
"","","","","ctl-task-cpt","49","642040","0.0-5.0-0.8","189","1","2025-07-23 08:04:51","1f75c3e559b7213887762d5229550c2b","37.47.213.160","Mozilla/5.0 (Windows NT 10.0; Win64; x64; rv:140.0) Gecko/20100101 Firefox/140.0","","Firefox","140.0","Windows","10.0","https://app.prolific.com/","pl","66a6211743bf2623c0a8eb81","683db9eb0562dbf637994deb","68809799e5fa5f85a26d544b","2","1","66a6211743bf2623c0a8eb81","2","1","2025-07-23T08:15:35.737Z","","","","","","","","","","","","","","win-only","0","g1:NW,g2:SE","0.2","9","0","610701","1475","6489","30374","1","4","4","6","2","4","4","28","24","0.21212121212121213","1481","3000","1980","[""down"",""right""]","{""num_key_presses"":6,""num_perfect"":2,""num_errors"":0,""num_randdir"":4,""num_randdir_good_moves"":4,""num_whilered"":0,""num_whileblue"":0,""num_blue"":2,""num_good_moves"":6}","[293.22857753208706,295.92857448032925,0,293.22857753208706,295.92857448032925,108,293.22857753208706,295.92857448032925,208,293.22857753208706,295.92857448032925,322,293.22857753208706,295.92857448032925,430,293.22857753208706,295.92857448032925,537,293.22857753208706,295.92857448032925,649,379.22857753208706,339.92857448032925,755,475.22857753208706,432.92857448032925,864,475.22857753208706,432.92857448032925,972,475.22857753208706,432.92857448032925,1081,521.228577532087,502.92857448032925,1191,534.228577532087,527.9285744803292,1300,534.228577532087,527.9285744803292,1409,534.228577532087,527.9285744803292,1518,534.228577532087,527.9285744803292,1630,534.228577532087,527.9285744803292,1738,534.228577532087,527.9285744803292,1847,730.228577532087,381.92857448032925,1958,852.228577532087,316.92857448032925,2067,852.228577532087,316.92857448032925,2173,852.228577532087,316.92857448032925,2282,852.228577532087,316.92857448032925,2394,852.228577532087,316.92857448032925,2502,852.228577532087,316.92857448032925,2611,852.228577532087,316.92857448032925,2719,852.228577532087,316.92857448032925,2829,852.228577532087,316.92857448032925,2938,852.228577532087,316.92857448032925,3047,852.228577532087,316.92857448032925,3159,852.228577532087,316.92857448032925,3268,852.228577532087,316.92857448032925,3379,852.228577532087,316.92857448032925,3486,852.228577532087,316.92857448032925,3595,852.228577532087,316.92857448032925,3704,852.228577532087,316.92857448032925,3813,852.228577532087,316.92857448032925,3922,852.228577532087,316.92857448032925,4032,852.228577532087,316.92857448032925,4144,852.228577532087,316.92857448032925,4250,852.228577532087,316.92857448032925,4360,852.228577532087,316.92857448032925,4468,852.228577532087,316.92857448032925,4577,852.228577532087,316.92857448032925,4686,852.228577532087,316.92857448032925,4796,852.228577532087,316.92857448032925,4906]","[1485,1485,1000,0,485,""oops"",""down"",""right"",""good_move"",4754,3269,2803.4,1485,465.6,""smooth"",""down"",""down"",""good_move"",11373,6618,2687.2,8146,539.8,""oops"",""down"",""down"",""good_move"",13662,2288,1554.5,11374,733.5,""oops"",""right"",""down"",""good_move"",20446,6784,2461.7,17498,486.3,""smooth"",""right"",""right"",""good_move"",23592,3146,2626.8,20446,519.2,""oops"",""right"",""right"",""good_move""]","",""
"2144","","<div style=""width:500px;"">
  <p>What determined the result of this run?</p>
  </div>","79","html-slider-response","50","644184","0.0-5.0-1.8","189","1","2025-07-23 08:04:51","1f75c3e559b7213887762d5229550c2b","37.47.213.160","Mozilla/5.0 (Windows NT 10.0; Win64; x64; rv:140.0) Gecko/20100101 Firefox/140.0","","Firefox","140.0","Windows","10.0","https://app.prolific.com/","pl","66a6211743bf2623c0a8eb81","683db9eb0562dbf637994deb","68809799e5fa5f85a26d544b","2","1","66a6211743bf2623c0a8eb81","2","1","2025-07-23T08:15:37.880Z","","","","","","","","","","","AttribQ","","50","","","","","","","","","","","","","","","","","","","","","","","","","","","","",""
"1875","","<div style=""width:500px;"">
  <p>How much control did you have over the ball?</p>
  </div>","75","html-slider-response","51","646062","0.0-5.0-2.8","189","1","2025-07-23 08:04:51","1f75c3e559b7213887762d5229550c2b","37.47.213.160","Mozilla/5.0 (Windows NT 10.0; Win64; x64; rv:140.0) Gecko/20100101 Firefox/140.0","","Firefox","140.0","Windows","10.0","https://app.prolific.com/","pl","66a6211743bf2623c0a8eb81","683db9eb0562dbf637994deb","68809799e5fa5f85a26d544b","2","1","66a6211743bf2623c0a8eb81","2","1","2025-07-23T08:15:39.758Z","","","","","","","","","","","ControlQ","","50","","","","","","","","","","","","","","","","","","","","","","","","","","","","",""
"4081","","<div style=""width:500px;"">
  <p>How would you describe your current emotional state?</p>
  </div>","21","html-slider-response","52","650146","0.0-5.0-3.8","189","1","2025-07-23 08:04:51","1f75c3e559b7213887762d5229550c2b","37.47.213.160","Mozilla/5.0 (Windows NT 10.0; Win64; x64; rv:140.0) Gecko/20100101 Firefox/140.0","","Firefox","140.0","Windows","10.0","https://app.prolific.com/","pl","66a6211743bf2623c0a8eb81","683db9eb0562dbf637994deb","68809799e5fa5f85a26d544b","2","1","66a6211743bf2623c0a8eb81","2","1","2025-07-23T08:15:43.842Z","","","","","","","","","","","StressQ","","50","","","","","","","","","","","","","","","","","","","","","","","","","","","","",""
"2260","","<div style=""width:500px;"">
  <p>What best describes how you currently feel?</p>
  </div>","91","html-slider-response","53","652409","0.0-5.0-4.8","189","1","2025-07-23 08:04:51","1f75c3e559b7213887762d5229550c2b","37.47.213.160","Mozilla/5.0 (Windows NT 10.0; Win64; x64; rv:140.0) Gecko/20100101 Firefox/140.0","","Firefox","140.0","Windows","10.0","https://app.prolific.com/","pl","66a6211743bf2623c0a8eb81","683db9eb0562dbf637994deb","68809799e5fa5f85a26d544b","2","1","66a6211743bf2623c0a8eb81","2","1","2025-07-23T08:15:46.105Z","","","","","","","","","","","MotivationQ","","50","","","","","","","","","","","","","","","","","","","","","","","","","","","","",""
"","","","","ctl-task-cpt","54","691558","0.0-5.0-0.9","189","1","2025-07-23 08:04:51","1f75c3e559b7213887762d5229550c2b","37.47.213.160","Mozilla/5.0 (Windows NT 10.0; Win64; x64; rv:140.0) Gecko/20100101 Firefox/140.0","","Firefox","140.0","Windows","10.0","https://app.prolific.com/","pl","66a6211743bf2623c0a8eb81","683db9eb0562dbf637994deb","68809799e5fa5f85a26d544b","2","1","66a6211743bf2623c0a8eb81","2","1","2025-07-23T08:16:25.254Z","","","","","","","","","","","","","","win-only","1","g1:NE,g2:SW","0.4","10","0","654459","869","5877","36139","1","4","8","6","2","8","8","36","28","0.2727272727272727","1222","3000","1860","[""down"",""left""]","{""num_key_presses"":8,""num_perfect"":4,""num_errors"":0,""num_randdir"":4,""num_randdir_good_moves"":3,""num_whilered"":0,""num_whileblue"":0,""num_blue"":2,""num_good_moves"":7}","[300.22857753208706,297.92857448032925,0,300.22857753208706,297.92857448032925,104,300.22857753208706,297.92857448032925,214,300.22857753208706,297.92857448032925,323,300.22857753208706,297.92857448032925,431,300.22857753208706,297.92857448032925,539,300.22857753208706,297.92857448032925,647,222.22857753208706,365.92857448032925,757,79.22857753208706,494.92857448032925,865,79.22857753208706,494.92857448032925,975,79.22857753208706,494.92857448032925,1086,79.22857753208706,494.92857448032925,1195,79.22857753208706,494.92857448032925,1305,79.22857753208706,494.92857448032925,1415,79.22857753208706,494.92857448032925,1526,79.22857753208706,494.92857448032925,1635,79.22857753208706,494.92857448032925,1743,-230.77142246791294,459.92857448032925,1852,-235.77142246791294,456.92857448032925,1962,-235.77142246791294,456.92857448032925,2071,-235.77142246791294,456.92857448032925,2180,-235.77142246791294,456.92857448032925,2289,-235.77142246791294,456.92857448032925,2400,-235.77142246791294,456.92857448032925,2507,-235.77142246791294,456.92857448032925,2618,-235.77142246791294,456.92857448032925,2725,-235.77142246791294,456.92857448032925,2836,-235.77142246791294,456.92857448032925,2946,-235.77142246791294,456.92857448032925,3054,-235.77142246791294,456.92857448032925,3163,-235.77142246791294,456.92857448032925,3271,-235.77142246791294,456.92857448032925,3380,-235.77142246791294,456.92857448032925,3488,-235.77142246791294,456.92857448032925,3597,-235.77142246791294,456.92857448032925,3705,-235.77142246791294,456.92857448032925,3812,-235.77142246791294,456.92857448032925,3921,-235.77142246791294,456.92857448032925,4031,-235.77142246791294,456.92857448032925,4139,-235.77142246791294,456.92857448032925,4250,-235.77142246791294,456.92857448032925,4357,-235.77142246791294,456.92857448032925,4467,-235.77142246791294,456.92857448032925,4573,-235.77142246791294,456.92857448032925,4683,-235.77142246791294,456.92857448032925,4790,-235.77142246791294,456.92857448032925,4900]","[1533,1533,1000,0,533,""smooth"",""down"",""down"",""good_move"",4761,3228,2702,1533,526,""smooth"",""left"",""left"",""good_move"",7837,3076,2638.8,4761,437.2,""smooth"",""down"",""down"",""good_move"",11099,3261,2872.9,7838,388.1,""smooth"",""down"",""down"",""good_move"",13779,2679,2243.9,11100,435.1,""oops"",""left"",""left"",""good_move"",17229,3449,3005.1,13780,443.9,""oops"",""left"",""right"",""bad_move"",23460,6231,2491.8,20498,470.2,""oops"",""up"",""left"",""good_move"",29970,6510,2412.8,27147,410.2,""oops"",""left"",""left"",""good_move""]","",""
"2704","","<div style=""width:500px;"">
  <p>What determined the result of this run?</p>
  </div>","79","html-slider-response","55","694263","0.0-5.0-1.9","189","1","2025-07-23 08:04:51","1f75c3e559b7213887762d5229550c2b","37.47.213.160","Mozilla/5.0 (Windows NT 10.0; Win64; x64; rv:140.0) Gecko/20100101 Firefox/140.0","","Firefox","140.0","Windows","10.0","https://app.prolific.com/","pl","66a6211743bf2623c0a8eb81","683db9eb0562dbf637994deb","68809799e5fa5f85a26d544b","2","1","66a6211743bf2623c0a8eb81","2","1","2025-07-23T08:16:27.959Z","","","","","","","","","","","AttribQ","","50","","","","","","","","","","","","","","","","","","","","","","","","","","","","",""
"1896","","<div style=""width:500px;"">
  <p>How much control did you have over the ball?</p>
  </div>","73","html-slider-response","56","696162","0.0-5.0-2.9","189","1","2025-07-23 08:04:51","1f75c3e559b7213887762d5229550c2b","37.47.213.160","Mozilla/5.0 (Windows NT 10.0; Win64; x64; rv:140.0) Gecko/20100101 Firefox/140.0","","Firefox","140.0","Windows","10.0","https://app.prolific.com/","pl","66a6211743bf2623c0a8eb81","683db9eb0562dbf637994deb","68809799e5fa5f85a26d544b","2","1","66a6211743bf2623c0a8eb81","2","1","2025-07-23T08:16:29.858Z","","","","","","","","","","","ControlQ","","50","","","","","","","","","","","","","","","","","","","","","","","","","","","","",""
"2262","","<div style=""width:500px;"">
  <p>How would you describe your current emotional state?</p>
  </div>","16","html-slider-response","57","698428","0.0-5.0-3.9","189","1","2025-07-23 08:04:51","1f75c3e559b7213887762d5229550c2b","37.47.213.160","Mozilla/5.0 (Windows NT 10.0; Win64; x64; rv:140.0) Gecko/20100101 Firefox/140.0","","Firefox","140.0","Windows","10.0","https://app.prolific.com/","pl","66a6211743bf2623c0a8eb81","683db9eb0562dbf637994deb","68809799e5fa5f85a26d544b","2","1","66a6211743bf2623c0a8eb81","2","1","2025-07-23T08:16:32.125Z","","","","","","","","","","","StressQ","","50","","","","","","","","","","","","","","","","","","","","","","","","","","","","",""
"52326","","<div style=""width:500px;"">
  <p>What best describes how you currently feel?</p>
  </div>","81","html-slider-response","58","750758","0.0-5.0-4.9","189","1","2025-07-23 08:04:51","1f75c3e559b7213887762d5229550c2b","37.47.213.160","Mozilla/5.0 (Windows NT 10.0; Win64; x64; rv:140.0) Gecko/20100101 Firefox/140.0","","Firefox","140.0","Windows","10.0","https://app.prolific.com/","pl","66a6211743bf2623c0a8eb81","683db9eb0562dbf637994deb","68809799e5fa5f85a26d544b","2","1","66a6211743bf2623c0a8eb81","2","1","2025-07-23T08:17:24.454Z","","","","","","","","","","","MotivationQ","","50","","","","","","","","","","","","","","","","","","","","","","","","","","","","",""
"","","","","ctl-task-cpt","59","770987","0.0-5.0-0.10","189","1","2025-07-23 08:04:51","1f75c3e559b7213887762d5229550c2b","37.47.213.160","Mozilla/5.0 (Windows NT 10.0; Win64; x64; rv:140.0) Gecko/20100101 Firefox/140.0","","Firefox","140.0","Windows","10.0","https://app.prolific.com/","pl","66a6211743bf2623c0a8eb81","683db9eb0562dbf637994deb","68809799e5fa5f85a26d544b","2","1","66a6211743bf2623c0a8eb81","2","1","2025-07-23T08:17:44.683Z","","","","","","","","","","","","","","win-only","2","g1:SE,g2:NW","0.5","11","0","752810","1074","6078","17210","1","4","4","6","1","1","1","37","36","0.2803030303030303","2134","3000","2425","[""down"",""right""]","{""num_key_presses"":4,""num_perfect"":2,""num_errors"":0,""num_randdir"":2,""num_randdir_good_moves"":2,""num_whilered"":0,""num_whileblue"":0,""num_blue"":0,""num_good_moves"":4}","[293.22857753208706,295.92857448032925,0,293.22857753208706,295.92857448032925,116,293.22857753208706,295.92857448032925,224,293.22857753208706,295.92857448032925,335,293.22857753208706,295.92857448032925,440,293.22857753208706,295.92857448032925,541,293.22857753208706,295.92857448032925,650,228.22857753208706,173.92857448032925,757,165.22857753208706,91.92857448032925,869,165.22857753208706,91.92857448032925,979,163.22857753208706,90.92857448032925,1089,163.22857753208706,90.92857448032925,1198,388.22857753208706,276.92857448032925,1312,427.22857753208706,357.92857448032925,1418,427.22857753208706,357.92857448032925,1523,456.22857753208706,419.92857448032925,1624,491.22857753208706,508.92857448032925,1730,505.22857753208706,526.9285744803292,1838,518.228577532087,532.9285744803292,1942,522.228577532087,534.9285744803292,2042,522.228577532087,534.9285744803292,2146,522.228577532087,534.9285744803292,2261,522.228577532087,534.9285744803292,2368,522.228577532087,534.9285744803292,2474,522.228577532087,534.9285744803292,2581,751.228577532087,424.92857448032925,2682,753.228577532087,424.92857448032925,2785,753.228577532087,424.92857448032925,2901,753.228577532087,424.92857448032925,3005,753.228577532087,424.92857448032925,3116,753.228577532087,424.92857448032925,3222,753.228577532087,424.92857448032925,3335,753.228577532087,424.92857448032925,3446,753.228577532087,424.92857448032925,3555,753.228577532087,424.92857448032925,3655,753.228577532087,424.92857448032925,3755,753.228577532087,424.92857448032925,3858,753.228577532087,424.92857448032925,3971,753.228577532087,424.92857448032925,4082,753.228577532087,424.92857448032925,4189,753.228577532087,424.92857448032925,4293,753.228577532087,424.92857448032925,4404,753.228577532087,424.92857448032925,4512,753.228577532087,424.92857448032925,4619,753.228577532087,424.92857448032925,4721,753.228577532087,424.92857448032925,4832,753.228577532087,424.92857448032925,4938]","[1513,1513,1000,0,513,""smooth"",""down"",""down"",""good_move"",4865,3351,2821.4,1514,529.6,""smooth"",""right"",""right"",""good_move"",7930,3065,2676.3,4865,388.7,""oops"",""down"",""right"",""good_move"",10870,2940,2572.4,7930,367.6,""oops"",""down"",""down"",""good_move""]","",""
"3102","","<div style=""width:500px;"">
  <p>What determined the result of this run?</p>
  </div>","70","html-slider-response","60","774091","0.0-5.0-1.10","189","1","2025-07-23 08:04:51","1f75c3e559b7213887762d5229550c2b","37.47.213.160","Mozilla/5.0 (Windows NT 10.0; Win64; x64; rv:140.0) Gecko/20100101 Firefox/140.0","","Firefox","140.0","Windows","10.0","https://app.prolific.com/","pl","66a6211743bf2623c0a8eb81","683db9eb0562dbf637994deb","68809799e5fa5f85a26d544b","2","1","66a6211743bf2623c0a8eb81","2","1","2025-07-23T08:17:47.787Z","","","","","","","","","","","AttribQ","","50","","","","","","","","","","","","","","","","","","","","","","","","","","","","",""
"2413","","<div style=""width:500px;"">
  <p>How much control did you have over the ball?</p>
  </div>","89","html-slider-response","61","776507","0.0-5.0-2.10","189","1","2025-07-23 08:04:51","1f75c3e559b7213887762d5229550c2b","37.47.213.160","Mozilla/5.0 (Windows NT 10.0; Win64; x64; rv:140.0) Gecko/20100101 Firefox/140.0","","Firefox","140.0","Windows","10.0","https://app.prolific.com/","pl","66a6211743bf2623c0a8eb81","683db9eb0562dbf637994deb","68809799e5fa5f85a26d544b","2","1","66a6211743bf2623c0a8eb81","2","1","2025-07-23T08:17:50.203Z","","","","","","","","","","","ControlQ","","50","","","","","","","","","","","","","","","","","","","","","","","","","","","","",""
"2560","","<div style=""width:500px;"">
  <p>How would you describe your current emotional state?</p>
  </div>","13","html-slider-response","62","779069","0.0-5.0-3.10","189","1","2025-07-23 08:04:51","1f75c3e559b7213887762d5229550c2b","37.47.213.160","Mozilla/5.0 (Windows NT 10.0; Win64; x64; rv:140.0) Gecko/20100101 Firefox/140.0","","Firefox","140.0","Windows","10.0","https://app.prolific.com/","pl","66a6211743bf2623c0a8eb81","683db9eb0562dbf637994deb","68809799e5fa5f85a26d544b","2","1","66a6211743bf2623c0a8eb81","2","1","2025-07-23T08:17:52.766Z","","","","","","","","","","","StressQ","","50","","","","","","","","","","","","","","","","","","","","","","","","","","","","",""
"3343","","<div style=""width:500px;"">
  <p>What best describes how you currently feel?</p>
  </div>","96","html-slider-response","63","782416","0.0-5.0-4.10","189","1","2025-07-23 08:04:51","1f75c3e559b7213887762d5229550c2b","37.47.213.160","Mozilla/5.0 (Windows NT 10.0; Win64; x64; rv:140.0) Gecko/20100101 Firefox/140.0","","Firefox","140.0","Windows","10.0","https://app.prolific.com/","pl","66a6211743bf2623c0a8eb81","683db9eb0562dbf637994deb","68809799e5fa5f85a26d544b","2","1","66a6211743bf2623c0a8eb81","2","1","2025-07-23T08:17:56.112Z","","","","","","","","","","","MotivationQ","","50","","","","","","","","","","","","","","","","","","","","","","","","","","","","",""
"","","","","ctl-task-cpt","64","864163","0.0-5.0-0.11","189","1","2025-07-23 08:04:51","1f75c3e559b7213887762d5229550c2b","37.47.213.160","Mozilla/5.0 (Windows NT 10.0; Win64; x64; rv:140.0) Gecko/20100101 Firefox/140.0","","Firefox","140.0","Windows","10.0","https://app.prolific.com/","pl","66a6211743bf2623c0a8eb81","683db9eb0562dbf637994deb","68809799e5fa5f85a26d544b","2","1","66a6211743bf2623c0a8eb81","2","1","2025-07-23T08:19:17.859Z","","","","","","","","","","","","","","win-only","2","g1:SE,g2:NW","0.6","12","0","784466","1130","6140","78741","1","4","8","6","2","8","7","44","37","0.3333333333333333","1312","3000","1050","[""left"",""up""]","{""num_key_presses"":14,""num_perfect"":9,""num_errors"":1,""num_randdir"":4,""num_randdir_good_moves"":1,""num_whilered"":0,""num_whileblue"":1,""num_blue"":10,""num_good_moves"":10}","[287.22857753208706,298.92857448032925,0,287.22857753208706,298.92857448032925,103,287.22857753208706,298.92857448032925,208,287.22857753208706,298.92857448032925,315,287.22857753208706,298.92857448032925,419,287.22857753208706,298.92857448032925,532,287.22857753208706,298.92857448032925,635,157.22857753208706,129.92857448032925,742,103.22857753208706,70.92857448032925,843,84.22857753208706,60.92857448032924,948,73.22857753208706,56.92857448032924,1063,71.22857753208706,56.92857448032924,1169,71.22857753208706,56.92857448032924,1269,71.22857753208706,56.92857448032924,1371,71.22857753208706,56.92857448032924,1482,71.22857753208706,56.92857448032924,1582,71.22857753208706,56.92857448032924,1687,-45.77142246791295,91.92857448032925,1792,-91.77142246791294,106.92857448032925,1894,-143.77142246791294,120.92857448032925,2005,-143.77142246791294,120.92857448032925,2109,-143.77142246791294,120.92857448032925,2216,-143.77142246791294,120.92857448032925,2324,-143.77142246791294,120.92857448032925,2429,-143.77142246791294,120.92857448032925,2536,-143.77142246791294,120.92857448032925,2641,-143.77142246791294,120.92857448032925,2754,-143.77142246791294,120.92857448032925,2854,-143.77142246791294,120.92857448032925,2962,-143.77142246791294,120.92857448032925,3073,-143.77142246791294,120.92857448032925,3176,-143.77142246791294,120.92857448032925,3283,-143.77142246791294,120.92857448032925,3388,-143.77142246791294,120.92857448032925,3495,-143.77142246791294,120.92857448032925,3605,-143.77142246791294,120.92857448032925,3707,-143.77142246791294,120.92857448032925,3819,-143.77142246791294,120.92857448032925,3930,-143.77142246791294,120.92857448032925,4034,-143.77142246791294,120.92857448032925,4138,-143.77142246791294,120.92857448032925,4245,-143.77142246791294,120.92857448032925,4347,-143.77142246791294,120.92857448032925,4461,-143.77142246791294,120.92857448032925,4573,-143.77142246791294,120.92857448032925,4687,-143.77142246791294,120.92857448032925,4794,-143.77142246791294,120.92857448032925,4903]","[1459,1459,1000,0,459,""oops"",""up"",""right"",""bad_move"",3828,2369,1985.3,1459,383.7,""oops"",""up"",""up"",""good_move"",6895,3066,1753.1,3829,1312.9,""smooth"",""up"",""up"",""good_move"",9985,3090,2079.8,6895,1010.2,""smooth"",""left"",""left"",""good_move"",13822,3837,3527,9985,310,""while_blue"",""left"",""right"",""bad_move"",20309,6487,2501.6,17378,429.4,""smooth"",""up"",""up"",""good_move"",30102,9793,2482.3,27127,492.7,""smooth"",""left"",""left"",""good_move"",33480,3378,2201.8,30102,1176.2,""smooth"",""left"",""left"",""good_move"",36881,3401,2916.2,33480,484.8,""smooth"",""left"",""left"",""good_move"",40155,3274,2781.5,36881,492.5,""oops"",""left"",""right"",""bad_move"",59583,19428,2411.4,56746,425.6,""oops"",""left"",""right"",""bad_move"",62670,3086,2605.7,59584,480.3,""smooth"",""left"",""left"",""good_move"",69123,6453,2374.3,66307,441.7,""smooth"",""left"",""left"",""good_move"",72325,3202,2041.9,69123,1160.1,""smooth"",""left"",""left"",""good_move""]","",""
"2873","","<div style=""width:500px;"">
  <p>What determined the result of this run?</p>
  </div>","80","html-slider-response","65","867039","0.0-5.0-1.11","189","1","2025-07-23 08:04:51","1f75c3e559b7213887762d5229550c2b","37.47.213.160","Mozilla/5.0 (Windows NT 10.0; Win64; x64; rv:140.0) Gecko/20100101 Firefox/140.0","","Firefox","140.0","Windows","10.0","https://app.prolific.com/","pl","66a6211743bf2623c0a8eb81","683db9eb0562dbf637994deb","68809799e5fa5f85a26d544b","2","1","66a6211743bf2623c0a8eb81","2","1","2025-07-23T08:19:20.735Z","","","","","","","","","","","AttribQ","","50","","","","","","","","","","","","","","","","","","","","","","","","","","","","",""
"3410","","<div style=""width:500px;"">
  <p>How much control did you have over the ball?</p>
  </div>","58","html-slider-response","66","870451","0.0-5.0-2.11","189","1","2025-07-23 08:04:51","1f75c3e559b7213887762d5229550c2b","37.47.213.160","Mozilla/5.0 (Windows NT 10.0; Win64; x64; rv:140.0) Gecko/20100101 Firefox/140.0","","Firefox","140.0","Windows","10.0","https://app.prolific.com/","pl","66a6211743bf2623c0a8eb81","683db9eb0562dbf637994deb","68809799e5fa5f85a26d544b","2","1","66a6211743bf2623c0a8eb81","2","1","2025-07-23T08:19:24.147Z","","","","","","","","","","","ControlQ","","50","","","","","","","","","","","","","","","","","","","","","","","","","","","","",""
"3805","","<div style=""width:500px;"">
  <p>How would you describe your current emotional state?</p>
  </div>","21","html-slider-response","67","874260","0.0-5.0-3.11","189","1","2025-07-23 08:04:51","1f75c3e559b7213887762d5229550c2b","37.47.213.160","Mozilla/5.0 (Windows NT 10.0; Win64; x64; rv:140.0) Gecko/20100101 Firefox/140.0","","Firefox","140.0","Windows","10.0","https://app.prolific.com/","pl","66a6211743bf2623c0a8eb81","683db9eb0562dbf637994deb","68809799e5fa5f85a26d544b","2","1","66a6211743bf2623c0a8eb81","2","1","2025-07-23T08:19:27.956Z","","","","","","","","","","","StressQ","","50","","","","","","","","","","","","","","","","","","","","","","","","","","","","",""
"2942","","<div style=""width:500px;"">
  <p>What best describes how you currently feel?</p>
  </div>","85","html-slider-response","68","877207","0.0-5.0-4.11","189","1","2025-07-23 08:04:51","1f75c3e559b7213887762d5229550c2b","37.47.213.160","Mozilla/5.0 (Windows NT 10.0; Win64; x64; rv:140.0) Gecko/20100101 Firefox/140.0","","Firefox","140.0","Windows","10.0","https://app.prolific.com/","pl","66a6211743bf2623c0a8eb81","683db9eb0562dbf637994deb","68809799e5fa5f85a26d544b","2","1","66a6211743bf2623c0a8eb81","2","1","2025-07-23T08:19:30.903Z","","","","","","","","","","","MotivationQ","","50","","","","","","","","","","","","","","","","","","","","","","","","","","","","",""
"","","","","ctl-task-cpt","69","898611","0.0-5.0-0.12","189","1","2025-07-23 08:04:51","1f75c3e559b7213887762d5229550c2b","37.47.213.160","Mozilla/5.0 (Windows NT 10.0; Win64; x64; rv:140.0) Gecko/20100101 Firefox/140.0","","Firefox","140.0","Windows","10.0","https://app.prolific.com/","pl","66a6211743bf2623c0a8eb81","683db9eb0562dbf637994deb","68809799e5fa5f85a26d544b","2","1","66a6211743bf2623c0a8eb81","2","1","2025-07-23T08:19:52.307Z","","","","","","","","","","","","","","win-only","1","g1:NE,g2:SW","0.7","13","0","879257","1142","6144","18394","1","4","4","6","1","1","1","45","44","0.3409090909090909","1816","3000","2345","[""up"",""right""]","{""num_key_presses"":4,""num_perfect"":2,""num_errors"":0,""num_randdir"":2,""num_randdir_good_moves"":2,""num_whilered"":0,""num_whileblue"":0,""num_blue"":0,""num_good_moves"":4}","[297.22857753208706,300.92857448032925,0,297.22857753208706,300.92857448032925,114,297.22857753208706,300.92857448032925,225,297.22857753208706,300.92857448032925,338,297.22857753208706,300.92857448032925,440,297.22857753208706,300.92857448032925,547,298.22857753208706,300.92857448032925,647,305.22857753208706,290.92857448032925,747,242.22857753208706,304.92857448032925,851,284.22857753208706,253.92857448032925,955,439.22857753208706,155.92857448032925,1070,453.22857753208706,124.92857448032925,1170,455.22857753208706,113.92857448032925,1270,473.22857753208706,91.92857448032925,1379,506.22857753208706,78.92857448032925,1480,515.228577532087,78.92857448032925,1580,515.228577532087,78.92857448032925,1684,515.228577532087,78.92857448032925,1785,515.228577532087,78.92857448032925,1896,515.228577532087,78.92857448032925,2000,515.228577532087,78.92857448032925,2101,515.228577532087,78.92857448032925,2212,515.228577532087,78.92857448032925,2323,729.228577532087,73.92857448032925,2434,737.228577532087,73.92857448032925,2544,737.228577532087,73.92857448032925,2653,737.228577532087,73.92857448032925,2763,737.228577532087,73.92857448032925,2874,737.228577532087,73.92857448032925,2984,737.228577532087,73.92857448032925,3095,737.228577532087,73.92857448032925,3204,737.228577532087,73.92857448032925,3316,737.228577532087,73.92857448032925,3428,737.228577532087,73.92857448032925,3537,737.228577532087,73.92857448032925,3647,737.228577532087,73.92857448032925,3757,737.228577532087,73.92857448032925,3867,737.228577532087,73.92857448032925,3977,737.228577532087,73.92857448032925,4087,737.228577532087,73.92857448032925,4197,737.228577532087,73.92857448032925,4309,737.228577532087,73.92857448032925,4420,737.228577532087,73.92857448032925,4530,737.228577532087,73.92857448032925,4642,737.228577532087,73.92857448032925,4750,737.228577532087,73.92857448032925,4859,737.228577532087,73.92857448032925,4969]","[1484,1484,1000,0,484,""oops"",""up"",""up"",""good_move"",5347,3863,3381.6,1484,481.4,""oops"",""right"",""right"",""good_move"",8022,2674,2102.9,5348,571.1,""smooth"",""right"",""right"",""good_move"",11979,3957,3405,8022,552,""smooth"",""up"",""up"",""good_move""]","",""
"2528","","<div style=""width:500px;"">
  <p>What determined the result of this run?</p>
  </div>","79","html-slider-response","70","901140","0.0-5.0-1.12","189","1","2025-07-23 08:04:51","1f75c3e559b7213887762d5229550c2b","37.47.213.160","Mozilla/5.0 (Windows NT 10.0; Win64; x64; rv:140.0) Gecko/20100101 Firefox/140.0","","Firefox","140.0","Windows","10.0","https://app.prolific.com/","pl","66a6211743bf2623c0a8eb81","683db9eb0562dbf637994deb","68809799e5fa5f85a26d544b","2","1","66a6211743bf2623c0a8eb81","2","1","2025-07-23T08:19:54.836Z","","","","","","","","","","","AttribQ","","50","","","","","","","","","","","","","","","","","","","","","","","","","","","","",""
"2311","","<div style=""width:500px;"">
  <p>How much control did you have over the ball?</p>
  </div>","90","html-slider-response","71","903453","0.0-5.0-2.12","189","1","2025-07-23 08:04:51","1f75c3e559b7213887762d5229550c2b","37.47.213.160","Mozilla/5.0 (Windows NT 10.0; Win64; x64; rv:140.0) Gecko/20100101 Firefox/140.0","","Firefox","140.0","Windows","10.0","https://app.prolific.com/","pl","66a6211743bf2623c0a8eb81","683db9eb0562dbf637994deb","68809799e5fa5f85a26d544b","2","1","66a6211743bf2623c0a8eb81","2","1","2025-07-23T08:19:57.150Z","","","","","","","","","","","ControlQ","","50","","","","","","","","","","","","","","","","","","","","","","","","","","","","",""
"2693","","<div style=""width:500px;"">
  <p>How would you describe your current emotional state?</p>
  </div>","18","html-slider-response","72","906149","0.0-5.0-3.12","189","1","2025-07-23 08:04:51","1f75c3e559b7213887762d5229550c2b","37.47.213.160","Mozilla/5.0 (Windows NT 10.0; Win64; x64; rv:140.0) Gecko/20100101 Firefox/140.0","","Firefox","140.0","Windows","10.0","https://app.prolific.com/","pl","66a6211743bf2623c0a8eb81","683db9eb0562dbf637994deb","68809799e5fa5f85a26d544b","2","1","66a6211743bf2623c0a8eb81","2","1","2025-07-23T08:19:59.845Z","","","","","","","","","","","StressQ","","50","","","","","","","","","","","","","","","","","","","","","","","","","","","","",""
"2454","","<div style=""width:500px;"">
  <p>What best describes how you currently feel?</p>
  </div>","94","html-slider-response","73","908606","0.0-5.0-4.12","189","1","2025-07-23 08:04:51","1f75c3e559b7213887762d5229550c2b","37.47.213.160","Mozilla/5.0 (Windows NT 10.0; Win64; x64; rv:140.0) Gecko/20100101 Firefox/140.0","","Firefox","140.0","Windows","10.0","https://app.prolific.com/","pl","66a6211743bf2623c0a8eb81","683db9eb0562dbf637994deb","68809799e5fa5f85a26d544b","2","1","66a6211743bf2623c0a8eb81","2","1","2025-07-23T08:20:02.302Z","","","","","","","","","","","MotivationQ","","50","","","","","","","","","","","","","","","","","","","","","","","","","","","","",""
"","","","","ctl-task-cpt","74","937392","0.0-5.0-0.13","189","1","2025-07-23 08:04:51","1f75c3e559b7213887762d5229550c2b","37.47.213.160","Mozilla/5.0 (Windows NT 10.0; Win64; x64; rv:140.0) Gecko/20100101 Firefox/140.0","","Firefox","140.0","Windows","10.0","https://app.prolific.com/","pl","66a6211743bf2623c0a8eb81","683db9eb0562dbf637994deb","68809799e5fa5f85a26d544b","2","1","66a6211743bf2623c0a8eb81","2","1","2025-07-23T08:20:31.088Z","","","","","","","","","","","","","","win-only","1","g1:NE,g2:SW","0.8","14","0","910656","1238","6254","25778","1","4","8","6","2","8","8","53","45","0.4015151515151515","1312","3000","2045","[""down"",""left""]","{""num_key_presses"":6,""num_perfect"":6,""num_errors"":0,""num_randdir"":0,""num_randdir_good_moves"":0,""num_whilered"":0,""num_whileblue"":0,""num_blue"":1,""num_good_moves"":6}","[301.22857753208706,302.92857448032925,0,301.22857753208706,302.92857448032925,106,301.22857753208706,302.92857448032925,211,301.22857753208706,302.92857448032925,319,301.22857753208706,302.92857448032925,424,301.22857753208706,302.92857448032925,528,283.22857753208706,317.92857448032925,633,144.22857753208706,478.92857448032925,737,115.22857753208706,504.92857448032925,838,108.22857753208706,512.9285744803292,948,69.22857753208706,531.9285744803292,1057,69.22857753208706,531.9285744803292,1170,69.22857753208706,531.9285744803292,1280,69.22857753208706,531.9285744803292,1392,69.22857753208706,531.9285744803292,1503,69.22857753208706,531.9285744803292,1615,69.22857753208706,531.9285744803292,1727,-176.77142246791294,466.92857448032925,1837,-221.77142246791294,460.92857448032925,1947,-221.77142246791294,460.92857448032925,2057,-221.77142246791294,460.92857448032925,2170,-221.77142246791294,460.92857448032925,2277,-221.77142246791294,460.92857448032925,2388,-221.77142246791294,460.92857448032925,2498,-221.77142246791294,460.92857448032925,2608,-221.77142246791294,460.92857448032925,2719,-221.77142246791294,460.92857448032925,2828,-221.77142246791294,460.92857448032925,2937,-221.77142246791294,460.92857448032925,3046,-221.77142246791294,460.92857448032925,3157,-221.77142246791294,460.92857448032925,3268,-221.77142246791294,460.92857448032925,3378,-221.77142246791294,460.92857448032925,3490,-221.77142246791294,460.92857448032925,3600,-221.77142246791294,460.92857448032925,3710,-221.77142246791294,460.92857448032925,3815,-221.77142246791294,460.92857448032925,3927,-221.77142246791294,460.92857448032925,4038,-221.77142246791294,460.92857448032925,4151,-221.77142246791294,460.92857448032925,4258,-221.77142246791294,460.92857448032925,4370,-221.77142246791294,460.92857448032925,4479,-221.77142246791294,460.92857448032925,4590,-221.77142246791294,460.92857448032925,4700,-221.77142246791294,460.92857448032925,4810,-221.77142246791294,460.92857448032925,4920]","[5082,5082,2528.4,2015,538.6,""smooth"",""down"",""down"",""good_move"",8249,3167,2541.5,5082,625.5,""smooth"",""down"",""down"",""good_move"",11085,2836,2257.2,8249,578.8,""smooth"",""left"",""left"",""good_move"",14223,3138,2239,11085,899,""smooth"",""left"",""left"",""good_move"",17181,2958,2269.3,14223,688.7,""smooth"",""down"",""down"",""good_move"",19240,2059,1602.1,17181,456.9,""smooth"",""left"",""left"",""good_move""]","",""
"3320","","<div style=""width:500px;"">
  <p>What determined the result of this run?</p>
  </div>","92","html-slider-response","75","940714","0.0-5.0-1.13","189","1","2025-07-23 08:04:51","1f75c3e559b7213887762d5229550c2b","37.47.213.160","Mozilla/5.0 (Windows NT 10.0; Win64; x64; rv:140.0) Gecko/20100101 Firefox/140.0","","Firefox","140.0","Windows","10.0","https://app.prolific.com/","pl","66a6211743bf2623c0a8eb81","683db9eb0562dbf637994deb","68809799e5fa5f85a26d544b","2","1","66a6211743bf2623c0a8eb81","2","1","2025-07-23T08:20:34.410Z","","","","","","","","","","","AttribQ","","50","","","","","","","","","","","","","","","","","","","","","","","","","","","","",""
"2639","","<div style=""width:500px;"">
  <p>How much control did you have over the ball?</p>
  </div>","96","html-slider-response","76","943357","0.0-5.0-2.13","189","1","2025-07-23 08:04:51","1f75c3e559b7213887762d5229550c2b","37.47.213.160","Mozilla/5.0 (Windows NT 10.0; Win64; x64; rv:140.0) Gecko/20100101 Firefox/140.0","","Firefox","140.0","Windows","10.0","https://app.prolific.com/","pl","66a6211743bf2623c0a8eb81","683db9eb0562dbf637994deb","68809799e5fa5f85a26d544b","2","1","66a6211743bf2623c0a8eb81","2","1","2025-07-23T08:20:37.053Z","","","","","","","","","","","ControlQ","","50","","","","","","","","","","","","","","","","","","","","","","","","","","","","",""
"2716","","<div style=""width:500px;"">
  <p>How would you describe your current emotional state?</p>
  </div>","11","html-slider-response","77","946076","0.0-5.0-3.13","189","1","2025-07-23 08:04:51","1f75c3e559b7213887762d5229550c2b","37.47.213.160","Mozilla/5.0 (Windows NT 10.0; Win64; x64; rv:140.0) Gecko/20100101 Firefox/140.0","","Firefox","140.0","Windows","10.0","https://app.prolific.com/","pl","66a6211743bf2623c0a8eb81","683db9eb0562dbf637994deb","68809799e5fa5f85a26d544b","2","1","66a6211743bf2623c0a8eb81","2","1","2025-07-23T08:20:39.772Z","","","","","","","","","","","StressQ","","50","","","","","","","","","","","","","","","","","","","","","","","","","","","","",""
"2595","","<div style=""width:500px;"">
  <p>What best describes how you currently feel?</p>
  </div>","98","html-slider-response","78","948672","0.0-5.0-4.13","189","1","2025-07-23 08:04:51","1f75c3e559b7213887762d5229550c2b","37.47.213.160","Mozilla/5.0 (Windows NT 10.0; Win64; x64; rv:140.0) Gecko/20100101 Firefox/140.0","","Firefox","140.0","Windows","10.0","https://app.prolific.com/","pl","66a6211743bf2623c0a8eb81","683db9eb0562dbf637994deb","68809799e5fa5f85a26d544b","2","1","66a6211743bf2623c0a8eb81","2","1","2025-07-23T08:20:42.368Z","","","","","","","","","","","MotivationQ","","50","","","","","","","","","","","","","","","","","","","","","","","","","","","","",""
"","","","","ctl-task-cpt","79","981715","0.0-5.0-0.14","189","1","2025-07-23 08:04:51","1f75c3e559b7213887762d5229550c2b","37.47.213.160","Mozilla/5.0 (Windows NT 10.0; Win64; x64; rv:140.0) Gecko/20100101 Firefox/140.0","","Firefox","140.0","Windows","10.0","https://app.prolific.com/","pl","66a6211743bf2623c0a8eb81","683db9eb0562dbf637994deb","68809799e5fa5f85a26d544b","2","1","66a6211743bf2623c0a8eb81","2","1","2025-07-23T08:21:15.411Z","","","","","","","","","","","","","","win-only","0","g1:NW,g2:SE","0.9","15","0","950723","918","5935","30033","1","4","8","6","2","8","8","61","53","0.4621212121212121","1648","3000","2170","[""down"",""right""]","{""num_key_presses"":6,""num_perfect"":6,""num_errors"":0,""num_randdir"":0,""num_randdir_good_moves"":0,""num_whilered"":0,""num_whileblue"":0,""num_blue"":2,""num_good_moves"":6}","[300.22857753208706,296.92857448032925,0,300.22857753208706,296.92857448032925,100,300.22857753208706,296.92857448032925,206,300.22857753208706,296.92857448032925,313,300.22857753208706,296.92857448032925,417,300.22857753208706,296.92857448032925,521,300.22857753208706,296.92857448032925,627,565.228577532087,475.92857448032925,735,608.228577532087,523.9285744803292,840,608.228577532087,523.9285744803292,945,608.228577532087,523.9285744803292,1047,608.228577532087,523.9285744803292,1153,549.228577532087,531.9285744803292,1256,549.228577532087,531.9285744803292,1367,549.228577532087,531.9285744803292,1478,549.228577532087,531.9285744803292,1588,549.228577532087,531.9285744803292,1700,549.228577532087,531.9285744803292,1807,549.228577532087,531.9285744803292,1917,549.228577532087,531.9285744803292,2022,577.228577532087,531.9285744803292,2123,763.228577532087,459.92857448032925,2234,766.228577532087,458.92857448032925,2337,766.228577532087,458.92857448032925,2437,766.228577532087,458.92857448032925,2543,766.228577532087,458.92857448032925,2650,766.228577532087,458.92857448032925,2753,766.228577532087,458.92857448032925,2856,766.228577532087,458.92857448032925,2969,766.228577532087,458.92857448032925,3082,766.228577532087,458.92857448032925,3187,766.228577532087,458.92857448032925,3302,766.228577532087,458.92857448032925,3415,766.228577532087,458.92857448032925,3522,766.228577532087,458.92857448032925,3634,766.228577532087,458.92857448032925,3736,766.228577532087,458.92857448032925,3850,766.228577532087,458.92857448032925,3960,766.228577532087,458.92857448032925,4070,766.228577532087,458.92857448032925,4172,766.228577532087,458.92857448032925,4277,766.228577532087,458.92857448032925,4388,766.228577532087,458.92857448032925,4493,766.228577532087,458.92857448032925,4598,766.228577532087,458.92857448032925,4701,766.228577532087,458.92857448032925,4813,766.228577532087,458.92857448032925,4917]","[5637,5637,3146.7,2015,475.3,""smooth"",""down"",""down"",""good_move"",8439,2802,2366.6,5637,435.4,""smooth"",""down"",""down"",""good_move"",11550,3111,2563.2,8439,547.8,""smooth"",""right"",""right"",""good_move"",14341,2790,2375.9,11551,414.1,""smooth"",""right"",""right"",""good_move"",21282,6941,2639.9,18248,394.1,""smooth"",""down"",""down"",""good_move"",23807,2525,2083.2,21282,441.8,""smooth"",""right"",""right"",""good_move""]","",""
"3497","","<div style=""width:500px;"">
  <p>What determined the result of this run?</p>
  </div>","93","html-slider-response","80","985215","0.0-5.0-1.14","189","1","2025-07-23 08:04:51","1f75c3e559b7213887762d5229550c2b","37.47.213.160","Mozilla/5.0 (Windows NT 10.0; Win64; x64; rv:140.0) Gecko/20100101 Firefox/140.0","","Firefox","140.0","Windows","10.0","https://app.prolific.com/","pl","66a6211743bf2623c0a8eb81","683db9eb0562dbf637994deb","68809799e5fa5f85a26d544b","2","1","66a6211743bf2623c0a8eb81","2","1","2025-07-23T08:21:18.911Z","","","","","","","","","","","AttribQ","","50","","","","","","","","","","","","","","","","","","","","","","","","","","","","",""
"2856","","<div style=""width:500px;"">
  <p>How much control did you have over the ball?</p>
  </div>","100","html-slider-response","81","988074","0.0-5.0-2.14","189","1","2025-07-23 08:04:51","1f75c3e559b7213887762d5229550c2b","37.47.213.160","Mozilla/5.0 (Windows NT 10.0; Win64; x64; rv:140.0) Gecko/20100101 Firefox/140.0","","Firefox","140.0","Windows","10.0","https://app.prolific.com/","pl","66a6211743bf2623c0a8eb81","683db9eb0562dbf637994deb","68809799e5fa5f85a26d544b","2","1","66a6211743bf2623c0a8eb81","2","1","2025-07-23T08:21:21.770Z","","","","","","","","","","","ControlQ","","50","","","","","","","","","","","","","","","","","","","","","","","","","","","","",""
"3112","","<div style=""width:500px;"">
  <p>How would you describe your current emotional state?</p>
  </div>","11","html-slider-response","82","991189","0.0-5.0-3.14","189","1","2025-07-23 08:04:51","1f75c3e559b7213887762d5229550c2b","37.47.213.160","Mozilla/5.0 (Windows NT 10.0; Win64; x64; rv:140.0) Gecko/20100101 Firefox/140.0","","Firefox","140.0","Windows","10.0","https://app.prolific.com/","pl","66a6211743bf2623c0a8eb81","683db9eb0562dbf637994deb","68809799e5fa5f85a26d544b","2","1","66a6211743bf2623c0a8eb81","2","1","2025-07-23T08:21:24.885Z","","","","","","","","","","","StressQ","","50","","","","","","","","","","","","","","","","","","","","","","","","","","","","",""
"2365","","<div style=""width:500px;"">
  <p>What best describes how you currently feel?</p>
