"rt","response_timestamp","stimulus","response","trial_type","trial_index","time_elapsed","internal_node_id","run_id","condition","recorded_at","source_code_version","ip","user_agent","device","browser","browser_version","platform","platform_version","referer","accept_language","PROLIFIC_PID","STUDY_ID","SESSION_ID","WEEK","BATCH","prolific_id","week","batch","realtime","success","responses","item_order","radio_event_ids","radio_event_times","key_event_times","mouse_event_times","straightlining","zigzagging","honeypot","eventType","view_history","slider_start","which_type","canvas_config","goals_layout","control_level","trial_number","tutorial_trial_number","trial_start_time","phase1_start_time","phase2_start_time","phase3_start_time","goal_1_value","goal_1_distance","goal_2_value","goal_2_distance","goal_selected","outcome","outcome_total","participant_final_score","participant_initial_score","participant_final_score_prop","goal_choice_rt","allocated_time","allocated_time_remaining","goal_direction","counts","mouse_movements","key_presses","question_order","question_id"
"2774","1753317709065","<p style='font-size:40px;line-height:1.25'><strong>Welcome to the experiment!</strong></p><p style='font-size:1.1em;line-height:1.25'>Thank you for participanting in our experiment again! You will be asked to play the Dysfunctional Ball Game again. We will briefly recap the rules before we start.</p><p style='font-size:1.1em;line-height:1.25'>Press <strong>Next</strong> to continue.</p>","0","custom-html-button-response","0","2778","0.0-0.0","236","1","2025-07-24 00:41:40","1f75c3e559b7213887762d5229550c2b","216.120.189.45","Mozilla/5.0 (Windows NT 10.0; Win64; x64) AppleWebKit/537.36 (KHTML, like Gecko) Chrome/138.0.0.0 Safari/537.36","WebKit","Chrome","138.0.0.0","Windows","10.0","null","en-US,en;q=0.9","673594215b1a0b92d5835525","683db9eb0562dbf637994deb","6880814108502a0057d8fc60","2","1","673594215b1a0b92d5835525","2","1","2025-07-24T00:41:49.066Z","","","","","","","","","","","","","","","","","","","","","","","","","","","","","","","","","","","","","","","","","",""
"1291203","","","","fullscreen","1","1295004","0.0-1.0","236","1","2025-07-24 00:41:40","1f75c3e559b7213887762d5229550c2b","216.120.189.45","Mozilla/5.0 (Windows NT 10.0; Win64; x64) AppleWebKit/537.36 (KHTML, like Gecko) Chrome/138.0.0.0 Safari/537.36","WebKit","Chrome","138.0.0.0","Windows","10.0","null","en-US,en;q=0.9","673594215b1a0b92d5835525","683db9eb0562dbf637994deb","6880814108502a0057d8fc60","2","1","673594215b1a0b92d5835525","2","1","","true","","","","","","","","","","","","","","","","","","","","","","","","","","","","","","","","","","","","","","","","",""
"4240","1753319005535","<p style='font-size:1.1em;line-height:1.25'>In the following, we will ask you a few questions relating to your feelings in the last 24 hours.<br></p><p style='font-size:1.1em;line-height:1.25'>Press the <strong>Next</strong> button to continue.</p>","0","custom-html-button-response","2","1299247","0.0-2.0-0.0","236","1","2025-07-24 00:41:40","1f75c3e559b7213887762d5229550c2b","216.120.189.45","Mozilla/5.0 (Windows NT 10.0; Win64; x64) AppleWebKit/537.36 (KHTML, like Gecko) Chrome/138.0.0.0 Safari/537.36","WebKit","Chrome","138.0.0.0","Windows","10.0","null","en-US,en;q=0.9","673594215b1a0b92d5835525","683db9eb0562dbf637994deb","6880814108502a0057d8fc60","2","1","673594215b1a0b92d5835525","2","1","2025-07-24T01:03:25.535Z","","","","","","","","","","","","","","","","","","","","","","","","","","","","","","","","","","","","","","","","","",""
"51845.79999999702","","","","survey-template","3","1351103","0.0-2.0-1.0","236","1","2025-07-24 00:41:40","1f75c3e559b7213887762d5229550c2b","216.120.189.45","Mozilla/5.0 (Windows NT 10.0; Win64; x64) AppleWebKit/537.36 (KHTML, like Gecko) Chrome/138.0.0.0 Safari/537.36","WebKit","Chrome","138.0.0.0","Windows","10.0","null","en-US,en;q=0.9","673594215b1a0b92d5835525","683db9eb0562dbf637994deb","6880814108502a0057d8fc60","2","1","673594215b1a0b92d5835525","2","1","2025-07-24T01:04:17.391Z","","{""Q01"":""0"",""Q02"":""0"",""Q03"":""0"",""Q04"":""0"",""Q05"":""0"",""Q06"":""0"",""Q07"":""0"",""Q08"":""0"",""Q09"":""0"",""Q10"":""0"",""Q11"":""0"",""Q12"":""0"",""Q13"":""5"",""Q14"":""0"",""Q15"":""0"",""Q16"":""0"",""Q17"":""0"",""Q18"":""0"",""Q19"":""0"",""Q20"":""0"",""Q21"":""0"",""Q22"":""0""}","[0,1,2,3,4,5,6,7,8,9,10,11,12,13,14,15,16,17,18,19,20,21]","[""Q01"",""Q02"",""Q03"",""Q04"",""Q05"",""Q06"",""Q07"",""Q11"",""Q10"",""Q09"",""Q08"",""Q13"",""Q12"",""Q14"",""Q15"",""Q16"",""Q17"",""Q18"",""Q22"",""Q21"",""Q20"",""Q19""]","[3010.2999999970198,5725.10000000149,7417.60000000149,9088.89999999851,10637.29999999702,12618.79999999702,13877.60000000149,17931,20326.29999999702,23090.60000000149,24651.69999999553,28516.5,30858.10000000149,32561.39999999851,33656.69999999553,34913.89999999851,36368.19999999553,37719.5,40021.29999999702,41778,43100.19999999553,44595.60000000149]","[]","[0.10000000149011612,3010.2999999970198,4332.79999999702,5725.10000000149,7417.60000000149,9088.89999999851,10637.29999999702,12618.79999999702,13877.60000000149,17931,20326.29999999702,21981.29999999702,23090.60000000149,24651.69999999553,28516.5,30858.10000000149,32561.39999999851,33656.69999999553,34913.89999999851,36368.19999999553,37719.5,40021.29999999702,41778,43100.19999999553,44595.60000000149,51838.69999999553]","0.9545454545454546","0.09523809523809523","0","drsp","","","","","","","","","","","","","","","","","","","","","","","","","","","","","","",""
"6976.19999999553","","","","survey-template","4","1358082","0.0-2.0-2.0","236","1","2025-07-24 00:41:40","1f75c3e559b7213887762d5229550c2b","216.120.189.45","Mozilla/5.0 (Windows NT 10.0; Win64; x64) AppleWebKit/537.36 (KHTML, like Gecko) Chrome/138.0.0.0 Safari/537.36","WebKit","Chrome","138.0.0.0","Windows","10.0","null","en-US,en;q=0.9","673594215b1a0b92d5835525","683db9eb0562dbf637994deb","6880814108502a0057d8fc60","2","1","673594215b1a0b92d5835525","2","1","2025-07-24T01:04:24.370Z","","{""Q01"":""0"",""Q02"":""5"",""Q03"":""0""}","[0,1,2]","[""Q01"",""Q02"",""Q03""]","[2514.5,3993.1999999955297,5638.5]","[]","[2514.5,3993.1999999955297,5638.5,6975.19999999553]","1","0","0","stress","","","","","","","","","","","","","","","","","","","","","","","","","","","","","","",""
"2874","","","","instructions","5","1360956","0.0-3.0-0.0","236","1","2025-07-24 00:41:40","1f75c3e559b7213887762d5229550c2b","216.120.189.45","Mozilla/5.0 (Windows NT 10.0; Win64; x64) AppleWebKit/537.36 (KHTML, like Gecko) Chrome/138.0.0.0 Safari/537.36","WebKit","Chrome","138.0.0.0","Windows","10.0","null","en-US,en;q=0.9","673594215b1a0b92d5835525","683db9eb0562dbf637994deb","6880814108502a0057d8fc60","2","1","673594215b1a0b92d5835525","2","1","","","","","","","","","","","","","[{""page_index"":0,""viewing_time"":2874}]","","","","","","","","","","","","","","","","","","","","","","","","","","","","","",""
"3980","","<p>Before you start with this game please answer the following three questions yourself. </p>
  <p>Through this game, we measure several aspects of your cognitive performance, such as reaction times, multi-tasking capabilities </p>
  <p>and the ability to assess the situation you are in.</p>
  <p></p>
  <p><b>How good do you usually are in such tasks?</b></p>","77","html-slider-response","6","1364938","0.0-4.0-0.0","236","1","2025-07-24 00:41:40","1f75c3e559b7213887762d5229550c2b","216.120.189.45","Mozilla/5.0 (Windows NT 10.0; Win64; x64) AppleWebKit/537.36 (KHTML, like Gecko) Chrome/138.0.0.0 Safari/537.36","WebKit","Chrome","138.0.0.0","Windows","10.0","null","en-US,en;q=0.9","673594215b1a0b92d5835525","683db9eb0562dbf637994deb","6880814108502a0057d8fc60","2","1","673594215b1a0b92d5835525","2","1","2025-07-24T01:04:31.226Z","","","","","","","","","","","PreSkillQ","","50","","","","","","","","","","","","","","","","","","","","","","","","","","","","",""
"9112","","<div style=""width:500px;"">
  <p>How well do you think you will perform in this task compared to other participants?</p>
  </div>","69","html-slider-response","7","1374051","0.0-4.0-1.0","236","1","2025-07-24 00:41:40","1f75c3e559b7213887762d5229550c2b","216.120.189.45","Mozilla/5.0 (Windows NT 10.0; Win64; x64) AppleWebKit/537.36 (KHTML, like Gecko) Chrome/138.0.0.0 Safari/537.36","WebKit","Chrome","138.0.0.0","Windows","10.0","null","en-US,en;q=0.9","673594215b1a0b92d5835525","683db9eb0562dbf637994deb","6880814108502a0057d8fc60","2","1","673594215b1a0b92d5835525","2","1","2025-07-24T01:04:40.339Z","","","","","","","","","","","PrePerfQ","","50","","","","","","","","","","","","","","","","","","","","","","","","","","","","",""
"7078","","<div style=""width:500px;"">
  <p>What best describes how you currently feel?</p>
  </div>","84","html-slider-response","8","1381130","0.0-4.0-2.0","236","1","2025-07-24 00:41:40","1f75c3e559b7213887762d5229550c2b","216.120.189.45","Mozilla/5.0 (Windows NT 10.0; Win64; x64) AppleWebKit/537.36 (KHTML, like Gecko) Chrome/138.0.0.0 Safari/537.36","WebKit","Chrome","138.0.0.0","Windows","10.0","null","en-US,en;q=0.9","673594215b1a0b92d5835525","683db9eb0562dbf637994deb","6880814108502a0057d8fc60","2","1","673594215b1a0b92d5835525","2","1","2025-07-24T01:04:47.418Z","","","","","","","","","","","PreMotivationQ","","50","","","","","","","","","","","","","","","","","","","","","","","","","","","","",""
"","","","","ctl-task-cpt","9","1923099","0.0-5.0-0.0","236","1","2025-07-24 00:41:40","1f75c3e559b7213887762d5229550c2b","216.120.189.45","Mozilla/5.0 (Windows NT 10.0; Win64; x64) AppleWebKit/537.36 (KHTML, like Gecko) Chrome/138.0.0.0 Safari/537.36","WebKit","Chrome","138.0.0.0","Windows","10.0","null","en-US,en;q=0.9","673594215b1a0b92d5835525","683db9eb0562dbf637994deb","6880814108502a0057d8fc60","2","1","673594215b1a0b92d5835525","2","1","2025-07-24T01:13:49.387Z","","","","","","","","","","","","","","win-only","0","g1:NW,g2:SE","1","1","0","1387778.3","517635.9","522641.8","538879.2","1","4","8","6","2","8","8","8","0","0.06060606060606061","1643.4","3000","910","[""down"",""right""]","{""num_key_presses"":6,""num_perfect"":6,""num_errors"":0,""num_randdir"":0,""num_randdir_good_moves"":0,""num_whilered"":0,""num_whileblue"":0,""num_blue"":0,""num_good_moves"":6}","[293.72232142857143,298.62857142857143,0.4,293.72232142857143,298.62857142857143,106.3,293.72232142857143,298.62857142857143,206.3,293.72232142857143,298.62857142857143,310.4,293.72232142857143,298.62857142857143,416.6,293.72232142857143,298.62857142857143,517,293.72232142857143,298.62857142857143,617.3,293.72232142857143,298.62857142857143,720.2,267.72232142857143,293.62857142857143,824.8,288.72232142857143,305.62857142857143,925.5,504.72232142857143,509.62857142857143,1025.9,504.72232142857143,509.62857142857143,1126.2,504.72232142857143,509.62857142857143,1233.4,543.7223214285714,533.6285714285714,1334,544.7223214285714,534.6285714285714,1434.1,544.7223214285714,534.6285714285714,1537.1,544.7223214285714,534.6285714285714,1638,544.7223214285714,534.6285714285714,1741.9,544.7223214285714,534.6285714285714,1849.7,544.7223214285714,534.6285714285714,1949.8,544.7223214285714,534.6285714285714,2049.9,544.7223214285714,534.6285714285714,2155.3,544.7223214285714,534.6285714285714,2255.4,544.7223214285714,534.6285714285714,2355.9,544.7223214285714,534.6285714285714,2460.2,544.7223214285714,534.6285714285714,2560.2,544.7223214285714,534.6285714285714,2660.4,544.7223214285714,534.6285714285714,2766.5,544.7223214285714,534.6285714285714,2870.4,544.7223214285714,534.6285714285714,2970.5,544.7223214285714,534.6285714285714,3075.1,544.7223214285714,534.6285714285714,3175.6,544.7223214285714,534.6285714285714,3282.9,544.7223214285714,534.6285714285714,3382.9,544.7223214285714,534.6285714285714,3483,544.7223214285714,534.6285714285714,3583,544.7223214285714,534.6285714285714,3684.5,544.7223214285714,534.6285714285714,3785.1,544.7223214285714,534.6285714285714,3890.3,544.7223214285714,534.6285714285714,3991,544.7223214285714,534.6285714285714,4091.1,544.7223214285714,534.6285714285714,4199.5,544.7223214285714,534.6285714285714,4299.6,544.7223214285714,534.6285714285714,4399.7,544.7223214285714,534.6285714285714,4499.7,544.7223214285714,534.6285714285714,4604.7,544.7223214285714,534.6285714285714,4705.8,544.7223214285714,534.6285714285714,4810.2,544.7223214285714,534.6285714285714,4916.2]","[1386.2,1386.2,1000,0,386.2,""smooth"",""down"",""down"",""good_move"",4560.9,3172.7,2756.2,1388.4,416.3,""smooth"",""down"",""down"",""good_move"",8303,3741.6,3390.9,4561.4,350.8,""smooth"",""right"",""right"",""good_move"",10598.1,2294.8,1759,8303.5,535.7,""smooth"",""right"",""right"",""good_move"",13147.6,2549.2,2221,10598.4,328.2,""smooth"",""down"",""down"",""good_move"",16143.7,2996,2580.3,13147.8,415.6,""smooth"",""right"",""right"",""good_move""]","",""
"11575","","<div style=""width:500px;"">
  <p>What determined the result of this run?</p>
  </div>","100","html-slider-response","10","1934676","0.0-5.0-1.0","236","1","2025-07-24 00:41:40","1f75c3e559b7213887762d5229550c2b","216.120.189.45","Mozilla/5.0 (Windows NT 10.0; Win64; x64) AppleWebKit/537.36 (KHTML, like Gecko) Chrome/138.0.0.0 Safari/537.36","WebKit","Chrome","138.0.0.0","Windows","10.0","null","en-US,en;q=0.9","673594215b1a0b92d5835525","683db9eb0562dbf637994deb","6880814108502a0057d8fc60","2","1","673594215b1a0b92d5835525","2","1","2025-07-24T01:14:00.964Z","","","","","","","","","","","AttribQ","","50","","","","","","","","","","","","","","","","","","","","","","","","","","","","",""
"26819","","<div style=""width:500px;"">
  <p>How much control did you have over the ball?</p>
  </div>","100","html-slider-response","11","1961504","0.0-5.0-2.0","236","1","2025-07-24 00:41:40","1f75c3e559b7213887762d5229550c2b","216.120.189.45","Mozilla/5.0 (Windows NT 10.0; Win64; x64) AppleWebKit/537.36 (KHTML, like Gecko) Chrome/138.0.0.0 Safari/537.36","WebKit","Chrome","138.0.0.0","Windows","10.0","null","en-US,en;q=0.9","673594215b1a0b92d5835525","683db9eb0562dbf637994deb","6880814108502a0057d8fc60","2","1","673594215b1a0b92d5835525","2","1","2025-07-24T01:14:27.792Z","","","","","","","","","","","ControlQ","","50","","","","","","","","","","","","","","","","","","","","","","","","","","","","",""
"5056","","<div style=""width:500px;"">
  <p>How would you describe your current emotional state?</p>
  </div>","0","html-slider-response","12","1966562","0.0-5.0-3.0","236","1","2025-07-24 00:41:40","1f75c3e559b7213887762d5229550c2b","216.120.189.45","Mozilla/5.0 (Windows NT 10.0; Win64; x64) AppleWebKit/537.36 (KHTML, like Gecko) Chrome/138.0.0.0 Safari/537.36","WebKit","Chrome","138.0.0.0","Windows","10.0","null","en-US,en;q=0.9","673594215b1a0b92d5835525","683db9eb0562dbf637994deb","6880814108502a0057d8fc60","2","1","673594215b1a0b92d5835525","2","1","2025-07-24T01:14:32.850Z","","","","","","","","","","","StressQ","","50","","","","","","","","","","","","","","","","","","","","","","","","","","","","",""
"88993","","<div style=""width:500px;"">
  <p>What best describes how you currently feel?</p>
  </div>","100","html-slider-response","13","2055566","0.0-5.0-4.0","236","1","2025-07-24 00:41:40","1f75c3e559b7213887762d5229550c2b","216.120.189.45","Mozilla/5.0 (Windows NT 10.0; Win64; x64) AppleWebKit/537.36 (KHTML, like Gecko) Chrome/138.0.0.0 Safari/537.36","WebKit","Chrome","138.0.0.0","Windows","10.0","null","en-US,en;q=0.9","673594215b1a0b92d5835525","683db9eb0562dbf637994deb","6880814108502a0057d8fc60","2","1","673594215b1a0b92d5835525","2","1","2025-07-24T01:16:01.854Z","","","","","","","","","","","MotivationQ","","50","","","","","","","","","","","","","","","","","","","","","","","","","","","","",""
"","","","","ctl-task-cpt","14","2093700","0.0-5.0-0.1","236","1","2025-07-24 00:41:40","1f75c3e559b7213887762d5229550c2b","216.120.189.45","Mozilla/5.0 (Windows NT 10.0; Win64; x64) AppleWebKit/537.36 (KHTML, like Gecko) Chrome/138.0.0.0 Safari/537.36","WebKit","Chrome","138.0.0.0","Windows","10.0","null","en-US,en;q=0.9","673594215b1a0b92d5835525","683db9eb0562dbf637994deb","6880814108502a0057d8fc60","2","1","673594215b1a0b92d5835525","2","1","2025-07-24T01:16:39.988Z","","","","","","","","","","","","","","win-only","1","g1:NE,g2:SW","0.9","2","0","2062116.4","1813.2","6816.4","35110.1","1","4","4","6","2","-4","-7","1","8","0.007575757575757576","1296","3000","-2495","[""down"",""left""]","{""num_key_presses"":8,""num_perfect"":4,""num_errors"":3,""num_randdir"":1,""num_randdir_good_moves"":0,""num_whilered"":0,""num_whileblue"":2,""num_blue"":3,""num_good_moves"":6}","[258.896875,256.303125,0.3,258.896875,256.303125,103.2,257.896875,255.303125,208.7,257.896875,255.303125,312.7,270.896875,245.303125,412.9,287.896875,229.303125,513.1,269.896875,248.303125,617.6,190.896875,364.303125,718.4,62.896875,468.303125,823.4,29.896875,506.303125,929.2,14.896875000000001,511.303125,1034.3,20.896875,492.303125,1137.6,30.896875,479.303125,1243.1,30.896875,479.303125,1343.1,30.896875,479.303125,1443.4,32.896875,478.303125,1548,43.896875,464.303125,1652.6,133.896875,407.303125,1753.2,218.896875,308.303125,1857.4,223.896875,288.303125,1957.6,229.896875,287.303125,2057.9,229.896875,287.303125,2163.2,239.896875,281.303125,2268,255.896875,272.303125,2372.6,256.896875,272.303125,2474.4,256.896875,272.303125,2578,256.896875,272.303125,2682.9,256.896875,272.303125,2784.2,258.896875,266.303125,2887.9,258.896875,266.303125,2988.3,261.896875,267.303125,3093.5,266.896875,269.303125,3197.6,274.896875,268.303125,3298.1,277.896875,268.303125,3398.1,272.896875,273.303125,3503,265.896875,287.303125,3607.2,263.896875,304.303125,3707.6,254.896875,320.303125,3812.3,254.896875,323.303125,3918.1,254.896875,323.303125,4018.4,254.896875,324.303125,4123.2,255.896875,324.303125,4227.7,256.896875,325.303125,4328.8,256.896875,325.303125,4432.6,259.896875,325.303125,4532.6,282.896875,310.303125,4637.6,295.896875,289.303125,4738.7,287.896875,280.303125,4855,283.896875,281.303125,4958.9]","[2298.4,2298.3,1000,0.1,1298.3,""oops"",""down"",""up"",""bad_move"",5386,3087,2685.1,2299.1,401.8,""smooth"",""left"",""left"",""good_move"",8156.1,2769.6,2153.4,5386.5,616.3,""smooth"",""down"",""down"",""good_move"",11223.9,3067.3,2707.2,8156.6,360.1,""while_blue"",""down"",""left"",""good_move"",14377.2,3153,2820.1,11224.3,332.8,""smooth"",""down"",""down"",""good_move"",17139.3,2762,2326,14377.4,436,""smooth"",""down"",""down"",""good_move"",22097.8,4958.2,2027.9,19744.9,325,""while_blue"",""left"",""down"",""good_move"",24148.4,2050.4,2774.8,22098,-724.4,""error"",""-"",""-"",""no_move""]","",""
"7785","","<div style=""width:500px;"">
  <p>What determined the result of this run?</p>
  </div>","100","html-slider-response","15","2101486","0.0-5.0-1.1","236","1","2025-07-24 00:41:40","1f75c3e559b7213887762d5229550c2b","216.120.189.45","Mozilla/5.0 (Windows NT 10.0; Win64; x64) AppleWebKit/537.36 (KHTML, like Gecko) Chrome/138.0.0.0 Safari/537.36","WebKit","Chrome","138.0.0.0","Windows","10.0","null","en-US,en;q=0.9","673594215b1a0b92d5835525","683db9eb0562dbf637994deb","6880814108502a0057d8fc60","2","1","673594215b1a0b92d5835525","2","1","2025-07-24T01:16:47.774Z","","","","","","","","","","","AttribQ","","50","","","","","","","","","","","","","","","","","","","","","","","","","","","","",""
"32000","","<div style=""width:500px;"">
  <p>How much control did you have over the ball?</p>
  </div>","100","html-slider-response","16","2133487","0.0-5.0-2.1","236","1","2025-07-24 00:41:40","1f75c3e559b7213887762d5229550c2b","216.120.189.45","Mozilla/5.0 (Windows NT 10.0; Win64; x64) AppleWebKit/537.36 (KHTML, like Gecko) Chrome/138.0.0.0 Safari/537.36","WebKit","Chrome","138.0.0.0","Windows","10.0","null","en-US,en;q=0.9","673594215b1a0b92d5835525","683db9eb0562dbf637994deb","6880814108502a0057d8fc60","2","1","673594215b1a0b92d5835525","2","1","2025-07-24T01:17:19.775Z","","","","","","","","","","","ControlQ","","50","","","","","","","","","","","","","","","","","","","","","","","","","","","","",""
"13349","","<div style=""width:500px;"">
  <p>How would you describe your current emotional state?</p>
  </div>","0","html-slider-response","17","2146847","0.0-5.0-3.1","236","1","2025-07-24 00:41:40","1f75c3e559b7213887762d5229550c2b","216.120.189.45","Mozilla/5.0 (Windows NT 10.0; Win64; x64) AppleWebKit/537.36 (KHTML, like Gecko) Chrome/138.0.0.0 Safari/537.36","WebKit","Chrome","138.0.0.0","Windows","10.0","null","en-US,en;q=0.9","673594215b1a0b92d5835525","683db9eb0562dbf637994deb","6880814108502a0057d8fc60","2","1","673594215b1a0b92d5835525","2","1","2025-07-24T01:17:33.135Z","","","","","","","","","","","StressQ","","50","","","","","","","","","","","","","","","","","","","","","","","","","","","","",""
"2983","","<div style=""width:500px;"">
  <p>What best describes how you currently feel?</p>
  </div>","100","html-slider-response","18","2149831","0.0-5.0-4.1","236","1","2025-07-24 00:41:40","1f75c3e559b7213887762d5229550c2b","216.120.189.45","Mozilla/5.0 (Windows NT 10.0; Win64; x64) AppleWebKit/537.36 (KHTML, like Gecko) Chrome/138.0.0.0 Safari/537.36","WebKit","Chrome","138.0.0.0","Windows","10.0","null","en-US,en;q=0.9","673594215b1a0b92d5835525","683db9eb0562dbf637994deb","6880814108502a0057d8fc60","2","1","673594215b1a0b92d5835525","2","1","2025-07-24T01:17:36.119Z","","","","","","","","","","","MotivationQ","","50","","","","","","","","","","","","","","","","","","","","","","","","","","","","",""
"","","","","ctl-task-cpt","19","2184375","0.0-5.0-0.2","236","1","2025-07-24 00:41:40","1f75c3e559b7213887762d5229550c2b","216.120.189.45","Mozilla/5.0 (Windows NT 10.0; Win64; x64) AppleWebKit/537.36 (KHTML, like Gecko) Chrome/138.0.0.0 Safari/537.36","WebKit","Chrome","138.0.0.0","Windows","10.0","null","en-US,en;q=0.9","673594215b1a0b92d5835525","683db9eb0562dbf637994deb","6880814108502a0057d8fc60","2","1","673594215b1a0b92d5835525","2","1","2025-07-24T01:18:10.663Z","","","","","","","","","","","","","","win-only","0","g1:NW,g2:SE","0.8","3","0","2156363.2","4038.8","9041.9","31525.6","1","4","8","6","2","-8","-8","0","1","0","1176.5","3000","-2995","[""down"",""right""]","{""num_key_presses"":7,""num_perfect"":6,""num_errors"":0,""num_randdir"":1,""num_randdir_good_moves"":0,""num_whilered"":0,""num_whileblue"":0,""num_blue"":0,""num_good_moves"":6}","[258.896875,259.303125,0.9,258.896875,259.303125,101.5,258.896875,259.303125,206.1,258.896875,259.303125,308.2,258.896875,259.303125,412.1,258.896875,259.303125,512.9,296.896875,300.303125,619.8,471.896875,431.303125,722.1,478.896875,447.303125,822.8,481.896875,456.303125,927.7,490.896875,471.303125,1032.3,490.896875,474.303125,1134.9,490.896875,474.303125,1237.3,490.896875,474.303125,1343,490.896875,474.303125,1447.4,481.896875,458.303125,1552.8,481.896875,457.303125,1656.5,479.896875,457.303125,1756.9,479.896875,457.303125,1857.3,479.896875,457.303125,1961.8,479.896875,457.303125,2062.7,479.896875,457.303125,2163.2,479.896875,457.303125,2268.1,479.896875,457.303125,2369,498.896875,458.303125,2470.6,943.896875,390.303125,2573.3,943.896875,202.303125,2676.5,943.896875,171.303125,2777.7,943.896875,171.303125,2883.3,943.896875,171.303125,2983.7,943.896875,171.303125,3087,943.896875,170.303125,3187.6,943.896875,170.303125,3292.2,943.896875,170.303125,3397.4,943.896875,170.303125,3497.8,943.896875,170.303125,3603.1,943.896875,170.303125,3706.6,943.896875,170.303125,3806.7,943.896875,170.303125,3906.9,943.896875,170.303125,4007.9,943.896875,170.303125,4113.1,943.896875,170.303125,4213.1,943.896875,170.303125,4318.2,943.896875,170.303125,4422,943.896875,170.303125,4522.2,943.896875,170.303125,4623.1,943.896875,170.303125,4723.1,943.896875,170.303125,4827.6,943.896875,170.303125,4933]","[1405.4,1405.4,1000,0,405.4,""smooth"",""down"",""down"",""good_move"",4528,3121.5,2706.2,1406.5,415.3,""smooth"",""right"",""right"",""good_move"",7182.9,2653.4,2264.6,4529.6,388.7,""oops"",""right"",""up"",""bad_move"",10559.6,3375.4,2947.4,7184.2,428,""smooth"",""down"",""down"",""good_move"",13982.7,3422.8,3082.7,10559.9,340.1,""smooth"",""down"",""down"",""good_move"",17022.2,3039.1,2414,13983.1,625.1,""smooth"",""down"",""down"",""good_move"",19846.6,2824.3,2511.4,17022.4,312.9,""smooth"",""right"",""right"",""good_move""]","",""
"14991","","<div style=""width:500px;"">
  <p>What determined the result of this run?</p>
  </div>","100","html-slider-response","20","2199367","0.0-5.0-1.2","236","1","2025-07-24 00:41:40","1f75c3e559b7213887762d5229550c2b","216.120.189.45","Mozilla/5.0 (Windows NT 10.0; Win64; x64) AppleWebKit/537.36 (KHTML, like Gecko) Chrome/138.0.0.0 Safari/537.36","WebKit","Chrome","138.0.0.0","Windows","10.0","null","en-US,en;q=0.9","673594215b1a0b92d5835525","683db9eb0562dbf637994deb","6880814108502a0057d8fc60","2","1","673594215b1a0b92d5835525","2","1","2025-07-24T01:18:25.655Z","","","","","","","","","","","AttribQ","","50","","","","","","","","","","","","","","","","","","","","","","","","","","","","",""
"10558","","<div style=""width:500px;"">
  <p>How much control did you have over the ball?</p>
  </div>","90","html-slider-response","21","2209935","0.0-5.0-2.2","236","1","2025-07-24 00:41:40","1f75c3e559b7213887762d5229550c2b","216.120.189.45","Mozilla/5.0 (Windows NT 10.0; Win64; x64) AppleWebKit/537.36 (KHTML, like Gecko) Chrome/138.0.0.0 Safari/537.36","WebKit","Chrome","138.0.0.0","Windows","10.0","null","en-US,en;q=0.9","673594215b1a0b92d5835525","683db9eb0562dbf637994deb","6880814108502a0057d8fc60","2","1","673594215b1a0b92d5835525","2","1","2025-07-24T01:18:36.224Z","","","","","","","","","","","ControlQ","","50","","","","","","","","","","","","","","","","","","","","","","","","","","","","",""
"5727","","<div style=""width:500px;"">
  <p>How would you describe your current emotional state?</p>
  </div>","0","html-slider-response","22","2215664","0.0-5.0-3.2","236","1","2025-07-24 00:41:40","1f75c3e559b7213887762d5229550c2b","216.120.189.45","Mozilla/5.0 (Windows NT 10.0; Win64; x64) AppleWebKit/537.36 (KHTML, like Gecko) Chrome/138.0.0.0 Safari/537.36","WebKit","Chrome","138.0.0.0","Windows","10.0","null","en-US,en;q=0.9","673594215b1a0b92d5835525","683db9eb0562dbf637994deb","6880814108502a0057d8fc60","2","1","673594215b1a0b92d5835525","2","1","2025-07-24T01:18:41.952Z","","","","","","","","","","","StressQ","","50","","","","","","","","","","","","","","","","","","","","","","","","","","","","",""
"24563","","<div style=""width:500px;"">
  <p>What best describes how you currently feel?</p>
  </div>","100","html-slider-response","23","2240229","0.0-5.0-4.2","236","1","2025-07-24 00:41:40","1f75c3e559b7213887762d5229550c2b","216.120.189.45","Mozilla/5.0 (Windows NT 10.0; Win64; x64) AppleWebKit/537.36 (KHTML, like Gecko) Chrome/138.0.0.0 Safari/537.36","WebKit","Chrome","138.0.0.0","Windows","10.0","null","en-US,en;q=0.9","673594215b1a0b92d5835525","683db9eb0562dbf637994deb","6880814108502a0057d8fc60","2","1","673594215b1a0b92d5835525","2","1","2025-07-24T01:19:06.517Z","","","","","","","","","","","MotivationQ","","50","","","","","","","","","","","","","","","","","","","","","","","","","","","","",""
"","","","","ctl-task-cpt","24","2273581","0.0-5.0-0.3","236","1","2025-07-24 00:41:40","1f75c3e559b7213887762d5229550c2b","216.120.189.45","Mozilla/5.0 (Windows NT 10.0; Win64; x64) AppleWebKit/537.36 (KHTML, like Gecko) Chrome/138.0.0.0 Safari/537.36","WebKit","Chrome","138.0.0.0","Windows","10.0","null","en-US,en;q=0.9","673594215b1a0b92d5835525","683db9eb0562dbf637994deb","6880814108502a0057d8fc60","2","1","673594215b1a0b92d5835525","2","1","2025-07-24T01:19:39.869Z","","","","","","","","","","","","","","win-only","2","g1:SE,g2:NW","0.7","4","0","2246753","1539","6545.4","30336.3","1","4","4","6","2","-4","-5","0","0","0","1222","3000","-2675","[""left"",""up""]","{""num_key_presses"":6,""num_perfect"":3,""num_errors"":1,""num_randdir"":2,""num_randdir_good_moves"":0,""num_whilered"":0,""num_whileblue"":1,""num_blue"":2,""num_good_moves"":3}","[265.896875,267.303125,0.5,265.896875,267.303125,101.6,265.896875,267.303125,201.8,265.896875,267.303125,307,332.896875,292.303125,409.4,363.896875,320.303125,511.7,358.896875,320.303125,612.4,321.896875,311.303125,717.2,166.896875,137.303125,831.1,111.896875,70.303125,935.9,60.896875,49.303125,1039,36.896875,40.303125,1139.7,36.896875,37.303125,1240.3,38.896875,37.303125,1342.5,73.896875,51.303125,1447.1,287.896875,135.303125,1548.2,328.896875,136.303125,1651.9,328.896875,136.303125,1752.4,328.896875,136.303125,1858.4,328.896875,136.303125,1960.3,328.896875,136.303125,2062,328.896875,136.303125,2166.2,328.896875,136.303125,2266.4,328.896875,136.303125,2367.2,328.896875,-56.696875,2476,328.896875,-56.696875,2576.9,328.896875,-56.696875,2690.6,328.896875,-56.696875,2791.7,328.896875,-56.696875,2897.8,328.896875,-56.696875,3001.5,328.896875,-56.696875,3102.1,328.896875,-56.696875,3211.7,328.896875,-56.696875,3312.9,328.896875,-56.696875,3417,328.896875,-56.696875,3518.1,328.896875,-56.696875,3622,328.896875,-56.696875,3722.4,328.896875,-56.696875,3825.3,328.896875,-56.696875,3926.9,328.896875,-56.696875,4027.6,328.896875,-56.696875,4142.6,328.896875,-56.696875,4243.1,328.896875,-56.696875,4358.9,328.896875,-56.696875,4459.1,328.896875,-56.696875,4562.9,328.896875,-56.696875,4666.6,328.896875,-56.696875,4768.5,328.896875,-56.696875,4875.6,328.896875,-56.696875,4975.8]","[1453.2,1453.2,1017.8,0,435.4,""while_blue"",""up"",""right"",""bad_move"",4745.2,3291.5,2221.6,1453.7,1069.9,""oops"",""up"",""right"",""bad_move"",7740.1,2994,2592.7,4746.2,401.3,""smooth"",""left"",""left"",""good_move"",11404.7,3660.1,3273.9,7744.7,386.1,""oops"",""left"",""right"",""bad_move"",14489,3082.9,2701.5,11406.1,381.4,""smooth"",""left"",""left"",""good_move"",20422.8,5933.1,2395.1,17651.3,376.4,""smooth"",""up"",""up"",""good_move""]","",""
"5791","","<div style=""width:500px;"">
  <p>What determined the result of this run?</p>
  </div>","100","html-slider-response","25","2279377","0.0-5.0-1.3","236","1","2025-07-24 00:41:40","1f75c3e559b7213887762d5229550c2b","216.120.189.45","Mozilla/5.0 (Windows NT 10.0; Win64; x64) AppleWebKit/537.36 (KHTML, like Gecko) Chrome/138.0.0.0 Safari/537.36","WebKit","Chrome","138.0.0.0","Windows","10.0","null","en-US,en;q=0.9","673594215b1a0b92d5835525","683db9eb0562dbf637994deb","6880814108502a0057d8fc60","2","1","673594215b1a0b92d5835525","2","1","2025-07-24T01:19:45.665Z","","","","","","","","","","","AttribQ","","50","","","","","","","","","","","","","","","","","","","","","","","","","","","","",""
"12630","","<div style=""width:500px;"">
  <p>How much control did you have over the ball?</p>
  </div>","39","html-slider-response","26","2292009","0.0-5.0-2.3","236","1","2025-07-24 00:41:40","1f75c3e559b7213887762d5229550c2b","216.120.189.45","Mozilla/5.0 (Windows NT 10.0; Win64; x64) AppleWebKit/537.36 (KHTML, like Gecko) Chrome/138.0.0.0 Safari/537.36","WebKit","Chrome","138.0.0.0","Windows","10.0","null","en-US,en;q=0.9","673594215b1a0b92d5835525","683db9eb0562dbf637994deb","6880814108502a0057d8fc60","2","1","673594215b1a0b92d5835525","2","1","2025-07-24T01:19:58.298Z","","","","","","","","","","","ControlQ","","50","","","","","","","","","","","","","","","","","","","","","","","","","","","","",""
"4685","","<div style=""width:500px;"">
  <p>How would you describe your current emotional state?</p>
  </div>","0","html-slider-response","27","2296696","0.0-5.0-3.3","236","1","2025-07-24 00:41:40","1f75c3e559b7213887762d5229550c2b","216.120.189.45","Mozilla/5.0 (Windows NT 10.0; Win64; x64) AppleWebKit/537.36 (KHTML, like Gecko) Chrome/138.0.0.0 Safari/537.36","WebKit","Chrome","138.0.0.0","Windows","10.0","null","en-US,en;q=0.9","673594215b1a0b92d5835525","683db9eb0562dbf637994deb","6880814108502a0057d8fc60","2","1","673594215b1a0b92d5835525","2","1","2025-07-24T01:20:02.984Z","","","","","","","","","","","StressQ","","50","","","","","","","","","","","","","","","","","","","","","","","","","","","","",""
"22015","","<div style=""width:500px;"">
  <p>What best describes how you currently feel?</p>
  </div>","100","html-slider-response","28","2318713","0.0-5.0-4.3","236","1","2025-07-24 00:41:40","1f75c3e559b7213887762d5229550c2b","216.120.189.45","Mozilla/5.0 (Windows NT 10.0; Win64; x64) AppleWebKit/537.36 (KHTML, like Gecko) Chrome/138.0.0.0 Safari/537.36","WebKit","Chrome","138.0.0.0","Windows","10.0","null","en-US,en;q=0.9","673594215b1a0b92d5835525","683db9eb0562dbf637994deb","6880814108502a0057d8fc60","2","1","673594215b1a0b92d5835525","2","1","2025-07-24T01:20:25.001Z","","","","","","","","","","","MotivationQ","","50","","","","","","","","","","","","","","","","","","","","","","","","","","","","",""
"","","","","ctl-task-cpt","29","2352496","0.0-5.0-0.4","236","1","2025-07-24 00:41:40","1f75c3e559b7213887762d5229550c2b","216.120.189.45","Mozilla/5.0 (Windows NT 10.0; Win64; x64) AppleWebKit/537.36 (KHTML, like Gecko) Chrome/138.0.0.0 Safari/537.36","WebKit","Chrome","138.0.0.0","Windows","10.0","null","en-US,en;q=0.9","673594215b1a0b92d5835525","683db9eb0562dbf637994deb","6880814108502a0057d8fc60","2","1","673594215b1a0b92d5835525","2","1","2025-07-24T01:20:58.784Z","","","","","","","","","","","","","","win-only","0","g1:NW,g2:SE","0.6","5","0","2325228.3","1490.8","6493.9","30756.6","1","4","8","6","2","-8","-9","0","0","0","1133.6","3000","-2920","[""down"",""right""]","{""num_key_presses"":8,""num_perfect"":4,""num_errors"":1,""num_randdir"":3,""num_randdir_good_moves"":1,""num_whilered"":0,""num_whileblue"":0,""num_blue"":0,""num_good_moves"":5}","[261.896875,261.303125,0.5,261.896875,261.303125,100.4,261.896875,261.303125,205.4,261.896875,261.303125,312.2,296.896875,295.303125,419.5,335.896875,319.303125,521.4,447.896875,401.303125,626.6,501.896875,436.303125,734.2,507.896875,448.303125,835.8,493.896875,461.303125,941.7,473.896875,476.303125,1048.3,473.896875,476.303125,1151.3,472.896875,476.303125,1261.6,483.896875,484.303125,1365.6,536.896875,498.303125,1470.7,536.896875,498.303125,1570.7,536.896875,498.303125,1679.1,536.896875,498.303125,1787.4,536.896875,498.303125,1895.2,536.896875,498.303125,2002,536.896875,498.303125,2104.7,536.896875,498.303125,2220.5,536.896875,498.303125,2322.6,536.896875,498.303125,2429.4,536.896875,498.303125,2531,536.896875,498.303125,2633.6,536.896875,498.303125,2737,536.896875,498.303125,2840.9,536.896875,498.303125,2941.6,536.896875,498.303125,3041.7,536.896875,498.303125,3143.6,536.896875,498.303125,3245.8,536.896875,498.303125,3345.8,536.896875,498.303125,3449.6,536.896875,498.303125,3551.5,536.896875,498.303125,3661.4,536.896875,498.303125,3763.9,536.896875,498.303125,3865.5,536.896875,498.303125,3971,536.896875,498.303125,4075.8,536.896875,498.303125,4179.8,536.896875,498.303125,4280.9,536.896875,498.303125,4385.3,536.896875,498.303125,4485.5,536.896875,498.303125,4591.5,536.896875,498.303125,4691.5,536.896875,498.303125,4794.5,536.896875,498.303125,4895.9]","[368,368,1000,0,-632,""error"",""-"",""-"",""no_move"",3997.4,3629.1,2169.7,1376.1,451.6,""smooth"",""down"",""down"",""good_move"",7111.6,3112.1,2570.3,3999.5,541.8,""oops"",""down"",""left"",""bad_move"",9988.2,2876,2382,7112.2,494,""oops"",""down"",""up"",""bad_move"",12772.2,2783.6,2354,9988.6,429.6,""oops"",""down"",""down"",""good_move"",15516.6,2743.8,2306.4,12772.8,437.4,""smooth"",""right"",""right"",""good_move"",18867.2,3350.2,3006.1,15517,344.1,""smooth"",""right"",""right"",""good_move"",21650,2782.5,2325,18867.5,457.5,""smooth"",""right"",""right"",""good_move""]","",""
"5519","","<div style=""width:500px;"">
  <p>What determined the result of this run?</p>
  </div>","100","html-slider-response","30","2358017","0.0-5.0-1.4","236","1","2025-07-24 00:41:40","1f75c3e559b7213887762d5229550c2b","216.120.189.45","Mozilla/5.0 (Windows NT 10.0; Win64; x64) AppleWebKit/537.36 (KHTML, like Gecko) Chrome/138.0.0.0 Safari/537.36","WebKit","Chrome","138.0.0.0","Windows","10.0","null","en-US,en;q=0.9","673594215b1a0b92d5835525","683db9eb0562dbf637994deb","6880814108502a0057d8fc60","2","1","673594215b1a0b92d5835525","2","1","2025-07-24T01:21:04.305Z","","","","","","","","","","","AttribQ","","50","","","","","","","","","","","","","","","","","","","","","","","","","","","","",""
"18608","","<div style=""width:500px;"">
  <p>How much control did you have over the ball?</p>
  </div>","51","html-slider-response","31","2376626","0.0-5.0-2.4","236","1","2025-07-24 00:41:40","1f75c3e559b7213887762d5229550c2b","216.120.189.45","Mozilla/5.0 (Windows NT 10.0; Win64; x64) AppleWebKit/537.36 (KHTML, like Gecko) Chrome/138.0.0.0 Safari/537.36","WebKit","Chrome","138.0.0.0","Windows","10.0","null","en-US,en;q=0.9","673594215b1a0b92d5835525","683db9eb0562dbf637994deb","6880814108502a0057d8fc60","2","1","673594215b1a0b92d5835525","2","1","2025-07-24T01:21:22.914Z","","","","","","","","","","","ControlQ","","50","","","","","","","","","","","","","","","","","","","","","","","","","","","","",""
"14454","","<div style=""width:500px;"">
  <p>How would you describe your current emotional state?</p>
  </div>","0","html-slider-response","32","2391089","0.0-5.0-3.4","236","1","2025-07-24 00:41:40","1f75c3e559b7213887762d5229550c2b","216.120.189.45","Mozilla/5.0 (Windows NT 10.0; Win64; x64) AppleWebKit/537.36 (KHTML, like Gecko) Chrome/138.0.0.0 Safari/537.36","WebKit","Chrome","138.0.0.0","Windows","10.0","null","en-US,en;q=0.9","673594215b1a0b92d5835525","683db9eb0562dbf637994deb","6880814108502a0057d8fc60","2","1","673594215b1a0b92d5835525","2","1","2025-07-24T01:21:37.378Z","","","","","","","","","","","StressQ","","50","","","","","","","","","","","","","","","","","","","","","","","","","","","","",""
"22252","","<div style=""width:500px;"">
  <p>What best describes how you currently feel?</p>
  </div>","100","html-slider-response","33","2413345","0.0-5.0-4.4","236","1","2025-07-24 00:41:40","1f75c3e559b7213887762d5229550c2b","216.120.189.45","Mozilla/5.0 (Windows NT 10.0; Win64; x64) AppleWebKit/537.36 (KHTML, like Gecko) Chrome/138.0.0.0 Safari/537.36","WebKit","Chrome","138.0.0.0","Windows","10.0","null","en-US,en;q=0.9","673594215b1a0b92d5835525","683db9eb0562dbf637994deb","6880814108502a0057d8fc60","2","1","673594215b1a0b92d5835525","2","1","2025-07-24T01:21:59.633Z","","","","","","","","","","","MotivationQ","","50","","","","","","","","","","","","","","","","","","","","","","","","","","","","",""
"","","","","ctl-task-cpt","34","2458740","0.0-5.0-0.5","236","1","2025-07-24 00:41:40","1f75c3e559b7213887762d5229550c2b","216.120.189.45","Mozilla/5.0 (Windows NT 10.0; Win64; x64) AppleWebKit/537.36 (KHTML, like Gecko) Chrome/138.0.0.0 Safari/537.36","WebKit","Chrome","138.0.0.0","Windows","10.0","null","en-US,en;q=0.9","673594215b1a0b92d5835525","683db9eb0562dbf637994deb","6880814108502a0057d8fc60","2","1","673594215b1a0b92d5835525","2","1","2025-07-24T01:22:45.028Z","","","","","","","","","","","","","","win-only","0","g1:NW,g2:SE","0.5","6","0","2419844.4","1886.1","6890.7","42368.6","1","4","4","6","2","4","4","4","0","0.030303030303030304","1209.1","3000","160","[""down"",""right""]","{""num_key_presses"":8,""num_perfect"":5,""num_errors"":0,""num_randdir"":3,""num_randdir_good_moves"":2,""num_whilered"":0,""num_whileblue"":0,""num_blue"":3,""num_good_moves"":7}","[266.896875,264.303125,0.6,266.896875,264.303125,102,266.896875,264.303125,204.6,266.896875,264.303125,311.3,301.896875,290.303125,415.1,377.896875,345.303125,517.3,377.896875,345.303125,619.7,378.896875,354.303125,723,415.896875,410.303125,825.1,463.896875,449.303125,929.4,487.896875,470.303125,1032,490.896875,476.303125,1137.3,492.896875,476.303125,1239.3,492.896875,476.303125,1343.7,492.896875,476.303125,1444.4,499.896875,478.303125,1551.3,502.896875,480.303125,1654.5,502.896875,480.303125,1755.3,502.896875,480.303125,1862.2,502.896875,480.303125,1963.6,502.896875,480.303125,2069.9,502.896875,480.303125,2171.1,502.896875,480.303125,2279.6,502.896875,480.303125,2387.9,502.896875,480.303125,2488.4,502.896875,480.303125,2592.5,502.896875,480.303125,2701.3,502.896875,480.303125,2804.4,502.896875,480.303125,2905.6,502.896875,480.303125,3006.1,502.896875,480.303125,3110.2,502.896875,480.303125,3211.1,502.896875,480.303125,3318.9,502.896875,480.303125,3419.2,502.896875,480.303125,3520.9,502.896875,480.303125,3627.6,502.896875,480.303125,3729.1,502.896875,480.303125,3829.3,502.896875,480.303125,3930,502.896875,480.303125,4031.8,502.896875,480.303125,4135,502.896875,480.303125,4240.3,502.896875,480.303125,4341,502.896875,480.303125,4450,502.896875,480.303125,4554.5,502.896875,480.303125,4655.1,502.896875,480.303125,4767.7,502.896875,480.303125,4869.5,502.896875,480.303125,4971.4]","[1344.7,1344.7,1000,0,344.7,""smooth"",""down"",""down"",""good_move"",7836,6490.8,2270.7,5129.9,435.4,""oops"",""down"",""up"",""bad_move"",11043.1,3206.6,2709.5,7836.5,497.1,""smooth"",""right"",""right"",""good_move"",17685.2,6640.4,2384.2,14800.3,500.7,""smooth"",""right"",""right"",""good_move"",21699.1,4013,3496.9,17686.3,516,""smooth"",""right"",""right"",""good_move"",28789.6,7089.9,2228.7,26126.5,434.4,""smooth"",""down"",""down"",""good_move"",32285.2,3495.1,3023.8,28790.1,471.3,""oops"",""down"",""down"",""good_move"",35372.8,3086.4,2728.6,32286.5,357.8,""oops"",""down"",""down"",""good_move""]","",""
"7361","","<div style=""width:500px;"">
  <p>What determined the result of this run?</p>
  </div>","100","html-slider-response","35","2466103","0.0-5.0-1.5","236","1","2025-07-24 00:41:40","1f75c3e559b7213887762d5229550c2b","216.120.189.45","Mozilla/5.0 (Windows NT 10.0; Win64; x64) AppleWebKit/537.36 (KHTML, like Gecko) Chrome/138.0.0.0 Safari/537.36","WebKit","Chrome","138.0.0.0","Windows","10.0","null","en-US,en;q=0.9","673594215b1a0b92d5835525","683db9eb0562dbf637994deb","6880814108502a0057d8fc60","2","1","673594215b1a0b92d5835525","2","1","2025-07-24T01:22:52.391Z","","","","","","","","","","","AttribQ","","50","","","","","","","","","","","","","","","","","","","","","","","","","","","","",""
"13158","","<div style=""width:500px;"">
  <p>How much control did you have over the ball?</p>
  </div>","56","html-slider-response","36","2479263","0.0-5.0-2.5","236","1","2025-07-24 00:41:40","1f75c3e559b7213887762d5229550c2b","216.120.189.45","Mozilla/5.0 (Windows NT 10.0; Win64; x64) AppleWebKit/537.36 (KHTML, like Gecko) Chrome/138.0.0.0 Safari/537.36","WebKit","Chrome","138.0.0.0","Windows","10.0","null","en-US,en;q=0.9","673594215b1a0b92d5835525","683db9eb0562dbf637994deb","6880814108502a0057d8fc60","2","1","673594215b1a0b92d5835525","2","1","2025-07-24T01:23:05.551Z","","","","","","","","","","","ControlQ","","50","","","","","","","","","","","","","","","","","","","","","","","","","","","","",""
"2678","","<div style=""width:500px;"">
  <p>How would you describe your current emotional state?</p>
  </div>","0","html-slider-response","37","2481943","0.0-5.0-3.5","236","1","2025-07-24 00:41:40","1f75c3e559b7213887762d5229550c2b","216.120.189.45","Mozilla/5.0 (Windows NT 10.0; Win64; x64) AppleWebKit/537.36 (KHTML, like Gecko) Chrome/138.0.0.0 Safari/537.36","WebKit","Chrome","138.0.0.0","Windows","10.0","null","en-US,en;q=0.9","673594215b1a0b92d5835525","683db9eb0562dbf637994deb","6880814108502a0057d8fc60","2","1","673594215b1a0b92d5835525","2","1","2025-07-24T01:23:08.231Z","","","","","","","","","","","StressQ","","50","","","","","","","","","","","","","","","","","","","","","","","","","","","","",""
"4102","","<div style=""width:500px;"">
  <p>What best describes how you currently feel?</p>
  </div>","100","html-slider-response","38","2486047","0.0-5.0-4.5","236","1","2025-07-24 00:41:40","1f75c3e559b7213887762d5229550c2b","216.120.189.45","Mozilla/5.0 (Windows NT 10.0; Win64; x64) AppleWebKit/537.36 (KHTML, like Gecko) Chrome/138.0.0.0 Safari/537.36","WebKit","Chrome","138.0.0.0","Windows","10.0","null","en-US,en;q=0.9","673594215b1a0b92d5835525","683db9eb0562dbf637994deb","6880814108502a0057d8fc60","2","1","673594215b1a0b92d5835525","2","1","2025-07-24T01:23:12.335Z","","","","","","","","","","","MotivationQ","","50","","","","","","","","","","","","","","","","","","","","","","","","","","","","",""
"","","","","ctl-task-cpt","39","2527319","0.0-5.0-0.6","236","1","2025-07-24 00:41:40","1f75c3e559b7213887762d5229550c2b","216.120.189.45","Mozilla/5.0 (Windows NT 10.0; Win64; x64) AppleWebKit/537.36 (KHTML, like Gecko) Chrome/138.0.0.0 Safari/537.36","WebKit","Chrome","138.0.0.0","Windows","10.0","null","en-US,en;q=0.9","673594215b1a0b92d5835525","683db9eb0562dbf637994deb","6880814108502a0057d8fc60","2","1","673594215b1a0b92d5835525","2","1","2025-07-24T01:23:53.608Z","","","","","","","","","","","","","","win-only","0","g1:NW,g2:SE","0.4","7","0","2492540.9","2183.2","7184.6","38236","1","4","4","6","2","-4","-4","0","4","0","1005.3","3000","-2310","[""down"",""right""]","{""num_key_presses"":8,""num_perfect"":2,""num_errors"":0,""num_randdir"":6,""num_randdir_good_moves"":3,""num_whilered"":0,""num_whileblue"":0,""num_blue"":1,""num_good_moves"":5}","[262.896875,257.303125,0.8,262.896875,257.303125,100,262.896875,257.303125,205.1,263.896875,258.303125,308.4,263.896875,285.303125,416.4,308.896875,345.303125,520.8,473.896875,436.303125,623.8,511.896875,477.303125,727.8,513.896875,490.303125,834.3,513.896875,490.303125,937.9,513.896875,490.303125,1038,513.896875,490.303125,1138.1,513.896875,490.303125,1244.6,513.896875,489.303125,1349.6,512.896875,489.303125,1461.4,508.896875,485.303125,1569.2,508.896875,485.303125,1673.5,508.896875,485.303125,1779.7,508.896875,485.303125,1884,508.896875,485.303125,1988.4,508.896875,485.303125,2090.6,508.896875,485.303125,2192.7,508.896875,485.303125,2292.7,508.896875,485.303125,2402.5,508.896875,485.303125,2506.6,508.896875,485.303125,2615.8,508.896875,485.303125,2717.6,508.896875,485.303125,2817.6,508.896875,485.303125,2918.7,508.896875,485.303125,3024.5,508.896875,485.303125,3130.1,508.896875,485.303125,3233,508.896875,485.303125,3339.2,508.896875,485.303125,3442.3,508.896875,485.303125,3546.2,508.896875,485.303125,3648.9,508.896875,485.303125,3754.4,508.896875,485.303125,3858.5,508.896875,485.303125,3959.5,508.896875,485.303125,4068.5,508.896875,485.303125,4168.5,508.896875,485.303125,4273,508.896875,485.303125,4377.6,508.896875,485.303125,4479.1,508.896875,485.303125,4582.8,508.896875,485.303125,4684.5,508.896875,485.303125,4788.2,508.896875,485.303125,4893.3]","[1340.6,1340.6,1000,0,340.6,""oops"",""down"",""down"",""good_move"",4252.2,2911.1,2490.9,1341.1,420.2,""oops"",""right"",""left"",""bad_move"",7015.4,2762.8,2345.2,4252.6,417.7,""oops"",""down"",""up"",""bad_move"",9845.4,2829,2410.1,7016.4,418.9,""oops"",""down"",""left"",""bad_move"",12867,3020.9,2616.3,9846.1,404.6,""oops"",""down"",""right"",""good_move"",16243.6,3374.6,2950.4,12869,424.2,""smooth"",""down"",""down"",""good_move"",23679.7,7434.5,3038.1,20157.1,484.5,""smooth"",""down"",""down"",""good_move"",27137.4,3457.3,3047.6,23680.1,409.7,""oops"",""down"",""down"",""good_move""]","",""
"5364","","<div style=""width:500px;"">
  <p>What determined the result of this run?</p>
  </div>","100","html-slider-response","40","2532686","0.0-5.0-1.6","236","1","2025-07-24 00:41:40","1f75c3e559b7213887762d5229550c2b","216.120.189.45","Mozilla/5.0 (Windows NT 10.0; Win64; x64) AppleWebKit/537.36 (KHTML, like Gecko) Chrome/138.0.0.0 Safari/537.36","WebKit","Chrome","138.0.0.0","Windows","10.0","null","en-US,en;q=0.9","673594215b1a0b92d5835525","683db9eb0562dbf637994deb","6880814108502a0057d8fc60","2","1","673594215b1a0b92d5835525","2","1","2025-07-24T01:23:58.974Z","","","","","","","","","","","AttribQ","","50","","","","","","","","","","","","","","","","","","","","","","","","","","","","",""
"6358","","<div style=""width:500px;"">
  <p>How much control did you have over the ball?</p>
  </div>","100","html-slider-response","41","2539045","0.0-5.0-2.6","236","1","2025-07-24 00:41:40","1f75c3e559b7213887762d5229550c2b","216.120.189.45","Mozilla/5.0 (Windows NT 10.0; Win64; x64) AppleWebKit/537.36 (KHTML, like Gecko) Chrome/138.0.0.0 Safari/537.36","WebKit","Chrome","138.0.0.0","Windows","10.0","null","en-US,en;q=0.9","673594215b1a0b92d5835525","683db9eb0562dbf637994deb","6880814108502a0057d8fc60","2","1","673594215b1a0b92d5835525","2","1","2025-07-24T01:24:05.333Z","","","","","","","","","","","ControlQ","","50","","","","","","","","","","","","","","","","","","","","","","","","","","","","",""
"12447","","<div style=""width:500px;"">
  <p>How would you describe your current emotional state?</p>
  </div>","0","html-slider-response","42","2551494","0.0-5.0-3.6","236","1","2025-07-24 00:41:40","1f75c3e559b7213887762d5229550c2b","216.120.189.45","Mozilla/5.0 (Windows NT 10.0; Win64; x64) AppleWebKit/537.36 (KHTML, like Gecko) Chrome/138.0.0.0 Safari/537.36","WebKit","Chrome","138.0.0.0","Windows","10.0","null","en-US,en;q=0.9","673594215b1a0b92d5835525","683db9eb0562dbf637994deb","6880814108502a0057d8fc60","2","1","673594215b1a0b92d5835525","2","1","2025-07-24T01:24:17.782Z","","","","","","","","","","","StressQ","","50","","","","","","","","","","","","","","","","","","","","","","","","","","","","",""
"5412","","<div style=""width:500px;"">
  <p>What best describes how you currently feel?</p>
  </div>","100","html-slider-response","43","2556909","0.0-5.0-4.6","236","1","2025-07-24 00:41:40","1f75c3e559b7213887762d5229550c2b","216.120.189.45","Mozilla/5.0 (Windows NT 10.0; Win64; x64) AppleWebKit/537.36 (KHTML, like Gecko) Chrome/138.0.0.0 Safari/537.36","WebKit","Chrome","138.0.0.0","Windows","10.0","null","en-US,en;q=0.9","673594215b1a0b92d5835525","683db9eb0562dbf637994deb","6880814108502a0057d8fc60","2","1","673594215b1a0b92d5835525","2","1","2025-07-24T01:24:23.197Z","","","","","","","","","","","MotivationQ","","50","","","","","","","","","","","","","","","","","","","","","","","","","","","","",""
"","","","","ctl-task-cpt","44","2586399","0.0-5.0-0.7","236","1","2025-07-24 00:41:40","1f75c3e559b7213887762d5229550c2b","216.120.189.45","Mozilla/5.0 (Windows NT 10.0; Win64; x64) AppleWebKit/537.36 (KHTML, like Gecko) Chrome/138.0.0.0 Safari/537.36","WebKit","Chrome","138.0.0.0","Windows","10.0","null","en-US,en;q=0.9","673594215b1a0b92d5835525","683db9eb0562dbf637994deb","6880814108502a0057d8fc60","2","1","673594215b1a0b92d5835525","2","1","2025-07-24T01:24:52.687Z","","","","","","","","","","","","","","win-only","0","g1:NW,g2:SE","0.3","8","0","2563395.5","1822.7","6828.5","26457.1","1","4","8","6","2","-8","-8","0","0","0","1200","3000","-2430","[""down"",""right""]","{""num_key_presses"":6,""num_perfect"":1,""num_errors"":0,""num_randdir"":5,""num_randdir_good_moves"":1,""num_whilered"":0,""num_whileblue"":0,""num_blue"":0,""num_good_moves"":2}","[262.896875,259.303125,0.2,262.896875,259.303125,103.3,262.896875,259.303125,204.3,262.896875,259.303125,308.4,275.896875,266.303125,408.7,285.896875,277.303125,508.9,295.896875,296.303125,614.9,385.896875,414.303125,718.8,403.896875,424.303125,822.2,408.896875,425.303125,923.3,472.896875,465.303125,1024,498.896875,476.303125,1127.9,498.896875,476.303125,1235.9,496.896875,476.303125,1341.6,496.896875,476.303125,1443.5,560.896875,485.303125,1545.5,595.896875,459.303125,1648.7,605.896875,455.303125,1753.9,605.896875,455.303125,1857.9,605.896875,455.303125,1959.2,605.896875,455.303125,2070,605.896875,455.303125,2172.9,605.896875,455.303125,2273.3,605.896875,455.303125,2375.3,605.896875,455.303125,2485.7,605.896875,455.303125,2596.2,605.896875,455.303125,2701.2,605.896875,455.303125,2803.9,605.896875,455.303125,2904.4,605.896875,455.303125,3009.3,605.896875,455.303125,3119,605.896875,455.303125,3220.2,605.896875,455.303125,3324.1,605.896875,455.303125,3424.4,605.896875,455.303125,3526.2,605.896875,455.303125,3633.6,605.896875,455.303125,3738.7,605.896875,455.303125,3839.4,605.896875,455.303125,3942.8,605.896875,455.303125,4047.9,605.896875,455.303125,4155.2,605.896875,455.303125,4258,605.896875,455.303125,4358.5,605.896875,455.303125,4459.9,605.896875,455.303125,4565,605.896875,455.303125,4668.7,605.896875,455.303125,4773.2,605.896875,455.303125,4874.6,605.896875,455.303125,4977.5]","[1559.1,1559.1,1000,0,559.1,""smooth"",""right"",""right"",""good_move"",4111.9,2551.8,2028.9,1560.1,522.9,""oops"",""right"",""left"",""bad_move"",7084.2,2971.9,2285.4,4112.3,686.5,""oops"",""right"",""left"",""bad_move"",10576.8,3491.8,3041.3,7085,450.5,""oops"",""right"",""right"",""good_move"",13228.5,2650.8,2154.1,10577.8,496.6,""oops"",""down"",""left"",""bad_move"",16260.9,3032.2,2560.7,13228.7,471.6,""oops"",""down"",""up"",""bad_move""]","",""
"224395","","<div style=""width:500px;"">
  <p>What determined the result of this run?</p>
  </div>","81","html-slider-response","45","2810822","0.0-5.0-1.7","236","1","2025-07-24 00:41:40","1f75c3e559b7213887762d5229550c2b","216.120.189.45","Mozilla/5.0 (Windows NT 10.0; Win64; x64) AppleWebKit/537.36 (KHTML, like Gecko) Chrome/138.0.0.0 Safari/537.36","WebKit","Chrome","138.0.0.0","Windows","10.0","null","en-US,en;q=0.9","673594215b1a0b92d5835525","683db9eb0562dbf637994deb","6880814108502a0057d8fc60","2","1","673594215b1a0b92d5835525","2","1","2025-07-24T01:28:37.111Z","","","","","","","","","","","AttribQ","","50","","","","","","","","","","","","","","","","","","","","","","","","","","","","",""
"14677","","<div style=""width:500px;"">
  <p>How much control did you have over the ball?</p>
  </div>","77","html-slider-response","46","2825502","0.0-5.0-2.7","236","1","2025-07-24 00:41:40","1f75c3e559b7213887762d5229550c2b","216.120.189.45","Mozilla/5.0 (Windows NT 10.0; Win64; x64) AppleWebKit/537.36 (KHTML, like Gecko) Chrome/138.0.0.0 Safari/537.36","WebKit","Chrome","138.0.0.0","Windows","10.0","null","en-US,en;q=0.9","673594215b1a0b92d5835525","683db9eb0562dbf637994deb","6880814108502a0057d8fc60","2","1","673594215b1a0b92d5835525","2","1","2025-07-24T01:28:51.791Z","","","","","","","","","","","ControlQ","","50","","","","","","","","","","","","","","","","","","","","","","","","","","","","",""
"8749","","<div style=""width:500px;"">
  <p>How would you describe your current emotional state?</p>
  </div>","0","html-slider-response","47","2834254","0.0-5.0-3.7","236","1","2025-07-24 00:41:40","1f75c3e559b7213887762d5229550c2b","216.120.189.45","Mozilla/5.0 (Windows NT 10.0; Win64; x64) AppleWebKit/537.36 (KHTML, like Gecko) Chrome/138.0.0.0 Safari/537.36","WebKit","Chrome","138.0.0.0","Windows","10.0","null","en-US,en;q=0.9","673594215b1a0b92d5835525","683db9eb0562dbf637994deb","6880814108502a0057d8fc60","2","1","673594215b1a0b92d5835525","2","1","2025-07-24T01:29:00.543Z","","","","","","","","","","","StressQ","","50","","","","","","","","","","","","","","","","","","","","","","","","","","","","",""
"75588","","<div style=""width:500px;"">
  <p>What best describes how you currently feel?</p>
  </div>","100","html-slider-response","48","2909853","0.0-5.0-4.7","236","1","2025-07-24 00:41:40","1f75c3e559b7213887762d5229550c2b","216.120.189.45","Mozilla/5.0 (Windows NT 10.0; Win64; x64) AppleWebKit/537.36 (KHTML, like Gecko) Chrome/138.0.0.0 Safari/537.36","WebKit","Chrome","138.0.0.0","Windows","10.0","null","en-US,en;q=0.9","673594215b1a0b92d5835525","683db9eb0562dbf637994deb","6880814108502a0057d8fc60","2","1","673594215b1a0b92d5835525","2","1","2025-07-24T01:30:16.142Z","","","","","","","","","","","MotivationQ","","50","","","","","","","","","","","","","","","","","","","","","","","","","","","","",""
"","","","","ctl-task-cpt","49","2953548","0.0-5.0-0.8","236","1","2025-07-24 00:41:40","1f75c3e559b7213887762d5229550c2b","216.120.189.45","Mozilla/5.0 (Windows NT 10.0; Win64; x64) AppleWebKit/537.36 (KHTML, like Gecko) Chrome/138.0.0.0 Safari/537.36","WebKit","Chrome","138.0.0.0","Windows","10.0","null","en-US,en;q=0.9","673594215b1a0b92d5835525","683db9eb0562dbf637994deb","6880814108502a0057d8fc60","2","1","673594215b1a0b92d5835525","2","1","2025-07-24T01:30:59.836Z","","","","","","","","","","","","","","win-only","1","g1:NE,g2:SW","0.2","9","0","2916301.7","2780.7","7782.4","40660.4","1","4","4","6","2","-4","-5","0","0","0","1226","3000","-2420","[""down"",""left""]","{""num_key_presses"":8,""num_perfect"":1,""num_errors"":1,""num_randdir"":6,""num_randdir_good_moves"":2,""num_whilered"":0,""num_whileblue"":0,""num_blue"":2,""num_good_moves"":3}","[259.896875,255.303125,0.4,259.896875,255.303125,101,259.896875,255.303125,202.6,259.896875,268.303125,302.6,272.896875,283.303125,406.7,264.896875,292.303125,507.2,189.896875,344.303125,607.9,117.896875,452.303125,708,102.896875,473.303125,811.2,93.896875,478.303125,921.3,76.896875,476.303125,1025.4,53.896875,468.303125,1125.9,55.896875,467.303125,1229.6,56.896875,467.303125,1330.2,66.896875,464.303125,1439.7,190.896875,472.303125,1544,391.896875,452.303125,1647.4,432.896875,432.303125,1756.5,432.896875,432.303125,1860.7,432.896875,432.303125,1970.7,432.896875,432.303125,2073.6,432.896875,432.303125,2173.6,432.896875,432.303125,2276.1,532.896875,423.303125,2379.8,537.896875,421.303125,2489.2,537.896875,421.303125,2590.7,537.896875,421.303125,2696.6,537.896875,421.303125,2806.4,537.896875,421.303125,2909.7,537.896875,421.303125,3012,537.896875,421.303125,3122.2,537.896875,421.303125,3226,537.896875,421.303125,3328.4,537.896875,421.303125,3430,537.896875,421.303125,3530.9,537.896875,421.303125,3636.1,537.896875,421.303125,3736.3,537.896875,421.303125,3843.1,537.896875,421.303125,3944.8,537.896875,421.303125,4046.3,537.896875,421.303125,4146.5,537.896875,421.303125,4250.7,537.896875,421.303125,4351.1,537.896875,421.303125,4453.1,537.896875,421.303125,4554.9,537.896875,421.303125,4662.9,537.896875,421.303125,4767.2,537.896875,421.303125,4870.9,537.896875,421.303125,4976]","[353,353.1,1000,0,-646.9,""error"",""-"",""-"",""no_move"",4308.1,3954.5,2465.6,1353.9,488.6,""oops"",""down"",""left"",""good_move"",6806.3,2497.5,1942.4,4308.8,555.1,""smooth"",""down"",""down"",""good_move"",13415.9,6608.6,2689.7,10283.1,443.1,""oops"",""down"",""up"",""bad_move"",16767.2,3350.5,2901.1,13416.7,449.4,""oops"",""left"",""right"",""bad_move"",19972.1,3204,2696.8,16768.1,507.2,""oops"",""down"",""up"",""bad_move"",26753.5,6780.7,2273.9,24038.6,441,""oops"",""down"",""left"",""good_move"",29539,2785.1,2072.4,26753.9,712.8,""oops"",""down"",""right"",""bad_move""]","",""
"4893","","<div style=""width:500px;"">
  <p>What determined the result of this run?</p>
  </div>","100","html-slider-response","50","2958443","0.0-5.0-1.8","236","1","2025-07-24 00:41:40","1f75c3e559b7213887762d5229550c2b","216.120.189.45","Mozilla/5.0 (Windows NT 10.0; Win64; x64) AppleWebKit/537.36 (KHTML, like Gecko) Chrome/138.0.0.0 Safari/537.36","WebKit","Chrome","138.0.0.0","Windows","10.0","null","en-US,en;q=0.9","673594215b1a0b92d5835525","683db9eb0562dbf637994deb","6880814108502a0057d8fc60","2","1","673594215b1a0b92d5835525","2","1","2025-07-24T01:31:04.731Z","","","","","","","","","","","AttribQ","","50","","","","","","","","","","","","","","","","","","","","","","","","","","","","",""
"19974","","<div style=""width:500px;"">
  <p>How much control did you have over the ball?</p>
  </div>","38","html-slider-response","51","2978419","0.0-5.0-2.8","236","1","2025-07-24 00:41:40","1f75c3e559b7213887762d5229550c2b","216.120.189.45","Mozilla/5.0 (Windows NT 10.0; Win64; x64) AppleWebKit/537.36 (KHTML, like Gecko) Chrome/138.0.0.0 Safari/537.36","WebKit","Chrome","138.0.0.0","Windows","10.0","null","en-US,en;q=0.9","673594215b1a0b92d5835525","683db9eb0562dbf637994deb","6880814108502a0057d8fc60","2","1","673594215b1a0b92d5835525","2","1","2025-07-24T01:31:24.707Z","","","","","","","","","","","ControlQ","","50","","","","","","","","","","","","","","","","","","","","","","","","","","","","",""
"31556","","<div style=""width:500px;"">
  <p>How would you describe your current emotional state?</p>
  </div>","0","html-slider-response","52","3009984","0.0-5.0-3.8","236","1","2025-07-24 00:41:40","1f75c3e559b7213887762d5229550c2b","216.120.189.45","Mozilla/5.0 (Windows NT 10.0; Win64; x64) AppleWebKit/537.36 (KHTML, like Gecko) Chrome/138.0.0.0 Safari/537.36","WebKit","Chrome","138.0.0.0","Windows","10.0","null","en-US,en;q=0.9","673594215b1a0b92d5835525","683db9eb0562dbf637994deb","6880814108502a0057d8fc60","2","1","673594215b1a0b92d5835525","2","1","2025-07-24T01:31:56.273Z","","","","","","","","","","","StressQ","","50","","","","","","","","","","","","","","","","","","","","","","","","","","","","",""
"3239","","<div style=""width:500px;"">
  <p>What best describes how you currently feel?</p>
  </div>","100","html-slider-response","53","3013225","0.0-5.0-4.8","236","1","2025-07-24 00:41:40","1f75c3e559b7213887762d5229550c2b","216.120.189.45","Mozilla/5.0 (Windows NT 10.0; Win64; x64) AppleWebKit/537.36 (KHTML, like Gecko) Chrome/138.0.0.0 Safari/537.36","WebKit","Chrome","138.0.0.0","Windows","10.0","null","en-US,en;q=0.9","673594215b1a0b92d5835525","683db9eb0562dbf637994deb","6880814108502a0057d8fc60","2","1","673594215b1a0b92d5835525","2","1","2025-07-24T01:31:59.513Z","","","","","","","","","","","MotivationQ","","50","","","","","","","","","","","","","","","","","","","","","","","","","","","","",""
"","","","","ctl-task-cpt","54","3059823","0.0-5.0-0.9","236","1","2025-07-24 00:41:40","1f75c3e559b7213887762d5229550c2b","216.120.189.45","Mozilla/5.0 (Windows NT 10.0; Win64; x64) AppleWebKit/537.36 (KHTML, like Gecko) Chrome/138.0.0.0 Safari/537.36","WebKit","Chrome","138.0.0.0","Windows","10.0","null","en-US,en;q=0.9","673594215b1a0b92d5835525","683db9eb0562dbf637994deb","6880814108502a0057d8fc60","2","1","673594215b1a0b92d5835525","2","1","2025-07-24T01:32:46.111Z","","","","","","","","","","","","","","win-only","1","g1:NE,g2:SW","0.4","10","0","3019659.6","14821.9","19825.5","43567.8","1","4","8","6","2","-8","-8","0","0","0","1200.7","3000","-2375","[""down"",""left""]","{""num_key_presses"":6,""num_perfect"":3,""num_errors"":0,""num_randdir"":3,""num_randdir_good_moves"":0,""num_whilered"":0,""num_whileblue"":0,""num_blue"":1,""num_good_moves"":3}","[260.896875,255.303125,0.3,260.896875,255.303125,100,260.896875,255.303125,202.3,259.896875,255.303125,310.9,262.896875,255.303125,414,278.896875,255.303125,517.5,279.896875,262.303125,620.2,185.896875,389.303125,722.5,129.896875,435.303125,822.6,92.896875,452.303125,922.7,61.896875,469.303125,1027,52.896875,470.303125,1134.2,56.896875,466.303125,1235.7,56.896875,466.303125,1337.5,56.896875,462.303125,1438.7,56.896875,462.303125,1540.5,74.896875,461.303125,1654.1,217.896875,449.303125,1757.3,311.896875,417.303125,1859.5,337.896875,409.303125,1961.9,446.896875,374.303125,2066.6,563.896875,311.303125,2168.3,562.896875,298.303125,2270.6,562.896875,298.303125,2374.2,562.896875,298.303125,2474.4,562.896875,298.303125,2574.9,562.896875,298.303125,2676.1,562.896875,298.303125,2784.5,562.896875,298.303125,2887.8,562.896875,298.303125,2991.6,562.896875,298.303125,3095.6,562.896875,298.303125,3205.4,562.896875,298.303125,3306.1,562.896875,298.303125,3406.4,562.896875,298.303125,3509.9,562.896875,298.303125,3618,562.896875,298.303125,3720.6,562.896875,298.303125,3822.3,562.896875,298.303125,3922.3,562.896875,298.303125,4023.7,562.896875,298.303125,4132,562.896875,298.303125,4236.5,562.896875,298.303125,4341.1,562.896875,298.303125,4445.7,562.896875,298.303125,4552.1,562.896875,298.303125,4656.1,562.896875,298.303125,4769.2,562.896875,298.303125,4871.8,562.896875,298.303125,4976.3]","[1465.5,1465.5,1000,0,465.5,""oops"",""down"",""up"",""bad_move"",4182,2716,2165.1,1466,550.9,""smooth"",""down"",""down"",""good_move"",7143.2,2959.7,2454.8,4183.5,504.9,""smooth"",""down"",""down"",""good_move"",14036.1,6892,2835.2,10751.9,449,""smooth"",""down"",""down"",""good_move"",16729.2,2692.8,2259.4,14036.4,433.4,""oops"",""down"",""up"",""bad_move"",19942.5,3211.6,2693.1,16731,518.5,""oops"",""left"",""up"",""bad_move""]","",""
"8607","","<div style=""width:500px;"">
  <p>What determined the result of this run?</p>
  </div>","66","html-slider-response","55","3068432","0.0-5.0-1.9","236","1","2025-07-24 00:41:40","1f75c3e559b7213887762d5229550c2b","216.120.189.45","Mozilla/5.0 (Windows NT 10.0; Win64; x64) AppleWebKit/537.36 (KHTML, like Gecko) Chrome/138.0.0.0 Safari/537.36","WebKit","Chrome","138.0.0.0","Windows","10.0","null","en-US,en;q=0.9","673594215b1a0b92d5835525","683db9eb0562dbf637994deb","6880814108502a0057d8fc60","2","1","673594215b1a0b92d5835525","2","1","2025-07-24T01:32:54.720Z","","","","","","","","","","","AttribQ","","50","","","","","","","","","","","","","","","","","","","","","","","","","","","","",""
"4372","","<div style=""width:500px;"">
  <p>How much control did you have over the ball?</p>
  </div>","47","html-slider-response","56","3072807","0.0-5.0-2.9","236","1","2025-07-24 00:41:40","1f75c3e559b7213887762d5229550c2b","216.120.189.45","Mozilla/5.0 (Windows NT 10.0; Win64; x64) AppleWebKit/537.36 (KHTML, like Gecko) Chrome/138.0.0.0 Safari/537.36","WebKit","Chrome","138.0.0.0","Windows","10.0","null","en-US,en;q=0.9","673594215b1a0b92d5835525","683db9eb0562dbf637994deb","6880814108502a0057d8fc60","2","1","673594215b1a0b92d5835525","2","1","2025-07-24T01:32:59.095Z","","","","","","","","","","","ControlQ","","50","","","","","","","","","","","","","","","","","","","","","","","","","","","","",""
"9910","","<div style=""width:500px;"">
  <p>How would you describe your current emotional state?</p>
  </div>","0","html-slider-response","57","3082719","0.0-5.0-3.9","236","1","2025-07-24 00:41:40","1f75c3e559b7213887762d5229550c2b","216.120.189.45","Mozilla/5.0 (Windows NT 10.0; Win64; x64) AppleWebKit/537.36 (KHTML, like Gecko) Chrome/138.0.0.0 Safari/537.36","WebKit","Chrome","138.0.0.0","Windows","10.0","null","en-US,en;q=0.9","673594215b1a0b92d5835525","683db9eb0562dbf637994deb","6880814108502a0057d8fc60","2","1","673594215b1a0b92d5835525","2","1","2025-07-24T01:33:09.008Z","","","","","","","","","","","StressQ","","50","","","","","","","","","","","","","","","","","","","","","","","","","","","","",""
"4900","","<div style=""width:500px;"">
  <p>What best describes how you currently feel?</p>
  </div>","100","html-slider-response","58","3087622","0.0-5.0-4.9","236","1","2025-07-24 00:41:40","1f75c3e559b7213887762d5229550c2b","216.120.189.45","Mozilla/5.0 (Windows NT 10.0; Win64; x64) AppleWebKit/537.36 (KHTML, like Gecko) Chrome/138.0.0.0 Safari/537.36","WebKit","Chrome","138.0.0.0","Windows","10.0","null","en-US,en;q=0.9","673594215b1a0b92d5835525","683db9eb0562dbf637994deb","6880814108502a0057d8fc60","2","1","673594215b1a0b92d5835525","2","1","2025-07-24T01:33:13.910Z","","","","","","","","","","","MotivationQ","","50","","","","","","","","","","","","","","","","","","","","","","","","","","","","",""
"","","","","ctl-task-cpt","59","3132911","0.0-5.0-0.10","236","1","2025-07-24 00:41:40","1f75c3e559b7213887762d5229550c2b","216.120.189.45","Mozilla/5.0 (Windows NT 10.0; Win64; x64) AppleWebKit/537.36 (KHTML, like Gecko) Chrome/138.0.0.0 Safari/537.36","WebKit","Chrome","138.0.0.0","Windows","10.0","null","en-US,en;q=0.9","673594215b1a0b92d5835525","683db9eb0562dbf637994deb","6880814108502a0057d8fc60","2","1","673594215b1a0b92d5835525","2","1","2025-07-24T01:33:59.199Z","","","","","","","","","","","","","","win-only","1","g1:NE,g2:SW","0.5","11","0","3094050","2191.4","7197.9","42266.5","1","4","8","6","2","-8","-8","0","0","0","1433.7","3000","-2315","[""down"",""left""]","{""num_key_presses"":8,""num_perfect"":4,""num_errors"":0,""num_randdir"":4,""num_randdir_good_moves"":1,""num_whilered"":0,""num_whileblue"":0,""num_blue"":3,""num_good_moves"":5}","[267.896875,264.303125,0.5,267.896875,264.303125,108.7,267.896875,264.303125,210.2,266.896875,264.303125,317.4,265.896875,259.303125,424.8,265.896875,255.303125,527.2,256.896875,274.303125,627.7,192.896875,355.303125,729.7,136.896875,419.303125,836.8,106.896875,439.303125,939.9,100.896875,456.303125,1042.4,93.896875,468.303125,1146.7,73.896875,475.303125,1258.9,64.896875,478.303125,1361.8,62.896875,479.303125,1468.2,62.896875,479.303125,1571.2,63.896875,477.303125,1671.8,100.896875,472.303125,1773.1,324.896875,480.303125,1876.5,485.896875,510.303125,1978.7,582.896875,483.303125,2087.3,585.896875,413.303125,2194.6,542.896875,371.303125,2295.1,542.896875,370.303125,2402.7,542.896875,370.303125,2508,538.896875,370.303125,2612.1,536.896875,370.303125,2723.7,536.896875,370.303125,2826.6,534.896875,370.303125,2929.5,534.896875,370.303125,3030.2,534.896875,370.303125,3135.4,534.896875,370.303125,3237.2,534.896875,370.303125,3340.7,534.896875,370.303125,3444.5,534.896875,370.303125,3544.8,534.896875,370.303125,3647.5,534.896875,370.303125,3755,534.896875,370.303125,3856.5,534.896875,370.303125,3957.6,534.896875,370.303125,4058.2,534.896875,370.303125,4160,534.896875,370.303125,4261.4,534.896875,370.303125,4373.8,534.896875,370.303125,4476.9,534.896875,370.303125,4582.9,534.896875,370.303125,4688.5,534.896875,370.303125,4791.2,534.896875,370.303125,4893.4,534.896875,370.303125,4995.4]","[9368.1,9368.1,2995.3,5901.8,471,""smooth"",""down"",""down"",""good_move"",12706.7,3337,2849.5,9369.8,487.5,""oops"",""down"",""up"",""bad_move"",18431.8,5722,1688,16234.8,509.1,""oops"",""down"",""up"",""bad_move"",20649.1,2216.7,1725.5,18432.4,491.2,""oops"",""down"",""down"",""good_move"",23704.3,3054.4,2582.8,20649.9,471.6,""smooth"",""left"",""left"",""good_move"",26845,3139.2,2708.3,23705.8,430.9,""smooth"",""left"",""left"",""good_move"",29279.7,2434,1872,26845.7,562,""oops"",""left"",""right"",""bad_move"",31915.4,2634.7,2133.2,29280.7,501.5,""smooth"",""down"",""down"",""good_move""]","",""
"12060","","<div style=""width:500px;"">
  <p>What determined the result of this run?</p>
  </div>","68","html-slider-response","60","3144974","0.0-5.0-1.10","236","1","2025-07-24 00:41:40","1f75c3e559b7213887762d5229550c2b","216.120.189.45","Mozilla/5.0 (Windows NT 10.0; Win64; x64) AppleWebKit/537.36 (KHTML, like Gecko) Chrome/138.0.0.0 Safari/537.36","WebKit","Chrome","138.0.0.0","Windows","10.0","null","en-US,en;q=0.9","673594215b1a0b92d5835525","683db9eb0562dbf637994deb","6880814108502a0057d8fc60","2","1","673594215b1a0b92d5835525","2","1","2025-07-24T01:34:11.263Z","","","","","","","","","","","AttribQ","","50","","","","","","","","","","","","","","","","","","","","","","","","","","","","",""
"3636","","<div style=""width:500px;"">
  <p>How much control did you have over the ball?</p>
  </div>","69","html-slider-response","61","3148613","0.0-5.0-2.10","236","1","2025-07-24 00:41:40","1f75c3e559b7213887762d5229550c2b","216.120.189.45","Mozilla/5.0 (Windows NT 10.0; Win64; x64) AppleWebKit/537.36 (KHTML, like Gecko) Chrome/138.0.0.0 Safari/537.36","WebKit","Chrome","138.0.0.0","Windows","10.0","null","en-US,en;q=0.9","673594215b1a0b92d5835525","683db9eb0562dbf637994deb","6880814108502a0057d8fc60","2","1","673594215b1a0b92d5835525","2","1","2025-07-24T01:34:14.901Z","","","","","","","","","","","ControlQ","","50","","","","","","","","","","","","","","","","","","","","","","","","","","","","",""
"4007","","<div style=""width:500px;"">
  <p>How would you describe your current emotional state?</p>
  </div>","0","html-slider-response","62","3152621","0.0-5.0-3.10","236","1","2025-07-24 00:41:40","1f75c3e559b7213887762d5229550c2b","216.120.189.45","Mozilla/5.0 (Windows NT 10.0; Win64; x64) AppleWebKit/537.36 (KHTML, like Gecko) Chrome/138.0.0.0 Safari/537.36","WebKit","Chrome","138.0.0.0","Windows","10.0","null","en-US,en;q=0.9","673594215b1a0b92d5835525","683db9eb0562dbf637994deb","6880814108502a0057d8fc60","2","1","673594215b1a0b92d5835525","2","1","2025-07-24T01:34:18.910Z","","","","","","","","","","","StressQ","","50","","","","","","","","","","","","","","","","","","","","","","","","","","","","",""
"4070","","<div style=""width:500px;"">
  <p>What best describes how you currently feel?</p>
  </div>","100","html-slider-response","63","3156693","0.0-5.0-4.10","236","1","2025-07-24 00:41:40","1f75c3e559b7213887762d5229550c2b","216.120.189.45","Mozilla/5.0 (Windows NT 10.0; Win64; x64) AppleWebKit/537.36 (KHTML, like Gecko) Chrome/138.0.0.0 Safari/537.36","WebKit","Chrome","138.0.0.0","Windows","10.0","null","en-US,en;q=0.9","673594215b1a0b92d5835525","683db9eb0562dbf637994deb","6880814108502a0057d8fc60","2","1","673594215b1a0b92d5835525","2","1","2025-07-24T01:34:22.981Z","","","","","","","","","","","MotivationQ","","50","","","","","","","","","","","","","","","","","","","","","","","","","","","","",""
"","","","","ctl-task-cpt","64","3195619","0.0-5.0-0.11","236","1","2025-07-24 00:41:40","1f75c3e559b7213887762d5229550c2b","216.120.189.45","Mozilla/5.0 (Windows NT 10.0; Win64; x64) AppleWebKit/537.36 (KHTML, like Gecko) Chrome/138.0.0.0 Safari/537.36","WebKit","Chrome","138.0.0.0","Windows","10.0","null","en-US,en;q=0.9","673594215b1a0b92d5835525","683db9eb0562dbf637994deb","6880814108502a0057d8fc60","2","1","673594215b1a0b92d5835525","2","1","2025-07-24T01:35:01.907Z","","","","","","","","","","","","","","win-only","0","g1:NW,g2:SE","0.6","12","0","3163114.3","4720","9722.3","35902.4","1","4","4","6","2","4","4","4","0","0.030303030303030304","1079.2","3000","365","[""down"",""right""]","{""num_key_presses"":8,""num_perfect"":5,""num_errors"":0,""num_randdir"":3,""num_randdir_good_moves"":2,""num_whilered"":0,""num_whileblue"":0,""num_blue"":1,""num_good_moves"":7}","[260.896875,261.303125,0.3,260.896875,261.303125,105.9,260.896875,261.303125,206.5,260.896875,261.303125,312.3,261.896875,264.303125,414.9,298.896875,293.303125,516.3,348.896875,334.303125,618.6,440.896875,420.303125,719.3,453.896875,443.303125,826.8,458.896875,462.303125,928.6,460.896875,465.303125,1032.8,460.896875,465.303125,1138.8,460.896875,465.303125,1244,466.896875,477.303125,1349.8,524.896875,515.303125,1456.2,532.896875,521.303125,1560.5,532.896875,521.303125,1665.5,532.896875,521.303125,1769.7,532.896875,521.303125,1872,532.896875,521.303125,1974.1,532.896875,521.303125,2080.7,532.896875,521.303125,2188.9,532.896875,521.303125,2293.2,532.896875,521.303125,2397.6,532.896875,521.303125,2498.3,532.896875,521.303125,2600.8,532.896875,521.303125,2709,532.896875,521.303125,2811.9,532.896875,521.303125,2912.9,532.896875,521.303125,3015.5,532.896875,521.303125,3119.8,532.896875,521.303125,3222,532.896875,521.303125,3332,532.896875,521.303125,3432.2,532.896875,521.303125,3534.9,532.896875,521.303125,3637.3,532.896875,521.303125,3738.6,532.896875,521.303125,3843.1,532.896875,521.303125,3943.1,532.896875,521.303125,4047.8,532.896875,521.303125,4161.1,532.896875,521.303125,4262.8,532.896875,521.303125,4365,532.896875,521.303125,4465.4,532.896875,521.303125,4567.5,532.896875,521.303125,4676.9,532.896875,521.303125,4779.7,532.896875,521.303125,4881.2,532.896875,521.303125,4986.2]","[1419.5,1419.5,1000,0,419.5,""oops"",""down"",""down"",""good_move"",4684,3262.9,2781.6,1421.1,481.3,""smooth"",""right"",""right"",""good_move"",7918,3232.8,2747.1,4685.2,485.7,""smooth"",""right"",""right"",""good_move"",11293.7,3374.6,2896.9,7919.3,477.6,""oops"",""right"",""right"",""good_move"",13907,2612.9,2158.8,11294.1,454.1,""oops"",""down"",""left"",""bad_move"",17193.7,3285.3,2746.4,13908.4,538.9,""smooth"",""down"",""down"",""good_move"",23457.3,6263.1,2371.5,20594.9,490.9,""smooth"",""down"",""down"",""good_move"",26050.6,2592.5,2143.1,23458.2,449.4,""smooth"",""right"",""right"",""good_move""]","",""
"5479","","<div style=""width:500px;"">
  <p>What determined the result of this run?</p>
  </div>","88","html-slider-response","65","3201100","0.0-5.0-1.11","236","1","2025-07-24 00:41:40","1f75c3e559b7213887762d5229550c2b","216.120.189.45","Mozilla/5.0 (Windows NT 10.0; Win64; x64) AppleWebKit/537.36 (KHTML, like Gecko) Chrome/138.0.0.0 Safari/537.36","WebKit","Chrome","138.0.0.0","Windows","10.0","null","en-US,en;q=0.9","673594215b1a0b92d5835525","683db9eb0562dbf637994deb","6880814108502a0057d8fc60","2","1","673594215b1a0b92d5835525","2","1","2025-07-24T01:35:07.389Z","","","","","","","","","","","AttribQ","","50","","","","","","","","","","","","","","","","","","","","","","","","","","","","",""
"6861","","<div style=""width:500px;"">
  <p>How much control did you have over the ball?</p>
  </div>","73","html-slider-response","66","3207965","0.0-5.0-2.11","236","1","2025-07-24 00:41:40","1f75c3e559b7213887762d5229550c2b","216.120.189.45","Mozilla/5.0 (Windows NT 10.0; Win64; x64) AppleWebKit/537.36 (KHTML, like Gecko) Chrome/138.0.0.0 Safari/537.36","WebKit","Chrome","138.0.0.0","Windows","10.0","null","en-US,en;q=0.9","673594215b1a0b92d5835525","683db9eb0562dbf637994deb","6880814108502a0057d8fc60","2","1","673594215b1a0b92d5835525","2","1","2025-07-24T01:35:14.253Z","","","","","","","","","","","ControlQ","","50","","","","","","","","","","","","","","","","","","","","","","","","","","","","",""
"4923","","<div style=""width:500px;"">
  <p>How would you describe your current emotional state?</p>
  </div>","0","html-slider-response","67","3212891","0.0-5.0-3.11","236","1","2025-07-24 00:41:40","1f75c3e559b7213887762d5229550c2b","216.120.189.45","Mozilla/5.0 (Windows NT 10.0; Win64; x64) AppleWebKit/537.36 (KHTML, like Gecko) Chrome/138.0.0.0 Safari/537.36","WebKit","Chrome","138.0.0.0","Windows","10.0","null","en-US,en;q=0.9","673594215b1a0b92d5835525","683db9eb0562dbf637994deb","6880814108502a0057d8fc60","2","1","673594215b1a0b92d5835525","2","1","2025-07-24T01:35:19.180Z","","","","","","","","","","","StressQ","","50","","","","","","","","","","","","","","","","","","","","","","","","","","","","",""
"6862","","<div style=""width:500px;"">
  <p>What best describes how you currently feel?</p>
  </div>","100","html-slider-response","68","3219755","0.0-5.0-4.11","236","1","2025-07-24 00:41:40","1f75c3e559b7213887762d5229550c2b","216.120.189.45","Mozilla/5.0 (Windows NT 10.0; Win64; x64) AppleWebKit/537.36 (KHTML, like Gecko) Chrome/138.0.0.0 Safari/537.36","WebKit","Chrome","138.0.0.0","Windows","10.0","null","en-US,en;q=0.9","673594215b1a0b92d5835525","683db9eb0562dbf637994deb","6880814108502a0057d8fc60","2","1","673594215b1a0b92d5835525","2","1","2025-07-24T01:35:26.043Z","","","","","","","","","","","MotivationQ","","50","","","","","","","","","","","","","","","","","","","","","","","","","","","","",""
"","","","","ctl-task-cpt","69","3266954","0.0-5.0-0.12","236","1","2025-07-24 00:41:40","1f75c3e559b7213887762d5229550c2b","216.120.189.45","Mozilla/5.0 (Windows NT 10.0; Win64; x64) AppleWebKit/537.36 (KHTML, like Gecko) Chrome/138.0.0.0 Safari/537.36","WebKit","Chrome","138.0.0.0","Windows","10.0","null","en-US,en;q=0.9","673594215b1a0b92d5835525","683db9eb0562dbf637994deb","6880814108502a0057d8fc60","2","1","673594215b1a0b92d5835525","2","1","2025-07-24T01:36:13.242Z","","","","","","","","","","","","","","win-only","0","g1:NW,g2:SE","0.7","13","0","3226170.9","1702.1","6705.6","44173","1","4","8","6","2","8","7","11","4","0.08333333333333333","1200.6","3000","1230","[""down"",""right""]","{""num_key_presses"":7,""num_perfect"":4,""num_errors"":1,""num_randdir"":2,""num_randdir_good_moves"":2,""num_whilered"":0,""num_whileblue"":0,""num_blue"":5,""num_good_moves"":6}","[264.896875,266.303125,0.2,264.896875,266.303125,119.1,264.896875,266.303125,223.8,276.896875,272.303125,347.9,369.896875,307.303125,464,383.896875,323.303125,578.2,432.896875,375.303125,689.1,474.896875,424.303125,799.6,487.896875,448.303125,912.3,472.896875,461.303125,1021.6,462.896875,467.303125,1130.3,462.896875,467.303125,1240.3,462.896875,468.303125,1346.8,459.896875,469.303125,1455.6,464.896875,466.303125,1565.6,528.896875,484.303125,1680.2,649.896875,506.303125,1792.6,634.896875,482.303125,1905.8,626.896875,445.303125,2017.8,626.896875,433.303125,2124.7,626.896875,433.303125,2234.5,626.896875,433.303125,2343.7,626.896875,433.303125,2450.3,626.896875,433.303125,2558.1,626.896875,433.303125,2666.3,626.896875,433.303125,2777.8,626.896875,433.303125,2887.8,626.896875,433.303125,2994.3,626.896875,433.303125,3107.5,626.896875,433.303125,3222.4,626.896875,433.303125,3324.5,626.896875,433.303125,3432.7,626.896875,433.303125,3540.3,626.896875,433.303125,3641,626.896875,433.303125,3746.2,626.896875,433.303125,3846.6,626.896875,433.303125,3951.3,626.896875,433.303125,4052,626.896875,433.303125,4155.1,626.896875,433.303125,4255.6,626.896875,433.303125,4360.4,626.896875,433.303125,4466.1,626.896875,433.303125,4566.7,626.896875,433.303125,4669.1,626.896875,433.303125,4774.2,626.896875,433.303125,4874.2,626.896875,433.303125,4983.1]","[579.1,579.1,1000,0,-420.9,""error"",""-"",""-"",""no_move"",4588.8,4009.4,2594.8,1584.7,409.4,""smooth"",""down"",""down"",""good_move"",7263.4,2671.6,2170.3,4591.8,501.3,""smooth"",""down"",""down"",""good_move"",14325.8,7061.3,3014.7,10797.4,513.7,""oops"",""down"",""right"",""good_move"",22672,8345.7,2404.4,19814.5,453.2,""smooth"",""down"",""down"",""good_move"",26185.8,3512.6,3067.1,22673.2,445.5,""oops"",""right"",""right"",""good_move"",37335.3,11148.5,2409.1,34383.8,542.4,""smooth"",""right"",""right"",""good_move""]","",""
"8916","","<div style=""width:500px;"">
  <p>What determined the result of this run?</p>
  </div>","98","html-slider-response","70","3275874","0.0-5.0-1.12","236","1","2025-07-24 00:41:40","1f75c3e559b7213887762d5229550c2b","216.120.189.45","Mozilla/5.0 (Windows NT 10.0; Win64; x64) AppleWebKit/537.36 (KHTML, like Gecko) Chrome/138.0.0.0 Safari/537.36","WebKit","Chrome","138.0.0.0","Windows","10.0","null","en-US,en;q=0.9","673594215b1a0b92d5835525","683db9eb0562dbf637994deb","6880814108502a0057d8fc60","2","1","673594215b1a0b92d5835525","2","1","2025-07-24T01:36:22.162Z","","","","","","","","","","","AttribQ","","50","","","","","","","","","","","","","","","","","","","","","","","","","","","","",""
"23845","","<div style=""width:500px;"">
  <p>How much control did you have over the ball?</p>
  </div>","96","html-slider-response","71","3299728","0.0-5.0-2.12","236","1","2025-07-24 00:41:40","1f75c3e559b7213887762d5229550c2b","216.120.189.45","Mozilla/5.0 (Windows NT 10.0; Win64; x64) AppleWebKit/537.36 (KHTML, like Gecko) Chrome/138.0.0.0 Safari/537.36","WebKit","Chrome","138.0.0.0","Windows","10.0","null","en-US,en;q=0.9","673594215b1a0b92d5835525","683db9eb0562dbf637994deb","6880814108502a0057d8fc60","2","1","673594215b1a0b92d5835525","2","1","2025-07-24T01:36:46.017Z","","","","","","","","","","","ControlQ","","50","","","","","","","","","","","","","","","","","","","","","","","","","","","","",""
"3421","","<div style=""width:500px;"">
  <p>How would you describe your current emotional state?</p>
  </div>","0","html-slider-response","72","3303152","0.0-5.0-3.12","236","1","2025-07-24 00:41:40","1f75c3e559b7213887762d5229550c2b","216.120.189.45","Mozilla/5.0 (Windows NT 10.0; Win64; x64) AppleWebKit/537.36 (KHTML, like Gecko) Chrome/138.0.0.0 Safari/537.36","WebKit","Chrome","138.0.0.0","Windows","10.0","null","en-US,en;q=0.9","673594215b1a0b92d5835525","683db9eb0562dbf637994deb","6880814108502a0057d8fc60","2","1","673594215b1a0b92d5835525","2","1","2025-07-24T01:36:49.440Z","","","","","","","","","","","StressQ","","50","","","","","","","","","","","","","","","","","","","","","","","","","","","","",""
"3966","","<div style=""width:500px;"">
  <p>What best describes how you currently feel?</p>
  </div>","100","html-slider-response","73","3307120","0.0-5.0-4.12","236","1","2025-07-24 00:41:40","1f75c3e559b7213887762d5229550c2b","216.120.189.45","Mozilla/5.0 (Windows NT 10.0; Win64; x64) AppleWebKit/537.36 (KHTML, like Gecko) Chrome/138.0.0.0 Safari/537.36","WebKit","Chrome","138.0.0.0","Windows","10.0","null","en-US,en;q=0.9","673594215b1a0b92d5835525","683db9eb0562dbf637994deb","6880814108502a0057d8fc60","2","1","673594215b1a0b92d5835525","2","1","2025-07-24T01:36:53.408Z","","","","","","","","","","","MotivationQ","","50","","","","","","","","","","","","","","","","","","","","","","","","","","","","",""
"","","","","ctl-task-cpt","74","3336436","0.0-5.0-0.13","236","1","2025-07-24 00:41:40","1f75c3e559b7213887762d5229550c2b","216.120.189.45","Mozilla/5.0 (Windows NT 10.0; Win64; x64) AppleWebKit/537.36 (KHTML, like Gecko) Chrome/138.0.0.0 Safari/537.36","WebKit","Chrome","138.0.0.0","Windows","10.0","null","en-US,en;q=0.9","673594215b1a0b92d5835525","683db9eb0562dbf637994deb","6880814108502a0057d8fc60","2","1","673594215b1a0b92d5835525","2","1","2025-07-24T01:37:22.725Z","","","","","","","","","","","","","","win-only","3","g1:SW,g2:NE","0.8","14","0","3313523.1","3374.9","8378.4","26294.2","1","4","4","6","2","4","4","15","11","0.11363636363636363","1059.5","3000","1395","[""up"",""right""]","{""num_key_presses"":6,""num_perfect"":6,""num_errors"":0,""num_randdir"":0,""num_randdir_good_moves"":0,""num_whilered"":0,""num_whileblue"":0,""num_blue"":0,""num_good_moves"":6}","[267.896875,264.303125,0.5,269.896875,264.303125,103.5,268.896875,264.303125,206.3,267.896875,265.303125,308.2,265.896875,271.303125,417.1,272.896875,272.303125,524.1,391.896875,193.303125,627.2,459.896875,126.303125,727.3,478.896875,85.303125,830.1,470.896875,65.303125,930.7,463.896875,54.303125,1038.5,463.896875,54.303125,1144.2,452.896875,62.303125,1252.5,453.896875,81.303125,1354.7,564.896875,116.303125,1455,594.896875,133.303125,1559.6,592.896875,137.303125,1662.4,591.896875,137.303125,1764.5,591.896875,137.303125,1873.4,591.896875,137.303125,1979.8,591.896875,137.303125,2083.1,591.896875,137.303125,2184.1,591.896875,137.303125,2291.1,591.896875,137.303125,2394.1,642.896875,140.303125,2496.3,695.896875,147.303125,2601.6,695.896875,147.303125,2701.8,695.896875,147.303125,2804.9,695.896875,147.303125,2912.3,696.896875,147.303125,3020.7,696.896875,147.303125,3120.8,696.896875,147.303125,3224.3,696.896875,147.303125,3329.9,696.896875,147.303125,3435,696.896875,147.303125,3535.7,696.896875,147.303125,3644.1,696.896875,147.303125,3751.5,696.896875,147.303125,3854.3,696.896875,147.303125,3960.4,696.896875,147.303125,4066,696.896875,147.303125,4170.1,696.896875,147.303125,4275.1,696.896875,147.303125,4376.5,696.896875,147.303125,4481,696.896875,147.303125,4584.8,696.896875,147.303125,4690.6,696.896875,147.303125,4793.3,696.896875,147.303125,4902.9]","[1458,1458,1000,0,458,""smooth"",""up"",""up"",""good_move"",4837.2,3378.6,2933.4,1458.6,445.2,""smooth"",""up"",""up"",""good_move"",8040.5,3202.7,2689.3,4837.8,513.4,""smooth"",""up"",""up"",""good_move"",11237.9,3196.8,2758.8,8041.1,438,""smooth"",""right"",""right"",""good_move"",14547.1,3308.8,2845.7,11238.3,463.1,""smooth"",""right"",""right"",""good_move"",17748.4,3200.7,2737.2,14547.8,463.4,""smooth"",""right"",""right"",""good_move""]","",""
"2657","","<div style=""width:500px;"">
  <p>What determined the result of this run?</p>
  </div>","100","html-slider-response","75","3339096","0.0-5.0-1.13","236","1","2025-07-24 00:41:40","1f75c3e559b7213887762d5229550c2b","216.120.189.45","Mozilla/5.0 (Windows NT 10.0; Win64; x64) AppleWebKit/537.36 (KHTML, like Gecko) Chrome/138.0.0.0 Safari/537.36","WebKit","Chrome","138.0.0.0","Windows","10.0","null","en-US,en;q=0.9","673594215b1a0b92d5835525","683db9eb0562dbf637994deb","6880814108502a0057d8fc60","2","1","673594215b1a0b92d5835525","2","1","2025-07-24T01:37:25.385Z","","","","","","","","","","","AttribQ","","50","","","","","","","","","","","","","","","","","","","","","","","","","","","","",""
"4783","","<div style=""width:500px;"">
  <p>How much control did you have over the ball?</p>
  </div>","100","html-slider-response","76","3343882","0.0-5.0-2.13","236","1","2025-07-24 00:41:40","1f75c3e559b7213887762d5229550c2b","216.120.189.45","Mozilla/5.0 (Windows NT 10.0; Win64; x64) AppleWebKit/537.36 (KHTML, like Gecko) Chrome/138.0.0.0 Safari/537.36","WebKit","Chrome","138.0.0.0","Windows","10.0","null","en-US,en;q=0.9","673594215b1a0b92d5835525","683db9eb0562dbf637994deb","6880814108502a0057d8fc60","2","1","673594215b1a0b92d5835525","2","1","2025-07-24T01:37:30.170Z","","","","","","","","","","","ControlQ","","50","","","","","","","","","","","","","","","","","","","","","","","","","","","","",""
"3020","","<div style=""width:500px;"">
  <p>How would you describe your current emotional state?</p>
  </div>","0","html-slider-response","77","3346905","0.0-5.0-3.13","236","1","2025-07-24 00:41:40","1f75c3e559b7213887762d5229550c2b","216.120.189.45","Mozilla/5.0 (Windows NT 10.0; Win64; x64) AppleWebKit/537.36 (KHTML, like Gecko) Chrome/138.0.0.0 Safari/537.36","WebKit","Chrome","138.0.0.0","Windows","10.0","null","en-US,en;q=0.9","673594215b1a0b92d5835525","683db9eb0562dbf637994deb","6880814108502a0057d8fc60","2","1","673594215b1a0b92d5835525","2","1","2025-07-24T01:37:33.193Z","","","","","","","","","","","StressQ","","50","","","","","","","","","","","","","","","","","","","","","","","","","","","","",""
"4734","","<div style=""width:500px;"">
  <p>What best describes how you currently feel?</p>
  </div>","100","html-slider-response","78","3351648","0.0-5.0-4.13","236","1","2025-07-24 00:41:40","1f75c3e559b7213887762d5229550c2b","216.120.189.45","Mozilla/5.0 (Windows NT 10.0; Win64; x64) AppleWebKit/537.36 (KHTML, like Gecko) Chrome/138.0.0.0 Safari/537.36","WebKit","Chrome","138.0.0.0","Windows","10.0","null","en-US,en;q=0.9","673594215b1a0b92d5835525","683db9eb0562dbf637994deb","6880814108502a0057d8fc60","2","1","673594215b1a0b92d5835525","2","1","2025-07-24T01:37:37.936Z","","","","","","","","","","","MotivationQ","","50","","","","","","","","","","","","","","","","","","","","","","","","","","","","",""
"","","","","ctl-task-cpt","79","3388217","0.0-5.0-0.14","236","1","2025-07-24 00:41:40","1f75c3e559b7213887762d5229550c2b","216.120.189.45","Mozilla/5.0 (Windows NT 10.0; Win64; x64) AppleWebKit/537.36 (KHTML, like Gecko) Chrome/138.0.0.0 Safari/537.36","WebKit","Chrome","138.0.0.0","Windows","10.0","null","en-US,en;q=0.9","673594215b1a0b92d5835525","683db9eb0562dbf637994deb","6880814108502a0057d8fc60","2","1","673594215b1a0b92d5835525","2","1","2025-07-24T01:38:14.506Z","","","","","","","","","","","","","","win-only","1","g1:NE,g2:SW","0.9","15","0","3358044.4","1244.1","6250.3","33544.5","1","4","8","6","2","8","8","23","15","0.17424242424242425","1351.8","3000","1595","[""down"",""left""]","{""num_key_presses"":6,""num_perfect"":6,""num_errors"":0,""num_randdir"":0,""num_randdir_good_moves"":0,""num_whilered"":0,""num_whileblue"":0,""num_blue"":3,""num_good_moves"":6}","[265.896875,263.303125,1.1,265.896875,263.303125,107.7,265.896875,263.303125,219.3,273.896875,268.303125,328.1,337.896875,298.303125,437.5,359.896875,301.303125,540.4,332.896875,302.303125,644.2,247.896875,402.303125,755.5,191.896875,476.303125,864.8,155.896875,467.303125,970,107.896875,465.303125,1076.9,59.896875,483.303125,1181.1,55.896875,483.303125,1283.1,59.896875,481.303125,1383.7,63.896875,479.303125,1490.4,130.896875,466.303125,1593.1,222.896875,424.303125,1695.4,229.896875,390.303125,1799.1,229.896875,390.303125,1902.3,229.896875,390.303125,2004.4,229.896875,390.303125,2107.8,229.896875,390.303125,2212.8,229.896875,390.303125,2313.9,229.896875,390.303125,2421.2,229.896875,390.303125,2522.6,468.896875,341.303125,2629.9,476.896875,338.303125,2732.9,476.896875,338.303125,2837.8,476.896875,338.303125,2941,476.896875,338.303125,3044.3,476.896875,338.303125,3152.8,476.896875,338.303125,3257.5,476.896875,338.303125,3368.4,476.896875,338.303125,3470.1,476.896875,338.303125,3570.8,476.896875,338.303125,3677.1,476.896875,338.303125,3780.7,476.896875,338.303125,3886.5,476.896875,338.303125,3988.9,476.896875,338.303125,4089.1,476.896875,338.303125,4194.4,476.896875,338.303125,4299.3,476.896875,338.303125,4401.5,476.896875,338.303125,4504.8,476.896875,338.303125,4617.9,476.896875,338.303125,4718.8,476.896875,338.303125,4822.9,476.896875,338.303125,4928.9]","[4375.8,4375.8,1923.4,2008.9,443.5,""smooth"",""down"",""down"",""good_move"",7159.5,2782.8,2132,4376.7,650.8,""smooth"",""left"",""left"",""good_move"",11069.9,3909.9,3450.6,7160,459.3,""smooth"",""down"",""down"",""good_move"",13694.2,2623.7,2199.1,11070.5,424.6,""smooth"",""left"",""left"",""good_move"",16684,2989.5,2549.7,13694.5,439.8,""smooth"",""down"",""down"",""good_move"",27132.6,10447.3,2811.3,23860.5,460.8,""smooth"",""left"",""left"",""good_move""]","",""
"4122","","<div style=""width:500px;"">
  <p>What determined the result of this run?</p>
  </div>","100","html-slider-response","80","3392343","0.0-5.0-1.14","236","1","2025-07-24 00:41:40","1f75c3e559b7213887762d5229550c2b","216.120.189.45","Mozilla/5.0 (Windows NT 10.0; Win64; x64) AppleWebKit/537.36 (KHTML, like Gecko) Chrome/138.0.0.0 Safari/537.36","WebKit","Chrome","138.0.0.0","Windows","10.0","null","en-US,en;q=0.9","673594215b1a0b92d5835525","683db9eb0562dbf637994deb","6880814108502a0057d8fc60","2","1","673594215b1a0b92d5835525","2","1","2025-07-24T01:38:18.631Z","","","","","","","","","","","AttribQ","","50","","","","","","","","","","","","","","","","","","","","","","","","","","","","",""
"2478","","<div style=""width:500px;"">
  <p>How much control did you have over the ball?</p>
  </div>","100","html-slider-response","81","3394822","0.0-5.0-2.14","236","1","2025-07-24 00:41:40","1f75c3e559b7213887762d5229550c2b","216.120.189.45","Mozilla/5.0 (Windows NT 10.0; Win64; x64) AppleWebKit/537.36 (KHTML, like Gecko) Chrome/138.0.0.0 Safari/537.36","WebKit","Chrome","138.0.0.0","Windows","10.0","null","en-US,en;q=0.9","673594215b1a0b92d5835525","683db9eb0562dbf637994deb","6880814108502a0057d8fc60","2","1","673594215b1a0b92d5835525","2","1","2025-07-24T01:38:21.110Z","","","","","","","","","","","ControlQ","","50","","","","","","","","","","","","","","","","","","","","","","","","","","","","",""
"6808","","<div style=""width:500px;"">
  <p>How would you describe your current emotional state?</p>
  </div>","0","html-slider-response","82","3401632","0.0-5.0-3.14","236","1","2025-07-24 00:41:40","1f75c3e559b7213887762d5229550c2b","216.120.189.45","Mozilla/5.0 (Windows NT 10.0; Win64; x64) AppleWebKit/537.36 (KHTML, like Gecko) Chrome/138.0.0.0 Safari/537.36","WebKit","Chrome","138.0.0.0","Windows","10.0","null","en-US,en;q=0.9","673594215b1a0b92d5835525","683db9eb0562dbf637994deb","6880814108502a0057d8fc60","2","1","673594215b1a0b92d5835525","2","1","2025-07-24T01:38:27.920Z","","","","","","","","","","","StressQ","","50","","","","","","","","","","","","","","","","","","","","","","","","","","","","",""
"5397","","<div style=""width:500px;"">
  <p>What best describes how you currently feel?</p>
  </div>","100","html-slider-response","83","3407031","0.0-5.0-4.14","236","1","2025-07-24 00:41:40","1f75c3e559b7213887762d5229550c2b","216.120.189.45","Mozilla/5.0 (Windows NT 10.0; Win64; x64) AppleWebKit/537.36 (KHTML, like Gecko) Chrome/138.0.0.0 Safari/537.36","WebKit","Chrome","138.0.0.0","Windows","10.0","null","en-US,en;q=0.9","673594215b1a0b92d5835525","683db9eb0562dbf637994deb","6880814108502a0057d8fc60","2","1","673594215b1a0b92d5835525","2","1","2025-07-24T01:38:33.319Z","","","","","","","","","","","MotivationQ","","50","","","","","","","","","","","","","","","","","","","","","","","","","","","","",""
"","","","","ctl-task-cpt","84","3438054","0.0-5.0-0.15","236","1","2025-07-24 00:41:40","1f75c3e559b7213887762d5229550c2b","216.120.189.45","Mozilla/5.0 (Windows NT 10.0; Win64; x64) AppleWebKit/537.36 (KHTML, like Gecko) Chrome/138.0.0.0 Safari/537.36","WebKit","Chrome","138.0.0.0","Windows","10.0","null","en-US,en;q=0.9","673594215b1a0b92d5835525","683db9eb0562dbf637994deb","6880814108502a0057d8fc60","2","1","673594215b1a0b92d5835525","2","1","2025-07-24T01:39:04.342Z","","","","","","","","","","","","","","win-only","3","g1:SW,g2:NE","0.8","16","0","3413428.7","1662.1","6663.5","27997","1","4","4","6","2","4","4","27","23","0.20454545454545456","1462.1","3000","1755","[""up"",""right""]","{""num_key_presses"":6,""num_perfect"":5,""num_errors"":0,""num_randdir"":1,""num_randdir_good_moves"":1,""num_whilered"":0,""num_whileblue"":0,""num_blue"":1,""num_good_moves"":6}","[258.896875,264.303125,0.6,259.896875,264.303125,105.9,259.896875,264.303125,217.3,259.896875,264.303125,327.5,261.896875,266.303125,432.2,256.896875,286.303125,536,248.896875,293.303125,647.5,347.896875,174.303125,760.1,395.896875,81.303125,864.9,407.896875,74.303125,976.8,427.896875,68.303125,1079.5,450.896875,65.303125,1182.2,482.896875,48.303125,1282.9,488.896875,45.303125,1390.2,488.896875,45.303125,1490.3,490.896875,44.303125,1595,489.896875,51.303125,1695.4,532.896875,130.303125,1810.1,726.896875,211.303125,1919.9,727.896875,211.303125,2027.2,727.896875,211.303125,2128.3,727.896875,211.303125,2228.8,727.896875,211.303125,2328.8,727.896875,211.303125,2441.3,727.896875,211.303125,2550.9,727.896875,211.303125,2662.4,727.896875,211.303125,2763.7,727.896875,211.303125,2867.8,727.896875,211.303125,2979.8,727.896875,211.303125,3084.7,727.896875,211.303125,3186,727.896875,211.303125,3294.5,727.896875,211.303125,3402,727.896875,211.303125,3510.1,727.896875,211.303125,3616.1,727.896875,211.303125,3716.5,727.896875,211.303125,3816.8,727.896875,211.303125,3918,727.896875,211.303125,4021.2,727.896875,211.303125,4124.8,727.896875,211.303125,4228.7,727.896875,211.303125,4333.3,727.896875,211.303125,4441.2,727.896875,211.303125,4544.6,727.896875,211.303125,4648,727.896875,211.303125,4754.3,727.896875,211.303125,4856.7,727.896875,211.303125,4964.3]","[1437.4,1437.4,1000,0,437.4,""oops"",""up"",""up"",""good_move"",4452.9,3014.7,2597.2,1438.2,417.5,""smooth"",""up"",""up"",""good_move"",7773.9,3320.5,2882,4453.5,438.4,""smooth"",""up"",""up"",""good_move"",10892.6,3117.6,2666.9,7775,450.8,""smooth"",""right"",""right"",""good_move"",17274.9,6381.1,2094.2,14738.1,442.6,""smooth"",""right"",""right"",""good_move"",21183.8,3908.5,3408.8,17275.3,499.7,""smooth"",""right"",""right"",""good_move""]","",""
"20162","","<div style=""width:500px;"">
  <p>What determined the result of this run?</p>
  </div>","100","html-slider-response","85","3458220","0.0-5.0-1.15","236","1","2025-07-24 00:41:40","1f75c3e559b7213887762d5229550c2b","216.120.189.45","Mozilla/5.0 (Windows NT 10.0; Win64; x64) AppleWebKit/537.36 (KHTML, like Gecko) Chrome/138.0.0.0 Safari/537.36","WebKit","Chrome","138.0.0.0","Windows","10.0","null","en-US,en;q=0.9","673594215b1a0b92d5835525","683db9eb0562dbf637994deb","6880814108502a0057d8fc60","2","1","673594215b1a0b92d5835525","2","1","2025-07-24T01:39:24.508Z","","","","","","","","","","","AttribQ","","50","","","","","","","","","","","","","","","","","","","","","","","","","","","","",""
"5614","","<div style=""width:500px;"">
  <p>How much control did you have over the ball?</p>
  </div>","100","html-slider-response","86","3463837","0.0-5.0-2.15","236","1","2025-07-24 00:41:40","1f75c3e559b7213887762d5229550c2b","216.120.189.45","Mozilla/5.0 (Windows NT 10.0; Win64; x64) AppleWebKit/537.36 (KHTML, like Gecko) Chrome/138.0.0.0 Safari/537.36","WebKit","Chrome","138.0.0.0","Windows","10.0","null","en-US,en;q=0.9","673594215b1a0b92d5835525","683db9eb0562dbf637994deb","6880814108502a0057d8fc60","2","1","673594215b1a0b92d5835525","2","1","2025-07-24T01:39:30.125Z","","","","","","","","","","","ControlQ","","50","","","","","","","","","","","","","","","","","","","","","","","","","","","","",""
"15006","","<div style=""width:500px;"">
  <p>How would you describe your current emotional state?</p>
