"rt","response_timestamp","stimulus","response","trial_type","trial_index","time_elapsed","internal_node_id","run_id","condition","recorded_at","source_code_version","ip","user_agent","device","browser","browser_version","platform","platform_version","referer","accept_language","PROLIFIC_PID","STUDY_ID","SESSION_ID","WEEK","BATCH","prolific_id","week","batch","realtime","success","responses","item_order","radio_event_ids","radio_event_times","key_event_times","mouse_event_times","straightlining","zigzagging","honeypot","eventType","view_history","slider_start","which_type","canvas_config","goals_layout","control_level","trial_number","tutorial_trial_number","trial_start_time","phase1_start_time","phase2_start_time","phase3_start_time","goal_1_value","goal_1_distance","goal_2_value","goal_2_distance","goal_selected","outcome","outcome_total","participant_final_score","participant_initial_score","participant_final_score_prop","goal_choice_rt","allocated_time","allocated_time_remaining","goal_direction","counts","mouse_movements","key_presses","question_order","question_id"
"4310","1752691711568","<p style='font-size:40px;line-height:1.25'><strong>Welcome to the experiment!</strong></p><p style='font-size:1.1em;line-height:1.25'>Thank you for participanting in our experiment again! You will be asked to play the Dysfunctional Ball Game again. We will briefly recap the rules before we start.</p><p style='font-size:1.1em;line-height:1.25'>Press <strong>Next</strong> to continue.</p>","0","custom-html-button-response","0","4331","0.0-0.0","124","1","2025-07-16 18:48:26","1f75c3e559b7213887762d5229550c2b","37.47.252.173","Mozilla/5.0 (Windows NT 10.0; Win64; x64; rv:140.0) Gecko/20100101 Firefox/140.0","","Firefox","140.0","Windows","10.0","https://app.prolific.com/","pl","66a6211743bf2623c0a8eb81","686e379bc37a29ffa5cdc956","6877f3ed2932b97efdac2dab","1","1","66a6211743bf2623c0a8eb81","1","1","2025-07-16T18:48:31.569Z","","","","","","","","","","","","","","","","","","","","","","","","","","","","","","","","","","","","","","","","","",""
"1552","","","","fullscreen","1","6897","0.0-1.0","124","1","2025-07-16 18:48:26","1f75c3e559b7213887762d5229550c2b","37.47.252.173","Mozilla/5.0 (Windows NT 10.0; Win64; x64; rv:140.0) Gecko/20100101 Firefox/140.0","","Firefox","140.0","Windows","10.0","https://app.prolific.com/","pl","66a6211743bf2623c0a8eb81","686e379bc37a29ffa5cdc956","6877f3ed2932b97efdac2dab","1","1","66a6211743bf2623c0a8eb81","1","1","","true","","","","","","","","","","","","","","","","","","","","","","","","","","","","","","","","","","","","","","","","",""
"48011","1752691762149","<p style='font-size:1.1em;line-height:1.25'>In the following, we will ask you a few questions relating to your feelings in the last 24 hours.<br></p><p style='font-size:1.1em;line-height:1.25'>Press the <strong>Next</strong> button to continue.</p>","0","custom-html-button-response","2","54912","0.0-2.0-0.0","124","1","2025-07-16 18:48:26","1f75c3e559b7213887762d5229550c2b","37.47.252.173","Mozilla/5.0 (Windows NT 10.0; Win64; x64; rv:140.0) Gecko/20100101 Firefox/140.0","","Firefox","140.0","Windows","10.0","https://app.prolific.com/","pl","66a6211743bf2623c0a8eb81","686e379bc37a29ffa5cdc956","6877f3ed2932b97efdac2dab","1","1","66a6211743bf2623c0a8eb81","1","1","2025-07-16T18:49:22.150Z","","","","","","","","","","","","","","","","","","","","","","","","","","","","","","","","","","","","","","","","","",""
"67933","","","","survey-template","3","122868","0.0-2.0-1.0","124","1","2025-07-16 18:48:26","1f75c3e559b7213887762d5229550c2b","37.47.252.173","Mozilla/5.0 (Windows NT 10.0; Win64; x64; rv:140.0) Gecko/20100101 Firefox/140.0","","Firefox","140.0","Windows","10.0","https://app.prolific.com/","pl","66a6211743bf2623c0a8eb81","686e379bc37a29ffa5cdc956","6877f3ed2932b97efdac2dab","1","1","66a6211743bf2623c0a8eb81","1","1","2025-07-16T18:50:30.106Z","","{""Q01"":""0"",""Q02"":""0"",""Q03"":""0"",""Q04"":""1"",""Q05"":""0"",""Q06"":""0"",""Q07"":""1"",""Q08"":""0"",""Q09"":""0"",""Q10"":""0"",""Q11"":""1"",""Q12"":""0"",""Q13"":""5"",""Q14"":""0"",""Q15"":""0"",""Q16"":""0"",""Q17"":""0"",""Q18"":""0"",""Q19"":""0"",""Q20"":""0"",""Q21"":""0"",""Q22"":""0""}","[0,1,2,3,4,5,6,7,8,9,10,11,12,13,14,15,16,17,18,19,20,21]","[""Q01"",""Q02"",""Q03"",""Q01"",""Q04"",""Q05"",""Q06"",""Q07"",""Q08"",""Q09"",""Q10"",""Q11"",""Q12"",""Q11"",""Q01"",""Q13"",""Q14"",""Q15"",""Q16"",""Q17"",""Q18"",""Q19"",""Q20"",""Q21"",""Q22""]","[8740,12656,14239,15502,17947,19689,21926,25234,26750,28445,29579,31195,33159,35237,40118,45283,47747,49558,50747,52217,53433,55848,57234,60509,66376]","[]","[0,8740,10273,11774,12656,14239,15502,17947,19689,21926,25234,26750,28445,29579,31195,33159,35237,40118,45283,47747,49558,50747,52217,53433,55848,57234,58332,60509,66376,67926]","0.8181818181818182","0.38095238095238093","0","drsp","","","","","","","","","","","","","","","","","","","","","","","","","","","","","","",""
"12200","","","","survey-template","4","135081","0.0-2.0-2.0","124","1","2025-07-16 18:48:26","1f75c3e559b7213887762d5229550c2b","37.47.252.173","Mozilla/5.0 (Windows NT 10.0; Win64; x64; rv:140.0) Gecko/20100101 Firefox/140.0","","Firefox","140.0","Windows","10.0","https://app.prolific.com/","pl","66a6211743bf2623c0a8eb81","686e379bc37a29ffa5cdc956","6877f3ed2932b97efdac2dab","1","1","66a6211743bf2623c0a8eb81","1","1","2025-07-16T18:50:42.320Z","","{""Q01"":""1"",""Q02"":""5"",""Q03"":""0""}","[0,1,2]","[""Q02"",""Q01"",""Q03""]","[6308,7777,10505]","[]","[4468,6308,7777,10505,12199]","0.6666666666666666","0.5","0","stress","","","","","","","","","","","","","","","","","","","","","","","","","","","","","","",""
"11449","","","","instructions","5","146538","0.0-3.0-0.0","124","1","2025-07-16 18:48:26","1f75c3e559b7213887762d5229550c2b","37.47.252.173","Mozilla/5.0 (Windows NT 10.0; Win64; x64; rv:140.0) Gecko/20100101 Firefox/140.0","","Firefox","140.0","Windows","10.0","https://app.prolific.com/","pl","66a6211743bf2623c0a8eb81","686e379bc37a29ffa5cdc956","6877f3ed2932b97efdac2dab","1","1","66a6211743bf2623c0a8eb81","1","1","","","","","","","","","","","","","[{""page_index"":0,""viewing_time"":11449}]","","","","","","","","","","","","","","","","","","","","","","","","","","","","","",""
"4248","","<p>Before you start with this game please answer the following three questions yourself. </p>
  <p>Through this game, we measure several aspects of your cognitive performance, such as reaction times, multi-tasking capabilities </p>
  <p>and the ability to assess the situation you are in.</p>
  <p></p>
  <p><b>How good do you usually are in such tasks?</b></p>","57","html-slider-response","6","150806","0.0-4.0-0.0","124","1","2025-07-16 18:48:26","1f75c3e559b7213887762d5229550c2b","37.47.252.173","Mozilla/5.0 (Windows NT 10.0; Win64; x64; rv:140.0) Gecko/20100101 Firefox/140.0","","Firefox","140.0","Windows","10.0","https://app.prolific.com/","pl","66a6211743bf2623c0a8eb81","686e379bc37a29ffa5cdc956","6877f3ed2932b97efdac2dab","1","1","66a6211743bf2623c0a8eb81","1","1","2025-07-16T18:50:58.044Z","","","","","","","","","","","PreSkillQ","","50","","","","","","","","","","","","","","","","","","","","","","","","","","","","",""
"4465","","<div style=""width:500px;"">
  <p>How well do you think you will perform in this task compared to other participants?</p>
  </div>","51","html-slider-response","7","155278","0.0-4.0-1.0","124","1","2025-07-16 18:48:26","1f75c3e559b7213887762d5229550c2b","37.47.252.173","Mozilla/5.0 (Windows NT 10.0; Win64; x64; rv:140.0) Gecko/20100101 Firefox/140.0","","Firefox","140.0","Windows","10.0","https://app.prolific.com/","pl","66a6211743bf2623c0a8eb81","686e379bc37a29ffa5cdc956","6877f3ed2932b97efdac2dab","1","1","66a6211743bf2623c0a8eb81","1","1","2025-07-16T18:51:02.516Z","","","","","","","","","","","PrePerfQ","","50","","","","","","","","","","","","","","","","","","","","","","","","","","","","",""
"4445","","<div style=""width:500px;"">
  <p>What best describes how you currently feel?</p>
  </div>","89","html-slider-response","8","159727","0.0-4.0-2.0","124","1","2025-07-16 18:48:26","1f75c3e559b7213887762d5229550c2b","37.47.252.173","Mozilla/5.0 (Windows NT 10.0; Win64; x64; rv:140.0) Gecko/20100101 Firefox/140.0","","Firefox","140.0","Windows","10.0","https://app.prolific.com/","pl","66a6211743bf2623c0a8eb81","686e379bc37a29ffa5cdc956","6877f3ed2932b97efdac2dab","1","1","66a6211743bf2623c0a8eb81","1","1","2025-07-16T18:51:06.965Z","","","","","","","","","","","PreMotivationQ","","50","","","","","","","","","","","","","","","","","","","","","","","","","","","","",""
"","","","","ctl-task-cpt","9","186116","0.0-5.0-0.0","124","1","2025-07-16 18:48:26","1f75c3e559b7213887762d5229550c2b","37.47.252.173","Mozilla/5.0 (Windows NT 10.0; Win64; x64; rv:140.0) Gecko/20100101 Firefox/140.0","","Firefox","140.0","Windows","10.0","https://app.prolific.com/","pl","66a6211743bf2623c0a8eb81","686e379bc37a29ffa5cdc956","6877f3ed2932b97efdac2dab","1","1","66a6211743bf2623c0a8eb81","1","1","2025-07-16T18:51:33.354Z","","","","","","","","","","","","","","win-only","1","g1:NE,g2:SW","1","1","0","161632","1885","6895","23362","1","4","8","6","2","8","8","8","0","0.06060606060606061","1741","3000","2205","[""down"",""left""]","{""num_key_presses"":6,""num_perfect"":6,""num_errors"":0,""num_randdir"":0,""num_randdir_good_moves"":0,""num_whilered"":0,""num_whileblue"":0,""num_blue"":0,""num_good_moves"":6}","[295.22857753208706,301.92857448032925,11,295.22857753208706,301.92857448032925,102,295.22857753208706,301.92857448032925,212,295.22857753208706,301.92857448032925,323,295.22857753208706,301.92857448032925,435,295.22857753208706,301.92857448032925,548,295.22857753208706,301.92857448032925,660,295.22857753208706,301.92857448032925,771,283.22857753208706,321.92857448032925,887,212.22857753208706,433.92857448032925,994,212.22857753208706,433.92857448032925,1105,199.22857753208706,443.92857448032925,1218,113.22857753208706,504.92857448032925,1328,78.22857753208706,524.9285744803292,1439,56.22857753208705,540.9285744803292,1551,53.22857753208705,542.9285744803292,1662,53.22857753208705,542.9285744803292,1772,53.22857753208705,542.9285744803292,1885,53.22857753208705,542.9285744803292,1996,53.22857753208705,542.9285744803292,2108,17.22857753208705,509.92857448032925,2219,-101.77142246791294,433.92857448032925,2332,-101.77142246791294,433.92857448032925,2443,-101.77142246791294,433.92857448032925,2556,-101.77142246791294,433.92857448032925,2667,-101.77142246791294,433.92857448032925,2779,-101.77142246791294,433.92857448032925,2891,-101.77142246791294,433.92857448032925,3001,-101.77142246791294,433.92857448032925,3115,-101.77142246791294,433.92857448032925,3225,-101.77142246791294,433.92857448032925,3338,-101.77142246791294,433.92857448032925,3448,-101.77142246791294,433.92857448032925,3560,-101.77142246791294,433.92857448032925,3673,-101.77142246791294,433.92857448032925,3783,-101.77142246791294,433.92857448032925,3897,-101.77142246791294,433.92857448032925,4007,-101.77142246791294,433.92857448032925,4118,-101.77142246791294,433.92857448032925,4230,-101.77142246791294,433.92857448032925,4343,-101.77142246791294,433.92857448032925,4454,-101.77142246791294,433.92857448032925,4566,-101.77142246791294,433.92857448032925,4675,-101.77142246791294,433.92857448032925,4788,-101.77142246791294,433.92857448032925,4900]","[1452,1452,1000,0,452,""smooth"",""down"",""down"",""good_move"",4327,2875,2400.4,1452,474.6,""smooth"",""down"",""down"",""good_move"",6797,2470,2050.3,4327,419.7,""smooth"",""left"",""left"",""good_move"",9936,3139,2188.3,6797,950.7,""smooth"",""left"",""left"",""good_move"",13002,3066,2385.8,9936,680.2,""smooth"",""left"",""left"",""good_move"",16172,3169,2533.7,13003,635.3,""smooth"",""down"",""down"",""good_move""]","",""
"3360","","<div style=""width:500px;"">
  <p>What determined the result of this run?</p>
  </div>","90","html-slider-response","10","189478","0.0-5.0-1.0","124","1","2025-07-16 18:48:26","1f75c3e559b7213887762d5229550c2b","37.47.252.173","Mozilla/5.0 (Windows NT 10.0; Win64; x64; rv:140.0) Gecko/20100101 Firefox/140.0","","Firefox","140.0","Windows","10.0","https://app.prolific.com/","pl","66a6211743bf2623c0a8eb81","686e379bc37a29ffa5cdc956","6877f3ed2932b97efdac2dab","1","1","66a6211743bf2623c0a8eb81","1","1","2025-07-16T18:51:36.717Z","","","","","","","","","","","AttribQ","","50","","","","","","","","","","","","","","","","","","","","","","","","","","","","",""
"2549","","<div style=""width:500px;"">
  <p>How much control did you have over the ball?</p>
  </div>","99","html-slider-response","11","192032","0.0-5.0-2.0","124","1","2025-07-16 18:48:26","1f75c3e559b7213887762d5229550c2b","37.47.252.173","Mozilla/5.0 (Windows NT 10.0; Win64; x64; rv:140.0) Gecko/20100101 Firefox/140.0","","Firefox","140.0","Windows","10.0","https://app.prolific.com/","pl","66a6211743bf2623c0a8eb81","686e379bc37a29ffa5cdc956","6877f3ed2932b97efdac2dab","1","1","66a6211743bf2623c0a8eb81","1","1","2025-07-16T18:51:39.270Z","","","","","","","","","","","ControlQ","","50","","","","","","","","","","","","","","","","","","","","","","","","","","","","",""
"3100","","<div style=""width:500px;"">
  <p>How would you describe your current emotional state?</p>
  </div>","9","html-slider-response","12","195135","0.0-5.0-3.0","124","1","2025-07-16 18:48:26","1f75c3e559b7213887762d5229550c2b","37.47.252.173","Mozilla/5.0 (Windows NT 10.0; Win64; x64; rv:140.0) Gecko/20100101 Firefox/140.0","","Firefox","140.0","Windows","10.0","https://app.prolific.com/","pl","66a6211743bf2623c0a8eb81","686e379bc37a29ffa5cdc956","6877f3ed2932b97efdac2dab","1","1","66a6211743bf2623c0a8eb81","1","1","2025-07-16T18:51:42.373Z","","","","","","","","","","","StressQ","","50","","","","","","","","","","","","","","","","","","","","","","","","","","","","",""
"3542","","<div style=""width:500px;"">
  <p>What best describes how you currently feel?</p>
  </div>","97","html-slider-response","13","198680","0.0-5.0-4.0","124","1","2025-07-16 18:48:26","1f75c3e559b7213887762d5229550c2b","37.47.252.173","Mozilla/5.0 (Windows NT 10.0; Win64; x64; rv:140.0) Gecko/20100101 Firefox/140.0","","Firefox","140.0","Windows","10.0","https://app.prolific.com/","pl","66a6211743bf2623c0a8eb81","686e379bc37a29ffa5cdc956","6877f3ed2932b97efdac2dab","1","1","66a6211743bf2623c0a8eb81","1","1","2025-07-16T18:51:45.918Z","","","","","","","","","","","MotivationQ","","50","","","","","","","","","","","","","","","","","","","","","","","","","","","","",""
"","","","","ctl-task-cpt","14","231171","0.0-5.0-0.1","124","1","2025-07-16 18:48:26","1f75c3e559b7213887762d5229550c2b","37.47.252.173","Mozilla/5.0 (Windows NT 10.0; Win64; x64; rv:140.0) Gecko/20100101 Firefox/140.0","","Firefox","140.0","Windows","10.0","https://app.prolific.com/","pl","66a6211743bf2623c0a8eb81","686e379bc37a29ffa5cdc956","6877f3ed2932b97efdac2dab","1","1","66a6211743bf2623c0a8eb81","1","1","2025-07-16T18:52:18.409Z","","","","","","","","","","","","","","win-only","2","g1:SE,g2:NW","0.9","2","0","200569","1222","6226","29484","1","4","4","6","2","4","3","11","8","0.08333333333333333","2772","3000","1835","[""left"",""up""]","{""num_key_presses"":8,""num_perfect"":6,""num_errors"":1,""num_randdir"":1,""num_randdir_good_moves"":0,""num_whilered"":0,""num_whileblue"":1,""num_blue"":1,""num_good_moves"":7}","[298.22857753208706,288.92857448032925,0,298.22857753208706,288.92857448032925,114,298.22857753208706,288.92857448032925,224,298.22857753208706,288.92857448032925,334,298.22857753208706,288.92857448032925,444,298.22857753208706,288.92857448032925,554,407.22857753208706,257.92857448032925,664,434.22857753208706,244.92857448032925,773,415.22857753208706,270.92857448032925,882,398.22857753208706,291.92857448032925,992,327.22857753208706,254.92857448032925,1100,245.22857753208706,194.92857448032925,1209,245.22857753208706,194.92857448032925,1318,245.22857753208706,194.92857448032925,1427,110.22857753208706,136.92857448032925,1539,52.22857753208705,122.92857448032925,1647,52.22857753208705,122.92857448032925,1755,52.22857753208705,122.92857448032925,1867,-30.77142246791295,118.92857448032925,1973,-108.77142246791294,128.92857448032925,2082,-108.77142246791294,128.92857448032925,2193,-81.77142246791294,113.92857448032925,2304,20.22857753208705,76.92857448032925,2413,37.22857753208705,72.92857448032925,2523,56.22857753208705,65.92857448032925,2632,56.22857753208705,65.92857448032925,2741,56.22857753208705,65.92857448032925,2849,56.22857753208705,65.92857448032925,2959,56.22857753208705,65.92857448032925,3071,56.22857753208705,65.92857448032925,3180,-28.77142246791295,99.92857448032925,3288,-102.77142246791294,129.92857448032925,3397,-116.77142246791294,135.92857448032925,3507,-116.77142246791294,135.92857448032925,3617,-116.77142246791294,135.92857448032925,3723,-116.77142246791294,135.92857448032925,3831,-116.77142246791294,135.92857448032925,3940,-116.77142246791294,135.92857448032925,4049,-116.77142246791294,135.92857448032925,4159,-116.77142246791294,135.92857448032925,4269,-116.77142246791294,135.92857448032925,4378,-116.77142246791294,135.92857448032925,4487,-116.77142246791294,135.92857448032925,4595,-116.77142246791294,135.92857448032925,4705,-116.77142246791294,135.92857448032925,4816,-116.77142246791294,135.92857448032925,4925]","[1476,1476,1000,0,476,""smooth"",""up"",""up"",""good_move"",4463,2987,2150.2,1476,836.8,""smooth"",""up"",""up"",""good_move"",7581,3118,2772,4463,346,""while_blue"",""left"",""left"",""good_move"",10880,3298,2849,7582,449,""oops"",""left"",""right"",""bad_move"",13623,2743,1526.7,10880,1216.3,""smooth"",""up"",""up"",""good_move"",16897,3274,2845.3,13623,428.7,""smooth"",""left"",""left"",""good_move"",19951,3053,2218.2,16898,834.8,""smooth"",""left"",""left"",""good_move"",22993,3042,2497,19951,545,""smooth"",""left"",""left"",""good_move""]","",""
"3233","","<div style=""width:500px;"">
  <p>What determined the result of this run?</p>
  </div>","95","html-slider-response","15","234409","0.0-5.0-1.1","124","1","2025-07-16 18:48:26","1f75c3e559b7213887762d5229550c2b","37.47.252.173","Mozilla/5.0 (Windows NT 10.0; Win64; x64; rv:140.0) Gecko/20100101 Firefox/140.0","","Firefox","140.0","Windows","10.0","https://app.prolific.com/","pl","66a6211743bf2623c0a8eb81","686e379bc37a29ffa5cdc956","6877f3ed2932b97efdac2dab","1","1","66a6211743bf2623c0a8eb81","1","1","2025-07-16T18:52:21.647Z","","","","","","","","","","","AttribQ","","50","","","","","","","","","","","","","","","","","","","","","","","","","","","","",""
"2022","","<div style=""width:500px;"">
  <p>How much control did you have over the ball?</p>
  </div>","78","html-slider-response","16","236435","0.0-5.0-2.1","124","1","2025-07-16 18:48:26","1f75c3e559b7213887762d5229550c2b","37.47.252.173","Mozilla/5.0 (Windows NT 10.0; Win64; x64; rv:140.0) Gecko/20100101 Firefox/140.0","","Firefox","140.0","Windows","10.0","https://app.prolific.com/","pl","66a6211743bf2623c0a8eb81","686e379bc37a29ffa5cdc956","6877f3ed2932b97efdac2dab","1","1","66a6211743bf2623c0a8eb81","1","1","2025-07-16T18:52:23.673Z","","","","","","","","","","","ControlQ","","50","","","","","","","","","","","","","","","","","","","","","","","","","","","","",""
"3114","","<div style=""width:500px;"">
  <p>How would you describe your current emotional state?</p>
  </div>","6","html-slider-response","17","239554","0.0-5.0-3.1","124","1","2025-07-16 18:48:26","1f75c3e559b7213887762d5229550c2b","37.47.252.173","Mozilla/5.0 (Windows NT 10.0; Win64; x64; rv:140.0) Gecko/20100101 Firefox/140.0","","Firefox","140.0","Windows","10.0","https://app.prolific.com/","pl","66a6211743bf2623c0a8eb81","686e379bc37a29ffa5cdc956","6877f3ed2932b97efdac2dab","1","1","66a6211743bf2623c0a8eb81","1","1","2025-07-16T18:52:26.792Z","","","","","","","","","","","StressQ","","50","","","","","","","","","","","","","","","","","","","","","","","","","","","","",""
"2379","","<div style=""width:500px;"">
  <p>What best describes how you currently feel?</p>
  </div>","95","html-slider-response","18","241938","0.0-5.0-4.1","124","1","2025-07-16 18:48:26","1f75c3e559b7213887762d5229550c2b","37.47.252.173","Mozilla/5.0 (Windows NT 10.0; Win64; x64; rv:140.0) Gecko/20100101 Firefox/140.0","","Firefox","140.0","Windows","10.0","https://app.prolific.com/","pl","66a6211743bf2623c0a8eb81","686e379bc37a29ffa5cdc956","6877f3ed2932b97efdac2dab","1","1","66a6211743bf2623c0a8eb81","1","1","2025-07-16T18:52:29.176Z","","","","","","","","","","","MotivationQ","","50","","","","","","","","","","","","","","","","","","","","","","","","","","","","",""
"","","","","ctl-task-cpt","19","262338","0.0-5.0-0.2","124","1","2025-07-16 18:48:26","1f75c3e559b7213887762d5229550c2b","37.47.252.173","Mozilla/5.0 (Windows NT 10.0; Win64; x64; rv:140.0) Gecko/20100101 Firefox/140.0","","Firefox","140.0","Windows","10.0","https://app.prolific.com/","pl","66a6211743bf2623c0a8eb81","686e379bc37a29ffa5cdc956","6877f3ed2932b97efdac2dab","1","1","66a6211743bf2623c0a8eb81","1","1","2025-07-16T18:52:49.577Z","","","","","","","","","","","","","","win-only","0","g1:NW,g2:SE","0.8","3","0","243825","988","5990","17392","1","4","4","6","1","1","1","12","11","0.09090909090909091","2086","3000","2465","[""left"",""up""]","{""num_key_presses"":4,""num_perfect"":3,""num_errors"":0,""num_randdir"":1,""num_randdir_good_moves"":1,""num_whilered"":0,""num_whileblue"":0,""num_blue"":0,""num_good_moves"":4}","[298.22857753208706,297.92857448032925,0,298.22857753208706,297.92857448032925,110,298.22857753208706,297.92857448032925,221,298.22857753208706,297.92857448032925,332,298.22857753208706,297.92857448032925,443,298.22857753208706,297.92857448032925,554,298.22857753208706,297.92857448032925,666,489.22857753208706,500.92857448032925,778,492.22857753208706,505.92857448032925,889,492.22857753208706,505.92857448032925,1002,499.22857753208706,510.92857448032925,1114,299.22857753208706,260.92857448032925,1226,255.22857753208706,198.92857448032925,1336,255.22857753208706,198.92857448032925,1447,173.22857753208706,98.92857448032925,1561,123.22857753208706,56.92857448032924,1671,111.22857753208706,48.92857448032924,1784,89.22857753208706,46.92857448032924,1896,83.22857753208706,46.92857448032924,2009,83.22857753208706,46.92857448032924,2120,83.22857753208706,46.92857448032924,2232,83.22857753208706,46.92857448032924,2343,83.22857753208706,46.92857448032924,2456,-138.77142246791294,81.92857448032925,2568,-150.77142246791294,83.92857448032925,2680,-150.77142246791294,83.92857448032925,2793,-150.77142246791294,83.92857448032925,2906,-150.77142246791294,83.92857448032925,3017,-150.77142246791294,83.92857448032925,3129,-150.77142246791294,83.92857448032925,3241,-150.77142246791294,83.92857448032925,3355,-150.77142246791294,83.92857448032925,3466,-150.77142246791294,83.92857448032925,3579,-150.77142246791294,83.92857448032925,3691,-150.77142246791294,83.92857448032925,3803,-150.77142246791294,83.92857448032925,3914,-150.77142246791294,83.92857448032925,4025,-150.77142246791294,83.92857448032925,4139,-150.77142246791294,83.92857448032925,4248,-150.77142246791294,83.92857448032925,4362,-150.77142246791294,83.92857448032925,4474,-150.77142246791294,83.92857448032925,4589,-150.77142246791294,83.92857448032925,4698,-150.77142246791294,83.92857448032925,4810,-150.77142246791294,83.92857448032925,4922]","[1442,1442,1000,0,442,""smooth"",""up"",""up"",""good_move"",4835,3393,2948.3,1442,444.7,""smooth"",""up"",""up"",""good_move"",7935,3100,2153.4,4836,945.6,""smooth"",""left"",""left"",""good_move"",11124,3188,1881.2,7936,1306.8,""oops"",""left"",""left"",""good_move""]","",""
"2817","","<div style=""width:500px;"">
  <p>What determined the result of this run?</p>
  </div>","81","html-slider-response","20","265157","0.0-5.0-1.2","124","1","2025-07-16 18:48:26","1f75c3e559b7213887762d5229550c2b","37.47.252.173","Mozilla/5.0 (Windows NT 10.0; Win64; x64; rv:140.0) Gecko/20100101 Firefox/140.0","","Firefox","140.0","Windows","10.0","https://app.prolific.com/","pl","66a6211743bf2623c0a8eb81","686e379bc37a29ffa5cdc956","6877f3ed2932b97efdac2dab","1","1","66a6211743bf2623c0a8eb81","1","1","2025-07-16T18:52:52.395Z","","","","","","","","","","","AttribQ","","50","","","","","","","","","","","","","","","","","","","","","","","","","","","","",""
"2063","","<div style=""width:500px;"">
  <p>How much control did you have over the ball?</p>
  </div>","85","html-slider-response","21","267222","0.0-5.0-2.2","124","1","2025-07-16 18:48:26","1f75c3e559b7213887762d5229550c2b","37.47.252.173","Mozilla/5.0 (Windows NT 10.0; Win64; x64; rv:140.0) Gecko/20100101 Firefox/140.0","","Firefox","140.0","Windows","10.0","https://app.prolific.com/","pl","66a6211743bf2623c0a8eb81","686e379bc37a29ffa5cdc956","6877f3ed2932b97efdac2dab","1","1","66a6211743bf2623c0a8eb81","1","1","2025-07-16T18:52:54.460Z","","","","","","","","","","","ControlQ","","50","","","","","","","","","","","","","","","","","","","","","","","","","","","","",""
"2203","","<div style=""width:500px;"">
  <p>How would you describe your current emotional state?</p>
  </div>","50","html-slider-response","22","269429","0.0-5.0-3.2","124","1","2025-07-16 18:48:26","1f75c3e559b7213887762d5229550c2b","37.47.252.173","Mozilla/5.0 (Windows NT 10.0; Win64; x64; rv:140.0) Gecko/20100101 Firefox/140.0","","Firefox","140.0","Windows","10.0","https://app.prolific.com/","pl","66a6211743bf2623c0a8eb81","686e379bc37a29ffa5cdc956","6877f3ed2932b97efdac2dab","1","1","66a6211743bf2623c0a8eb81","1","1","2025-07-16T18:52:56.667Z","","","","","","","","","","","StressQ","","50","","","","","","","","","","","","","","","","","","","","","","","","","","","","",""
"6083","","<div style=""width:500px;"">
  <p>What best describes how you currently feel?</p>
  </div>","93","html-slider-response","23","275520","0.0-5.0-4.2","124","1","2025-07-16 18:48:26","1f75c3e559b7213887762d5229550c2b","37.47.252.173","Mozilla/5.0 (Windows NT 10.0; Win64; x64; rv:140.0) Gecko/20100101 Firefox/140.0","","Firefox","140.0","Windows","10.0","https://app.prolific.com/","pl","66a6211743bf2623c0a8eb81","686e379bc37a29ffa5cdc956","6877f3ed2932b97efdac2dab","1","1","66a6211743bf2623c0a8eb81","1","1","2025-07-16T18:53:02.758Z","","","","","","","","","","","MotivationQ","","50","","","","","","","","","","","","","","","","","","","","","","","","","","","","",""
"","","","","ctl-task-cpt","24","302419","0.0-5.0-0.3","124","1","2025-07-16 18:48:26","1f75c3e559b7213887762d5229550c2b","37.47.252.173","Mozilla/5.0 (Windows NT 10.0; Win64; x64; rv:140.0) Gecko/20100101 Firefox/140.0","","Firefox","140.0","Windows","10.0","https://app.prolific.com/","pl","66a6211743bf2623c0a8eb81","686e379bc37a29ffa5cdc956","6877f3ed2932b97efdac2dab","1","1","66a6211743bf2623c0a8eb81","1","1","2025-07-16T18:53:29.657Z","","","","","","","","","","","","","","win-only","2","g1:SE,g2:NW","0.7","4","0","277415","1344","6353","23873","1","4","8","6","2","8","8","20","12","0.15151515151515152","1249","3000","2310","[""left"",""up""]","{""num_key_presses"":6,""num_perfect"":5,""num_errors"":0,""num_randdir"":1,""num_randdir_good_moves"":1,""num_whilered"":0,""num_whileblue"":0,""num_blue"":0,""num_good_moves"":6}","[297.22857753208706,295.92857448032925,0,297.22857753208706,295.92857448032925,115,297.22857753208706,295.92857448032925,223,297.22857753208706,295.92857448032925,336,297.22857753208706,295.92857448032925,448,297.22857753208706,295.92857448032925,559,297.22857753208706,295.92857448032925,672,64.22857753208706,77.92857448032925,784,7.228577532087051,24.92857448032924,896,7.228577532087051,24.92857448032924,1007,7.228577532087051,24.92857448032924,1121,7.228577532087051,24.92857448032924,1232,7.228577532087051,24.92857448032924,1342,7.228577532087051,24.92857448032924,1453,7.228577532087051,24.92857448032924,1566,7.228577532087051,24.92857448032924,1681,-113.77142246791294,48.92857448032924,1788,-150.77142246791294,61.92857448032924,1898,-150.77142246791294,61.92857448032924,2013,-150.77142246791294,61.92857448032924,2122,-150.77142246791294,61.92857448032924,2235,-150.77142246791294,61.92857448032924,2348,-150.77142246791294,61.92857448032924,2462,-150.77142246791294,61.92857448032924,2571,-150.77142246791294,61.92857448032924,2677,-150.77142246791294,61.92857448032924,2786,-150.77142246791294,61.92857448032924,2894,-150.77142246791294,61.92857448032924,2996,-150.77142246791294,61.92857448032924,3100,-150.77142246791294,61.92857448032924,3206,-150.77142246791294,61.92857448032924,3307,-150.77142246791294,61.92857448032924,3410,-150.77142246791294,61.92857448032924,3520,-150.77142246791294,61.92857448032924,3627,-150.77142246791294,61.92857448032924,3728,-150.77142246791294,61.92857448032924,3836,-150.77142246791294,61.92857448032924,3937,-150.77142246791294,61.92857448032924,4039,-150.77142246791294,61.92857448032924,4148,-150.77142246791294,61.92857448032924,4256,-150.77142246791294,61.92857448032924,4366,-150.77142246791294,61.92857448032924,4466,-150.77142246791294,61.92857448032924,4572,-150.77142246791294,61.92857448032924,4684,-150.77142246791294,61.92857448032924,4799,-150.77142246791294,61.92857448032924,4900]","[1387,1387,1000,0,387,""smooth"",""up"",""up"",""good_move"",4567,3179,2806.7,1388,372.3,""smooth"",""up"",""up"",""good_move"",7977,3409,2994.7,4568,414.3,""smooth"",""left"",""left"",""good_move"",11033,3056,2312.2,7977,743.8,""smooth"",""left"",""left"",""good_move"",14059,3025,2541.4,11034,483.6,""oops"",""up"",""left"",""good_move"",17245,3186,2837.9,14059,348.1,""smooth"",""up"",""up"",""good_move""]","",""
"3357","","<div style=""width:500px;"">
  <p>What determined the result of this run?</p>
  </div>","92","html-slider-response","25","305779","0.0-5.0-1.3","124","1","2025-07-16 18:48:26","1f75c3e559b7213887762d5229550c2b","37.47.252.173","Mozilla/5.0 (Windows NT 10.0; Win64; x64; rv:140.0) Gecko/20100101 Firefox/140.0","","Firefox","140.0","Windows","10.0","https://app.prolific.com/","pl","66a6211743bf2623c0a8eb81","686e379bc37a29ffa5cdc956","6877f3ed2932b97efdac2dab","1","1","66a6211743bf2623c0a8eb81","1","1","2025-07-16T18:53:33.017Z","","","","","","","","","","","AttribQ","","50","","","","","","","","","","","","","","","","","","","","","","","","","","","","",""
"2540","","<div style=""width:500px;"">
  <p>How much control did you have over the ball?</p>
  </div>","89","html-slider-response","26","308322","0.0-5.0-2.3","124","1","2025-07-16 18:48:26","1f75c3e559b7213887762d5229550c2b","37.47.252.173","Mozilla/5.0 (Windows NT 10.0; Win64; x64; rv:140.0) Gecko/20100101 Firefox/140.0","","Firefox","140.0","Windows","10.0","https://app.prolific.com/","pl","66a6211743bf2623c0a8eb81","686e379bc37a29ffa5cdc956","6877f3ed2932b97efdac2dab","1","1","66a6211743bf2623c0a8eb81","1","1","2025-07-16T18:53:35.560Z","","","","","","","","","","","ControlQ","","50","","","","","","","","","","","","","","","","","","","","","","","","","","","","",""
"3407","","<div style=""width:500px;"">
  <p>How would you describe your current emotional state?</p>
  </div>","1","html-slider-response","27","311729","0.0-5.0-3.3","124","1","2025-07-16 18:48:26","1f75c3e559b7213887762d5229550c2b","37.47.252.173","Mozilla/5.0 (Windows NT 10.0; Win64; x64; rv:140.0) Gecko/20100101 Firefox/140.0","","Firefox","140.0","Windows","10.0","https://app.prolific.com/","pl","66a6211743bf2623c0a8eb81","686e379bc37a29ffa5cdc956","6877f3ed2932b97efdac2dab","1","1","66a6211743bf2623c0a8eb81","1","1","2025-07-16T18:53:38.967Z","","","","","","","","","","","StressQ","","50","","","","","","","","","","","","","","","","","","","","","","","","","","","","",""
"3435","","<div style=""width:500px;"">
  <p>What best describes how you currently feel?</p>
  </div>","98","html-slider-response","28","315166","0.0-5.0-4.3","124","1","2025-07-16 18:48:26","1f75c3e559b7213887762d5229550c2b","37.47.252.173","Mozilla/5.0 (Windows NT 10.0; Win64; x64; rv:140.0) Gecko/20100101 Firefox/140.0","","Firefox","140.0","Windows","10.0","https://app.prolific.com/","pl","66a6211743bf2623c0a8eb81","686e379bc37a29ffa5cdc956","6877f3ed2932b97efdac2dab","1","1","66a6211743bf2623c0a8eb81","1","1","2025-07-16T18:53:42.405Z","","","","","","","","","","","MotivationQ","","50","","","","","","","","","","","","","","","","","","","","","","","","","","","","",""
"","","","","ctl-task-cpt","29","336630","0.0-5.0-0.4","124","1","2025-07-16 18:48:26","1f75c3e559b7213887762d5229550c2b","37.47.252.173","Mozilla/5.0 (Windows NT 10.0; Win64; x64; rv:140.0) Gecko/20100101 Firefox/140.0","","Firefox","140.0","Windows","10.0","https://app.prolific.com/","pl","66a6211743bf2623c0a8eb81","686e379bc37a29ffa5cdc956","6877f3ed2932b97efdac2dab","1","1","66a6211743bf2623c0a8eb81","1","1","2025-07-16T18:54:03.868Z","","","","","","","","","","","","","","win-only","0","g1:NW,g2:SE","0.6","5","0","317055","967","5983","18451","1","4","4","6","1","1","0","20","20","0.15151515151515152","1681","3000","2625","[""left"",""up""]","{""num_key_presses"":4,""num_perfect"":3,""num_errors"":1,""num_randdir"":0,""num_randdir_good_moves"":0,""num_whilered"":0,""num_whileblue"":1,""num_blue"":1,""num_good_moves"":4}","[297.22857753208706,294.92857448032925,0,297.22857753208706,294.92857448032925,113,297.22857753208706,294.92857448032925,224,297.22857753208706,294.92857448032925,335,297.22857753208706,294.92857448032925,447,297.22857753208706,294.92857448032925,547,297.22857753208706,294.92857448032925,655,296.22857753208706,290.92857448032925,767,214.22857753208706,143.92857448032925,880,213.22857753208706,143.92857448032925,991,213.22857753208706,143.92857448032925,1102,140.22857753208706,89.92857448032925,1214,122.22857753208706,83.92857448032925,1325,105.22857753208706,74.92857448032925,1437,90.22857753208706,63.92857448032924,1549,90.22857753208706,63.92857448032924,1663,90.22857753208706,63.92857448032924,1771,90.22857753208706,63.92857448032924,1885,90.22857753208706,63.92857448032924,1994,90.22857753208706,63.92857448032924,2106,5.228577532087051,57.92857448032924,2217,-163.77142246791294,74.92857448032925,2329,-163.77142246791294,74.92857448032925,2441,-163.77142246791294,74.92857448032925,2553,-163.77142246791294,74.92857448032925,2666,-163.77142246791294,74.92857448032925,2778,-163.77142246791294,74.92857448032925,2889,-163.77142246791294,74.92857448032925,3002,-163.77142246791294,74.92857448032925,3114,-163.77142246791294,74.92857448032925,3226,-163.77142246791294,74.92857448032925,3337,-163.77142246791294,74.92857448032925,3449,-163.77142246791294,74.92857448032925,3561,-163.77142246791294,74.92857448032925,3674,-163.77142246791294,74.92857448032925,3785,-163.77142246791294,74.92857448032925,3896,-163.77142246791294,74.92857448032925,4010,-163.77142246791294,74.92857448032925,4121,-163.77142246791294,74.92857448032925,4234,-163.77142246791294,74.92857448032925,4345,-163.77142246791294,74.92857448032925,4457,-163.77142246791294,74.92857448032925,4568,-163.77142246791294,74.92857448032925,4682,-163.77142246791294,74.92857448032925,4794,-163.77142246791294,74.92857448032925,4906]","[1412,1412,1000,0,412,""smooth"",""up"",""up"",""good_move"",4587,3175,2784.8,1412,390.2,""smooth"",""up"",""up"",""good_move"",8615,4028,3596.3,4587,431.7,""smooth"",""left"",""left"",""good_move"",12192,3577,3199,8615,378,""while_blue"",""left"",""left"",""good_move""]","",""
"2409","","<div style=""width:500px;"">
  <p>What determined the result of this run?</p>
  </div>","85","html-slider-response","30","339043","0.0-5.0-1.4","124","1","2025-07-16 18:48:26","1f75c3e559b7213887762d5229550c2b","37.47.252.173","Mozilla/5.0 (Windows NT 10.0; Win64; x64; rv:140.0) Gecko/20100101 Firefox/140.0","","Firefox","140.0","Windows","10.0","https://app.prolific.com/","pl","66a6211743bf2623c0a8eb81","686e379bc37a29ffa5cdc956","6877f3ed2932b97efdac2dab","1","1","66a6211743bf2623c0a8eb81","1","1","2025-07-16T18:54:06.281Z","","","","","","","","","","","AttribQ","","50","","","","","","","","","","","","","","","","","","","","","","","","","","","","",""
"3301","","<div style=""width:500px;"">
  <p>How much control did you have over the ball?</p>
  </div>","85","html-slider-response","31","342348","0.0-5.0-2.4","124","1","2025-07-16 18:48:26","1f75c3e559b7213887762d5229550c2b","37.47.252.173","Mozilla/5.0 (Windows NT 10.0; Win64; x64; rv:140.0) Gecko/20100101 Firefox/140.0","","Firefox","140.0","Windows","10.0","https://app.prolific.com/","pl","66a6211743bf2623c0a8eb81","686e379bc37a29ffa5cdc956","6877f3ed2932b97efdac2dab","1","1","66a6211743bf2623c0a8eb81","1","1","2025-07-16T18:54:09.587Z","","","","","","","","","","","ControlQ","","50","","","","","","","","","","","","","","","","","","","","","","","","","","","","",""
"2542","","<div style=""width:500px;"">
  <p>How would you describe your current emotional state?</p>
  </div>","31","html-slider-response","32","344892","0.0-5.0-3.4","124","1","2025-07-16 18:48:26","1f75c3e559b7213887762d5229550c2b","37.47.252.173","Mozilla/5.0 (Windows NT 10.0; Win64; x64; rv:140.0) Gecko/20100101 Firefox/140.0","","Firefox","140.0","Windows","10.0","https://app.prolific.com/","pl","66a6211743bf2623c0a8eb81","686e379bc37a29ffa5cdc956","6877f3ed2932b97efdac2dab","1","1","66a6211743bf2623c0a8eb81","1","1","2025-07-16T18:54:12.131Z","","","","","","","","","","","StressQ","","50","","","","","","","","","","","","","","","","","","","","","","","","","","","","",""
"2764","","<div style=""width:500px;"">
  <p>What best describes how you currently feel?</p>
  </div>","89","html-slider-response","33","347660","0.0-5.0-4.4","124","1","2025-07-16 18:48:26","1f75c3e559b7213887762d5229550c2b","37.47.252.173","Mozilla/5.0 (Windows NT 10.0; Win64; x64; rv:140.0) Gecko/20100101 Firefox/140.0","","Firefox","140.0","Windows","10.0","https://app.prolific.com/","pl","66a6211743bf2623c0a8eb81","686e379bc37a29ffa5cdc956","6877f3ed2932b97efdac2dab","1","1","66a6211743bf2623c0a8eb81","1","1","2025-07-16T18:54:14.898Z","","","","","","","","","","","MotivationQ","","50","","","","","","","","","","","","","","","","","","","","","","","","","","","","",""
"","","","","ctl-task-cpt","34","380529","0.0-5.0-0.5","124","1","2025-07-16 18:48:26","1f75c3e559b7213887762d5229550c2b","37.47.252.173","Mozilla/5.0 (Windows NT 10.0; Win64; x64; rv:140.0) Gecko/20100101 Firefox/140.0","","Firefox","140.0","Windows","10.0","https://app.prolific.com/","pl","66a6211743bf2623c0a8eb81","686e379bc37a29ffa5cdc956","6877f3ed2932b97efdac2dab","1","1","66a6211743bf2623c0a8eb81","1","1","2025-07-16T18:54:47.767Z","","","","","","","","","","","","","","win-only","2","g1:SE,g2:NW","0.5","6","0","349549","1019","6035","29857","1","4","8","6","2","8","8","28","20","0.21212121212121213","1305","3000","2190","[""left"",""up""]","{""num_key_presses"":6,""num_perfect"":4,""num_errors"":0,""num_randdir"":2,""num_randdir_good_moves"":2,""num_whilered"":0,""num_whileblue"":0,""num_blue"":2,""num_good_moves"":6}","[302.22857753208706,302.92857448032925,0,302.22857753208706,302.92857448032925,102,302.22857753208706,302.92857448032925,214,302.22857753208706,302.92857448032925,326,302.22857753208706,302.92857448032925,437,302.22857753208706,302.92857448032925,550,302.22857753208706,302.92857448032925,661,164.22857753208706,131.92857448032925,773,148.22857753208706,117.92857448032925,884,120.22857753208706,99.92857448032925,996,75.22857753208706,67.92857448032925,1107,67.22857753208706,61.92857448032924,1220,67.22857753208706,61.92857448032924,1334,67.22857753208706,61.92857448032924,1443,67.22857753208706,61.92857448032924,1557,67.22857753208706,61.92857448032924,1669,0.22857753208705134,61.92857448032924,1783,-128.77142246791294,70.92857448032925,1893,-136.77142246791294,70.92857448032925,2006,-136.77142246791294,70.92857448032925,2117,-136.77142246791294,70.92857448032925,2229,-136.77142246791294,70.92857448032925,2342,-136.77142246791294,70.92857448032925,2452,-136.77142246791294,70.92857448032925,2566,-136.77142246791294,70.92857448032925,2680,-136.77142246791294,70.92857448032925,2792,-136.77142246791294,70.92857448032925,2904,-136.77142246791294,70.92857448032925,3015,-136.77142246791294,70.92857448032925,3115,-136.77142246791294,70.92857448032925,3223,-136.77142246791294,70.92857448032925,3336,-136.77142246791294,70.92857448032925,3447,-136.77142246791294,70.92857448032925,3559,-136.77142246791294,70.92857448032925,3672,-136.77142246791294,70.92857448032925,3783,-136.77142246791294,70.92857448032925,3883,-136.77142246791294,70.92857448032925,3991,-136.77142246791294,70.92857448032925,4104,-136.77142246791294,70.92857448032925,4215,-136.77142246791294,70.92857448032925,4328,-136.77142246791294,70.92857448032925,4439,-136.77142246791294,70.92857448032925,4552,-136.77142246791294,70.92857448032925,4665,-136.77142246791294,70.92857448032925,4775,-136.77142246791294,70.92857448032925,4888,-136.77142246791294,70.92857448032925,4999]","[1416,1416,1000,0,416,""smooth"",""up"",""up"",""good_move"",4982,3566,3096.3,1416,470.7,""oops"",""up"",""up"",""good_move"",8025,3042,2444.9,4983,597.1,""oops"",""left"",""left"",""good_move"",11074,3050,2671.4,8025,378.6,""smooth"",""up"",""up"",""good_move"",17635,6560,2453.9,14716,465.1,""smooth"",""left"",""left"",""good_move"",23565,5929,1868.3,21311,385.7,""smooth"",""left"",""left"",""good_move""]","",""
"2511","","<div style=""width:500px;"">
  <p>What determined the result of this run?</p>
  </div>","94","html-slider-response","35","383042","0.0-5.0-1.5","124","1","2025-07-16 18:48:26","1f75c3e559b7213887762d5229550c2b","37.47.252.173","Mozilla/5.0 (Windows NT 10.0; Win64; x64; rv:140.0) Gecko/20100101 Firefox/140.0","","Firefox","140.0","Windows","10.0","https://app.prolific.com/","pl","66a6211743bf2623c0a8eb81","686e379bc37a29ffa5cdc956","6877f3ed2932b97efdac2dab","1","1","66a6211743bf2623c0a8eb81","1","1","2025-07-16T18:54:50.280Z","","","","","","","","","","","AttribQ","","50","","","","","","","","","","","","","","","","","","","","","","","","","","","","",""
"2604","","<div style=""width:500px;"">
  <p>How much control did you have over the ball?</p>
  </div>","89","html-slider-response","36","385649","0.0-5.0-2.5","124","1","2025-07-16 18:48:26","1f75c3e559b7213887762d5229550c2b","37.47.252.173","Mozilla/5.0 (Windows NT 10.0; Win64; x64; rv:140.0) Gecko/20100101 Firefox/140.0","","Firefox","140.0","Windows","10.0","https://app.prolific.com/","pl","66a6211743bf2623c0a8eb81","686e379bc37a29ffa5cdc956","6877f3ed2932b97efdac2dab","1","1","66a6211743bf2623c0a8eb81","1","1","2025-07-16T18:54:52.887Z","","","","","","","","","","","ControlQ","","50","","","","","","","","","","","","","","","","","","","","","","","","","","","","",""
"2930","","<div style=""width:500px;"">
  <p>How would you describe your current emotional state?</p>
  </div>","10","html-slider-response","37","388583","0.0-5.0-3.5","124","1","2025-07-16 18:48:26","1f75c3e559b7213887762d5229550c2b","37.47.252.173","Mozilla/5.0 (Windows NT 10.0; Win64; x64; rv:140.0) Gecko/20100101 Firefox/140.0","","Firefox","140.0","Windows","10.0","https://app.prolific.com/","pl","66a6211743bf2623c0a8eb81","686e379bc37a29ffa5cdc956","6877f3ed2932b97efdac2dab","1","1","66a6211743bf2623c0a8eb81","1","1","2025-07-16T18:54:55.821Z","","","","","","","","","","","StressQ","","50","","","","","","","","","","","","","","","","","","","","","","","","","","","","",""
"3349","","<div style=""width:500px;"">
  <p>What best describes how you currently feel?</p>
  </div>","98","html-slider-response","38","391933","0.0-5.0-4.5","124","1","2025-07-16 18:48:26","1f75c3e559b7213887762d5229550c2b","37.47.252.173","Mozilla/5.0 (Windows NT 10.0; Win64; x64; rv:140.0) Gecko/20100101 Firefox/140.0","","Firefox","140.0","Windows","10.0","https://app.prolific.com/","pl","66a6211743bf2623c0a8eb81","686e379bc37a29ffa5cdc956","6877f3ed2932b97efdac2dab","1","1","66a6211743bf2623c0a8eb81","1","1","2025-07-16T18:54:59.171Z","","","","","","","","","","","MotivationQ","","50","","","","","","","","","","","","","","","","","","","","","","","","","","","","",""
"","","","","ctl-task-cpt","39","449686","0.0-5.0-0.6","124","1","2025-07-16 18:48:26","1f75c3e559b7213887762d5229550c2b","37.47.252.173","Mozilla/5.0 (Windows NT 10.0; Win64; x64; rv:140.0) Gecko/20100101 Firefox/140.0","","Firefox","140.0","Windows","10.0","https://app.prolific.com/","pl","66a6211743bf2623c0a8eb81","686e379bc37a29ffa5cdc956","6877f3ed2932b97efdac2dab","1","1","66a6211743bf2623c0a8eb81","1","1","2025-07-16T18:55:56.925Z","","","","","","","","","","","","","","win-only","0","g1:NW,g2:SE","0.4","7","0","393819","1063","6068","54737","1","4","4","6","1","1","0","28","28","0.21212121212121213","1436","3000","695","[""left"",""up""]","{""num_key_presses"":16,""num_perfect"":8,""num_errors"":1,""num_randdir"":7,""num_randdir_good_moves"":2,""num_whilered"":0,""num_whileblue"":1,""num_blue"":1,""num_good_moves"":10}","[298.22857753208706,300.92857448032925,0,298.22857753208706,300.92857448032925,114,298.22857753208706,300.92857448032925,220,298.22857753208706,300.92857448032925,329,298.22857753208706,300.92857448032925,433,298.22857753208706,300.92857448032925,539,298.22857753208706,300.92857448032925,643,298.22857753208706,300.92857448032925,744,157.22857753208706,142.92857448032925,849,136.22857753208706,125.92857448032925,955,112.22857753208706,107.92857448032925,1069,81.22857753208706,73.92857448032925,1179,70.22857753208706,67.92857448032925,1287,70.22857753208706,67.92857448032925,1393,70.22857753208706,67.92857448032925,1508,70.22857753208706,67.92857448032925,1619,70.22857753208706,67.92857448032925,1729,70.22857753208706,67.92857448032925,1838,70.22857753208706,67.92857448032925,1944,32.22857753208705,71.92857448032925,2046,-60.77142246791295,86.92857448032925,2155,-73.77142246791294,88.92857448032925,2263,-73.77142246791294,88.92857448032925,2375,-73.77142246791294,88.92857448032925,2478,-73.77142246791294,88.92857448032925,2585,-73.77142246791294,88.92857448032925,2692,-73.77142246791294,88.92857448032925,2798,-73.77142246791294,88.92857448032925,2908,-73.77142246791294,88.92857448032925,3008,-73.77142246791294,88.92857448032925,3115,-73.77142246791294,88.92857448032925,3224,-73.77142246791294,88.92857448032925,3329,-73.77142246791294,88.92857448032925,3433,-73.77142246791294,88.92857448032925,3538,-73.77142246791294,88.92857448032925,3644,-73.77142246791294,88.92857448032925,3749,-73.77142246791294,88.92857448032925,3858,-73.77142246791294,88.92857448032925,3966,-73.77142246791294,88.92857448032925,4078,-73.77142246791294,88.92857448032925,4184,-73.77142246791294,88.92857448032925,4290,-73.77142246791294,88.92857448032925,4393,-73.77142246791294,88.92857448032925,4502,-73.77142246791294,88.92857448032925,4609,-73.77142246791294,88.92857448032925,4713,-73.77142246791294,88.92857448032925,4819,-73.77142246791294,88.92857448032925,4925]","[1449,1449,1000,0,449,""oops"",""up"",""right"",""bad_move"",4765,3316,2899.9,1449,416.1,""smooth"",""up"",""up"",""good_move"",8285,3519,3001.9,4766,517.1,""oops"",""up"",""left"",""good_move"",11398,3113,2387.3,8286,724.7,""smooth"",""up"",""up"",""good_move"",14742,3344,2836.2,11398,507.8,""oops"",""left"",""right"",""bad_move"",17556,2814,2402,14742,412,""while_blue"",""left"",""right"",""bad_move"",20190,2634,2004.5,17556,629.5,""oops"",""left"",""down"",""bad_move"",23254,3064,2572.4,20190,491.6,""oops"",""left"",""down"",""bad_move"",26345,3090,2540.3,23255,549.7,""oops"",""up"",""right"",""bad_move"",29770,3424,2914.7,26346,509.3,""smooth"",""up"",""up"",""good_move"",33228,3458,2990.8,29770,467.2,""smooth"",""up"",""up"",""good_move"",36443,3214,2760.5,33229,453.5,""smooth"",""left"",""left"",""good_move"",39579,3136,2573.9,36443,562.1,""smooth"",""left"",""left"",""good_move"",42466,2887,1930.3,39579,956.7,""smooth"",""left"",""left"",""good_move"",45451,2985,1787.7,42466,1197.3,""smooth"",""left"",""left"",""good_move"",48401,2950,2053.8,45451,896.2,""oops"",""left"",""left"",""good_move""]","",""
"17419","","<div style=""width:500px;"">
  <p>What determined the result of this run?</p>
  </div>","79","html-slider-response","40","467110","0.0-5.0-1.6","124","1","2025-07-16 18:48:26","1f75c3e559b7213887762d5229550c2b","37.47.252.173","Mozilla/5.0 (Windows NT 10.0; Win64; x64; rv:140.0) Gecko/20100101 Firefox/140.0","","Firefox","140.0","Windows","10.0","https://app.prolific.com/","pl","66a6211743bf2623c0a8eb81","686e379bc37a29ffa5cdc956","6877f3ed2932b97efdac2dab","1","1","66a6211743bf2623c0a8eb81","1","1","2025-07-16T18:56:14.348Z","","","","","","","","","","","AttribQ","","50","","","","","","","","","","","","","","","","","","","","","","","","","","","","",""
"3542","","<div style=""width:500px;"">
  <p>How much control did you have over the ball?</p>
  </div>","88","html-slider-response","41","470654","0.0-5.0-2.6","124","1","2025-07-16 18:48:26","1f75c3e559b7213887762d5229550c2b","37.47.252.173","Mozilla/5.0 (Windows NT 10.0; Win64; x64; rv:140.0) Gecko/20100101 Firefox/140.0","","Firefox","140.0","Windows","10.0","https://app.prolific.com/","pl","66a6211743bf2623c0a8eb81","686e379bc37a29ffa5cdc956","6877f3ed2932b97efdac2dab","1","1","66a6211743bf2623c0a8eb81","1","1","2025-07-16T18:56:17.893Z","","","","","","","","","","","ControlQ","","50","","","","","","","","","","","","","","","","","","","","","","","","","","","","",""
"2932","","<div style=""width:500px;"">
  <p>How would you describe your current emotional state?</p>
  </div>","13","html-slider-response","42","473593","0.0-5.0-3.6","124","1","2025-07-16 18:48:26","1f75c3e559b7213887762d5229550c2b","37.47.252.173","Mozilla/5.0 (Windows NT 10.0; Win64; x64; rv:140.0) Gecko/20100101 Firefox/140.0","","Firefox","140.0","Windows","10.0","https://app.prolific.com/","pl","66a6211743bf2623c0a8eb81","686e379bc37a29ffa5cdc956","6877f3ed2932b97efdac2dab","1","1","66a6211743bf2623c0a8eb81","1","1","2025-07-16T18:56:20.832Z","","","","","","","","","","","StressQ","","50","","","","","","","","","","","","","","","","","","","","","","","","","","","","",""
"3148","","<div style=""width:500px;"">
  <p>What best describes how you currently feel?</p>
  </div>","87","html-slider-response","43","476745","0.0-5.0-4.6","124","1","2025-07-16 18:48:26","1f75c3e559b7213887762d5229550c2b","37.47.252.173","Mozilla/5.0 (Windows NT 10.0; Win64; x64; rv:140.0) Gecko/20100101 Firefox/140.0","","Firefox","140.0","Windows","10.0","https://app.prolific.com/","pl","66a6211743bf2623c0a8eb81","686e379bc37a29ffa5cdc956","6877f3ed2932b97efdac2dab","1","1","66a6211743bf2623c0a8eb81","1","1","2025-07-16T18:56:23.984Z","","","","","","","","","","","MotivationQ","","50","","","","","","","","","","","","","","","","","","","","","","","","","","","","",""
"","","","","ctl-task-cpt","44","530574","0.0-5.0-0.7","124","1","2025-07-16 18:48:26","1f75c3e559b7213887762d5229550c2b","37.47.252.173","Mozilla/5.0 (Windows NT 10.0; Win64; x64; rv:140.0) Gecko/20100101 Firefox/140.0","","Firefox","140.0","Windows","10.0","https://app.prolific.com/","pl","66a6211743bf2623c0a8eb81","686e379bc37a29ffa5cdc956","6877f3ed2932b97efdac2dab","1","1","66a6211743bf2623c0a8eb81","1","1","2025-07-16T18:57:17.812Z","","","","","","","","","","","","","","win-only","0","g1:NW,g2:SE","0.3","8","0","478635","1435","6446","50815","1","4","8","6","2","8","8","36","28","0.2727272727272727","1122","3000","1455","[""down"",""right""]","{""num_key_presses"":10,""num_perfect"":3,""num_errors"":0,""num_randdir"":7,""num_randdir_good_moves"":5,""num_whilered"":0,""num_whileblue"":0,""num_blue"":5,""num_good_moves"":8}","[302.22857753208706,298.92857448032925,0,302.22857753208706,298.92857448032925,106,302.22857753208706,298.92857448032925,216,302.22857753208706,298.92857448032925,327,302.22857753208706,298.92857448032925,439,302.22857753208706,298.92857448032925,549,386.22857753208706,375.92857448032925,662,563.228577532087,564.9285744803292,773,564.228577532087,566.9285744803292,884,564.228577532087,566.9285744803292,996,564.228577532087,566.9285744803292,1110,564.228577532087,566.9285744803292,1222,564.228577532087,566.9285744803292,1333,564.228577532087,566.9285744803292,1446,564.228577532087,566.9285744803292,1557,776.228577532087,457.92857448032925,1667,786.228577532087,451.92857448032925,1779,786.228577532087,451.92857448032925,1891,786.228577532087,451.92857448032925,2004,786.228577532087,451.92857448032925,2116,786.228577532087,451.92857448032925,2226,786.228577532087,451.92857448032925,2338,786.228577532087,451.92857448032925,2454,786.228577532087,451.92857448032925,2564,786.228577532087,451.92857448032925,2677,786.228577532087,451.92857448032925,2788,786.228577532087,451.92857448032925,2900,786.228577532087,451.92857448032925,3011,786.228577532087,451.92857448032925,3123,786.228577532087,451.92857448032925,3238,786.228577532087,451.92857448032925,3348,786.228577532087,451.92857448032925,3461,786.228577532087,451.92857448032925,3572,786.228577532087,451.92857448032925,3687,786.228577532087,451.92857448032925,3795,786.228577532087,451.92857448032925,3907,786.228577532087,451.92857448032925,4018,786.228577532087,451.92857448032925,4131,786.228577532087,451.92857448032925,4244,786.228577532087,451.92857448032925,4356,786.228577532087,451.92857448032925,4468,786.228577532087,451.92857448032925,4579,786.228577532087,451.92857448032925,4692,786.228577532087,451.92857448032925,4804,786.228577532087,451.92857448032925,4916]","[4705,4705,2127.5,2015,562.5,""smooth"",""down"",""down"",""good_move"",7931,3225,2667.4,4706,557.6,""smooth"",""right"",""right"",""good_move"",10811,2879,2389,7932,490,""smooth"",""right"",""right"",""good_move"",16499,5688,2033.9,14003,462.1,""oops"",""down"",""right"",""good_move"",24593,8094,2834.2,21273,485.8,""oops"",""down"",""down"",""good_move"",27398,2805,2392.7,24593,412.3,""oops"",""down"",""up"",""bad_move"",30999,3600,3018.3,27399,581.7,""oops"",""down"",""down"",""good_move"",34030,3031,2448.8,30999,582.2,""oops"",""down"",""left"",""bad_move"",37872,3841,3403.5,34031,437.5,""oops"",""down"",""right"",""good_move"",44070,6197,2035.9,41609,425.1,""oops"",""down"",""down"",""good_move""]","",""
"3162","","<div style=""width:500px;"">
  <p>What determined the result of this run?</p>
  </div>","83","html-slider-response","45","533738","0.0-5.0-1.7","124","1","2025-07-16 18:48:26","1f75c3e559b7213887762d5229550c2b","37.47.252.173","Mozilla/5.0 (Windows NT 10.0; Win64; x64; rv:140.0) Gecko/20100101 Firefox/140.0","","Firefox","140.0","Windows","10.0","https://app.prolific.com/","pl","66a6211743bf2623c0a8eb81","686e379bc37a29ffa5cdc956","6877f3ed2932b97efdac2dab","1","1","66a6211743bf2623c0a8eb81","1","1","2025-07-16T18:57:20.977Z","","","","","","","","","","","AttribQ","","50","","","","","","","","","","","","","","","","","","","","","","","","","","","","",""
"3277","","<div style=""width:500px;"">
  <p>How much control did you have over the ball?</p>
  </div>","77","html-slider-response","46","537018","0.0-5.0-2.7","124","1","2025-07-16 18:48:26","1f75c3e559b7213887762d5229550c2b","37.47.252.173","Mozilla/5.0 (Windows NT 10.0; Win64; x64; rv:140.0) Gecko/20100101 Firefox/140.0","","Firefox","140.0","Windows","10.0","https://app.prolific.com/","pl","66a6211743bf2623c0a8eb81","686e379bc37a29ffa5cdc956","6877f3ed2932b97efdac2dab","1","1","66a6211743bf2623c0a8eb81","1","1","2025-07-16T18:57:24.256Z","","","","","","","","","","","ControlQ","","50","","","","","","","","","","","","","","","","","","","","","","","","","","","","",""
"3439","","<div style=""width:500px;"">
  <p>How would you describe your current emotional state?</p>
  </div>","20","html-slider-response","47","540460","0.0-5.0-3.7","124","1","2025-07-16 18:48:26","1f75c3e559b7213887762d5229550c2b","37.47.252.173","Mozilla/5.0 (Windows NT 10.0; Win64; x64; rv:140.0) Gecko/20100101 Firefox/140.0","","Firefox","140.0","Windows","10.0","https://app.prolific.com/","pl","66a6211743bf2623c0a8eb81","686e379bc37a29ffa5cdc956","6877f3ed2932b97efdac2dab","1","1","66a6211743bf2623c0a8eb81","1","1","2025-07-16T18:57:27.698Z","","","","","","","","","","","StressQ","","50","","","","","","","","","","","","","","","","","","","","","","","","","","","","",""
"7007","","<div style=""width:500px;"">
  <p>What best describes how you currently feel?</p>
  </div>","96","html-slider-response","48","547472","0.0-5.0-4.7","124","1","2025-07-16 18:48:26","1f75c3e559b7213887762d5229550c2b","37.47.252.173","Mozilla/5.0 (Windows NT 10.0; Win64; x64; rv:140.0) Gecko/20100101 Firefox/140.0","","Firefox","140.0","Windows","10.0","https://app.prolific.com/","pl","66a6211743bf2623c0a8eb81","686e379bc37a29ffa5cdc956","6877f3ed2932b97efdac2dab","1","1","66a6211743bf2623c0a8eb81","1","1","2025-07-16T18:57:34.710Z","","","","","","","","","","","MotivationQ","","50","","","","","","","","","","","","","","","","","","","","","","","","","","","","",""
"","","","","ctl-task-cpt","49","649370","0.0-5.0-0.8","124","1","2025-07-16 18:48:26","1f75c3e559b7213887762d5229550c2b","37.47.252.173","Mozilla/5.0 (Windows NT 10.0; Win64; x64; rv:140.0) Gecko/20100101 Firefox/140.0","","Firefox","140.0","Windows","10.0","https://app.prolific.com/","pl","66a6211743bf2623c0a8eb81","686e379bc37a29ffa5cdc956","6877f3ed2932b97efdac2dab","1","1","66a6211743bf2623c0a8eb81","1","1","2025-07-16T18:59:16.609Z","","","","","","","","","","","","","","win-only","0","g1:NW,g2:SE","0.2","9","0","549359","1064","6067","98886","1","4","8","6","2","-8","-9","27","36","0.20454545454545456","2290","3000","-970","[""down"",""right""]","{""num_key_presses"":25,""num_perfect"":6,""num_errors"":1,""num_randdir"":18,""num_randdir_good_moves"":8,""num_whilered"":0,""num_whileblue"":1,""num_blue"":5,""num_good_moves"":15}","[298.22857753208706,299.92857448032925,0,298.22857753208706,299.92857448032925,110,298.22857753208706,299.92857448032925,222,298.22857753208706,299.92857448032925,335,298.22857753208706,299.92857448032925,445,298.22857753208706,299.92857448032925,559,298.22857753208706,299.92857448032925,670,298.22857753208706,299.92857448032925,784,298.22857753208706,299.92857448032925,896,352.22857753208706,301.92857448032925,1001,314.22857753208706,230.92857448032925,1108,298.22857753208706,216.92857448032925,1213,298.22857753208706,216.92857448032925,1318,453.22857753208706,406.92857448032925,1433,478.22857753208706,446.92857448032925,1538,478.22857753208706,446.92857448032925,1643,478.22857753208706,446.92857448032925,1750,511.22857753208706,476.92857448032925,1850,527.228577532087,499.92857448032925,1950,530.228577532087,503.92857448032925,2055,532.228577532087,506.92857448032925,2164,532.228577532087,506.92857448032925,2266,532.228577532087,506.92857448032925,2379,532.228577532087,506.92857448032925,2489,532.228577532087,506.92857448032925,2602,532.228577532087,506.92857448032925,2706,677.228577532087,452.92857448032925,2815,788.228577532087,410.92857448032925,2922,788.228577532087,410.92857448032925,3032,788.228577532087,410.92857448032925,3138,788.228577532087,410.92857448032925,3244,788.228577532087,410.92857448032925,3353,788.228577532087,410.92857448032925,3458,788.228577532087,410.92857448032925,3558,788.228577532087,410.92857448032925,3663,788.228577532087,410.92857448032925,3765,788.228577532087,410.92857448032925,3883,788.228577532087,410.92857448032925,3993,788.228577532087,410.92857448032925,4098,788.228577532087,410.92857448032925,4199,788.228577532087,410.92857448032925,4302,788.228577532087,410.92857448032925,4408,788.228577532087,410.92857448032925,4513,788.228577532087,410.92857448032925,4614,788.228577532087,410.92857448032925,4718,788.228577532087,410.92857448032925,4822,788.228577532087,410.92857448032925,4930]","[1415,1415,1000,0,415,""oops"",""down"",""down"",""good_move"",7733,6318,3057.2,4212,463.8,""oops"",""down"",""up"",""bad_move"",11045,3312,2839.7,7733,472.3,""smooth"",""down"",""down"",""good_move"",13700,2655,2262.5,11045,392.5,""smooth"",""right"",""right"",""good_move"",17383,3683,3292.5,13700,390.5,""oops"",""down"",""left"",""bad_move"",20392,3009,2408.7,17383,600.3,""oops"",""down"",""left"",""bad_move"",23858,3466,3100.8,20392,365.2,""oops"",""down"",""left"",""bad_move"",31308,7450,2695.2,28233,379.8,""oops"",""down"",""down"",""good_move"",34730,3421,3052.9,31309,368.1,""oops"",""down"",""down"",""good_move"",37095,2365,2000.8,34730,364.2,""oops"",""right"",""right"",""good_move"",39389,2294,1901.7,37095,392.3,""smooth"",""right"",""right"",""good_move"",46654,7265,2728.8,43451,474.2,""smooth"",""right"",""right"",""good_move"",49583,2929,2523.7,46654,405.3,""oops"",""right"",""left"",""bad_move"",52608,3025,1766.1,49583,1258.9,""oops"",""right"",""right"",""good_move"",55479,2870,2415.5,52609,454.5,""oops"",""right"",""right"",""good_move"",58642,3163,2771,55479,392,""oops"",""right"",""up"",""bad_move"",62853,4211,3733.3,58642,477.7,""oops"",""right"",""right"",""good_move"",69435,6582,2775.2,66316,343.8,""oops"",""down"",""up"",""bad_move"",72693,3258,2902.3,69435,355.7,""oops"",""down"",""down"",""good_move"",75197,2504,2088.9,72693,415.1,""oops"",""down"",""up"",""bad_move"",78271,3074,2426.1,75197,647.9,""oops"",""down"",""left"",""bad_move"",82005,3734,3432.3,78271,301.7,""smooth"",""down"",""down"",""good_move"",85167,3162,2819.7,82005,342.3,""oops"",""right"",""left"",""bad_move"",88149,2982,2369.1,85167,612.9,""smooth"",""down"",""down"",""good_move"",90628,2479,2196,88149,283,""while_blue"",""right"",""right"",""good_move""]","",""
"3664","","<div style=""width:500px;"">
  <p>What determined the result of this run?</p>
  </div>","74","html-slider-response","50","653036","0.0-5.0-1.8","124","1","2025-07-16 18:48:26","1f75c3e559b7213887762d5229550c2b","37.47.252.173","Mozilla/5.0 (Windows NT 10.0; Win64; x64; rv:140.0) Gecko/20100101 Firefox/140.0","","Firefox","140.0","Windows","10.0","https://app.prolific.com/","pl","66a6211743bf2623c0a8eb81","686e379bc37a29ffa5cdc956","6877f3ed2932b97efdac2dab","1","1","66a6211743bf2623c0a8eb81","1","1","2025-07-16T18:59:20.275Z","","","","","","","","","","","AttribQ","","50","","","","","","","","","","","","","","","","","","","","","","","","","","","","",""
"2349","","<div style=""width:500px;"">
  <p>How much control did you have over the ball?</p>
  </div>","40","html-slider-response","51","655389","0.0-5.0-2.8","124","1","2025-07-16 18:48:26","1f75c3e559b7213887762d5229550c2b","37.47.252.173","Mozilla/5.0 (Windows NT 10.0; Win64; x64; rv:140.0) Gecko/20100101 Firefox/140.0","","Firefox","140.0","Windows","10.0","https://app.prolific.com/","pl","66a6211743bf2623c0a8eb81","686e379bc37a29ffa5cdc956","6877f3ed2932b97efdac2dab","1","1","66a6211743bf2623c0a8eb81","1","1","2025-07-16T18:59:22.627Z","","","","","","","","","","","ControlQ","","50","","","","","","","","","","","","","","","","","","","","","","","","","","","","",""
"2472","","<div style=""width:500px;"">
  <p>How would you describe your current emotional state?</p>
  </div>","43","html-slider-response","52","657867","0.0-5.0-3.8","124","1","2025-07-16 18:48:26","1f75c3e559b7213887762d5229550c2b","37.47.252.173","Mozilla/5.0 (Windows NT 10.0; Win64; x64; rv:140.0) Gecko/20100101 Firefox/140.0","","Firefox","140.0","Windows","10.0","https://app.prolific.com/","pl","66a6211743bf2623c0a8eb81","686e379bc37a29ffa5cdc956","6877f3ed2932b97efdac2dab","1","1","66a6211743bf2623c0a8eb81","1","1","2025-07-16T18:59:25.105Z","","","","","","","","","","","StressQ","","50","","","","","","","","","","","","","","","","","","","","","","","","","","","","",""
"2977","","<div style=""width:500px;"">
  <p>What best describes how you currently feel?</p>
  </div>","90","html-slider-response","53","660847","0.0-5.0-4.8","124","1","2025-07-16 18:48:26","1f75c3e559b7213887762d5229550c2b","37.47.252.173","Mozilla/5.0 (Windows NT 10.0; Win64; x64; rv:140.0) Gecko/20100101 Firefox/140.0","","Firefox","140.0","Windows","10.0","https://app.prolific.com/","pl","66a6211743bf2623c0a8eb81","686e379bc37a29ffa5cdc956","6877f3ed2932b97efdac2dab","1","1","66a6211743bf2623c0a8eb81","1","1","2025-07-16T18:59:28.085Z","","","","","","","","","","","MotivationQ","","50","","","","","","","","","","","","","","","","","","","","","","","","","","","","",""
"","","","","ctl-task-cpt","54","694031","0.0-5.0-0.9","124","1","2025-07-16 18:48:26","1f75c3e559b7213887762d5229550c2b","37.47.252.173","Mozilla/5.0 (Windows NT 10.0; Win64; x64; rv:140.0) Gecko/20100101 Firefox/140.0","","Firefox","140.0","Windows","10.0","https://app.prolific.com/","pl","66a6211743bf2623c0a8eb81","686e379bc37a29ffa5cdc956","6877f3ed2932b97efdac2dab","1","1","66a6211743bf2623c0a8eb81","1","1","2025-07-16T19:00:01.269Z","","","","","","","","","","","","","","win-only","1","g1:NE,g2:SW","0.4","10","0","662735","1296","6312","30178","1","4","4","6","2","4","3","30","27","0.22727272727272727","1390","3000","2335","[""down"",""left""]","{""num_key_presses"":6,""num_perfect"":4,""num_errors"":1,""num_randdir"":1,""num_randdir_good_moves"":1,""num_whilered"":0,""num_whileblue"":1,""num_blue"":3,""num_good_moves"":6}","[300.22857753208706,304.92857448032925,0,300.22857753208706,304.92857448032925,112,300.22857753208706,304.92857448032925,220,300.22857753208706,304.92857448032925,331,300.22857753208706,304.92857448032925,440,300.22857753208706,304.92857448032925,549,300.22857753208706,304.92857448032925,658,240.22857753208706,367.92857448032925,770,153.22857753208706,455.92857448032925,880,123.22857753208706,492.92857448032925,987,103.22857753208706,509.92857448032925,1098,87.22857753208706,521.9285744803292,1207,82.22857753208706,524.9285744803292,1316,82.22857753208706,524.9285744803292,1426,82.22857753208706,524.9285744803292,1535,82.22857753208706,524.9285744803292,1644,82.22857753208706,524.9285744803292,1752,82.22857753208706,524.9285744803292,1863,12.228577532087051,489.92857448032925,1970,-64.77142246791294,453.92857448032925,2080,-64.77142246791294,453.92857448032925,2189,-64.77142246791294,453.92857448032925,2298,-64.77142246791294,453.92857448032925,2409,-64.77142246791294,453.92857448032925,2516,-64.77142246791294,453.92857448032925,2628,-64.77142246791294,453.92857448032925,2737,-64.77142246791294,453.92857448032925,2847,-64.77142246791294,453.92857448032925,2954,-64.77142246791294,453.92857448032925,3063,-64.77142246791294,453.92857448032925,3171,-64.77142246791294,453.92857448032925,3281,-64.77142246791294,453.92857448032925,3391,-64.77142246791294,453.92857448032925,3501,-64.77142246791294,453.92857448032925,3612,-64.77142246791294,453.92857448032925,3720,-64.77142246791294,453.92857448032925,3829,-64.77142246791294,453.92857448032925,3939,-64.77142246791294,453.92857448032925,4049,-64.77142246791294,453.92857448032925,4161,-64.77142246791294,453.92857448032925,4268,-64.77142246791294,453.92857448032925,4378,-64.77142246791294,453.92857448032925,4486,-64.77142246791294,453.92857448032925,4594,-64.77142246791294,453.92857448032925,4702,-64.77142246791294,453.92857448032925,4811,-64.77142246791294,453.92857448032925,4921]","[5092,5092,2666.9,2027,398.1,""smooth"",""down"",""down"",""good_move"",8160,3068,2637.6,5092,430.4,""smooth"",""left"",""left"",""good_move"",11266,3106,2653.1,8160,452.9,""smooth"",""left"",""left"",""good_move"",17761,6495,2547.8,14829,384.2,""smooth"",""down"",""down"",""good_move"",20539,2778,2387.3,17761,390.7,""oops"",""down"",""left"",""good_move"",23567,3027,2671,20540,356,""while_blue"",""down"",""down"",""good_move""]","",""
"2268","","<div style=""width:500px;"">
  <p>What determined the result of this run?</p>
  </div>","74","html-slider-response","55","696301","0.0-5.0-1.9","124","1","2025-07-16 18:48:26","1f75c3e559b7213887762d5229550c2b","37.47.252.173","Mozilla/5.0 (Windows NT 10.0; Win64; x64; rv:140.0) Gecko/20100101 Firefox/140.0","","Firefox","140.0","Windows","10.0","https://app.prolific.com/","pl","66a6211743bf2623c0a8eb81","686e379bc37a29ffa5cdc956","6877f3ed2932b97efdac2dab","1","1","66a6211743bf2623c0a8eb81","1","1","2025-07-16T19:00:03.539Z","","","","","","","","","","","AttribQ","","50","","","","","","","","","","","","","","","","","","","","","","","","","","","","",""
"2980","","<div style=""width:500px;"">
  <p>How much control did you have over the ball?</p>
  </div>","65","html-slider-response","56","699285","0.0-5.0-2.9","124","1","2025-07-16 18:48:26","1f75c3e559b7213887762d5229550c2b","37.47.252.173","Mozilla/5.0 (Windows NT 10.0; Win64; x64; rv:140.0) Gecko/20100101 Firefox/140.0","","Firefox","140.0","Windows","10.0","https://app.prolific.com/","pl","66a6211743bf2623c0a8eb81","686e379bc37a29ffa5cdc956","6877f3ed2932b97efdac2dab","1","1","66a6211743bf2623c0a8eb81","1","1","2025-07-16T19:00:06.523Z","","","","","","","","","","","ControlQ","","50","","","","","","","","","","","","","","","","","","","","","","","","","","","","",""
"3444","","<div style=""width:500px;"">
  <p>How would you describe your current emotional state?</p>
  </div>","35","html-slider-response","57","702731","0.0-5.0-3.9","124","1","2025-07-16 18:48:26","1f75c3e559b7213887762d5229550c2b","37.47.252.173","Mozilla/5.0 (Windows NT 10.0; Win64; x64; rv:140.0) Gecko/20100101 Firefox/140.0","","Firefox","140.0","Windows","10.0","https://app.prolific.com/","pl","66a6211743bf2623c0a8eb81","686e379bc37a29ffa5cdc956","6877f3ed2932b97efdac2dab","1","1","66a6211743bf2623c0a8eb81","1","1","2025-07-16T19:00:09.969Z","","","","","","","","","","","StressQ","","50","","","","","","","","","","","","","","","","","","","","","","","","","","","","",""
"28844","","<div style=""width:500px;"">
  <p>What best describes how you currently feel?</p>
  </div>","88","html-slider-response","58","731578","0.0-5.0-4.9","124","1","2025-07-16 18:48:26","1f75c3e559b7213887762d5229550c2b","37.47.252.173","Mozilla/5.0 (Windows NT 10.0; Win64; x64; rv:140.0) Gecko/20100101 Firefox/140.0","","Firefox","140.0","Windows","10.0","https://app.prolific.com/","pl","66a6211743bf2623c0a8eb81","686e379bc37a29ffa5cdc956","6877f3ed2932b97efdac2dab","1","1","66a6211743bf2623c0a8eb81","1","1","2025-07-16T19:00:38.816Z","","","","","","","","","","","MotivationQ","","50","","","","","","","","","","","","","","","","","","","","","","","","","","","","",""
"","","","","ctl-task-cpt","59","777954","0.0-5.0-0.10","124","1","2025-07-16 18:48:26","1f75c3e559b7213887762d5229550c2b","37.47.252.173","Mozilla/5.0 (Windows NT 10.0; Win64; x64; rv:140.0) Gecko/20100101 Firefox/140.0","","Firefox","140.0","Windows","10.0","https://app.prolific.com/","pl","66a6211743bf2623c0a8eb81","686e379bc37a29ffa5cdc956","6877f3ed2932b97efdac2dab","1","1","66a6211743bf2623c0a8eb81","1","1","2025-07-16T19:01:25.192Z","","","","","","","","","","","","","","win-only","3","g1:SW,g2:NE","0.5","11","0","733467","1428","6440","43370","1","4","4","6","2","4","3","33","30","0.25","1758","3000","1595","[""up"",""right""]","{""num_key_presses"":12,""num_perfect"":6,""num_errors"":1,""num_randdir"":5,""num_randdir_good_moves"":2,""num_whilered"":0,""num_whileblue"":1,""num_blue"":1,""num_good_moves"":9}","[290.22857753208706,300.92857448032925,0,290.22857753208706,300.92857448032925,108,290.22857753208706,300.92857448032925,222,290.22857753208706,300.92857448032925,333,290.22857753208706,300.92857448032925,446,284.22857753208706,306.92857448032925,556,231.22857753208706,376.92857448032925,669,377.22857753208706,240.92857448032925,782,466.22857753208706,167.92857448032925,892,466.22857753208706,167.92857448032925,1005,466.22857753208706,167.92857448032925,1117,524.228577532087,113.92857448032925,1229,530.228577532087,104.92857448032925,1339,537.228577532087,96.92857448032925,1453,543.228577532087,88.92857448032925,1564,543.228577532087,88.92857448032925,1676,543.228577532087,88.92857448032925,1787,543.228577532087,88.92857448032925,1900,543.228577532087,88.92857448032925,2014,543.228577532087,88.92857448032925,2122,543.228577532087,88.92857448032925,2236,694.228577532087,81.92857448032925,2346,744.228577532087,79.92857448032925,2459,744.228577532087,79.92857448032925,2571,744.228577532087,79.92857448032925,2682,744.228577532087,79.92857448032925,2795,744.228577532087,79.92857448032925,2906,744.228577532087,79.92857448032925,3018,744.228577532087,79.92857448032925,3129,744.228577532087,79.92857448032925,3241,744.228577532087,79.92857448032925,3352,744.228577532087,79.92857448032925,3464,744.228577532087,79.92857448032925,3577,744.228577532087,79.92857448032925,3689,744.228577532087,79.92857448032925,3801,744.228577532087,79.92857448032925,3912,744.228577532087,79.92857448032925,4024,744.228577532087,79.92857448032925,4137,744.228577532087,79.92857448032925,4247,744.228577532087,79.92857448032925,4360,744.228577532087,79.92857448032925,4470,744.228577532087,79.92857448032925,4583,744.228577532087,79.92857448032925,4694,744.228577532087,79.92857448032925,4806,744.228577532087,79.92857448032925,4917]","[1407,1407,1000,0,407,""oops"",""up"",""left"",""bad_move"",4732,3325,2895,1407,430,""oops"",""up"",""down"",""bad_move"",7528,2796,2456,4732,340,""smooth"",""right"",""right"",""good_move"",11197,3669,3197.3,7528,471.7,""oops"",""right"",""right"",""good_move"",14256,3059,2707,11197,352,""while_blue"",""up"",""right"",""good_move"",17732,3476,3041.3,14256,434.7,""smooth"",""up"",""up"",""good_move"",20829,3097,1936,17732,1161,""oops"",""up"",""right"",""good_move"",23775,2946,2564.9,20829,381.1,""oops"",""up"",""down"",""bad_move"",26960,3185,2807.9,23775,377.1,""smooth"",""up"",""up"",""good_move"",30523,3563,3139,26960,424,""smooth"",""up"",""up"",""good_move"",33637,3114,2705.3,30523,408.7,""smooth"",""up"",""up"",""good_move"",36649,3012,2318.1,33637,693.9,""smooth"",""up"",""up"",""good_move""]","",""
"2062","","<div style=""width:500px;"">
  <p>What determined the result of this run?</p>
  </div>","81","html-slider-response","60","780018","0.0-5.0-1.10","124","1","2025-07-16 18:48:26","1f75c3e559b7213887762d5229550c2b","37.47.252.173","Mozilla/5.0 (Windows NT 10.0; Win64; x64; rv:140.0) Gecko/20100101 Firefox/140.0","","Firefox","140.0","Windows","10.0","https://app.prolific.com/","pl","66a6211743bf2623c0a8eb81","686e379bc37a29ffa5cdc956","6877f3ed2932b97efdac2dab","1","1","66a6211743bf2623c0a8eb81","1","1","2025-07-16T19:01:27.256Z","","","","","","","","","","","AttribQ","","50","","","","","","","","","","","","","","","","","","","","","","","","","","","","",""
"2339","","<div style=""width:500px;"">
  <p>How much control did you have over the ball?</p>
  </div>","68","html-slider-response","61","782358","0.0-5.0-2.10","124","1","2025-07-16 18:48:26","1f75c3e559b7213887762d5229550c2b","37.47.252.173","Mozilla/5.0 (Windows NT 10.0; Win64; x64; rv:140.0) Gecko/20100101 Firefox/140.0","","Firefox","140.0","Windows","10.0","https://app.prolific.com/","pl","66a6211743bf2623c0a8eb81","686e379bc37a29ffa5cdc956","6877f3ed2932b97efdac2dab","1","1","66a6211743bf2623c0a8eb81","1","1","2025-07-16T19:01:29.596Z","","","","","","","","","","","ControlQ","","50","","","","","","","","","","","","","","","","","","","","","","","","","","","","",""
"2625","","<div style=""width:500px;"">
  <p>How would you describe your current emotional state?</p>
  </div>","19","html-slider-response","62","784987","0.0-5.0-3.10","124","1","2025-07-16 18:48:26","1f75c3e559b7213887762d5229550c2b","37.47.252.173","Mozilla/5.0 (Windows NT 10.0; Win64; x64; rv:140.0) Gecko/20100101 Firefox/140.0","","Firefox","140.0","Windows","10.0","https://app.prolific.com/","pl","66a6211743bf2623c0a8eb81","686e379bc37a29ffa5cdc956","6877f3ed2932b97efdac2dab","1","1","66a6211743bf2623c0a8eb81","1","1","2025-07-16T19:01:32.225Z","","","","","","","","","","","StressQ","","50","","","","","","","","","","","","","","","","","","","","","","","","","","","","",""
"2900","","<div style=""width:500px;"">
  <p>What best describes how you currently feel?</p>
  </div>","91","html-slider-response","63","787891","0.0-5.0-4.10","124","1","2025-07-16 18:48:26","1f75c3e559b7213887762d5229550c2b","37.47.252.173","Mozilla/5.0 (Windows NT 10.0; Win64; x64; rv:140.0) Gecko/20100101 Firefox/140.0","","Firefox","140.0","Windows","10.0","https://app.prolific.com/","pl","66a6211743bf2623c0a8eb81","686e379bc37a29ffa5cdc956","6877f3ed2932b97efdac2dab","1","1","66a6211743bf2623c0a8eb81","1","1","2025-07-16T19:01:35.129Z","","","","","","","","","","","MotivationQ","","50","","","","","","","","","","","","","","","","","","","","","","","","","","","","",""
"","","","","ctl-task-cpt","64","844088","0.0-5.0-0.11","124","1","2025-07-16 18:48:26","1f75c3e559b7213887762d5229550c2b","37.47.252.173","Mozilla/5.0 (Windows NT 10.0; Win64; x64; rv:140.0) Gecko/20100101 Firefox/140.0","","Firefox","140.0","Windows","10.0","https://app.prolific.com/","pl","66a6211743bf2623c0a8eb81","686e379bc37a29ffa5cdc956","6877f3ed2932b97efdac2dab","1","1","66a6211743bf2623c0a8eb81","1","1","2025-07-16T19:02:31.326Z","","","","","","","","","","","","","","win-only","0","g1:NW,g2:SE","0.6","12","0","789779","1264","6272","53186","1","4","8","6","2","8","8","41","33","0.3106060606060606","1363","3000","825","[""down"",""right""]","{""num_key_presses"":14,""num_perfect"":8,""num_errors"":0,""num_randdir"":6,""num_randdir_good_moves"":2,""num_whilered"":0,""num_whileblue"":0,""num_blue"":2,""num_good_moves"":10}","[293.22857753208706,297.92857448032925,0,293.22857753208706,297.92857448032925,102,293.22857753208706,297.92857448032925,212,293.22857753208706,297.92857448032925,318,293.22857753208706,297.92857448032925,429,293.22857753208706,297.92857448032925,535,360.22857753208706,343.92857448032925,645,467.22857753208706,444.92857448032925,754,480.22857753208706,459.92857448032925,862,480.22857753208706,459.92857448032925,974,522.228577532087,502.92857448032925,1083,531.228577532087,520.9285744803292,1195,531.228577532087,520.9285744803292,1305,531.228577532087,520.9285744803292,1412,531.228577532087,520.9285744803292,1517,531.228577532087,520.9285744803292,1629,531.228577532087,520.9285744803292,1738,531.228577532087,520.9285744803292,1851,679.228577532087,436.92857448032925,1962,707.228577532087,419.92857448032925,2069,707.228577532087,419.92857448032925,2178,707.228577532087,419.92857448032925,2288,707.228577532087,419.92857448032925,2397,707.228577532087,419.92857448032925,2509,707.228577532087,419.92857448032925,2622,707.228577532087,419.92857448032925,2731,707.228577532087,419.92857448032925,2840,707.228577532087,419.92857448032925,2952,707.228577532087,419.92857448032925,3059,707.228577532087,419.92857448032925,3169,707.228577532087,419.92857448032925,3282,707.228577532087,419.92857448032925,3394,707.228577532087,419.92857448032925,3494,707.228577532087,419.92857448032925,3604,707.228577532087,419.92857448032925,3714,707.228577532087,419.92857448032925,3824,707.228577532087,419.92857448032925,3935,707.228577532087,419.92857448032925,4046,707.228577532087,419.92857448032925,4152,707.228577532087,419.92857448032925,4262,707.228577532087,419.92857448032925,4374,707.228577532087,419.92857448032925,4482,707.228577532087,419.92857448032925,4594,707.228577532087,419.92857448032925,4707,707.228577532087,419.92857448032925,4818,707.228577532087,419.92857448032925,4927]","[1411,1411,1000,0,411,""oops"",""down"",""left"",""bad_move"",4422,3011,2209.6,1411,801.4,""oops"",""right"",""down"",""good_move"",9617,5194,2312.8,6865,439.2,""smooth"",""down"",""down"",""good_move"",12720,3103,2687.3,9617,415.7,""smooth"",""right"",""right"",""good_move"",16268,3547,2818.3,12721,728.7,""smooth"",""right"",""right"",""good_move"",18804,2537,2157.3,16268,379.7,""smooth"",""right"",""right"",""good_move"",21782,2977,2638.2,18805,338.8,""smooth"",""down"",""down"",""good_move"",24156,2374,1978.4,21782,395.6,""oops"",""right"",""left"",""bad_move"",27702,3545,2582.9,24157,962.1,""smooth"",""right"",""right"",""good_move"",31382,3680,2761.7,27702,918.3,""oops"",""right"",""left"",""bad_move"",34527,3145,2708.8,31382,436.2,""oops"",""right"",""right"",""good_move"",37199,2672,2296.1,34527,375.9,""oops"",""right"",""up"",""bad_move"",40206,3007,2600,37199,407,""smooth"",""right"",""right"",""good_move"",46638,6432,2598.4,43647,392.6,""smooth"",""down"",""down"",""good_move""]","",""
"4412","","<div style=""width:500px;"">
  <p>What determined the result of this run?</p>
  </div>","86","html-slider-response","65","848502","0.0-5.0-1.11","124","1","2025-07-16 18:48:26","1f75c3e559b7213887762d5229550c2b","37.47.252.173","Mozilla/5.0 (Windows NT 10.0; Win64; x64; rv:140.0) Gecko/20100101 Firefox/140.0","","Firefox","140.0","Windows","10.0","https://app.prolific.com/","pl","66a6211743bf2623c0a8eb81","686e379bc37a29ffa5cdc956","6877f3ed2932b97efdac2dab","1","1","66a6211743bf2623c0a8eb81","1","1","2025-07-16T19:02:35.740Z","","","","","","","","","","","AttribQ","","50","","","","","","","","","","","","","","","","","","","","","","","","","","","","",""
"3905","","<div style=""width:500px;"">
  <p>How much control did you have over the ball?</p>
  </div>","76","html-slider-response","66","852411","0.0-5.0-2.11","124","1","2025-07-16 18:48:26","1f75c3e559b7213887762d5229550c2b","37.47.252.173","Mozilla/5.0 (Windows NT 10.0; Win64; x64; rv:140.0) Gecko/20100101 Firefox/140.0","","Firefox","140.0","Windows","10.0","https://app.prolific.com/","pl","66a6211743bf2623c0a8eb81","686e379bc37a29ffa5cdc956","6877f3ed2932b97efdac2dab","1","1","66a6211743bf2623c0a8eb81","1","1","2025-07-16T19:02:39.649Z","","","","","","","","","","","ControlQ","","50","","","","","","","","","","","","","","","","","","","","","","","","","","","","",""
"3823","","<div style=""width:500px;"">
  <p>How would you describe your current emotional state?</p>
  </div>","21","html-slider-response","67","856237","0.0-5.0-3.11","124","1","2025-07-16 18:48:26","1f75c3e559b7213887762d5229550c2b","37.47.252.173","Mozilla/5.0 (Windows NT 10.0; Win64; x64; rv:140.0) Gecko/20100101 Firefox/140.0","","Firefox","140.0","Windows","10.0","https://app.prolific.com/","pl","66a6211743bf2623c0a8eb81","686e379bc37a29ffa5cdc956","6877f3ed2932b97efdac2dab","1","1","66a6211743bf2623c0a8eb81","1","1","2025-07-16T19:02:43.475Z","","","","","","","","","","","StressQ","","50","","","","","","","","","","","","","","","","","","","","","","","","","","","","",""
"2799","","<div style=""width:500px;"">
  <p>What best describes how you currently feel?</p>
  </div>","91","html-slider-response","68","859040","0.0-5.0-4.11","124","1","2025-07-16 18:48:26","1f75c3e559b7213887762d5229550c2b","37.47.252.173","Mozilla/5.0 (Windows NT 10.0; Win64; x64; rv:140.0) Gecko/20100101 Firefox/140.0","","Firefox","140.0","Windows","10.0","https://app.prolific.com/","pl","66a6211743bf2623c0a8eb81","686e379bc37a29ffa5cdc956","6877f3ed2932b97efdac2dab","1","1","66a6211743bf2623c0a8eb81","1","1","2025-07-16T19:02:46.278Z","","","","","","","","","","","MotivationQ","","50","","","","","","","","","","","","","","","","","","","","","","","","","","","","",""
"","","","","ctl-task-cpt","69","919395","0.0-5.0-0.12","124","1","2025-07-16 18:48:26","1f75c3e559b7213887762d5229550c2b","37.47.252.173","Mozilla/5.0 (Windows NT 10.0; Win64; x64; rv:140.0) Gecko/20100101 Firefox/140.0","","Firefox","140.0","Windows","10.0","https://app.prolific.com/","pl","66a6211743bf2623c0a8eb81","686e379bc37a29ffa5cdc956","6877f3ed2932b97efdac2dab","1","1","66a6211743bf2623c0a8eb81","1","1","2025-07-16T19:03:46.633Z","","","","","","","","","","","","","","win-only","1","g1:NE,g2:SW","0.7","13","0","860928","1228","6238","57345","1","4","4","6","2","4","3","44","41","0.3333333333333333","1960","3000","1320","[""down"",""left""]","{""num_key_presses"":12,""num_perfect"":8,""num_errors"":1,""num_randdir"":3,""num_randdir_good_moves"":1,""num_whilered"":0,""num_whileblue"":1,""num_blue"":6,""num_good_moves"":9}","[298.22857753208706,296.92857448032925,0,298.22857753208706,296.92857448032925,105,298.22857753208706,296.92857448032925,218,298.22857753208706,296.92857448032925,330,298.22857753208706,296.92857448032925,441,298.22857753208706,296.92857448032925,554,298.22857753208706,296.92857448032925,666,367.22857753208706,233.92857448032925,779,421.22857753208706,187.92857448032925,889,431.22857753208706,178.92857448032925,1002,433.22857753208706,176.92857448032925,1113,445.22857753208706,169.92857448032925,1226,158.22857753208706,408.92857448032925,1338,118.22857753208706,455.92857448032925,1449,93.22857753208706,473.92857448032925,1563,71.22857753208706,504.92857448032925,1674,56.22857753208705,530.9285744803292,1786,56.22857753208705,530.9285744803292,1898,56.22857753208705,530.9285744803292,2011,56.22857753208705,530.9285744803292,2122,56.22857753208705,530.9285744803292,2233,56.22857753208705,530.9285744803292,2346,-32.77142246791295,455.92857448032925,2456,-135.77142246791294,403.92857448032925,2568,-135.77142246791294,403.92857448032925,2680,-135.77142246791294,403.92857448032925,2792,-135.77142246791294,403.92857448032925,2905,-135.77142246791294,403.92857448032925,3016,-135.77142246791294,403.92857448032925,3127,-135.77142246791294,403.92857448032925,3238,-135.77142246791294,403.92857448032925,3352,-135.77142246791294,403.92857448032925,3465,-135.77142246791294,403.92857448032925,3578,-135.77142246791294,403.92857448032925,3687,-135.77142246791294,403.92857448032925,3799,-135.77142246791294,403.92857448032925,3911,-135.77142246791294,403.92857448032925,4024,-135.77142246791294,403.92857448032925,4134,-135.77142246791294,403.92857448032925,4247,-135.77142246791294,403.92857448032925,4350,-135.77142246791294,403.92857448032925,4460,-135.77142246791294,403.92857448032925,4575,-135.77142246791294,403.92857448032925,4678,-135.77142246791294,403.92857448032925,4783,-135.77142246791294,403.92857448032925,4895,-135.77142246791294,403.92857448032925,4996]","[1418,1418,1000,0,418,""oops"",""down"",""up"",""bad_move"",4380,2961,2295.4,1419,665.6,""smooth"",""left"",""left"",""good_move"",7306,2926,2250.7,4380,675.3,""smooth"",""down"",""down"",""good_move"",10029,2723,2343.7,7306,379.3,""smooth"",""down"",""down"",""good_move"",12312,2282,1904,10030,378,""while_blue"",""down"",""up"",""bad_move"",15751,3438,2850.7,12313,587.3,""oops"",""down"",""down"",""good_move"",22353,6601,2034.7,19752,566.3,""smooth"",""down"",""down"",""good_move"",28039,5685,2153,25344,542,""smooth"",""down"",""down"",""good_move"",34748,6708,2826.3,31467,454.7,""smooth"",""left"",""left"",""good_move"",37916,3168,2447.3,34748,720.7,""oops"",""left"",""right"",""bad_move"",43716,5800,2085.8,41075,555.2,""smooth"",""left"",""left"",""good_move"",50806,7090,2845.1,47573,387.9,""smooth"",""left"",""left"",""good_move""]","",""
"3438","","<div style=""width:500px;"">
  <p>What determined the result of this run?</p>
  </div>","86","html-slider-response","70","922835","0.0-5.0-1.12","124","1","2025-07-16 18:48:26","1f75c3e559b7213887762d5229550c2b","37.47.252.173","Mozilla/5.0 (Windows NT 10.0; Win64; x64; rv:140.0) Gecko/20100101 Firefox/140.0","","Firefox","140.0","Windows","10.0","https://app.prolific.com/","pl","66a6211743bf2623c0a8eb81","686e379bc37a29ffa5cdc956","6877f3ed2932b97efdac2dab","1","1","66a6211743bf2623c0a8eb81","1","1","2025-07-16T19:03:50.073Z","","","","","","","","","","","AttribQ","","50","","","","","","","","","","","","","","","","","","","","","","","","","","","","",""
"2341","","<div style=""width:500px;"">
  <p>How much control did you have over the ball?</p>
  </div>","83","html-slider-response","71","925178","0.0-5.0-2.12","124","1","2025-07-16 18:48:26","1f75c3e559b7213887762d5229550c2b","37.47.252.173","Mozilla/5.0 (Windows NT 10.0; Win64; x64; rv:140.0) Gecko/20100101 Firefox/140.0","","Firefox","140.0","Windows","10.0","https://app.prolific.com/","pl","66a6211743bf2623c0a8eb81","686e379bc37a29ffa5cdc956","6877f3ed2932b97efdac2dab","1","1","66a6211743bf2623c0a8eb81","1","1","2025-07-16T19:03:52.416Z","","","","","","","","","","","ControlQ","","50","","","","","","","","","","","","","","","","","","","","","","","","","","","","",""
"3707","","<div style=""width:500px;"">
  <p>How would you describe your current emotional state?</p>
  </div>","15","html-slider-response","72","928888","0.0-5.0-3.12","124","1","2025-07-16 18:48:26","1f75c3e559b7213887762d5229550c2b","37.47.252.173","Mozilla/5.0 (Windows NT 10.0; Win64; x64; rv:140.0) Gecko/20100101 Firefox/140.0","","Firefox","140.0","Windows","10.0","https://app.prolific.com/","pl","66a6211743bf2623c0a8eb81","686e379bc37a29ffa5cdc956","6877f3ed2932b97efdac2dab","1","1","66a6211743bf2623c0a8eb81","1","1","2025-07-16T19:03:56.127Z","","","","","","","","","","","StressQ","","50","","","","","","","","","","","","","","","","","","","","","","","","","","","","",""
"4377","","<div style=""width:500px;"">
  <p>What best describes how you currently feel?</p>
  </div>","91","html-slider-response","73","933269","0.0-5.0-4.12","124","1","2025-07-16 18:48:26","1f75c3e559b7213887762d5229550c2b","37.47.252.173","Mozilla/5.0 (Windows NT 10.0; Win64; x64; rv:140.0) Gecko/20100101 Firefox/140.0","","Firefox","140.0","Windows","10.0","https://app.prolific.com/","pl","66a6211743bf2623c0a8eb81","686e379bc37a29ffa5cdc956","6877f3ed2932b97efdac2dab","1","1","66a6211743bf2623c0a8eb81","1","1","2025-07-16T19:04:00.507Z","","","","","","","","","","","MotivationQ","","50","","","","","","","","","","","","","","","","","","","","","","","","","","","","",""
"","","","","ctl-task-cpt","74","960006","0.0-5.0-0.13","124","1","2025-07-16 18:48:26","1f75c3e559b7213887762d5229550c2b","37.47.252.173","Mozilla/5.0 (Windows NT 10.0; Win64; x64; rv:140.0) Gecko/20100101 Firefox/140.0","","Firefox","140.0","Windows","10.0","https://app.prolific.com/","pl","66a6211743bf2623c0a8eb81","686e379bc37a29ffa5cdc956","6877f3ed2932b97efdac2dab","1","1","66a6211743bf2623c0a8eb81","1","1","2025-07-16T19:04:27.244Z","","","","","","","","","","","","","","win-only","3","g1:SW,g2:NE","0.8","14","0","935157","1289","6296","23725","1","4","8","6","2","8","8","52","44","0.3939393939393939","1576","3000","2225","[""up"",""right""]","{""num_key_presses"":6,""num_perfect"":6,""num_errors"":0,""num_randdir"":0,""num_randdir_good_moves"":0,""num_whilered"":0,""num_whileblue"":0,""num_blue"":0,""num_good_moves"":6}","[296.22857753208706,293.92857448032925,0,296.22857753208706,293.92857448032925,104,296.22857753208706,293.92857448032925,212,296.22857753208706,293.92857448032925,319,296.22857753208706,293.92857448032925,430,296.22857753208706,293.92857448032925,539,296.22857753208706,293.92857448032925,649,365.22857753208706,227.92857448032925,757,377.22857753208706,216.92857448032925,867,377.22857753208706,216.92857448032925,976,503.22857753208706,109.92857448032925,1084,526.228577532087,87.92857448032925,1194,538.228577532087,79.92857448032925,1303,561.228577532087,59.92857448032924,1414,561.228577532087,59.92857448032924,1524,561.228577532087,59.92857448032924,1634,561.228577532087,59.92857448032924,1745,561.228577532087,59.92857448032924,1855,561.228577532087,59.92857448032924,1966,744.228577532087,57.92857448032924,2074,799.228577532087,55.92857448032924,2183,799.228577532087,55.92857448032924,2293,799.228577532087,55.92857448032924,2400,799.228577532087,55.92857448032924,2509,799.228577532087,55.92857448032924,2617,799.228577532087,55.92857448032924,2726,799.228577532087,55.92857448032924,2833,799.228577532087,55.92857448032924,2943,799.228577532087,55.92857448032924,3052,799.228577532087,55.92857448032924,3162,799.228577532087,55.92857448032924,3270,799.228577532087,55.92857448032924,3380,799.228577532087,55.92857448032924,3487,799.228577532087,55.92857448032924,3599,799.228577532087,55.92857448032924,3706,799.228577532087,55.92857448032924,3815,799.228577532087,55.92857448032924,3925,799.228577532087,55.92857448032924,4036,799.228577532087,55.92857448032924,4148,799.228577532087,55.92857448032924,4256,799.228577532087,55.92857448032924,4364,799.228577532087,55.92857448032924,4474,799.228577532087,55.92857448032924,4584,799.228577532087,55.92857448032924,4695,799.228577532087,55.92857448032924,4805,799.228577532087,55.92857448032924,4914]","[1422,1422,1000,0,422,""smooth"",""up"",""up"",""good_move"",4521,3099,2080.4,1422,1018.6,""smooth"",""right"",""right"",""good_move"",8133,3612,3150.5,4521,461.5,""smooth"",""right"",""right"",""good_move"",11146,3013,2539.5,8134,472.5,""smooth"",""up"",""up"",""good_move"",14181,3034,2134.3,11147,899.7,""smooth"",""up"",""up"",""good_move"",17140,2958,2302.6,14182,655.4,""smooth"",""right"",""right"",""good_move""]","",""
"2950","","<div style=""width:500px;"">
  <p>What determined the result of this run?</p>
  </div>","87","html-slider-response","75","962956","0.0-5.0-1.13","124","1","2025-07-16 18:48:26","1f75c3e559b7213887762d5229550c2b","37.47.252.173","Mozilla/5.0 (Windows NT 10.0; Win64; x64; rv:140.0) Gecko/20100101 Firefox/140.0","","Firefox","140.0","Windows","10.0","https://app.prolific.com/","pl","66a6211743bf2623c0a8eb81","686e379bc37a29ffa5cdc956","6877f3ed2932b97efdac2dab","1","1","66a6211743bf2623c0a8eb81","1","1","2025-07-16T19:04:30.194Z","","","","","","","","","","","AttribQ","","50","","","","","","","","","","","","","","","","","","","","","","","","","","","","",""
"2113","","<div style=""width:500px;"">
  <p>How much control did you have over the ball?</p>
  </div>","91","html-slider-response","76","965072","0.0-5.0-2.13","124","1","2025-07-16 18:48:26","1f75c3e559b7213887762d5229550c2b","37.47.252.173","Mozilla/5.0 (Windows NT 10.0; Win64; x64; rv:140.0) Gecko/20100101 Firefox/140.0","","Firefox","140.0","Windows","10.0","https://app.prolific.com/","pl","66a6211743bf2623c0a8eb81","686e379bc37a29ffa5cdc956","6877f3ed2932b97efdac2dab","1","1","66a6211743bf2623c0a8eb81","1","1","2025-07-16T19:04:32.310Z","","","","","","","","","","","ControlQ","","50","","","","","","","","","","","","","","","","","","","","","","","","","","","","",""
"3570","","<div style=""width:500px;"">
  <p>How would you describe your current emotional state?</p>
  </div>","14","html-slider-response","77","968645","0.0-5.0-3.13","124","1","2025-07-16 18:48:26","1f75c3e559b7213887762d5229550c2b","37.47.252.173","Mozilla/5.0 (Windows NT 10.0; Win64; x64; rv:140.0) Gecko/20100101 Firefox/140.0","","Firefox","140.0","Windows","10.0","https://app.prolific.com/","pl","66a6211743bf2623c0a8eb81","686e379bc37a29ffa5cdc956","6877f3ed2932b97efdac2dab","1","1","66a6211743bf2623c0a8eb81","1","1","2025-07-16T19:04:35.883Z","","","","","","","","","","","StressQ","","50","","","","","","","","","","","","","","","","","","","","","","","","","","","","",""
"3012","","<div style=""width:500px;"">
  <p>What best describes how you currently feel?</p>
  </div>","97","html-slider-response","78","971660","0.0-5.0-4.13","124","1","2025-07-16 18:48:26","1f75c3e559b7213887762d5229550c2b","37.47.252.173","Mozilla/5.0 (Windows NT 10.0; Win64; x64; rv:140.0) Gecko/20100101 Firefox/140.0","","Firefox","140.0","Windows","10.0","https://app.prolific.com/","pl","66a6211743bf2623c0a8eb81","686e379bc37a29ffa5cdc956","6877f3ed2932b97efdac2dab","1","1","66a6211743bf2623c0a8eb81","1","1","2025-07-16T19:04:38.898Z","","","","","","","","","","","MotivationQ","","50","","","","","","","","","","","","","","","","","","","","","","","","","","","","",""
"","","","","ctl-task-cpt","79","996763","0.0-5.0-0.14","124","1","2025-07-16 18:48:26","1f75c3e559b7213887762d5229550c2b","37.47.252.173","Mozilla/5.0 (Windows NT 10.0; Win64; x64; rv:140.0) Gecko/20100101 Firefox/140.0","","Firefox","140.0","Windows","10.0","https://app.prolific.com/","pl","66a6211743bf2623c0a8eb81","686e379bc37a29ffa5cdc956","6877f3ed2932b97efdac2dab","1","1","66a6211743bf2623c0a8eb81","1","1","2025-07-16T19:05:04.001Z","","","","","","","","","","","","","","win-only","0","g1:NW,g2:SE","0.9","15","0","973548","1087","6098","22091","1","4","4","6","2","4","4","56","52","0.42424242424242425","1591","3000","2250","[""down"",""right""]","{""num_key_presses"":6,""num_perfect"":6,""num_errors"":0,""num_randdir"":0,""num_randdir_good_moves"":0,""num_whilered"":0,""num_whileblue"":0,""num_blue"":0,""num_good_moves"":6}","[300.22857753208706,302.92857448032925,0,300.22857753208706,302.92857448032925,101,300.22857753208706,302.92857448032925,214,300.22857753208706,302.92857448032925,326,300.22857753208706,302.92857448032925,438,300.22857753208706,302.92857448032925,550,300.22857753208706,302.92857448032925,661,497.22857753208706,466.92857448032925,774,498.22857753208706,468.92857448032925,884,498.22857753208706,468.92857448032925,997,513.228577532087,483.92857448032925,1109,534.228577532087,513.9285744803292,1224,540.228577532087,527.9285744803292,1333,540.228577532087,527.9285744803292,1446,540.228577532087,527.9285744803292,1557,540.228577532087,527.9285744803292,1669,540.228577532087,527.9285744803292,1774,540.228577532087,527.9285744803292,1875,540.228577532087,527.9285744803292,1989,716.228577532087,371.92857448032925,2097,738.228577532087,359.92857448032925,2207,738.228577532087,359.92857448032925,2311,738.228577532087,359.92857448032925,2424,738.228577532087,359.92857448032925,2532,738.228577532087,359.92857448032925,2642,738.228577532087,359.92857448032925,2750,738.228577532087,359.92857448032925,2857,738.228577532087,359.92857448032925,2967,738.228577532087,359.92857448032925,3079,738.228577532087,359.92857448032925,3191,738.228577532087,359.92857448032925,3298,738.228577532087,359.92857448032925,3408,738.228577532087,359.92857448032925,3519,738.228577532087,359.92857448032925,3624,738.228577532087,359.92857448032925,3730,738.228577532087,359.92857448032925,3841,738.228577532087,359.92857448032925,3953,738.228577532087,359.92857448032925,4064,738.228577532087,359.92857448032925,4174,738.228577532087,359.92857448032925,4288,738.228577532087,359.92857448032925,4394,738.228577532087,359.92857448032925,4500,738.228577532087,359.92857448032925,4612,738.228577532087,359.92857448032925,4722,738.228577532087,359.92857448032925,4832,738.228577532087,359.92857448032925,4947]","[1404,1404,1000,0,404,""smooth"",""down"",""down"",""good_move"",3957,2553,2142.7,1404,410.3,""smooth"",""right"",""right"",""good_move"",7146,3189,2819.7,3957,369.3,""smooth"",""down"",""down"",""good_move"",10592,3445,3077.4,7147,367.6,""smooth"",""down"",""down"",""good_move"",13617,3024,2614.4,10593,409.6,""smooth"",""right"",""right"",""good_move"",15709,2092,1639.3,13617,452.7,""smooth"",""right"",""right"",""good_move""]","",""
"7648","","<div style=""width:500px;"">
  <p>What determined the result of this run?</p>
  </div>","77","html-slider-response","80","1004413","0.0-5.0-1.14","124","1","2025-07-16 18:48:26","1f75c3e559b7213887762d5229550c2b","37.47.252.173","Mozilla/5.0 (Windows NT 10.0; Win64; x64; rv:140.0) Gecko/20100101 Firefox/140.0","","Firefox","140.0","Windows","10.0","https://app.prolific.com/","pl","66a6211743bf2623c0a8eb81","686e379bc37a29ffa5cdc956","6877f3ed2932b97efdac2dab","1","1","66a6211743bf2623c0a8eb81","1","1","2025-07-16T19:05:11.651Z","","","","","","","","","","","AttribQ","","50","","","","","","","","","","","","","","","","","","","","","","","","","","","","",""
"2175","","<div style=""width:500px;"">
  <p>How much control did you have over the ball?</p>
  </div>","90","html-slider-response","81","1006590","0.0-5.0-2.14","124","1","2025-07-16 18:48:26","1f75c3e559b7213887762d5229550c2b","37.47.252.173","Mozilla/5.0 (Windows NT 10.0; Win64; x64; rv:140.0) Gecko/20100101 Firefox/140.0","","Firefox","140.0","Windows","10.0","https://app.prolific.com/","pl","66a6211743bf2623c0a8eb81","686e379bc37a29ffa5cdc956","6877f3ed2932b97efdac2dab","1","1","66a6211743bf2623c0a8eb81","1","1","2025-07-16T19:05:13.828Z","","","","","","","","","","","ControlQ","","50","","","","","","","","","","","","","","","","","","","","","","","","","","","","",""
"2747","","<div style=""width:500px;"">
  <p>How would you describe your current emotional state?</p>
