"rt","response_timestamp","stimulus","response","trial_type","trial_index","time_elapsed","internal_node_id","run_id","condition","recorded_at","source_code_version","ip","user_agent","device","browser","browser_version","platform","platform_version","referer","accept_language","PROLIFIC_PID","STUDY_ID","SESSION_ID","WEEK","BATCH","prolific_id","week","batch","realtime","success","responses","item_order","radio_event_ids","radio_event_times","key_event_times","mouse_event_times","straightlining","zigzagging","honeypot","eventType","view_history","slider_start","which_type","canvas_config","goals_layout","control_level","trial_number","tutorial_trial_number","trial_start_time","phase1_start_time","phase2_start_time","phase3_start_time","goal_1_value","goal_1_distance","goal_2_value","goal_2_distance","goal_selected","outcome","outcome_total","participant_final_score","participant_initial_score","participant_final_score_prop","goal_choice_rt","allocated_time","allocated_time_remaining","goal_direction","counts","mouse_movements","key_presses","question_order","question_id"
"7165","1753865553208","<p style='font-size:40px;line-height:1.25'><strong>Welcome to the experiment!</strong></p><p style='font-size:1.1em;line-height:1.25'>Thank you for participanting in our experiment again! You will be asked to play the Dysfunctional Ball Game again. We will briefly recap the rules before we start.</p><p style='font-size:1.1em;line-height:1.25'>Press <strong>Next</strong> to continue.</p>","0","custom-html-button-response","0","7170","0.0-0.0","272","1","2025-07-30 08:52:24","1f75c3e559b7213887762d5229550c2b","2.97.10.0","Mozilla/5.0 (Macintosh; Intel Mac OS X 10_15_7) AppleWebKit/605.1.15 (KHTML, like Gecko) Version/18.3.1 Safari/605.1.15","Macintosh","Safari","18.3.1","OS X","10_15_7","https://app.prolific.com/","en-GB,en;q=0.9","5c63e773f9b6300001c9ce20","6877631c9844ddd5501205fc","6889dd3b59ea8cc7552281af","3","1","5c63e773f9b6300001c9ce20","3","1","2025-07-30T08:52:33.210Z","","","","","","","","","","","","","","","","","","","","","","","","","","","","","","","","","","","","","","","","","",""
"45354","","","","fullscreen","1","53560","0.0-1.0","272","1","2025-07-30 08:52:24","1f75c3e559b7213887762d5229550c2b","2.97.10.0","Mozilla/5.0 (Macintosh; Intel Mac OS X 10_15_7) AppleWebKit/605.1.15 (KHTML, like Gecko) Version/18.3.1 Safari/605.1.15","Macintosh","Safari","18.3.1","OS X","10_15_7","https://app.prolific.com/","en-GB,en;q=0.9","5c63e773f9b6300001c9ce20","6877631c9844ddd5501205fc","6889dd3b59ea8cc7552281af","3","1","5c63e773f9b6300001c9ce20","3","1","","true","","","","","","","","","","","","","","","","","","","","","","","","","","","","","","","","","","","","","","","","",""
"2641","1753865602241","<p style='font-size:1.1em;line-height:1.25'>In the following, we will ask you a few questions relating to your feelings in the last 24 hours.<br></p><p style='font-size:1.1em;line-height:1.25'>Press the <strong>Next</strong> button to continue.</p>","0","custom-html-button-response","2","56202","0.0-2.0-0.0","272","1","2025-07-30 08:52:24","1f75c3e559b7213887762d5229550c2b","2.97.10.0","Mozilla/5.0 (Macintosh; Intel Mac OS X 10_15_7) AppleWebKit/605.1.15 (KHTML, like Gecko) Version/18.3.1 Safari/605.1.15","Macintosh","Safari","18.3.1","OS X","10_15_7","https://app.prolific.com/","en-GB,en;q=0.9","5c63e773f9b6300001c9ce20","6877631c9844ddd5501205fc","6889dd3b59ea8cc7552281af","3","1","5c63e773f9b6300001c9ce20","3","1","2025-07-30T08:53:22.242Z","","","","","","","","","","","","","","","","","","","","","","","","","","","","","","","","","","","","","","","","","",""
"59957","","","","survey-template","3","116172","0.0-2.0-1.0","272","1","2025-07-30 08:52:24","1f75c3e559b7213887762d5229550c2b","2.97.10.0","Mozilla/5.0 (Macintosh; Intel Mac OS X 10_15_7) AppleWebKit/605.1.15 (KHTML, like Gecko) Version/18.3.1 Safari/605.1.15","Macintosh","Safari","18.3.1","OS X","10_15_7","https://app.prolific.com/","en-GB,en;q=0.9","5c63e773f9b6300001c9ce20","6877631c9844ddd5501205fc","6889dd3b59ea8cc7552281af","3","1","5c63e773f9b6300001c9ce20","3","1","2025-07-30T08:54:22.212Z","","{""Q01"":""3"",""Q02"":""4"",""Q03"":""4"",""Q04"":""4"",""Q05"":""3"",""Q06"":""3"",""Q07"":""1"",""Q08"":""0"",""Q09"":""4"",""Q10"":""3"",""Q11"":""4"",""Q12"":""3"",""Q13"":""5"",""Q14"":""3"",""Q15"":""3"",""Q16"":""4"",""Q17"":""4"",""Q18"":""4"",""Q19"":""4"",""Q20"":""4"",""Q21"":""3"",""Q22"":""1""}","[0,1,2,3,4,5,6,7,8,9,10,11,12,13,14,15,16,17,18,19,20,21]","[""Q01"",""Q02"",""Q03"",""Q04"",""Q05"",""Q05"",""Q06"",""Q07"",""Q08"",""Q09"",""Q10"",""Q11"",""Q12"",""Q13"",""Q14"",""Q15"",""Q15"",""Q16"",""Q17"",""Q18"",""Q19"",""Q20"",""Q21"",""Q22""]","[4162,7275,10863.000000000015,12958,14520,16784,18956,21966,23691,25270,27200,29426,32029,33068,37251,39709,44545,45817,47042,49148,50907,53118,55826,58101]","[]","[0,4162,7275,10863.000000000015,12958,14520,16784,18956,21966,23691,25270,27200,29426,32029,33068,37251,39709,44545,45817,47042,49148,50907,53118,55826,58101,59943]","0.45454545454545453","0.38095238095238093","0","drsp","","","","","","","","","","","","","","","","","","","","","","","","","","","","","","",""
"9690","","","","survey-template","4","125865","0.0-2.0-2.0","272","1","2025-07-30 08:52:24","1f75c3e559b7213887762d5229550c2b","2.97.10.0","Mozilla/5.0 (Macintosh; Intel Mac OS X 10_15_7) AppleWebKit/605.1.15 (KHTML, like Gecko) Version/18.3.1 Safari/605.1.15","Macintosh","Safari","18.3.1","OS X","10_15_7","https://app.prolific.com/","en-GB,en;q=0.9","5c63e773f9b6300001c9ce20","6877631c9844ddd5501205fc","6889dd3b59ea8cc7552281af","3","1","5c63e773f9b6300001c9ce20","3","1","2025-07-30T08:54:31.906Z","","{""Q01"":""3"",""Q02"":""4"",""Q03"":""3""}","[0,1,2]","[""Q01"",""Q02"",""Q03""]","[3271.0000000000146,5401,8202]","[]","[3271.0000000000146,5401,8202,9685.000000000015]","0.6666666666666666","0","0","stress","","","","","","","","","","","","","","","","","","","","","","","","","","","","","","",""
"8951","","","","instructions","5","134818","0.0-3.0-0.0","272","1","2025-07-30 08:52:24","1f75c3e559b7213887762d5229550c2b","2.97.10.0","Mozilla/5.0 (Macintosh; Intel Mac OS X 10_15_7) AppleWebKit/605.1.15 (KHTML, like Gecko) Version/18.3.1 Safari/605.1.15","Macintosh","Safari","18.3.1","OS X","10_15_7","https://app.prolific.com/","en-GB,en;q=0.9","5c63e773f9b6300001c9ce20","6877631c9844ddd5501205fc","6889dd3b59ea8cc7552281af","3","1","5c63e773f9b6300001c9ce20","3","1","","","","","","","","","","","","","[{""page_index"":0,""viewing_time"":8950}]","","","","","","","","","","","","","","","","","","","","","","","","","","","","","",""
"4959","","<p>Before you start with this game please answer the following three questions yourself. </p>
  <p>Through this game, we measure several aspects of your cognitive performance, such as reaction times, multi-tasking capabilities </p>
  <p>and the ability to assess the situation you are in.</p>
  <p></p>
  <p><b>How good do you usually are in such tasks?</b></p>","41","html-slider-response","6","139780","0.0-4.0-0.0","272","1","2025-07-30 08:52:24","1f75c3e559b7213887762d5229550c2b","2.97.10.0","Mozilla/5.0 (Macintosh; Intel Mac OS X 10_15_7) AppleWebKit/605.1.15 (KHTML, like Gecko) Version/18.3.1 Safari/605.1.15","Macintosh","Safari","18.3.1","OS X","10_15_7","https://app.prolific.com/","en-GB,en;q=0.9","5c63e773f9b6300001c9ce20","6877631c9844ddd5501205fc","6889dd3b59ea8cc7552281af","3","1","5c63e773f9b6300001c9ce20","3","1","2025-07-30T08:54:45.820Z","","","","","","","","","","","PreSkillQ","","50","","","","","","","","","","","","","","","","","","","","","","","","","","","","",""
"3410","","<div style=""width:500px;"">
  <p>How well do you think you will perform in this task compared to other participants?</p>
  </div>","32","html-slider-response","7","143192","0.0-4.0-1.0","272","1","2025-07-30 08:52:24","1f75c3e559b7213887762d5229550c2b","2.97.10.0","Mozilla/5.0 (Macintosh; Intel Mac OS X 10_15_7) AppleWebKit/605.1.15 (KHTML, like Gecko) Version/18.3.1 Safari/605.1.15","Macintosh","Safari","18.3.1","OS X","10_15_7","https://app.prolific.com/","en-GB,en;q=0.9","5c63e773f9b6300001c9ce20","6877631c9844ddd5501205fc","6889dd3b59ea8cc7552281af","3","1","5c63e773f9b6300001c9ce20","3","1","2025-07-30T08:54:49.232Z","","","","","","","","","","","PrePerfQ","","50","","","","","","","","","","","","","","","","","","","","","","","","","","","","",""
"4232","","<div style=""width:500px;"">
  <p>What best describes how you currently feel?</p>
  </div>","43","html-slider-response","8","147425","0.0-4.0-2.0","272","1","2025-07-30 08:52:24","1f75c3e559b7213887762d5229550c2b","2.97.10.0","Mozilla/5.0 (Macintosh; Intel Mac OS X 10_15_7) AppleWebKit/605.1.15 (KHTML, like Gecko) Version/18.3.1 Safari/605.1.15","Macintosh","Safari","18.3.1","OS X","10_15_7","https://app.prolific.com/","en-GB,en;q=0.9","5c63e773f9b6300001c9ce20","6877631c9844ddd5501205fc","6889dd3b59ea8cc7552281af","3","1","5c63e773f9b6300001c9ce20","3","1","2025-07-30T08:54:53.465Z","","","","","","","","","","","PreMotivationQ","","50","","","","","","","","","","","","","","","","","","","","","","","","","","","","",""
"","","","","ctl-task-cpt","9","176385","0.0-5.0-0.0","272","1","2025-07-30 08:52:24","1f75c3e559b7213887762d5229550c2b","2.97.10.0","Mozilla/5.0 (Macintosh; Intel Mac OS X 10_15_7) AppleWebKit/605.1.15 (KHTML, like Gecko) Version/18.3.1 Safari/605.1.15","Macintosh","Safari","18.3.1","OS X","10_15_7","https://app.prolific.com/","en-GB,en;q=0.9","5c63e773f9b6300001c9ce20","6877631c9844ddd5501205fc","6889dd3b59ea8cc7552281af","3","1","5c63e773f9b6300001c9ce20","3","1","2025-07-30T08:55:22.425Z","","","","","","","","","","","","","","win-only","3","g1:SW,g2:NE","1","1","0","149202","1531","6532","25929","1","4","8","6","1","1","1","1","0","0.007575757575757576","1299","3000","1575","[""down"",""left""]","{""num_key_presses"":4,""num_perfect"":4,""num_errors"":0,""num_randdir"":0,""num_randdir_good_moves"":0,""num_whilered"":0,""num_whileblue"":0,""num_blue"":2,""num_good_moves"":4}","[706.2857142857143,709.2857142857143,31,706.2857142857143,709.2857142857143,103,706.2857142857143,709.2857142857143,207,706.2857142857143,709.2857142857143,307,692.2857142857143,713.2857142857143,412,692.2857142857143,713.2857142857143,514,692.2857142857143,713.2857142857143,617,634.2857142857143,761.2857142857143,718,490.2857142857143,923.2857142857143,822,368.2857142857143,1045.2857142857142,928,222.28571428571428,1151.2857142857142,1029,172.28571428571428,1193.2857142857142,1129,142.28571428571428,1235.2857142857142,1233,142.28571428571428,1235.2857142857142,1392,142.28571428571428,1237.2857142857142,1496,142.28571428571428,1237.2857142857142,1597,142.28571428571428,1237.2857142857142,1698,142.28571428571428,1237.2857142857142,1799,142.28571428571428,1237.2857142857142,1899,142.28571428571428,1237.2857142857142,1999,142.28571428571428,1237.2857142857142,2101,142.28571428571428,1237.2857142857142,2203,142.28571428571428,1237.2857142857142,2307,142.28571428571428,1237.2857142857142,2411,142.28571428571428,1237.2857142857142,2514,142.28571428571428,1237.2857142857142,2618,142.28571428571428,1237.2857142857142,2718,142.28571428571428,1237.2857142857142,2819,142.28571428571428,1237.2857142857142,2920,142.28571428571428,1237.2857142857142,3029,142.28571428571428,1237.2857142857142,3132,142.28571428571428,1237.2857142857142,3236,142.28571428571428,1237.2857142857142,3342,142.28571428571428,1237.2857142857142,3446,142.28571428571428,1237.2857142857142,3547,142.28571428571428,1237.2857142857142,3651,142.28571428571428,1237.2857142857142,3753,142.28571428571428,1237.2857142857142,3862,142.28571428571428,1237.2857142857142,3965,142.28571428571428,1237.2857142857142,4103,142.28571428571428,1237.2857142857142,4212,142.28571428571428,1237.2857142857142,4314,142.28571428571428,1237.2857142857142,4414,142.28571428571428,1237.2857142857142,4517,142.28571428571428,1237.2857142857142,4619,142.28571428571428,1237.2857142857142,4719,142.28571428571428,1237.2857142857142,4823,142.28571428571428,1237.2857142857142,4928]","[9275,9275,3285.4,5439,550.6,""smooth"",""down"",""down"",""good_move"",12731,3455,2997.1,9276,458.9,""smooth"",""left"",""left"",""good_move"",16132,3398,2948.2,12734,449.8,""smooth"",""down"",""down"",""good_move"",19182,3049,2560.2,16133,488.8,""smooth"",""left"",""left"",""good_move""]","",""
"4508","","<div style=""width:500px;"">
  <p>What determined the result of this run?</p>
  </div>","22","html-slider-response","10","180895","0.0-5.0-1.0","272","1","2025-07-30 08:52:24","1f75c3e559b7213887762d5229550c2b","2.97.10.0","Mozilla/5.0 (Macintosh; Intel Mac OS X 10_15_7) AppleWebKit/605.1.15 (KHTML, like Gecko) Version/18.3.1 Safari/605.1.15","Macintosh","Safari","18.3.1","OS X","10_15_7","https://app.prolific.com/","en-GB,en;q=0.9","5c63e773f9b6300001c9ce20","6877631c9844ddd5501205fc","6889dd3b59ea8cc7552281af","3","1","5c63e773f9b6300001c9ce20","3","1","2025-07-30T08:55:26.936Z","","","","","","","","","","","AttribQ","","50","","","","","","","","","","","","","","","","","","","","","","","","","","","","",""
"3066","","<div style=""width:500px;"">
  <p>How much control did you have over the ball?</p>
  </div>","100","html-slider-response","11","183962","0.0-5.0-2.0","272","1","2025-07-30 08:52:24","1f75c3e559b7213887762d5229550c2b","2.97.10.0","Mozilla/5.0 (Macintosh; Intel Mac OS X 10_15_7) AppleWebKit/605.1.15 (KHTML, like Gecko) Version/18.3.1 Safari/605.1.15","Macintosh","Safari","18.3.1","OS X","10_15_7","https://app.prolific.com/","en-GB,en;q=0.9","5c63e773f9b6300001c9ce20","6877631c9844ddd5501205fc","6889dd3b59ea8cc7552281af","3","1","5c63e773f9b6300001c9ce20","3","1","2025-07-30T08:55:30.002Z","","","","","","","","","","","ControlQ","","50","","","","","","","","","","","","","","","","","","","","","","","","","","","","",""
"4008","","<div style=""width:500px;"">
  <p>How would you describe your current emotional state?</p>
  </div>","31","html-slider-response","12","187972","0.0-5.0-3.0","272","1","2025-07-30 08:52:24","1f75c3e559b7213887762d5229550c2b","2.97.10.0","Mozilla/5.0 (Macintosh; Intel Mac OS X 10_15_7) AppleWebKit/605.1.15 (KHTML, like Gecko) Version/18.3.1 Safari/605.1.15","Macintosh","Safari","18.3.1","OS X","10_15_7","https://app.prolific.com/","en-GB,en;q=0.9","5c63e773f9b6300001c9ce20","6877631c9844ddd5501205fc","6889dd3b59ea8cc7552281af","3","1","5c63e773f9b6300001c9ce20","3","1","2025-07-30T08:55:34.012Z","","","","","","","","","","","StressQ","","50","","","","","","","","","","","","","","","","","","","","","","","","","","","","",""
"4379","","<div style=""width:500px;"">
  <p>What best describes how you currently feel?</p>
  </div>","44","html-slider-response","13","192353","0.0-5.0-4.0","272","1","2025-07-30 08:52:24","1f75c3e559b7213887762d5229550c2b","2.97.10.0","Mozilla/5.0 (Macintosh; Intel Mac OS X 10_15_7) AppleWebKit/605.1.15 (KHTML, like Gecko) Version/18.3.1 Safari/605.1.15","Macintosh","Safari","18.3.1","OS X","10_15_7","https://app.prolific.com/","en-GB,en;q=0.9","5c63e773f9b6300001c9ce20","6877631c9844ddd5501205fc","6889dd3b59ea8cc7552281af","3","1","5c63e773f9b6300001c9ce20","3","1","2025-07-30T08:55:38.393Z","","","","","","","","","","","MotivationQ","","50","","","","","","","","","","","","","","","","","","","","","","","","","","","","",""
"","","","","ctl-task-cpt","14","229737","0.0-5.0-0.1","272","1","2025-07-30 08:52:24","1f75c3e559b7213887762d5229550c2b","2.97.10.0","Mozilla/5.0 (Macintosh; Intel Mac OS X 10_15_7) AppleWebKit/605.1.15 (KHTML, like Gecko) Version/18.3.1 Safari/605.1.15","Macintosh","Safari","18.3.1","OS X","10_15_7","https://app.prolific.com/","en-GB,en;q=0.9","5c63e773f9b6300001c9ce20","6877631c9844ddd5501205fc","6889dd3b59ea8cc7552281af","3","1","5c63e773f9b6300001c9ce20","3","1","2025-07-30T08:56:15.778Z","","","","","","","","","","","","","","win-only","1","g1:NE,g2:SW","0.9","2","0","194103","1110","6113","34379","1","4","4","6","1","1","0","1","1","0.007575757575757576","1755","3000","1380","[""up"",""right""]","{""num_key_presses"":6,""num_perfect"":5,""num_errors"":1,""num_randdir"":0,""num_randdir_good_moves"":0,""num_whilered"":0,""num_whileblue"":1,""num_blue"":4,""num_good_moves"":5}","[714.2857142857143,687.2857142857143,1,714.2857142857143,687.2857142857143,120,714.2857142857143,687.2857142857143,221,714.2857142857143,687.2857142857143,325,714.2857142857143,687.2857142857143,431,714.2857142857143,687.2857142857143,532,714.2857142857143,687.2857142857143,637,714.2857142857143,687.2857142857143,738,714.2857142857143,687.2857142857143,838,714.2857142857143,687.2857142857143,939,642.2857142857143,759.2857142857143,1045,398.2857142857143,1009.2857142857143,1151,560.2857142857143,885.2857142857143,1253,1352.2857142857142,345.2857142857143,1354,1410.2857142857142,283.2857142857143,1457,1432.2857142857142,167.28571428571428,1559,1288.2857142857142,153.28571428571428,1668,1266.2857142857142,137.28571428571428,1821,1266.2857142857142,137.28571428571428,1930,1266.2857142857142,137.28571428571428,2033,1266.2857142857142,137.28571428571428,2137,1266.2857142857142,137.28571428571428,2241,1266.2857142857142,137.28571428571428,2348,1266.2857142857142,137.28571428571428,2479,1266.2857142857142,137.28571428571428,2582,1266.2857142857142,137.28571428571428,2696,1266.2857142857142,137.28571428571428,2799,1266.2857142857142,137.28571428571428,2902,1266.2857142857142,137.28571428571428,3005,1266.2857142857142,137.28571428571428,3106,1266.2857142857142,137.28571428571428,3210,1266.2857142857142,137.28571428571428,3314,1266.2857142857142,137.28571428571428,3416,1266.2857142857142,137.28571428571428,3519,1266.2857142857142,137.28571428571428,3622,1266.2857142857142,137.28571428571428,3732,1266.2857142857142,137.28571428571428,3835,1266.2857142857142,137.28571428571428,3938,1266.2857142857142,137.28571428571428,4042,1266.2857142857142,137.28571428571428,4182,1266.2857142857142,137.28571428571428,4283,1266.2857142857142,137.28571428571428,4386,1266.2857142857142,137.28571428571428,4487,1266.2857142857142,137.28571428571428,4589,1266.2857142857142,137.28571428571428,4691,1266.2857142857142,137.28571428571428,4792,1266.2857142857142,137.28571428571428,4892,1266.2857142857142,137.28571428571428,4997]","[7952,7952,2237.8,5217,497.2,""smooth"",""right"",""right"",""good_move"",11018,3065,2743,7953,322,""while_blue"",""up"",""left"",""bad_move"",14665,3646,3212.5,11019,433.5,""smooth"",""right"",""right"",""good_move"",21781,7113,2589.5,18730,461.5,""smooth"",""up"",""up"",""good_move"",25032,3249,2766.8,21783,482.2,""smooth"",""right"",""right"",""good_move"",28063,3029,2564.8,25034,464.2,""smooth"",""up"",""up"",""good_move""]","",""
"3497","","<div style=""width:500px;"">
  <p>What determined the result of this run?</p>
  </div>","85","html-slider-response","15","233237","0.0-5.0-1.1","272","1","2025-07-30 08:52:24","1f75c3e559b7213887762d5229550c2b","2.97.10.0","Mozilla/5.0 (Macintosh; Intel Mac OS X 10_15_7) AppleWebKit/605.1.15 (KHTML, like Gecko) Version/18.3.1 Safari/605.1.15","Macintosh","Safari","18.3.1","OS X","10_15_7","https://app.prolific.com/","en-GB,en;q=0.9","5c63e773f9b6300001c9ce20","6877631c9844ddd5501205fc","6889dd3b59ea8cc7552281af","3","1","5c63e773f9b6300001c9ce20","3","1","2025-07-30T08:56:19.277Z","","","","","","","","","","","AttribQ","","50","","","","","","","","","","","","","","","","","","","","","","","","","","","","",""
"3835","","<div style=""width:500px;"">
  <p>How much control did you have over the ball?</p>
  </div>","92","html-slider-response","16","237073","0.0-5.0-2.1","272","1","2025-07-30 08:52:24","1f75c3e559b7213887762d5229550c2b","2.97.10.0","Mozilla/5.0 (Macintosh; Intel Mac OS X 10_15_7) AppleWebKit/605.1.15 (KHTML, like Gecko) Version/18.3.1 Safari/605.1.15","Macintosh","Safari","18.3.1","OS X","10_15_7","https://app.prolific.com/","en-GB,en;q=0.9","5c63e773f9b6300001c9ce20","6877631c9844ddd5501205fc","6889dd3b59ea8cc7552281af","3","1","5c63e773f9b6300001c9ce20","3","1","2025-07-30T08:56:23.113Z","","","","","","","","","","","ControlQ","","50","","","","","","","","","","","","","","","","","","","","","","","","","","","","",""
"3095","","<div style=""width:500px;"">
  <p>How would you describe your current emotional state?</p>
  </div>","31","html-slider-response","17","240170","0.0-5.0-3.1","272","1","2025-07-30 08:52:24","1f75c3e559b7213887762d5229550c2b","2.97.10.0","Mozilla/5.0 (Macintosh; Intel Mac OS X 10_15_7) AppleWebKit/605.1.15 (KHTML, like Gecko) Version/18.3.1 Safari/605.1.15","Macintosh","Safari","18.3.1","OS X","10_15_7","https://app.prolific.com/","en-GB,en;q=0.9","5c63e773f9b6300001c9ce20","6877631c9844ddd5501205fc","6889dd3b59ea8cc7552281af","3","1","5c63e773f9b6300001c9ce20","3","1","2025-07-30T08:56:26.210Z","","","","","","","","","","","StressQ","","50","","","","","","","","","","","","","","","","","","","","","","","","","","","","",""
"4242","","<div style=""width:500px;"">
  <p>What best describes how you currently feel?</p>
  </div>","42","html-slider-response","18","244414","0.0-5.0-4.1","272","1","2025-07-30 08:52:24","1f75c3e559b7213887762d5229550c2b","2.97.10.0","Mozilla/5.0 (Macintosh; Intel Mac OS X 10_15_7) AppleWebKit/605.1.15 (KHTML, like Gecko) Version/18.3.1 Safari/605.1.15","Macintosh","Safari","18.3.1","OS X","10_15_7","https://app.prolific.com/","en-GB,en;q=0.9","5c63e773f9b6300001c9ce20","6877631c9844ddd5501205fc","6889dd3b59ea8cc7552281af","3","1","5c63e773f9b6300001c9ce20","3","1","2025-07-30T08:56:30.454Z","","","","","","","","","","","MotivationQ","","50","","","","","","","","","","","","","","","","","","","","","","","","","","","","",""
"","","","","ctl-task-cpt","19","277452","0.0-5.0-0.2","272","1","2025-07-30 08:52:24","1f75c3e559b7213887762d5229550c2b","2.97.10.0","Mozilla/5.0 (Macintosh; Intel Mac OS X 10_15_7) AppleWebKit/605.1.15 (KHTML, like Gecko) Version/18.3.1 Safari/605.1.15","Macintosh","Safari","18.3.1","OS X","10_15_7","https://app.prolific.com/","en-GB,en;q=0.9","5c63e773f9b6300001c9ce20","6877631c9844ddd5501205fc","6889dd3b59ea8cc7552281af","3","1","5c63e773f9b6300001c9ce20","3","1","2025-07-30T08:57:03.492Z","","","","","","","","","","","","","","win-only","3","g1:SW,g2:NE","0.8","3","0","246162","1191","6201","30035","1","4","4","6","1","1","1","2","1","0.015151515151515152","1173","3000","670","[""down"",""left""]","{""num_key_presses"":8,""num_perfect"":6,""num_errors"":0,""num_randdir"":2,""num_randdir_good_moves"":0,""num_whilered"":0,""num_whileblue"":0,""num_blue"":0,""num_good_moves"":6}","[708.2857142857143,701.2857142857143,2,708.2857142857143,701.2857142857143,119,708.2857142857143,701.2857142857143,226,708.2857142857143,701.2857142857143,331,708.2857142857143,701.2857142857143,434,708.2857142857143,701.2857142857143,534,708.2857142857143,701.2857142857143,634,708.2857142857143,701.2857142857143,740,520.2857142857143,949.2857142857143,841,148.28571428571428,1329.2857142857142,944,136.28571428571428,1333.2857142857142,1046,134.28571428571428,1335.2857142857142,1147,134.28571428571428,1335.2857142857142,1268,134.28571428571428,1335.2857142857142,1368,134.28571428571428,1335.2857142857142,1469,134.28571428571428,1335.2857142857142,1574,134.28571428571428,1335.2857142857142,1678,134.28571428571428,1335.2857142857142,1780,134.28571428571428,1335.2857142857142,1888,134.28571428571428,1335.2857142857142,1995,134.28571428571428,1335.2857142857142,2097,134.28571428571428,1335.2857142857142,2198,134.28571428571428,1335.2857142857142,2326,134.28571428571428,1335.2857142857142,2429,134.28571428571428,1335.2857142857142,2532,134.28571428571428,1335.2857142857142,2642,134.28571428571428,1335.2857142857142,2750,134.28571428571428,1335.2857142857142,2851,134.28571428571428,1335.2857142857142,2951,134.28571428571428,1335.2857142857142,3098,134.28571428571428,1335.2857142857142,3198,134.28571428571428,1335.2857142857142,3302,134.28571428571428,1335.2857142857142,3412,134.28571428571428,1335.2857142857142,3517,134.28571428571428,1335.2857142857142,3632,134.28571428571428,1335.2857142857142,3733,134.28571428571428,1335.2857142857142,3835,134.28571428571428,1335.2857142857142,3938,134.28571428571428,1335.2857142857142,4103,134.28571428571428,1335.2857142857142,4209,134.28571428571428,1335.2857142857142,4315,134.28571428571428,1335.2857142857142,4416,134.28571428571428,1335.2857142857142,4524,134.28571428571428,1335.2857142857142,4627,134.28571428571428,1335.2857142857142,4730,134.28571428571428,1335.2857142857142,4831,134.28571428571428,1335.2857142857142,4931]","[1508,1508,1000,1,507,""oops"",""left"",""right"",""bad_move"",4218,2709,2184.7,1509,524.3,""smooth"",""down"",""down"",""good_move"",7436,3215,2696.4,4221,518.6,""smooth"",""left"",""left"",""good_move"",11101,3664,3117,7437,547,""oops"",""down"",""up"",""bad_move"",14218,3114,2607.6,11104,506.4,""smooth"",""left"",""left"",""good_move"",16594,2374,1851.5,14220,522.5,""smooth"",""down"",""down"",""good_move"",20022,3427,2804.1,16595,622.9,""smooth"",""down"",""down"",""good_move"",23631,3608,3096.3,20023,511.7,""smooth"",""left"",""left"",""good_move""]","",""
"3878","","<div style=""width:500px;"">
  <p>What determined the result of this run?</p>
  </div>","32","html-slider-response","20","281332","0.0-5.0-1.2","272","1","2025-07-30 08:52:24","1f75c3e559b7213887762d5229550c2b","2.97.10.0","Mozilla/5.0 (Macintosh; Intel Mac OS X 10_15_7) AppleWebKit/605.1.15 (KHTML, like Gecko) Version/18.3.1 Safari/605.1.15","Macintosh","Safari","18.3.1","OS X","10_15_7","https://app.prolific.com/","en-GB,en;q=0.9","5c63e773f9b6300001c9ce20","6877631c9844ddd5501205fc","6889dd3b59ea8cc7552281af","3","1","5c63e773f9b6300001c9ce20","3","1","2025-07-30T08:57:07.372Z","","","","","","","","","","","AttribQ","","50","","","","","","","","","","","","","","","","","","","","","","","","","","","","",""
"3571","","<div style=""width:500px;"">
  <p>How much control did you have over the ball?</p>
  </div>","79","html-slider-response","21","284905","0.0-5.0-2.2","272","1","2025-07-30 08:52:24","1f75c3e559b7213887762d5229550c2b","2.97.10.0","Mozilla/5.0 (Macintosh; Intel Mac OS X 10_15_7) AppleWebKit/605.1.15 (KHTML, like Gecko) Version/18.3.1 Safari/605.1.15","Macintosh","Safari","18.3.1","OS X","10_15_7","https://app.prolific.com/","en-GB,en;q=0.9","5c63e773f9b6300001c9ce20","6877631c9844ddd5501205fc","6889dd3b59ea8cc7552281af","3","1","5c63e773f9b6300001c9ce20","3","1","2025-07-30T08:57:10.945Z","","","","","","","","","","","ControlQ","","50","","","","","","","","","","","","","","","","","","","","","","","","","","","","",""
"3200","","<div style=""width:500px;"">
  <p>How would you describe your current emotional state?</p>
  </div>","26","html-slider-response","22","288105","0.0-5.0-3.2","272","1","2025-07-30 08:52:24","1f75c3e559b7213887762d5229550c2b","2.97.10.0","Mozilla/5.0 (Macintosh; Intel Mac OS X 10_15_7) AppleWebKit/605.1.15 (KHTML, like Gecko) Version/18.3.1 Safari/605.1.15","Macintosh","Safari","18.3.1","OS X","10_15_7","https://app.prolific.com/","en-GB,en;q=0.9","5c63e773f9b6300001c9ce20","6877631c9844ddd5501205fc","6889dd3b59ea8cc7552281af","3","1","5c63e773f9b6300001c9ce20","3","1","2025-07-30T08:57:14.145Z","","","","","","","","","","","StressQ","","50","","","","","","","","","","","","","","","","","","","","","","","","","","","","",""
"3622","","<div style=""width:500px;"">
  <p>What best describes how you currently feel?</p>
  </div>","35","html-slider-response","23","291729","0.0-5.0-4.2","272","1","2025-07-30 08:52:24","1f75c3e559b7213887762d5229550c2b","2.97.10.0","Mozilla/5.0 (Macintosh; Intel Mac OS X 10_15_7) AppleWebKit/605.1.15 (KHTML, like Gecko) Version/18.3.1 Safari/605.1.15","Macintosh","Safari","18.3.1","OS X","10_15_7","https://app.prolific.com/","en-GB,en;q=0.9","5c63e773f9b6300001c9ce20","6877631c9844ddd5501205fc","6889dd3b59ea8cc7552281af","3","1","5c63e773f9b6300001c9ce20","3","1","2025-07-30T08:57:17.769Z","","","","","","","","","","","MotivationQ","","50","","","","","","","","","","","","","","","","","","","","","","","","","","","","",""
"","","","","ctl-task-cpt","24","332170","0.0-5.0-0.3","272","1","2025-07-30 08:52:24","1f75c3e559b7213887762d5229550c2b","2.97.10.0","Mozilla/5.0 (Macintosh; Intel Mac OS X 10_15_7) AppleWebKit/605.1.15 (KHTML, like Gecko) Version/18.3.1 Safari/605.1.15","Macintosh","Safari","18.3.1","OS X","10_15_7","https://app.prolific.com/","en-GB,en;q=0.9","5c63e773f9b6300001c9ce20","6877631c9844ddd5501205fc","6889dd3b59ea8cc7552281af","3","1","5c63e773f9b6300001c9ce20","3","1","2025-07-30T08:57:58.210Z","","","","","","","","","","","","","","win-only","1","g1:NE,g2:SW","0.7","4","0","293476","1489","6501","37413","1","4","8","6","2","8","8","10","2","0.07575757575757576","1429","3000","1575","[""down"",""left""]","{""num_key_presses"":6,""num_perfect"":4,""num_errors"":0,""num_randdir"":2,""num_randdir_good_moves"":2,""num_whilered"":0,""num_whileblue"":0,""num_blue"":4,""num_good_moves"":6}","[688.2857142857143,679.2857142857143,2,688.2857142857143,679.2857142857143,110,688.2857142857143,679.2857142857143,213,688.2857142857143,679.2857142857143,314,688.2857142857143,679.2857142857143,421,688.2857142857143,679.2857142857143,521,688.2857142857143,679.2857142857143,622,688.2857142857143,679.2857142857143,740,536.2857142857143,837.2857142857143,843,64.28571428571429,1333.2857142857142,957,40.28571428571429,1361.2857142857142,1074,40.28571428571429,1361.2857142857142,1178,42.28571428571429,1355.2857142857142,1290,78.28571428571429,1333.2857142857142,1392,78.28571428571429,1333.2857142857142,1509,74.28571428571429,1339.2857142857142,1612,74.28571428571429,1339.2857142857142,1729,74.28571428571429,1339.2857142857142,1833,74.28571428571429,1339.2857142857142,1938,74.28571428571429,1339.2857142857142,2038,74.28571428571429,1339.2857142857142,2163,74.28571428571429,1339.2857142857142,2270,74.28571428571429,1339.2857142857142,2373,74.28571428571429,1339.2857142857142,2473,74.28571428571429,1339.2857142857142,2582,74.28571428571429,1339.2857142857142,2685,74.28571428571429,1339.2857142857142,2788,74.28571428571429,1339.2857142857142,2889,74.28571428571429,1339.2857142857142,3000,74.28571428571429,1339.2857142857142,3122,74.28571428571429,1339.2857142857142,3229,74.28571428571429,1339.2857142857142,3330,74.28571428571429,1339.2857142857142,3457,74.28571428571429,1339.2857142857142,3584,74.28571428571429,1339.2857142857142,3688,74.28571428571429,1339.2857142857142,3789,74.28571428571429,1339.2857142857142,3889,74.28571428571429,1339.2857142857142,4001,74.28571428571429,1339.2857142857142,4106,74.28571428571429,1339.2857142857142,4211,74.28571428571429,1339.2857142857142,4316,74.28571428571429,1339.2857142857142,4417,74.28571428571429,1339.2857142857142,4521,74.28571428571429,1339.2857142857142,4629,74.28571428571429,1339.2857142857142,4731,74.28571428571429,1339.2857142857142,4832,74.28571428571429,1339.2857142857142,4932]","[1519,1519,1000,0,519,""oops"",""left"",""left"",""good_move"",3874,2354,1855.4,1520,498.6,""oops"",""down"",""down"",""good_move"",17876,14000,2607.8,14787,481.2,""smooth"",""left"",""left"",""good_move"",21341,3462,2927,17879,535,""smooth"",""down"",""down"",""good_move"",27363,6021,2346.2,24457,559.8,""smooth"",""down"",""down"",""good_move"",30702,3338,2779.7,27364,558.3,""smooth"",""left"",""left"",""good_move""]","",""
"4931","","<div style=""width:500px;"">
  <p>What determined the result of this run?</p>
  </div>","28","html-slider-response","25","337104","0.0-5.0-1.3","272","1","2025-07-30 08:52:24","1f75c3e559b7213887762d5229550c2b","2.97.10.0","Mozilla/5.0 (Macintosh; Intel Mac OS X 10_15_7) AppleWebKit/605.1.15 (KHTML, like Gecko) Version/18.3.1 Safari/605.1.15","Macintosh","Safari","18.3.1","OS X","10_15_7","https://app.prolific.com/","en-GB,en;q=0.9","5c63e773f9b6300001c9ce20","6877631c9844ddd5501205fc","6889dd3b59ea8cc7552281af","3","1","5c63e773f9b6300001c9ce20","3","1","2025-07-30T08:58:03.144Z","","","","","","","","","","","AttribQ","","50","","","","","","","","","","","","","","","","","","","","","","","","","","","","",""
"3775","","<div style=""width:500px;"">
  <p>How much control did you have over the ball?</p>
  </div>","94","html-slider-response","26","340881","0.0-5.0-2.3","272","1","2025-07-30 08:52:24","1f75c3e559b7213887762d5229550c2b","2.97.10.0","Mozilla/5.0 (Macintosh; Intel Mac OS X 10_15_7) AppleWebKit/605.1.15 (KHTML, like Gecko) Version/18.3.1 Safari/605.1.15","Macintosh","Safari","18.3.1","OS X","10_15_7","https://app.prolific.com/","en-GB,en;q=0.9","5c63e773f9b6300001c9ce20","6877631c9844ddd5501205fc","6889dd3b59ea8cc7552281af","3","1","5c63e773f9b6300001c9ce20","3","1","2025-07-30T08:58:06.921Z","","","","","","","","","","","ControlQ","","50","","","","","","","","","","","","","","","","","","","","","","","","","","","","",""
"4779","","<div style=""width:500px;"">
  <p>How would you describe your current emotional state?</p>
  </div>","39","html-slider-response","27","345662","0.0-5.0-3.3","272","1","2025-07-30 08:52:24","1f75c3e559b7213887762d5229550c2b","2.97.10.0","Mozilla/5.0 (Macintosh; Intel Mac OS X 10_15_7) AppleWebKit/605.1.15 (KHTML, like Gecko) Version/18.3.1 Safari/605.1.15","Macintosh","Safari","18.3.1","OS X","10_15_7","https://app.prolific.com/","en-GB,en;q=0.9","5c63e773f9b6300001c9ce20","6877631c9844ddd5501205fc","6889dd3b59ea8cc7552281af","3","1","5c63e773f9b6300001c9ce20","3","1","2025-07-30T08:58:11.702Z","","","","","","","","","","","StressQ","","50","","","","","","","","","","","","","","","","","","","","","","","","","","","","",""
"6409","","<div style=""width:500px;"">
  <p>What best describes how you currently feel?</p>
  </div>","41","html-slider-response","28","352072","0.0-5.0-4.3","272","1","2025-07-30 08:52:24","1f75c3e559b7213887762d5229550c2b","2.97.10.0","Mozilla/5.0 (Macintosh; Intel Mac OS X 10_15_7) AppleWebKit/605.1.15 (KHTML, like Gecko) Version/18.3.1 Safari/605.1.15","Macintosh","Safari","18.3.1","OS X","10_15_7","https://app.prolific.com/","en-GB,en;q=0.9","5c63e773f9b6300001c9ce20","6877631c9844ddd5501205fc","6889dd3b59ea8cc7552281af","3","1","5c63e773f9b6300001c9ce20","3","1","2025-07-30T08:58:18.112Z","","","","","","","","","","","MotivationQ","","50","","","","","","","","","","","","","","","","","","","","","","","","","","","","",""
"","","","","ctl-task-cpt","29","378570","0.0-5.0-0.4","272","1","2025-07-30 08:52:24","1f75c3e559b7213887762d5229550c2b","2.97.10.0","Mozilla/5.0 (Macintosh; Intel Mac OS X 10_15_7) AppleWebKit/605.1.15 (KHTML, like Gecko) Version/18.3.1 Safari/605.1.15","Macintosh","Safari","18.3.1","OS X","10_15_7","https://app.prolific.com/","en-GB,en;q=0.9","5c63e773f9b6300001c9ce20","6877631c9844ddd5501205fc","6889dd3b59ea8cc7552281af","3","1","5c63e773f9b6300001c9ce20","3","1","2025-07-30T08:58:44.610Z","","","","","","","","","","","","","","win-only","2","g1:SE,g2:NW","0.6","5","0","353817","7839","12850","23483","1","4","8","6","1","1","1","11","10","0.08333333333333333","1728","3000","2160","[""down"",""right""]","{""num_key_presses"":4,""num_perfect"":4,""num_errors"":0,""num_randdir"":0,""num_randdir_good_moves"":0,""num_whilered"":0,""num_whileblue"":0,""num_blue"":0,""num_good_moves"":4}","[686.2857142857143,697.2857142857143,1,686.2857142857143,697.2857142857143,118,686.2857142857143,697.2857142857143,219,686.2857142857143,697.2857142857143,320,686.2857142857143,697.2857142857143,423,686.2857142857143,697.2857142857143,530,686.2857142857143,697.2857142857143,631,686.2857142857143,697.2857142857143,757,686.2857142857143,697.2857142857143,876,686.2857142857143,697.2857142857143,996,692.2857142857143,697.2857142857143,1098,994.2857142857143,1031.2857142857142,1210,1066.2857142857142,1131.2857142857142,1324,1136.2857142857142,1177.2857142857142,1428,1218.2857142857142,1245.2857142857142,1549,1220.2857142857142,1247.2857142857142,1665,1220.2857142857142,1247.2857142857142,1813,1220.2857142857142,1247.2857142857142,1945,1220.2857142857142,1247.2857142857142,2046,1220.2857142857142,1247.2857142857142,2158,1220.2857142857142,1247.2857142857142,2259,1220.2857142857142,1247.2857142857142,2369,1220.2857142857142,1247.2857142857142,2478,1220.2857142857142,1249.2857142857142,2591,1070.2857142857142,1355.2857142857142,2719,1010.2857142857143,1407.2857142857142,2822,996.2857142857143,1423.2857142857142,2930,980.2857142857143,1455.2857142857142,3056,974.2857142857143,1467.2857142857142,3182,972.2857142857143,1471.2857142857142,3308,972.2857142857143,1471.2857142857142,3439,972.2857142857143,1471.2857142857142,3543,972.2857142857143,1471.2857142857142,3648,972.2857142857143,1471.2857142857142,3785,972.2857142857143,1471.2857142857142,3902,972.2857142857143,1471.2857142857142,4004,972.2857142857143,1471.2857142857142,4111,972.2857142857143,1471.2857142857142,4212,972.2857142857143,1471.2857142857142,4320,972.2857142857143,1471.2857142857142,4432,972.2857142857143,1471.2857142857142,4543,972.2857142857143,1471.2857142857142,4647,972.2857142857143,1471.2857142857142,4754,972.2857142857143,1471.2857142857142,4871,972.2857142857143,1471.2857142857142,4974]","[1573,1573,1000,0,573,""smooth"",""right"",""right"",""good_move"",4731,3157,2667.7,1574,489.3,""smooth"",""down"",""down"",""good_move"",7970,3238,2766.8,4732,471.2,""smooth"",""right"",""right"",""good_move"",10419,2448,1926.4,7971,521.6,""smooth"",""down"",""down"",""good_move""]","",""
"5065","","<div style=""width:500px;"">
  <p>What determined the result of this run?</p>
  </div>","75","html-slider-response","30","383637","0.0-5.0-1.4","272","1","2025-07-30 08:52:24","1f75c3e559b7213887762d5229550c2b","2.97.10.0","Mozilla/5.0 (Macintosh; Intel Mac OS X 10_15_7) AppleWebKit/605.1.15 (KHTML, like Gecko) Version/18.3.1 Safari/605.1.15","Macintosh","Safari","18.3.1","OS X","10_15_7","https://app.prolific.com/","en-GB,en;q=0.9","5c63e773f9b6300001c9ce20","6877631c9844ddd5501205fc","6889dd3b59ea8cc7552281af","3","1","5c63e773f9b6300001c9ce20","3","1","2025-07-30T08:58:49.677Z","","","","","","","","","","","AttribQ","","50","","","","","","","","","","","","","","","","","","","","","","","","","","","","",""
"2956","","<div style=""width:500px;"">
  <p>How much control did you have over the ball?</p>
  </div>","97","html-slider-response","31","386594","0.0-5.0-2.4","272","1","2025-07-30 08:52:24","1f75c3e559b7213887762d5229550c2b","2.97.10.0","Mozilla/5.0 (Macintosh; Intel Mac OS X 10_15_7) AppleWebKit/605.1.15 (KHTML, like Gecko) Version/18.3.1 Safari/605.1.15","Macintosh","Safari","18.3.1","OS X","10_15_7","https://app.prolific.com/","en-GB,en;q=0.9","5c63e773f9b6300001c9ce20","6877631c9844ddd5501205fc","6889dd3b59ea8cc7552281af","3","1","5c63e773f9b6300001c9ce20","3","1","2025-07-30T08:58:52.634Z","","","","","","","","","","","ControlQ","","50","","","","","","","","","","","","","","","","","","","","","","","","","","","","",""
"7336","","<div style=""width:500px;"">
  <p>How would you describe your current emotional state?</p>
  </div>","29","html-slider-response","32","393931","0.0-5.0-3.4","272","1","2025-07-30 08:52:24","1f75c3e559b7213887762d5229550c2b","2.97.10.0","Mozilla/5.0 (Macintosh; Intel Mac OS X 10_15_7) AppleWebKit/605.1.15 (KHTML, like Gecko) Version/18.3.1 Safari/605.1.15","Macintosh","Safari","18.3.1","OS X","10_15_7","https://app.prolific.com/","en-GB,en;q=0.9","5c63e773f9b6300001c9ce20","6877631c9844ddd5501205fc","6889dd3b59ea8cc7552281af","3","1","5c63e773f9b6300001c9ce20","3","1","2025-07-30T08:58:59.971Z","","","","","","","","","","","StressQ","","50","","","","","","","","","","","","","","","","","","","","","","","","","","","","",""
"7136","","<div style=""width:500px;"">
  <p>What best describes how you currently feel?</p>
  </div>","42","html-slider-response","33","401068","0.0-5.0-4.4","272","1","2025-07-30 08:52:24","1f75c3e559b7213887762d5229550c2b","2.97.10.0","Mozilla/5.0 (Macintosh; Intel Mac OS X 10_15_7) AppleWebKit/605.1.15 (KHTML, like Gecko) Version/18.3.1 Safari/605.1.15","Macintosh","Safari","18.3.1","OS X","10_15_7","https://app.prolific.com/","en-GB,en;q=0.9","5c63e773f9b6300001c9ce20","6877631c9844ddd5501205fc","6889dd3b59ea8cc7552281af","3","1","5c63e773f9b6300001c9ce20","3","1","2025-07-30T08:59:07.108Z","","","","","","","","","","","MotivationQ","","50","","","","","","","","","","","","","","","","","","","","","","","","","","","","",""
"","","","","ctl-task-cpt","34","441704","0.0-5.0-0.5","272","1","2025-07-30 08:52:24","1f75c3e559b7213887762d5229550c2b","2.97.10.0","Mozilla/5.0 (Macintosh; Intel Mac OS X 10_15_7) AppleWebKit/605.1.15 (KHTML, like Gecko) Version/18.3.1 Safari/605.1.15","Macintosh","Safari","18.3.1","OS X","10_15_7","https://app.prolific.com/","en-GB,en;q=0.9","5c63e773f9b6300001c9ce20","6877631c9844ddd5501205fc","6889dd3b59ea8cc7552281af","3","1","5c63e773f9b6300001c9ce20","3","1","2025-07-30T08:59:47.744Z","","","","","","","","","","","","","","win-only","1","g1:NE,g2:SW","0.5","6","0","402813","8318","13321","37616","1","4","4","6","1","1","1","12","11","0.09090909090909091","1323","3000","1885","[""up"",""right""]","{""num_key_presses"":6,""num_perfect"":4,""num_errors"":0,""num_randdir"":2,""num_randdir_good_moves"":1,""num_whilered"":0,""num_whileblue"":0,""num_blue"":2,""num_good_moves"":5}","[692.2857142857143,691.2857142857143,1,692.2857142857143,691.2857142857143,103,692.2857142857143,691.2857142857143,205,692.2857142857143,691.2857142857143,305,692.2857142857143,691.2857142857143,430,692.2857142857143,691.2857142857143,551,692.2857142857143,691.2857142857143,661,754.2857142857143,655.2857142857143,765,1270.2857142857142,301.2857142857143,866,1302.2857142857142,259.2857142857143,978,1302.2857142857142,259.2857142857143,1085,1302.2857142857142,223.28571428571428,1186,1302.2857142857142,191.28571428571428,1300,1302.2857142857142,191.28571428571428,1420,1302.2857142857142,191.28571428571428,1545,1302.2857142857142,191.28571428571428,1679,1394.2857142857142,267.2857142857143,1785,1394.2857142857142,267.2857142857143,1885,1734.2857142857142,683.2857142857143,2042,1734.2857142857142,683.2857142857143,2150,1734.2857142857142,683.2857142857143,2253,1734.2857142857142,683.2857142857143,2358,1734.2857142857142,683.2857142857143,2460,1734.2857142857142,683.2857142857143,2562,1648.2857142857142,607.2857142857143,2667,1644.2857142857142,605.2857142857143,2769,1644.2857142857142,605.2857142857143,2872,1644.2857142857142,605.2857142857143,2976,1644.2857142857142,605.2857142857143,3088,1644.2857142857142,605.2857142857143,3252,1644.2857142857142,605.2857142857143,3361,1644.2857142857142,605.2857142857143,3490,1644.2857142857142,605.2857142857143,3591,1644.2857142857142,605.2857142857143,3702,1644.2857142857142,605.2857142857143,3802,1644.2857142857142,605.2857142857143,3909,1644.2857142857142,605.2857142857143,4025,1644.2857142857142,605.2857142857143,4166,1644.2857142857142,605.2857142857143,4286,1644.2857142857142,605.2857142857143,4389,1644.2857142857142,605.2857142857143,4500,1644.2857142857142,605.2857142857143,4600,1644.2857142857142,605.2857142857143,4731,1644.2857142857142,605.2857142857143,4836,1644.2857142857142,605.2857142857143,4966]","[5379,5379,2751.4,2012,615.6,""oops"",""right"",""left"",""bad_move"",8301,2919,2211.9,5382,707.1,""smooth"",""up"",""up"",""good_move"",11224,2920,2449.1,8304,470.9,""oops"",""right"",""right"",""good_move"",14306,3080,2573.8,11226,506.2,""smooth"",""up"",""up"",""good_move"",17263,2952,2242.8,14311,709.2,""smooth"",""right"",""right"",""good_move"",24053,6788,3007.7,20541,504.3,""smooth"",""right"",""right"",""good_move""]","",""
"6451","","<div style=""width:500px;"">
  <p>What determined the result of this run?</p>
  </div>","34","html-slider-response","35","448158","0.0-5.0-1.5","272","1","2025-07-30 08:52:24","1f75c3e559b7213887762d5229550c2b","2.97.10.0","Mozilla/5.0 (Macintosh; Intel Mac OS X 10_15_7) AppleWebKit/605.1.15 (KHTML, like Gecko) Version/18.3.1 Safari/605.1.15","Macintosh","Safari","18.3.1","OS X","10_15_7","https://app.prolific.com/","en-GB,en;q=0.9","5c63e773f9b6300001c9ce20","6877631c9844ddd5501205fc","6889dd3b59ea8cc7552281af","3","1","5c63e773f9b6300001c9ce20","3","1","2025-07-30T08:59:54.198Z","","","","","","","","","","","AttribQ","","50","","","","","","","","","","","","","","","","","","","","","","","","","","","","",""
"8975","","<div style=""width:500px;"">
  <p>How much control did you have over the ball?</p>
  </div>","84","html-slider-response","36","457135","0.0-5.0-2.5","272","1","2025-07-30 08:52:24","1f75c3e559b7213887762d5229550c2b","2.97.10.0","Mozilla/5.0 (Macintosh; Intel Mac OS X 10_15_7) AppleWebKit/605.1.15 (KHTML, like Gecko) Version/18.3.1 Safari/605.1.15","Macintosh","Safari","18.3.1","OS X","10_15_7","https://app.prolific.com/","en-GB,en;q=0.9","5c63e773f9b6300001c9ce20","6877631c9844ddd5501205fc","6889dd3b59ea8cc7552281af","3","1","5c63e773f9b6300001c9ce20","3","1","2025-07-30T09:00:03.175Z","","","","","","","","","","","ControlQ","","50","","","","","","","","","","","","","","","","","","","","","","","","","","","","",""
"8769","","<div style=""width:500px;"">
  <p>How would you describe your current emotional state?</p>
  </div>","30","html-slider-response","37","465905","0.0-5.0-3.5","272","1","2025-07-30 08:52:24","1f75c3e559b7213887762d5229550c2b","2.97.10.0","Mozilla/5.0 (Macintosh; Intel Mac OS X 10_15_7) AppleWebKit/605.1.15 (KHTML, like Gecko) Version/18.3.1 Safari/605.1.15","Macintosh","Safari","18.3.1","OS X","10_15_7","https://app.prolific.com/","en-GB,en;q=0.9","5c63e773f9b6300001c9ce20","6877631c9844ddd5501205fc","6889dd3b59ea8cc7552281af","3","1","5c63e773f9b6300001c9ce20","3","1","2025-07-30T09:00:11.945Z","","","","","","","","","","","StressQ","","50","","","","","","","","","","","","","","","","","","","","","","","","","","","","",""
"12143","","<div style=""width:500px;"">
  <p>What best describes how you currently feel?</p>
  </div>","34","html-slider-response","38","478049","0.0-5.0-4.5","272","1","2025-07-30 08:52:24","1f75c3e559b7213887762d5229550c2b","2.97.10.0","Mozilla/5.0 (Macintosh; Intel Mac OS X 10_15_7) AppleWebKit/605.1.15 (KHTML, like Gecko) Version/18.3.1 Safari/605.1.15","Macintosh","Safari","18.3.1","OS X","10_15_7","https://app.prolific.com/","en-GB,en;q=0.9","5c63e773f9b6300001c9ce20","6877631c9844ddd5501205fc","6889dd3b59ea8cc7552281af","3","1","5c63e773f9b6300001c9ce20","3","1","2025-07-30T09:00:24.089Z","","","","","","","","","","","MotivationQ","","50","","","","","","","","","","","","","","","","","","","","","","","","","","","","",""
"","","","","ctl-task-cpt","39","516289","0.0-5.0-0.6","272","1","2025-07-30 08:52:24","1f75c3e559b7213887762d5229550c2b","2.97.10.0","Mozilla/5.0 (Macintosh; Intel Mac OS X 10_15_7) AppleWebKit/605.1.15 (KHTML, like Gecko) Version/18.3.1 Safari/605.1.15","Macintosh","Safari","18.3.1","OS X","10_15_7","https://app.prolific.com/","en-GB,en;q=0.9","5c63e773f9b6300001c9ce20","6877631c9844ddd5501205fc","6889dd3b59ea8cc7552281af","3","1","5c63e773f9b6300001c9ce20","3","1","2025-07-30T09:01:02.329Z","","","","","","","","","","","","","","win-only","3","g1:SW,g2:NE","0.4","7","0","479791","7197","12215","35234","1","4","4","6","1","1","1","13","12","0.09848484848484848","1509","3000","2275","[""down"",""left""]","{""num_key_presses"":4,""num_perfect"":4,""num_errors"":0,""num_randdir"":0,""num_randdir_good_moves"":0,""num_whilered"":0,""num_whileblue"":0,""num_blue"":3,""num_good_moves"":4}","[706.2857142857143,695.2857142857143,4,706.2857142857143,695.2857142857143,127,706.2857142857143,695.2857142857143,245,706.2857142857143,695.2857142857143,348,706.2857142857143,695.2857142857143,448,706.2857142857143,695.2857142857143,620,706.2857142857143,695.2857142857143,754,706.2857142857143,695.2857142857143,855,690.2857142857143,707.2857142857143,960,470.2857142857143,951.2857142857143,1083,206.28571428571428,1309.2857142857142,1193,128.28571428571428,1355.2857142857142,1309,118.28571428571429,1345.2857142857142,1409,118.28571428571429,1345.2857142857142,1571,118.28571428571429,1345.2857142857142,1689,118.28571428571429,1345.2857142857142,1790,38.28571428571429,1299.2857142857142,1890,-257.7142857142857,1125.2857142857142,2025,-287.7142857142857,1111.2857142857142,2141,-287.7142857142857,1111.2857142857142,2251,-287.7142857142857,1111.2857142857142,2382,-287.7142857142857,1111.2857142857142,2544,-287.7142857142857,1111.2857142857142,2663,-287.7142857142857,1111.2857142857142,2771,-287.7142857142857,1111.2857142857142,2885,-287.7142857142857,1111.2857142857142,3019,-287.7142857142857,1111.2857142857142,3152,-287.7142857142857,1111.2857142857142,3254,-287.7142857142857,1111.2857142857142,3368,-287.7142857142857,1111.2857142857142,3469,-287.7142857142857,1111.2857142857142,3583,-287.7142857142857,1111.2857142857142,3703,-287.7142857142857,1111.2857142857142,3804,-287.7142857142857,1111.2857142857142,3911,-287.7142857142857,1111.2857142857142,4042,-287.7142857142857,1111.2857142857142,4147,-287.7142857142857,1111.2857142857142,4334,-287.7142857142857,1111.2857142857142,4460,-287.7142857142857,1111.2857142857142,4590,-287.7142857142857,1111.2857142857142,4698,-287.7142857142857,1111.2857142857142,4822,-287.7142857142857,1111.2857142857142,4947]","[9519,9519,3336.4,5612,570.6,""smooth"",""left"",""left"",""good_move"",16296,6776,2564.4,13158,573.6,""smooth"",""down"",""down"",""good_move"",19643,3343,2747.8,16300,595.2,""smooth"",""down"",""down"",""good_move"",22717,3071,2503.2,19646,567.8,""smooth"",""left"",""left"",""good_move""]","",""
"4474","","<div style=""width:500px;"">
  <p>What determined the result of this run?</p>
  </div>","33","html-slider-response","40","520764","0.0-5.0-1.6","272","1","2025-07-30 08:52:24","1f75c3e559b7213887762d5229550c2b","2.97.10.0","Mozilla/5.0 (Macintosh; Intel Mac OS X 10_15_7) AppleWebKit/605.1.15 (KHTML, like Gecko) Version/18.3.1 Safari/605.1.15","Macintosh","Safari","18.3.1","OS X","10_15_7","https://app.prolific.com/","en-GB,en;q=0.9","5c63e773f9b6300001c9ce20","6877631c9844ddd5501205fc","6889dd3b59ea8cc7552281af","3","1","5c63e773f9b6300001c9ce20","3","1","2025-07-30T09:01:06.804Z","","","","","","","","","","","AttribQ","","50","","","","","","","","","","","","","","","","","","","","","","","","","","","","",""
"8198","","<div style=""width:500px;"">
  <p>How much control did you have over the ball?</p>
  </div>","92","html-slider-response","41","528965","0.0-5.0-2.6","272","1","2025-07-30 08:52:24","1f75c3e559b7213887762d5229550c2b","2.97.10.0","Mozilla/5.0 (Macintosh; Intel Mac OS X 10_15_7) AppleWebKit/605.1.15 (KHTML, like Gecko) Version/18.3.1 Safari/605.1.15","Macintosh","Safari","18.3.1","OS X","10_15_7","https://app.prolific.com/","en-GB,en;q=0.9","5c63e773f9b6300001c9ce20","6877631c9844ddd5501205fc","6889dd3b59ea8cc7552281af","3","1","5c63e773f9b6300001c9ce20","3","1","2025-07-30T09:01:15.005Z","","","","","","","","","","","ControlQ","","50","","","","","","","","","","","","","","","","","","","","","","","","","","","","",""
"8136","","<div style=""width:500px;"">
  <p>How would you describe your current emotional state?</p>
  </div>","28","html-slider-response","42","537103","0.0-5.0-3.6","272","1","2025-07-30 08:52:24","1f75c3e559b7213887762d5229550c2b","2.97.10.0","Mozilla/5.0 (Macintosh; Intel Mac OS X 10_15_7) AppleWebKit/605.1.15 (KHTML, like Gecko) Version/18.3.1 Safari/605.1.15","Macintosh","Safari","18.3.1","OS X","10_15_7","https://app.prolific.com/","en-GB,en;q=0.9","5c63e773f9b6300001c9ce20","6877631c9844ddd5501205fc","6889dd3b59ea8cc7552281af","3","1","5c63e773f9b6300001c9ce20","3","1","2025-07-30T09:01:23.143Z","","","","","","","","","","","StressQ","","50","","","","","","","","","","","","","","","","","","","","","","","","","","","","",""
"9862","","<div style=""width:500px;"">
  <p>What best describes how you currently feel?</p>
  </div>","30","html-slider-response","43","546967","0.0-5.0-4.6","272","1","2025-07-30 08:52:24","1f75c3e559b7213887762d5229550c2b","2.97.10.0","Mozilla/5.0 (Macintosh; Intel Mac OS X 10_15_7) AppleWebKit/605.1.15 (KHTML, like Gecko) Version/18.3.1 Safari/605.1.15","Macintosh","Safari","18.3.1","OS X","10_15_7","https://app.prolific.com/","en-GB,en;q=0.9","5c63e773f9b6300001c9ce20","6877631c9844ddd5501205fc","6889dd3b59ea8cc7552281af","3","1","5c63e773f9b6300001c9ce20","3","1","2025-07-30T09:01:33.007Z","","","","","","","","","","","MotivationQ","","50","","","","","","","","","","","","","","","","","","","","","","","","","","","","",""
"","","","","ctl-task-cpt","44","651968","0.0-5.0-0.7","272","1","2025-07-30 08:52:24","1f75c3e559b7213887762d5229550c2b","2.97.10.0","Mozilla/5.0 (Macintosh; Intel Mac OS X 10_15_7) AppleWebKit/605.1.15 (KHTML, like Gecko) Version/18.3.1 Safari/605.1.15","Macintosh","Safari","18.3.1","OS X","10_15_7","https://app.prolific.com/","en-GB,en;q=0.9","5c63e773f9b6300001c9ce20","6877631c9844ddd5501205fc","6889dd3b59ea8cc7552281af","3","1","5c63e773f9b6300001c9ce20","3","1","2025-07-30T09:03:18.008Z","","","","","","","","","","","","","","win-only","1","g1:NE,g2:SW","0.3","8","0","548708","7356","12358","101989","1","4","8","6","2","-8","-8","5","13","0.03787878787878788","1388","3000","-895","[""down"",""left""]","{""num_key_presses"":20,""num_perfect"":6,""num_errors"":0,""num_randdir"":14,""num_randdir_good_moves"":6,""num_whilered"":0,""num_whileblue"":0,""num_blue"":6,""num_good_moves"":12}","[710.2857142857143,697.2857142857143,2,710.2857142857143,697.2857142857143,104,710.2857142857143,697.2857142857143,204,710.2857142857143,697.2857142857143,306,710.2857142857143,697.2857142857143,446,710.2857142857143,697.2857142857143,555,710.2857142857143,697.2857142857143,661,708.2857142857143,697.2857142857143,792,186.28571428571428,1123.2857142857142,903,162.28571428571428,1155.2857142857142,1019,122.28571428571429,1211.2857142857142,1127,122.28571428571429,1215.2857142857142,1293,122.28571428571429,1215.2857142857142,1448,122.28571428571429,1215.2857142857142,1549,122.28571428571429,1215.2857142857142,1649,112.28571428571429,1213.2857142857142,1751,-113.71428571428571,1071.2857142857142,1930,-183.71428571428572,983.2857142857143,2031,-183.71428571428572,983.2857142857143,2169,-183.71428571428572,983.2857142857143,2290,-183.71428571428572,983.2857142857143,2431,-183.71428571428572,983.2857142857143,2569,-183.71428571428572,983.2857142857143,2671,-183.71428571428572,983.2857142857143,2813,-183.71428571428572,983.2857142857143,2915,-183.71428571428572,983.2857142857143,3024,-183.71428571428572,983.2857142857143,3132,-183.71428571428572,983.2857142857143,3233,-183.71428571428572,983.2857142857143,3333,-183.71428571428572,983.2857142857143,3456,-183.71428571428572,983.2857142857143,3560,-183.71428571428572,983.2857142857143,3699,-183.71428571428572,983.2857142857143,3844,-183.71428571428572,983.2857142857143,3977,-183.71428571428572,983.2857142857143,4097,-183.71428571428572,983.2857142857143,4197,-183.71428571428572,983.2857142857143,4300,-183.71428571428572,983.2857142857143,4402,-183.71428571428572,983.2857142857143,4506,-183.71428571428572,983.2857142857143,4639,-183.71428571428572,983.2857142857143,4750,-183.71428571428572,983.2857142857143,4850,-183.71428571428572,983.2857142857143,4950]","[1531,1531,1000,0,531,""smooth"",""left"",""left"",""good_move"",5046,3513,2015.7,1533,1497.3,""oops"",""down"",""right"",""bad_move"",9283,4235,3621.2,5048,613.8,""smooth"",""down"",""down"",""good_move"",12371,3087,2616.7,9284,470.3,""smooth"",""left"",""left"",""good_move"",15820,3447,1753.2,12373,1693.8,""oops"",""down"",""right"",""bad_move"",22123,6302,2309.7,19364,449.3,""oops"",""down"",""left"",""good_move"",25985,3857,2454.3,22128,1402.7,""oops"",""left"",""down"",""good_move"",33389,7402,2774.1,30101,513.9,""oops"",""left"",""right"",""bad_move"",35804,2412,1844.6,33392,567.4,""oops"",""left"",""right"",""bad_move"",42672,6863,2357.8,39580,734.2,""oops"",""left"",""up"",""bad_move"",46447,3774,3045.2,42673,728.8,""smooth"",""down"",""down"",""good_move"",50114,3665,3163.5,46449,501.5,""smooth"",""left"",""left"",""good_move"",53536,3421,2397.5,50115,1023.5,""oops"",""down"",""right"",""bad_move"",56513,2976,2433.3,53537,542.7,""smooth"",""left"",""left"",""good_move"",59933,3419,2617.2,56514,801.8,""oops"",""left"",""left"",""good_move"",63234,3297,2754.1,59937,542.9,""oops"",""left"",""down"",""good_move"",66505,3264,2822.9,63241,441.1,""oops"",""left"",""right"",""bad_move"",72584,6079,2983.6,68848,752.4,""oops"",""left"",""left"",""good_move"",79675,7088,2731.6,76509,434.4,""oops"",""left"",""up"",""bad_move"",86551,6871,2478.1,83648,424.9,""oops"",""left"",""left"",""good_move""]","",""
"19340","","<div style=""width:500px;"">
  <p>What determined the result of this run?</p>
  </div>","17","html-slider-response","45","671310","0.0-5.0-1.7","272","1","2025-07-30 08:52:24","1f75c3e559b7213887762d5229550c2b","2.97.10.0","Mozilla/5.0 (Macintosh; Intel Mac OS X 10_15_7) AppleWebKit/605.1.15 (KHTML, like Gecko) Version/18.3.1 Safari/605.1.15","Macintosh","Safari","18.3.1","OS X","10_15_7","https://app.prolific.com/","en-GB,en;q=0.9","5c63e773f9b6300001c9ce20","6877631c9844ddd5501205fc","6889dd3b59ea8cc7552281af","3","1","5c63e773f9b6300001c9ce20","3","1","2025-07-30T09:03:37.351Z","","","","","","","","","","","AttribQ","","50","","","","","","","","","","","","","","","","","","","","","","","","","","","","",""
"48684","","<div style=""width:500px;"">
  <p>How much control did you have over the ball?</p>
  </div>","16","html-slider-response","46","719997","0.0-5.0-2.7","272","1","2025-07-30 08:52:24","1f75c3e559b7213887762d5229550c2b","2.97.10.0","Mozilla/5.0 (Macintosh; Intel Mac OS X 10_15_7) AppleWebKit/605.1.15 (KHTML, like Gecko) Version/18.3.1 Safari/605.1.15","Macintosh","Safari","18.3.1","OS X","10_15_7","https://app.prolific.com/","en-GB,en;q=0.9","5c63e773f9b6300001c9ce20","6877631c9844ddd5501205fc","6889dd3b59ea8cc7552281af","3","1","5c63e773f9b6300001c9ce20","3","1","2025-07-30T09:04:26.037Z","","","","","","","","","","","ControlQ","","50","","","","","","","","","","","","","","","","","","","","","","","","","","","","",""
"14742","","<div style=""width:500px;"">
  <p>How would you describe your current emotional state?</p>
  </div>","58","html-slider-response","47","734741","0.0-5.0-3.7","272","1","2025-07-30 08:52:24","1f75c3e559b7213887762d5229550c2b","2.97.10.0","Mozilla/5.0 (Macintosh; Intel Mac OS X 10_15_7) AppleWebKit/605.1.15 (KHTML, like Gecko) Version/18.3.1 Safari/605.1.15","Macintosh","Safari","18.3.1","OS X","10_15_7","https://app.prolific.com/","en-GB,en;q=0.9","5c63e773f9b6300001c9ce20","6877631c9844ddd5501205fc","6889dd3b59ea8cc7552281af","3","1","5c63e773f9b6300001c9ce20","3","1","2025-07-30T09:04:40.781Z","","","","","","","","","","","StressQ","","50","","","","","","","","","","","","","","","","","","","","","","","","","","","","",""
"9875","","<div style=""width:500px;"">
  <p>What best describes how you currently feel?</p>
  </div>","27","html-slider-response","48","744617","0.0-5.0-4.7","272","1","2025-07-30 08:52:24","1f75c3e559b7213887762d5229550c2b","2.97.10.0","Mozilla/5.0 (Macintosh; Intel Mac OS X 10_15_7) AppleWebKit/605.1.15 (KHTML, like Gecko) Version/18.3.1 Safari/605.1.15","Macintosh","Safari","18.3.1","OS X","10_15_7","https://app.prolific.com/","en-GB,en;q=0.9","5c63e773f9b6300001c9ce20","6877631c9844ddd5501205fc","6889dd3b59ea8cc7552281af","3","1","5c63e773f9b6300001c9ce20","3","1","2025-07-30T09:04:50.657Z","","","","","","","","","","","MotivationQ","","50","","","","","","","","","","","","","","","","","","","","","","","","","","","","",""
"","","","","ctl-task-cpt","49","846180","0.0-5.0-0.8","272","1","2025-07-30 08:52:24","1f75c3e559b7213887762d5229550c2b","2.97.10.0","Mozilla/5.0 (Macintosh; Intel Mac OS X 10_15_7) AppleWebKit/605.1.15 (KHTML, like Gecko) Version/18.3.1 Safari/605.1.15","Macintosh","Safari","18.3.1","OS X","10_15_7","https://app.prolific.com/","en-GB,en;q=0.9","5c63e773f9b6300001c9ce20","6877631c9844ddd5501205fc","6889dd3b59ea8cc7552281af","3","1","5c63e773f9b6300001c9ce20","3","1","2025-07-30T09:06:32.220Z","","","","","","","","","","","","","","win-only","0","g1:NW,g2:SE","0.2","9","0","746354","7906","12923","98557","1","4","8","6","1","-1","-1","4","5","0.030303030303030304","2387","3000","-815","[""left"",""up""]","{""num_key_presses"":22,""num_perfect"":5,""num_errors"":0,""num_randdir"":17,""num_randdir_good_moves"":7,""num_whilered"":0,""num_whileblue"":0,""num_blue"":3,""num_good_moves"":11}","[694.2857142857143,681.2857142857143,2,694.2857142857143,681.2857142857143,122,694.2857142857143,681.2857142857143,223,694.2857142857143,681.2857142857143,331,694.2857142857143,681.2857142857143,433,694.2857142857143,681.2857142857143,563,694.2857142857143,681.2857142857143,687,694.2857142857143,681.2857142857143,791,694.2857142857143,681.2857142857143,893,764.2857142857143,733.2857142857143,1008,800.2857142857143,801.2857142857143,1178,418.2857142857143,329.2857142857143,1289,418.2857142857143,329.2857142857143,1419,416.2857142857143,329.2857142857143,1568,98.28571428571429,127.28571428571429,1773,96.28571428571429,125.28571428571429,1904,96.28571428571429,125.28571428571429,2004,96.28571428571429,125.28571428571429,2139,96.28571428571429,125.28571428571429,2264,96.28571428571429,125.28571428571429,2458,96.28571428571429,125.28571428571429,2612,96.28571428571429,125.28571428571429,2725,96.28571428571429,125.28571428571429,2865,96.28571428571429,125.28571428571429,3078,96.28571428571429,125.28571428571429,3191,96.28571428571429,125.28571428571429,3432,-159.71428571428572,297.2857142857143,3608,-193.71428571428572,323.2857142857143,3711,-193.71428571428572,323.2857142857143,3845,-193.71428571428572,323.2857142857143,3957,-193.71428571428572,323.2857142857143,4090,-193.71428571428572,323.2857142857143,4222,-193.71428571428572,323.2857142857143,4427,-193.71428571428572,323.2857142857143,4596,-193.71428571428572,323.2857142857143,4740,-193.71428571428572,323.2857142857143,4857]","[1467,1467,1000,0,467,""oops"",""left"",""down"",""bad_move"",4091,2623,1989.9,1468,633.1,""oops"",""up"",""left"",""good_move"",15135,11042,2366.7,12253,515.3,""oops"",""up"",""left"",""good_move"",18982,3843,2819.3,15139,1023.7,""oops"",""up"",""right"",""bad_move"",22256,3271,2620.8,18985,650.2,""smooth"",""up"",""up"",""good_move"",26016,3758,3063.7,22258,694.3,""smooth"",""up"",""up"",""good_move"",29751,3733,2659.5,26018,1073.5,""oops"",""up"",""right"",""bad_move"",33106,3353,2817.2,29753,535.8,""oops"",""left"",""down"",""bad_move"",35296,2189,1482.4,33107,706.6,""oops"",""left"",""up"",""good_move"",39065,3763,2090.2,35302,1672.8,""oops"",""up"",""down"",""bad_move"",45285,6219,2435.6,42429,420.4,""oops"",""left"",""down"",""bad_move"",48055,2765,2249.9,45290,515.1,""smooth"",""up"",""up"",""good_move"",51677,3621,3027.2,48056,593.8,""oops"",""up"",""up"",""good_move"",55543,3863,3066.5,51680,796.5,""oops"",""left"",""down"",""bad_move"",58734,3190,2736.2,55544,453.8,""oops"",""up"",""right"",""bad_move"",61715,2977,2328.1,58738,648.9,""smooth"",""up"",""up"",""good_move"",65565,3846,2701.9,61719,1144.1,""oops"",""left"",""left"",""good_move"",69263,3694,2542,65569,1152,""oops"",""up"",""down"",""bad_move"",71955,2691,2121.9,69264,569.1,""oops"",""left"",""left"",""good_move"",75803,3847,3369.9,71956,477.1,""oops"",""up"",""left"",""good_move"",79551,3747,2951.3,75804,795.7,""oops"",""up"",""down"",""bad_move"",83446,3892,3431.4,79554,460.6,""smooth"",""right"",""right"",""bad_move""]","",""
"7365","","<div style=""width:500px;"">
  <p>What determined the result of this run?</p>
  </div>","15","html-slider-response","50","853547","0.0-5.0-1.8","272","1","2025-07-30 08:52:24","1f75c3e559b7213887762d5229550c2b","2.97.10.0","Mozilla/5.0 (Macintosh; Intel Mac OS X 10_15_7) AppleWebKit/605.1.15 (KHTML, like Gecko) Version/18.3.1 Safari/605.1.15","Macintosh","Safari","18.3.1","OS X","10_15_7","https://app.prolific.com/","en-GB,en;q=0.9","5c63e773f9b6300001c9ce20","6877631c9844ddd5501205fc","6889dd3b59ea8cc7552281af","3","1","5c63e773f9b6300001c9ce20","3","1","2025-07-30T09:06:39.587Z","","","","","","","","","","","AttribQ","","50","","","","","","","","","","","","","","","","","","","","","","","","","","","","",""
"7797","","<div style=""width:500px;"">
  <p>How much control did you have over the ball?</p>
  </div>","16","html-slider-response","51","861345","0.0-5.0-2.8","272","1","2025-07-30 08:52:24","1f75c3e559b7213887762d5229550c2b","2.97.10.0","Mozilla/5.0 (Macintosh; Intel Mac OS X 10_15_7) AppleWebKit/605.1.15 (KHTML, like Gecko) Version/18.3.1 Safari/605.1.15","Macintosh","Safari","18.3.1","OS X","10_15_7","https://app.prolific.com/","en-GB,en;q=0.9","5c63e773f9b6300001c9ce20","6877631c9844ddd5501205fc","6889dd3b59ea8cc7552281af","3","1","5c63e773f9b6300001c9ce20","3","1","2025-07-30T09:06:47.385Z","","","","","","","","","","","ControlQ","","50","","","","","","","","","","","","","","","","","","","","","","","","","","","","",""
"10156","","<div style=""width:500px;"">
  <p>How would you describe your current emotional state?</p>
  </div>","65","html-slider-response","52","871503","0.0-5.0-3.8","272","1","2025-07-30 08:52:24","1f75c3e559b7213887762d5229550c2b","2.97.10.0","Mozilla/5.0 (Macintosh; Intel Mac OS X 10_15_7) AppleWebKit/605.1.15 (KHTML, like Gecko) Version/18.3.1 Safari/605.1.15","Macintosh","Safari","18.3.1","OS X","10_15_7","https://app.prolific.com/","en-GB,en;q=0.9","5c63e773f9b6300001c9ce20","6877631c9844ddd5501205fc","6889dd3b59ea8cc7552281af","3","1","5c63e773f9b6300001c9ce20","3","1","2025-07-30T09:06:57.543Z","","","","","","","","","","","StressQ","","50","","","","","","","","","","","","","","","","","","","","","","","","","","","","",""
"11371","","<div style=""width:500px;"">
  <p>What best describes how you currently feel?</p>
  </div>","24","html-slider-response","53","882875","0.0-5.0-4.8","272","1","2025-07-30 08:52:24","1f75c3e559b7213887762d5229550c2b","2.97.10.0","Mozilla/5.0 (Macintosh; Intel Mac OS X 10_15_7) AppleWebKit/605.1.15 (KHTML, like Gecko) Version/18.3.1 Safari/605.1.15","Macintosh","Safari","18.3.1","OS X","10_15_7","https://app.prolific.com/","en-GB,en;q=0.9","5c63e773f9b6300001c9ce20","6877631c9844ddd5501205fc","6889dd3b59ea8cc7552281af","3","1","5c63e773f9b6300001c9ce20","3","1","2025-07-30T09:07:08.915Z","","","","","","","","","","","MotivationQ","","50","","","","","","","","","","","","","","","","","","","","","","","","","","","","",""
"","","","","ctl-task-cpt","54","911996","0.0-5.0-0.9","272","1","2025-07-30 08:52:24","1f75c3e559b7213887762d5229550c2b","2.97.10.0","Mozilla/5.0 (Macintosh; Intel Mac OS X 10_15_7) AppleWebKit/605.1.15 (KHTML, like Gecko) Version/18.3.1 Safari/605.1.15","Macintosh","Safari","18.3.1","OS X","10_15_7","https://app.prolific.com/","en-GB,en;q=0.9","5c63e773f9b6300001c9ce20","6877631c9844ddd5501205fc","6889dd3b59ea8cc7552281af","3","1","5c63e773f9b6300001c9ce20","3","1","2025-07-30T09:07:38.036Z","","","","","","","","","","","","","","win-only","1","g1:NE,g2:SW","0.4","10","0","884610","7708","12728","26108","1","4","4","6","1","1","1","5","4","0.03787878787878788","1718","3000","2490","[""up"",""right""]","{""num_key_presses"":4,""num_perfect"":4,""num_errors"":0,""num_randdir"":0,""num_randdir_good_moves"":0,""num_whilered"":0,""num_whileblue"":0,""num_blue"":0,""num_good_moves"":4}","[702.2857142857143,691.2857142857143,6,702.2857142857143,691.2857142857143,103,702.2857142857143,691.2857142857143,250,702.2857142857143,691.2857142857143,360,702.2857142857143,691.2857142857143,526,702.2857142857143,691.2857142857143,681,702.2857142857143,691.2857142857143,787,776.2857142857143,621.2857142857143,917,1110.2857142857142,345.2857142857143,1021,1208.2857142857142,285.2857142857143,1161,1214.2857142857142,279.2857142857143,1268,1236.2857142857142,231.28571428571428,1408,1256.2857142857142,193.28571428571428,1509,1256.2857142857142,193.28571428571428,1721,1256.2857142857142,193.28571428571428,1821,1256.2857142857142,193.28571428571428,1925,1256.2857142857142,193.28571428571428,2029,1256.2857142857142,193.28571428571428,2131,1258.2857142857142,193.28571428571428,2296,1630.2857142857142,467.2857142857143,2399,1706.2857142857142,593.2857142857143,2738,1706.2857142857142,593.2857142857143,2841,1706.2857142857142,593.2857142857143,2957,1706.2857142857142,593.2857142857143,3115,1706.2857142857142,593.2857142857143,3248,1706.2857142857142,593.2857142857143,3359,1706.2857142857142,593.2857142857143,3500,1706.2857142857142,593.2857142857143,3649,1706.2857142857142,593.2857142857143,3758,1706.2857142857142,593.2857142857143,3886,1706.2857142857142,593.2857142857143,3990,1706.2857142857142,593.2857142857143,4095,1706.2857142857142,593.2857142857143,4200,1706.2857142857142,593.2857142857143,4315,1706.2857142857142,593.2857142857143,4419,1706.2857142857142,593.2857142857143,4552,1706.2857142857142,593.2857142857143,4656,1706.2857142857142,593.2857142857143,4760,1706.2857142857142,593.2857142857143,4865,1706.2857142857142,593.2857142857143,4968]","[1566,1566,1000,0,566,""smooth"",""up"",""up"",""good_move"",5728,4161,2638.7,1567,1522.3,""smooth"",""right"",""right"",""good_move"",9110,3381,2894.9,5729,486.1,""smooth"",""up"",""up"",""good_move"",13064,3952,2532.5,9112,1419.5,""smooth"",""right"",""right"",""good_move""]","",""
"8096","","<div style=""width:500px;"">
  <p>What determined the result of this run?</p>
  </div>","16","html-slider-response","55","920094","0.0-5.0-1.9","272","1","2025-07-30 08:52:24","1f75c3e559b7213887762d5229550c2b","2.97.10.0","Mozilla/5.0 (Macintosh; Intel Mac OS X 10_15_7) AppleWebKit/605.1.15 (KHTML, like Gecko) Version/18.3.1 Safari/605.1.15","Macintosh","Safari","18.3.1","OS X","10_15_7","https://app.prolific.com/","en-GB,en;q=0.9","5c63e773f9b6300001c9ce20","6877631c9844ddd5501205fc","6889dd3b59ea8cc7552281af","3","1","5c63e773f9b6300001c9ce20","3","1","2025-07-30T09:07:46.134Z","","","","","","","","","","","AttribQ","","50","","","","","","","","","","","","","","","","","","","","","","","","","","","","",""
"11982","","<div style=""width:500px;"">
  <p>How much control did you have over the ball?</p>
  </div>","94","html-slider-response","56","932077","0.0-5.0-2.9","272","1","2025-07-30 08:52:24","1f75c3e559b7213887762d5229550c2b","2.97.10.0","Mozilla/5.0 (Macintosh; Intel Mac OS X 10_15_7) AppleWebKit/605.1.15 (KHTML, like Gecko) Version/18.3.1 Safari/605.1.15","Macintosh","Safari","18.3.1","OS X","10_15_7","https://app.prolific.com/","en-GB,en;q=0.9","5c63e773f9b6300001c9ce20","6877631c9844ddd5501205fc","6889dd3b59ea8cc7552281af","3","1","5c63e773f9b6300001c9ce20","3","1","2025-07-30T09:07:58.117Z","","","","","","","","","","","ControlQ","","50","","","","","","","","","","","","","","","","","","","","","","","","","","","","",""
"14605","","<div style=""width:500px;"">
  <p>How would you describe your current emotional state?</p>
  </div>","22","html-slider-response","57","946684","0.0-5.0-3.9","272","1","2025-07-30 08:52:24","1f75c3e559b7213887762d5229550c2b","2.97.10.0","Mozilla/5.0 (Macintosh; Intel Mac OS X 10_15_7) AppleWebKit/605.1.15 (KHTML, like Gecko) Version/18.3.1 Safari/605.1.15","Macintosh","Safari","18.3.1","OS X","10_15_7","https://app.prolific.com/","en-GB,en;q=0.9","5c63e773f9b6300001c9ce20","6877631c9844ddd5501205fc","6889dd3b59ea8cc7552281af","3","1","5c63e773f9b6300001c9ce20","3","1","2025-07-30T09:08:12.724Z","","","","","","","","","","","StressQ","","50","","","","","","","","","","","","","","","","","","","","","","","","","","","","",""
"8145","","<div style=""width:500px;"">
  <p>What best describes how you currently feel?</p>
  </div>","23","html-slider-response","58","954830","0.0-5.0-4.9","272","1","2025-07-30 08:52:24","1f75c3e559b7213887762d5229550c2b","2.97.10.0","Mozilla/5.0 (Macintosh; Intel Mac OS X 10_15_7) AppleWebKit/605.1.15 (KHTML, like Gecko) Version/18.3.1 Safari/605.1.15","Macintosh","Safari","18.3.1","OS X","10_15_7","https://app.prolific.com/","en-GB,en;q=0.9","5c63e773f9b6300001c9ce20","6877631c9844ddd5501205fc","6889dd3b59ea8cc7552281af","3","1","5c63e773f9b6300001c9ce20","3","1","2025-07-30T09:08:20.870Z","","","","","","","","","","","MotivationQ","","50","","","","","","","","","","","","","","","","","","","","","","","","","","","","",""
"","","","","ctl-task-cpt","59","1045491","0.0-5.0-0.10","272","1","2025-07-30 08:52:24","1f75c3e559b7213887762d5229550c2b","2.97.10.0","Mozilla/5.0 (Macintosh; Intel Mac OS X 10_15_7) AppleWebKit/605.1.15 (KHTML, like Gecko) Version/18.3.1 Safari/605.1.15","Macintosh","Safari","18.3.1","OS X","10_15_7","https://app.prolific.com/","en-GB,en;q=0.9","5c63e773f9b6300001c9ce20","6877631c9844ddd5501205fc","6889dd3b59ea8cc7552281af","3","1","5c63e773f9b6300001c9ce20","3","1","2025-07-30T09:09:51.531Z","","","","","","","","","","","","","","win-only","2","g1:SE,g2:NW","0.5","11","0","956563","7147","12149","87627","1","4","8","6","2","8","8","13","5","0.09848484848484848","1242","3000","1250","[""left"",""up""]","{""num_key_presses"":14,""num_perfect"":9,""num_errors"":0,""num_randdir"":5,""num_randdir_good_moves"":2,""num_whilered"":0,""num_whileblue"":0,""num_blue"":7,""num_good_moves"":10}","[710.2857142857143,697.2857142857143,2,708.2857142857143,697.2857142857143,107,708.2857142857143,697.2857142857143,208,708.2857142857143,697.2857142857143,338,708.2857142857143,697.2857142857143,500,708.2857142857143,697.2857142857143,667,606.2857142857143,629.2857142857143,805,352.2857142857143,331.2857142857143,967,230.28571428571428,181.28571428571428,1078,212.28571428571428,161.28571428571428,1180,206.28571428571428,159.28571428571428,1311,206.28571428571428,159.28571428571428,1440,206.28571428571428,159.28571428571428,1573,194.28571428571428,159.28571428571428,1673,164.28571428571428,157.28571428571428,1845,-359.7142857142857,333.2857142857143,1947,-359.7142857142857,333.2857142857143,2110,-359.7142857142857,333.2857142857143,2227,-359.7142857142857,333.2857142857143,2352,-359.7142857142857,333.2857142857143,2456,-359.7142857142857,333.2857142857143,2612,-359.7142857142857,333.2857142857143,2726,-359.7142857142857,333.2857142857143,2836,-359.7142857142857,333.2857142857143,2950,-359.7142857142857,333.2857142857143,3082,-359.7142857142857,333.2857142857143,3325,-359.7142857142857,333.2857142857143,3431,-359.7142857142857,333.2857142857143,3587,-359.7142857142857,333.2857142857143,3743,-359.7142857142857,333.2857142857143,3872,-359.7142857142857,333.2857142857143,3992,-359.7142857142857,333.2857142857143,4095,-359.7142857142857,333.2857142857143,4216,-359.7142857142857,333.2857142857143,4322,-359.7142857142857,333.2857142857143,4437,-359.7142857142857,333.2857142857143,4542,-359.7142857142857,333.2857142857143,4670,-359.7142857142857,333.2857142857143,4791,-359.7142857142857,333.2857142857143,4920]","[1549,1549,1000,0,549,""smooth"",""left"",""left"",""good_move"",5927,4377,2159.3,1550,2217.7,""smooth"",""up"",""up"",""good_move"",17369,11441,2822.2,14022,524.8,""smooth"",""left"",""left"",""good_move"",25386,8016,2622.5,22083,680.5,""smooth"",""up"",""up"",""good_move"",29776,4388,2648,25388,1740,""oops"",""left"",""left"",""good_move"",37017,7239,1991,34499,527,""oops"",""up"",""down"",""bad_move"",42846,5827,2294.8,39873,678.2,""smooth"",""right"",""right"",""bad_move"",46313,3466,2734.6,42847,731.4,""oops"",""up"",""left"",""good_move"",53690,7375,1902.2,51157,630.8,""oops"",""left"",""down"",""bad_move"",56937,3245,2563,53692,682,""oops"",""up"",""right"",""bad_move"",59533,2594,1970.8,56939,623.2,""smooth"",""up"",""up"",""good_move"",63744,4209,2615.2,59535,1593.8,""smooth"",""up"",""up"",""good_move"",68142,4397,2820.2,63745,1576.8,""smooth"",""up"",""up"",""good_move"",74938,6794,1444.8,72916,577.2,""smooth"",""left"",""left"",""good_move""]","",""
"8737","","<div style=""width:500px;"">
  <p>What determined the result of this run?</p>
  </div>","44","html-slider-response","60","1054230","0.0-5.0-1.10","272","1","2025-07-30 08:52:24","1f75c3e559b7213887762d5229550c2b","2.97.10.0","Mozilla/5.0 (Macintosh; Intel Mac OS X 10_15_7) AppleWebKit/605.1.15 (KHTML, like Gecko) Version/18.3.1 Safari/605.1.15","Macintosh","Safari","18.3.1","OS X","10_15_7","https://app.prolific.com/","en-GB,en;q=0.9","5c63e773f9b6300001c9ce20","6877631c9844ddd5501205fc","6889dd3b59ea8cc7552281af","3","1","5c63e773f9b6300001c9ce20","3","1","2025-07-30T09:10:00.270Z","","","","","","","","","","","AttribQ","","50","","","","","","","","","","","","","","","","","","","","","","","","","","","","",""
"40258","","<div style=""width:500px;"">
  <p>How much control did you have over the ball?</p>
  </div>","55","html-slider-response","61","1094490","0.0-5.0-2.10","272","1","2025-07-30 08:52:24","1f75c3e559b7213887762d5229550c2b","2.97.10.0","Mozilla/5.0 (Macintosh; Intel Mac OS X 10_15_7) AppleWebKit/605.1.15 (KHTML, like Gecko) Version/18.3.1 Safari/605.1.15","Macintosh","Safari","18.3.1","OS X","10_15_7","https://app.prolific.com/","en-GB,en;q=0.9","5c63e773f9b6300001c9ce20","6877631c9844ddd5501205fc","6889dd3b59ea8cc7552281af","3","1","5c63e773f9b6300001c9ce20","3","1","2025-07-30T09:10:40.530Z","","","","","","","","","","","ControlQ","","50","","","","","","","","","","","","","","","","","","","","","","","","","","","","",""
"8742","","<div style=""width:500px;"">
  <p>How would you describe your current emotional state?</p>
  </div>","60","html-slider-response","62","1103233","0.0-5.0-3.10","272","1","2025-07-30 08:52:24","1f75c3e559b7213887762d5229550c2b","2.97.10.0","Mozilla/5.0 (Macintosh; Intel Mac OS X 10_15_7) AppleWebKit/605.1.15 (KHTML, like Gecko) Version/18.3.1 Safari/605.1.15","Macintosh","Safari","18.3.1","OS X","10_15_7","https://app.prolific.com/","en-GB,en;q=0.9","5c63e773f9b6300001c9ce20","6877631c9844ddd5501205fc","6889dd3b59ea8cc7552281af","3","1","5c63e773f9b6300001c9ce20","3","1","2025-07-30T09:10:49.273Z","","","","","","","","","","","StressQ","","50","","","","","","","","","","","","","","","","","","","","","","","","","","","","",""
"38342","","<div style=""width:500px;"">
  <p>What best describes how you currently feel?</p>
  </div>","31","html-slider-response","63","1141577","0.0-5.0-4.10","272","1","2025-07-30 08:52:24","1f75c3e559b7213887762d5229550c2b","2.97.10.0","Mozilla/5.0 (Macintosh; Intel Mac OS X 10_15_7) AppleWebKit/605.1.15 (KHTML, like Gecko) Version/18.3.1 Safari/605.1.15","Macintosh","Safari","18.3.1","OS X","10_15_7","https://app.prolific.com/","en-GB,en;q=0.9","5c63e773f9b6300001c9ce20","6877631c9844ddd5501205fc","6889dd3b59ea8cc7552281af","3","1","5c63e773f9b6300001c9ce20","3","1","2025-07-30T09:11:27.617Z","","","","","","","","","","","MotivationQ","","50","","","","","","","","","","","","","","","","","","","","","","","","","","","","",""
"","","","","ctl-task-cpt","64","1168894","0.0-5.0-0.11","272","1","2025-07-30 08:52:24","1f75c3e559b7213887762d5229550c2b","2.97.10.0","Mozilla/5.0 (Macintosh; Intel Mac OS X 10_15_7) AppleWebKit/605.1.15 (KHTML, like Gecko) Version/18.3.1 Safari/605.1.15","Macintosh","Safari","18.3.1","OS X","10_15_7","https://app.prolific.com/","en-GB,en;q=0.9","5c63e773f9b6300001c9ce20","6877631c9844ddd5501205fc","6889dd3b59ea8cc7552281af","3","1","5c63e773f9b6300001c9ce20","3","1","2025-07-30T09:11:54.935Z","","","","","","","","","","","","","","win-only","1","g1:NE,g2:SW","0.6","12","0","1143305","6330","11332","24288","1","4","4","6","1","1","1","14","13","0.10606060606060606","1758","3000","2560","[""up"",""right""]","{""num_key_presses"":4,""num_perfect"":4,""num_errors"":0,""num_randdir"":0,""num_randdir_good_moves"":0,""num_whilered"":0,""num_whileblue"":0,""num_blue"":0,""num_good_moves"":4}","[700.2857142857143,695.2857142857143,1,700.2857142857143,695.2857142857143,116,700.2857142857143,695.2857142857143,284,700.2857142857143,695.2857142857143,420,700.2857142857143,695.2857142857143,553,700.2857142857143,695.2857142857143,654,700.2857142857143,695.2857142857143,797,852.2857142857143,553.2857142857143,963,1094.2857142857142,347.2857142857143,1146,1160.2857142857142,241.28571428571428,1349,1250.2857142857142,131.28571428571428,1465,1250.2857142857142,131.28571428571428,1606,1250.2857142857142,131.28571428571428,1708,1250.2857142857142,131.28571428571428,1817,1250.2857142857142,131.28571428571428,1918,1250.2857142857142,131.28571428571428,2060,1250.2857142857142,131.28571428571428,2228,1250.2857142857142,131.28571428571428,2378,562.2857142857143,321.2857142857143,2482,-373.7142857142857,653.2857142857143,2615,-373.7142857142857,653.2857142857143,2751,-373.7142857142857,653.2857142857143,2856,-373.7142857142857,653.2857142857143,3005,-373.7142857142857,653.2857142857143,3108,-373.7142857142857,653.2857142857143,3267,-373.7142857142857,653.2857142857143,3393,-373.7142857142857,653.2857142857143,3534,-373.7142857142857,653.2857142857143,3683,-373.7142857142857,653.2857142857143,3822,-373.7142857142857,653.2857142857143,3924,-373.7142857142857,653.2857142857143,4038,-373.7142857142857,653.2857142857143,4150,-373.7142857142857,653.2857142857143,4252,-373.7142857142857,653.2857142857143,4390,-373.7142857142857,653.2857142857143,4496,-373.7142857142857,653.2857142857143,4642,-373.7142857142857,653.2857142857143,4754,-373.7142857142857,653.2857142857143,4902]","[1488,1488,1000,0,488,""smooth"",""right"",""right"",""good_move"",4590,3099,2596.3,1491,502.7,""smooth"",""up"",""up"",""good_move"",9279,4686,2617.9,4593,2068.1,""smooth"",""right"",""right"",""good_move"",12521,3239,2682.2,9282,556.8,""smooth"",""up"",""up"",""good_move""]","",""
"5334","","<div style=""width:500px;"">
  <p>What determined the result of this run?</p>
  </div>","22","html-slider-response","65","1174229","0.0-5.0-1.11","272","1","2025-07-30 08:52:24","1f75c3e559b7213887762d5229550c2b","2.97.10.0","Mozilla/5.0 (Macintosh; Intel Mac OS X 10_15_7) AppleWebKit/605.1.15 (KHTML, like Gecko) Version/18.3.1 Safari/605.1.15","Macintosh","Safari","18.3.1","OS X","10_15_7","https://app.prolific.com/","en-GB,en;q=0.9","5c63e773f9b6300001c9ce20","6877631c9844ddd5501205fc","6889dd3b59ea8cc7552281af","3","1","5c63e773f9b6300001c9ce20","3","1","2025-07-30T09:12:00.270Z","","","","","","","","","","","AttribQ","","50","","","","","","","","","","","","","","","","","","","","","","","","","","","","",""
"9973","","<div style=""width:500px;"">
  <p>How much control did you have over the ball?</p>
  </div>","97","html-slider-response","66","1184205","0.0-5.0-2.11","272","1","2025-07-30 08:52:24","1f75c3e559b7213887762d5229550c2b","2.97.10.0","Mozilla/5.0 (Macintosh; Intel Mac OS X 10_15_7) AppleWebKit/605.1.15 (KHTML, like Gecko) Version/18.3.1 Safari/605.1.15","Macintosh","Safari","18.3.1","OS X","10_15_7","https://app.prolific.com/","en-GB,en;q=0.9","5c63e773f9b6300001c9ce20","6877631c9844ddd5501205fc","6889dd3b59ea8cc7552281af","3","1","5c63e773f9b6300001c9ce20","3","1","2025-07-30T09:12:10.245Z","","","","","","","","","","","ControlQ","","50","","","","","","","","","","","","","","","","","","","","","","","","","","","","",""
"8962","","<div style=""width:500px;"">
  <p>How would you describe your current emotional state?</p>
  </div>","27","html-slider-response","67","1193168","0.0-5.0-3.11","272","1","2025-07-30 08:52:24","1f75c3e559b7213887762d5229550c2b","2.97.10.0","Mozilla/5.0 (Macintosh; Intel Mac OS X 10_15_7) AppleWebKit/605.1.15 (KHTML, like Gecko) Version/18.3.1 Safari/605.1.15","Macintosh","Safari","18.3.1","OS X","10_15_7","https://app.prolific.com/","en-GB,en;q=0.9","5c63e773f9b6300001c9ce20","6877631c9844ddd5501205fc","6889dd3b59ea8cc7552281af","3","1","5c63e773f9b6300001c9ce20","3","1","2025-07-30T09:12:19.208Z","","","","","","","","","","","StressQ","","50","","","","","","","","","","","","","","","","","","","","","","","","","","","","",""
"8907","","<div style=""width:500px;"">
  <p>What best describes how you currently feel?</p>
  </div>","30","html-slider-response","68","1202077","0.0-5.0-4.11","272","1","2025-07-30 08:52:24","1f75c3e559b7213887762d5229550c2b","2.97.10.0","Mozilla/5.0 (Macintosh; Intel Mac OS X 10_15_7) AppleWebKit/605.1.15 (KHTML, like Gecko) Version/18.3.1 Safari/605.1.15","Macintosh","Safari","18.3.1","OS X","10_15_7","https://app.prolific.com/","en-GB,en;q=0.9","5c63e773f9b6300001c9ce20","6877631c9844ddd5501205fc","6889dd3b59ea8cc7552281af","3","1","5c63e773f9b6300001c9ce20","3","1","2025-07-30T09:12:28.117Z","","","","","","","","","","","MotivationQ","","50","","","","","","","","","","","","","","","","","","","","","","","","","","","","",""
"","","","","ctl-task-cpt","69","1243998","0.0-5.0-0.12","272","1","2025-07-30 08:52:24","1f75c3e559b7213887762d5229550c2b","2.97.10.0","Mozilla/5.0 (Macintosh; Intel Mac OS X 10_15_7) AppleWebKit/605.1.15 (KHTML, like Gecko) Version/18.3.1 Safari/605.1.15","Macintosh","Safari","18.3.1","OS X","10_15_7","https://app.prolific.com/","en-GB,en;q=0.9","5c63e773f9b6300001c9ce20","6877631c9844ddd5501205fc","6889dd3b59ea8cc7552281af","3","1","5c63e773f9b6300001c9ce20","3","1","2025-07-30T09:13:10.038Z","","","","","","","","","","","","","","win-only","0","g1:NW,g2:SE","0.7","13","0","1203804","6378","11387","38918","1","4","4","6","1","1","1","15","14","0.11363636363636363","1382","3000","2455","[""left"",""up""]","{""num_key_presses"":6,""num_perfect"":4,""num_errors"":0,""num_randdir"":2,""num_randdir_good_moves"":1,""num_whilered"":0,""num_whileblue"":0,""num_blue"":1,""num_good_moves"":5}","[710.2857142857143,689.2857142857143,2,710.2857142857143,689.2857142857143,108,710.2857142857143,689.2857142857143,241,710.2857142857143,689.2857142857143,370,710.2857142857143,689.2857142857143,500,710.2857142857143,689.2857142857143,694,710.2857142857143,689.2857142857143,795,270.2857142857143,179.28571428571428,1267,160.28571428571428,139.28571428571428,1465,160.28571428571428,139.28571428571428,1586,20.285714285714292,191.28571428571428,1792,-257.7142857142857,341.2857142857143,1903,-257.7142857142857,341.2857142857143,2003,-257.7142857142857,341.2857142857143,2108,-257.7142857142857,341.2857142857143,2239,-257.7142857142857,341.2857142857143,2353,-257.7142857142857,341.2857142857143,2523,-257.7142857142857,341.2857142857143,2678,-257.7142857142857,341.2857142857143,2858,-257.7142857142857,341.2857142857143,2988,-257.7142857142857,341.2857142857143,3120,-257.7142857142857,341.2857142857143,3221,-257.7142857142857,341.2857142857143,3324,-257.7142857142857,341.2857142857143,3431,-257.7142857142857,341.2857142857143,3536,-257.7142857142857,341.2857142857143,3651,-257.7142857142857,341.2857142857143,3823,-257.7142857142857,341.2857142857143,3940,-257.7142857142857,341.2857142857143,4043,-257.7142857142857,341.2857142857143,4189,-257.7142857142857,341.2857142857143,4293,-257.7142857142857,341.2857142857143,4434,-257.7142857142857,341.2857142857143,4591,-257.7142857142857,341.2857142857143,4692,-257.7142857142857,341.2857142857143,4856,-257.7142857142857,341.2857142857143,4966]","[1508,1508,1000,0,508,""oops"",""left"",""right"",""bad_move"",4143,2634,2142.8,1509,491.2,""smooth"",""up"",""up"",""good_move"",8911,4766,2285.6,4145,2480.4,""smooth"",""left"",""left"",""good_move"",13713,4796,1841.8,8917,2954.2,""smooth"",""left"",""left"",""good_move"",18506,4791,3229.7,13715,1561.3,""smooth"",""left"",""left"",""good_move"",26905,8397,2538.9,23827,539.1,""oops"",""up"",""up"",""good_move""]","",""
"8560","","<div style=""width:500px;"">
  <p>What determined the result of this run?</p>
  </div>","27","html-slider-response","70","1252561","0.0-5.0-1.12","272","1","2025-07-30 08:52:24","1f75c3e559b7213887762d5229550c2b","2.97.10.0","Mozilla/5.0 (Macintosh; Intel Mac OS X 10_15_7) AppleWebKit/605.1.15 (KHTML, like Gecko) Version/18.3.1 Safari/605.1.15","Macintosh","Safari","18.3.1","OS X","10_15_7","https://app.prolific.com/","en-GB,en;q=0.9","5c63e773f9b6300001c9ce20","6877631c9844ddd5501205fc","6889dd3b59ea8cc7552281af","3","1","5c63e773f9b6300001c9ce20","3","1","2025-07-30T09:13:18.601Z","","","","","","","","","","","AttribQ","","50","","","","","","","","","","","","","","","","","","","","","","","","","","","","",""
"18031","","<div style=""width:500px;"">
  <p>How much control did you have over the ball?</p>
  </div>","70","html-slider-response","71","1270594","0.0-5.0-2.12","272","1","2025-07-30 08:52:24","1f75c3e559b7213887762d5229550c2b","2.97.10.0","Mozilla/5.0 (Macintosh; Intel Mac OS X 10_15_7) AppleWebKit/605.1.15 (KHTML, like Gecko) Version/18.3.1 Safari/605.1.15","Macintosh","Safari","18.3.1","OS X","10_15_7","https://app.prolific.com/","en-GB,en;q=0.9","5c63e773f9b6300001c9ce20","6877631c9844ddd5501205fc","6889dd3b59ea8cc7552281af","3","1","5c63e773f9b6300001c9ce20","3","1","2025-07-30T09:13:36.634Z","","","","","","","","","","","ControlQ","","50","","","","","","","","","","","","","","","","","","","","","","","","","","","","",""
"7381","","<div style=""width:500px;"">
  <p>How would you describe your current emotional state?</p>
  </div>","37","html-slider-response","72","1277976","0.0-5.0-3.12","272","1","2025-07-30 08:52:24","1f75c3e559b7213887762d5229550c2b","2.97.10.0","Mozilla/5.0 (Macintosh; Intel Mac OS X 10_15_7) AppleWebKit/605.1.15 (KHTML, like Gecko) Version/18.3.1 Safari/605.1.15","Macintosh","Safari","18.3.1","OS X","10_15_7","https://app.prolific.com/","en-GB,en;q=0.9","5c63e773f9b6300001c9ce20","6877631c9844ddd5501205fc","6889dd3b59ea8cc7552281af","3","1","5c63e773f9b6300001c9ce20","3","1","2025-07-30T09:13:44.016Z","","","","","","","","","","","StressQ","","50","","","","","","","","","","","","","","","","","","","","","","","","","","","","",""
"10602","","<div style=""width:500px;"">
  <p>What best describes how you currently feel?</p>
  </div>","33","html-slider-response","73","1288579","0.0-5.0-4.12","272","1","2025-07-30 08:52:24","1f75c3e559b7213887762d5229550c2b","2.97.10.0","Mozilla/5.0 (Macintosh; Intel Mac OS X 10_15_7) AppleWebKit/605.1.15 (KHTML, like Gecko) Version/18.3.1 Safari/605.1.15","Macintosh","Safari","18.3.1","OS X","10_15_7","https://app.prolific.com/","en-GB,en;q=0.9","5c63e773f9b6300001c9ce20","6877631c9844ddd5501205fc","6889dd3b59ea8cc7552281af","3","1","5c63e773f9b6300001c9ce20","3","1","2025-07-30T09:13:54.619Z","","","","","","","","","","","MotivationQ","","50","","","","","","","","","","","","","","","","","","","","","","","","","","","","",""
"","","","","ctl-task-cpt","74","1345173","0.0-5.0-0.13","272","1","2025-07-30 08:52:24","1f75c3e559b7213887762d5229550c2b","2.97.10.0","Mozilla/5.0 (Macintosh; Intel Mac OS X 10_15_7) AppleWebKit/605.1.15 (KHTML, like Gecko) Version/18.3.1 Safari/605.1.15","Macintosh","Safari","18.3.1","OS X","10_15_7","https://app.prolific.com/","en-GB,en;q=0.9","5c63e773f9b6300001c9ce20","6877631c9844ddd5501205fc","6889dd3b59ea8cc7552281af","3","1","5c63e773f9b6300001c9ce20","3","1","2025-07-30T09:14:51.213Z","","","","","","","","","","","","","","win-only","2","g1:SE,g2:NW","0.8","14","0","1290305","5869","10894","53524","1","4","8","6","2","8","8","23","15","0.17424242424242425","1319","3000","2365","[""left"",""up""]","{""num_key_presses"":6,""num_perfect"":4,""num_errors"":0,""num_randdir"":2,""num_randdir_good_moves"":2,""num_whilered"":0,""num_whileblue"":0,""num_blue"":4,""num_good_moves"":6}","[698.2857142857143,691.2857142857143,2,698.2857142857143,691.2857142857143,126,698.2857142857143,691.2857142857143,276,698.2857142857143,691.2857142857143,408,698.2857142857143,691.2857142857143,530,698.2857142857143,691.2857142857143,632,698.2857142857143,691.2857142857143,743,684.2857142857143,683.2857142857143,969,210.28571428571428,177.28571428571428,1153,210.28571428571428,177.28571428571428,1257,210.28571428571428,177.28571428571428,1393,210.28571428571428,177.28571428571428,1528,210.28571428571428,177.28571428571428,1656,64.28571428571429,251.28571428571428,1901,-427.7142857142857,461.2857142857143,2241,-189.71428571428572,555.2857142857143,2413,-157.71428571428572,573.2857142857143,2535,-157.71428571428572,573.2857142857143,2724,-157.71428571428572,573.2857142857143,2858,-157.71428571428572,573.2857142857143,2987,-157.71428571428572,573.2857142857143,3125,-157.71428571428572,573.2857142857143,3265,-157.71428571428572,573.2857142857143,3521,-157.71428571428572,573.2857142857143,3651,-157.71428571428572,573.2857142857143,3759,-157.71428571428572,573.2857142857143,3892,-157.71428571428572,573.2857142857143,3997,-157.71428571428572,573.2857142857143,4097,-157.71428571428572,573.2857142857143,4243,-157.71428571428572,573.2857142857143,4373,-157.71428571428572,573.2857142857143,4476,-157.71428571428572,573.2857142857143,4613,-157.71428571428572,573.2857142857143,4714,-157.71428571428572,573.2857142857143,4825,-157.71428571428572,573.2857142857143,4958]","[1536,1536,1000,0,536,""smooth"",""up"",""up"",""good_move"",9981,8444,2201.8,7153,626.2,""oops"",""left"",""left"",""good_move"",18921,8938,2587.3,15645,688.7,""smooth"",""up"",""up"",""good_move"",24143,5221,3425.1,18922,1795.9,""oops"",""left"",""left"",""good_move"",36669,12523,2023.1,34027,618.9,""smooth"",""up"",""up"",""good_move"",42094,5418,2241,36676,3177,""smooth"",""left"",""left"",""good_move""]","",""
"6129","","<div style=""width:500px;"">
  <p>What determined the result of this run?</p>
  </div>","25","html-slider-response","75","1351304","0.0-5.0-1.13","272","1","2025-07-30 08:52:24","1f75c3e559b7213887762d5229550c2b","2.97.10.0","Mozilla/5.0 (Macintosh; Intel Mac OS X 10_15_7) AppleWebKit/605.1.15 (KHTML, like Gecko) Version/18.3.1 Safari/605.1.15","Macintosh","Safari","18.3.1","OS X","10_15_7","https://app.prolific.com/","en-GB,en;q=0.9","5c63e773f9b6300001c9ce20","6877631c9844ddd5501205fc","6889dd3b59ea8cc7552281af","3","1","5c63e773f9b6300001c9ce20","3","1","2025-07-30T09:14:57.344Z","","","","","","","","","","","AttribQ","","50","","","","","","","","","","","","","","","","","","","","","","","","","","","","",""
"10649","","<div style=""width:500px;"">
  <p>How much control did you have over the ball?</p>
  </div>","89","html-slider-response","76","1361954","0.0-5.0-2.13","272","1","2025-07-30 08:52:24","1f75c3e559b7213887762d5229550c2b","2.97.10.0","Mozilla/5.0 (Macintosh; Intel Mac OS X 10_15_7) AppleWebKit/605.1.15 (KHTML, like Gecko) Version/18.3.1 Safari/605.1.15","Macintosh","Safari","18.3.1","OS X","10_15_7","https://app.prolific.com/","en-GB,en;q=0.9","5c63e773f9b6300001c9ce20","6877631c9844ddd5501205fc","6889dd3b59ea8cc7552281af","3","1","5c63e773f9b6300001c9ce20","3","1","2025-07-30T09:15:07.994Z","","","","","","","","","","","ControlQ","","50","","","","","","","","","","","","","","","","","","","","","","","","","","","","",""
"10648","","<div style=""width:500px;"">
  <p>How would you describe your current emotional state?</p>
  </div>","26","html-slider-response","77","1372603","0.0-5.0-3.13","272","1","2025-07-30 08:52:24","1f75c3e559b7213887762d5229550c2b","2.97.10.0","Mozilla/5.0 (Macintosh; Intel Mac OS X 10_15_7) AppleWebKit/605.1.15 (KHTML, like Gecko) Version/18.3.1 Safari/605.1.15","Macintosh","Safari","18.3.1","OS X","10_15_7","https://app.prolific.com/","en-GB,en;q=0.9","5c63e773f9b6300001c9ce20","6877631c9844ddd5501205fc","6889dd3b59ea8cc7552281af","3","1","5c63e773f9b6300001c9ce20","3","1","2025-07-30T09:15:18.643Z","","","","","","","","","","","StressQ","","50","","","","","","","","","","","","","","","","","","","","","","","","","","","","",""
"10830","","<div style=""width:500px;"">
  <p>What best describes how you currently feel?</p>
  </div>","28","html-slider-response","78","1383435","0.0-5.0-4.13","272","1","2025-07-30 08:52:24","1f75c3e559b7213887762d5229550c2b","2.97.10.0","Mozilla/5.0 (Macintosh; Intel Mac OS X 10_15_7) AppleWebKit/605.1.15 (KHTML, like Gecko) Version/18.3.1 Safari/605.1.15","Macintosh","Safari","18.3.1","OS X","10_15_7","https://app.prolific.com/","en-GB,en;q=0.9","5c63e773f9b6300001c9ce20","6877631c9844ddd5501205fc","6889dd3b59ea8cc7552281af","3","1","5c63e773f9b6300001c9ce20","3","1","2025-07-30T09:15:29.475Z","","","","","","","","","","","MotivationQ","","50","","","","","","","","","","","","","","","","","","","","","","","","","","","","",""
"","","","","ctl-task-cpt","79","1442985","0.0-5.0-0.14","272","1","2025-07-30 08:52:24","1f75c3e559b7213887762d5229550c2b","2.97.10.0","Mozilla/5.0 (Macintosh; Intel Mac OS X 10_15_7) AppleWebKit/605.1.15 (KHTML, like Gecko) Version/18.3.1 Safari/605.1.15","Macintosh","Safari","18.3.1","OS X","10_15_7","https://app.prolific.com/","en-GB,en;q=0.9","5c63e773f9b6300001c9ce20","6877631c9844ddd5501205fc","6889dd3b59ea8cc7552281af","3","1","5c63e773f9b6300001c9ce20","3","1","2025-07-30T09:16:29.025Z","","","","","","","","","","","","","","win-only","3","g1:SW,g2:NE","0.9","15","0","1385157","6675","11712","56512","1","4","8","6","2","8","8","31","23","0.23484848484848486","1617","3000","2270","[""up"",""right""]","{""num_key_presses"":8,""num_perfect"":7,""num_errors"":0,""num_randdir"":1,""num_randdir_good_moves"":0,""num_whilered"":0,""num_whileblue"":0,""num_blue"":4,""num_good_moves"":7}","[706.2857142857143,695.2857142857143,2,706.2857142857143,695.2857142857143,108,706.2857142857143,695.2857142857143,208,706.2857142857143,695.2857142857143,319,706.2857142857143,695.2857142857143,440,706.2857142857143,695.2857142857143,610,706.2857142857143,695.2857142857143,739,706.2857142857143,695.2857142857143,862,802.2857142857143,599.2857142857143,1162,1266.2857142857142,221.28571428571428,1266,1306.2857142857142,143.28571428571428,1367,1306.2857142857142,143.28571428571428,1467,1306.2857142857142,143.28571428571428,1581,1306.2857142857142,143.28571428571428,1742,1306.2857142857142,143.28571428571428,1902,1306.2857142857142,143.28571428571428,2024,1306.2857142857142,145.28571428571428,2261,1312.2857142857142,151.28571428571428,2399,1410.2857142857142,287.2857142857143,2504,1578.2857142857142,625.2857142857143,2720,1578.2857142857142,631.2857142857143,2823,1578.2857142857142,631.2857142857143,2985,1578.2857142857142,631.2857142857143,3104,1578.2857142857142,631.2857142857143,3213,1578.2857142857142,631.2857142857143,3366,1578.2857142857142,631.2857142857143,3473,1578.2857142857142,631.2857142857143,3620,1578.2857142857142,631.2857142857143,3730,1578.2857142857142,631.2857142857143,3844,1578.2857142857142,631.2857142857143,4016,1578.2857142857142,631.2857142857143,4141,1578.2857142857142,631.2857142857143,4252,1578.2857142857142,631.2857142857143,4417,1578.2857142857142,631.2857142857143,4536,1578.2857142857142,631.2857142857143,4692,1578.2857142857142,631.2857142857143,4798,1578.2857142857142,631.2857142857143,4966]","[1531,1531,1000,0,531,""smooth"",""up"",""up"",""good_move"",6918,5386,2194.5,1532,3191.5,""smooth"",""right"",""right"",""good_move"",13622,6702,2491.3,10543,587.7,""oops"",""up"",""down"",""bad_move"",20232,6608,2264.8,17301,666.2,""smooth"",""right"",""right"",""good_move"",23818,3585,2857,20233,728,""smooth"",""up"",""up"",""good_move"",29150,5330,1444.1,23820,3885.9,""smooth"",""up"",""up"",""good_move"",38651,9497,3005.5,35091,554.5,""smooth"",""right"",""right"",""good_move"",44203,5549,1945.4,41699,558.6,""smooth"",""up"",""up"",""good_move""]","",""
"9327","","<div style=""width:500px;"">
  <p>What determined the result of this run?</p>
  </div>","22","html-slider-response","80","1452313","0.0-5.0-1.14","272","1","2025-07-30 08:52:24","1f75c3e559b7213887762d5229550c2b","2.97.10.0","Mozilla/5.0 (Macintosh; Intel Mac OS X 10_15_7) AppleWebKit/605.1.15 (KHTML, like Gecko) Version/18.3.1 Safari/605.1.15","Macintosh","Safari","18.3.1","OS X","10_15_7","https://app.prolific.com/","en-GB,en;q=0.9","5c63e773f9b6300001c9ce20","6877631c9844ddd5501205fc","6889dd3b59ea8cc7552281af","3","1","5c63e773f9b6300001c9ce20","3","1","2025-07-30T09:16:38.353Z","","","","","","","","","","","AttribQ","","50","","","","","","","","","","","","","","","","","","","","","","","","","","","","",""
"7285","","<div style=""width:500px;"">
