"rt","response_timestamp","stimulus","response","trial_type","trial_index","time_elapsed","internal_node_id","run_id","condition","recorded_at","source_code_version","ip","user_agent","device","browser","browser_version","platform","platform_version","referer","accept_language","PROLIFIC_PID","STUDY_ID","SESSION_ID","WEEK","BATCH","prolific_id","week","batch","realtime","success","responses","item_order","radio_event_ids","radio_event_times","key_event_times","mouse_event_times","straightlining","zigzagging","honeypot","eventType","view_history","slider_start","which_type","canvas_config","goals_layout","control_level","trial_number","tutorial_trial_number","trial_start_time","phase1_start_time","phase2_start_time","phase3_start_time","goal_1_value","goal_1_distance","goal_2_value","goal_2_distance","goal_selected","outcome","outcome_total","participant_final_score","participant_initial_score","participant_final_score_prop","goal_choice_rt","allocated_time","allocated_time_remaining","goal_direction","counts","mouse_movements","key_presses","question_order","question_id"
"9944","1752654297138","<p style='font-size:40px;line-height:1.25'><strong>Welcome to the experiment!</strong></p><p style='font-size:1.1em;line-height:1.25'>Thank you for participanting in our experiment again! You will be asked to play the Dysfunctional Ball Game again. We will briefly recap the rules before we start.</p><p style='font-size:1.1em;line-height:1.25'>Press <strong>Next</strong> to continue.</p>","0","custom-html-button-response","0","9948","0.0-0.0","57","1","2025-07-16 08:24:43","1f75c3e559b7213887762d5229550c2b","168.210.171.183","Mozilla/5.0 (Windows NT 10.0; Win64; x64) AppleWebKit/537.36 (KHTML, like Gecko) Chrome/138.0.0.0 Safari/537.36","WebKit","Chrome","138.0.0.0","Windows","10.0","https://app.prolific.com/","en-US,en;q=0.9","667abff30a4bfe675c592b14","686e379bc37a29ffa5cdc956","687761bae4e619d7f3480ebd","1","1","667abff30a4bfe675c592b14","1","1","2025-07-16T08:24:57.140Z","","","","","","","","","","","","","","","","","","","","","","","","","","","","","","","","","","","","","","","","","",""
"20913","","","","fullscreen","1","31875","0.0-1.0","57","1","2025-07-16 08:24:43","1f75c3e559b7213887762d5229550c2b","168.210.171.183","Mozilla/5.0 (Windows NT 10.0; Win64; x64) AppleWebKit/537.36 (KHTML, like Gecko) Chrome/138.0.0.0 Safari/537.36","WebKit","Chrome","138.0.0.0","Windows","10.0","https://app.prolific.com/","en-US,en;q=0.9","667abff30a4bfe675c592b14","686e379bc37a29ffa5cdc956","687761bae4e619d7f3480ebd","1","1","667abff30a4bfe675c592b14","1","1","","true","","","","","","","","","","","","","","","","","","","","","","","","","","","","","","","","","","","","","","","","",""
"4761","1752654323828","<p style='font-size:1.1em;line-height:1.25'>In the following, we will ask you a few questions relating to your feelings in the last 24 hours.<br></p><p style='font-size:1.1em;line-height:1.25'>Press the <strong>Next</strong> button to continue.</p>","0","custom-html-button-response","2","36639","0.0-2.0-0.0","57","1","2025-07-16 08:24:43","1f75c3e559b7213887762d5229550c2b","168.210.171.183","Mozilla/5.0 (Windows NT 10.0; Win64; x64) AppleWebKit/537.36 (KHTML, like Gecko) Chrome/138.0.0.0 Safari/537.36","WebKit","Chrome","138.0.0.0","Windows","10.0","https://app.prolific.com/","en-US,en;q=0.9","667abff30a4bfe675c592b14","686e379bc37a29ffa5cdc956","687761bae4e619d7f3480ebd","1","1","667abff30a4bfe675c592b14","1","1","2025-07-16T08:25:23.830Z","","","","","","","","","","","","","","","","","","","","","","","","","","","","","","","","","","","","","","","","","",""
"187201.30000001192","","","","survey-template","3","223841","0.0-2.0-1.0","57","1","2025-07-16 08:24:43","1f75c3e559b7213887762d5229550c2b","168.210.171.183","Mozilla/5.0 (Windows NT 10.0; Win64; x64) AppleWebKit/537.36 (KHTML, like Gecko) Chrome/138.0.0.0 Safari/537.36","WebKit","Chrome","138.0.0.0","Windows","10.0","https://app.prolific.com/","en-US,en;q=0.9","667abff30a4bfe675c592b14","686e379bc37a29ffa5cdc956","687761bae4e619d7f3480ebd","1","1","667abff30a4bfe675c592b14","1","1","2025-07-16T08:28:31.033Z","","{""Q01"":""2"",""Q02"":""2"",""Q03"":""0"",""Q04"":""1"",""Q05"":""0"",""Q06"":""0"",""Q07"":""1"",""Q08"":""2"",""Q09"":""3"",""Q10"":""3"",""Q11"":""4"",""Q12"":""3"",""Q13"":""5"",""Q14"":""2"",""Q15"":""1"",""Q16"":""1"",""Q17"":""4"",""Q18"":""3"",""Q19"":""1"",""Q20"":""1"",""Q21"":""2"",""Q22"":""0""}","[0,1,2,3,4,5,6,7,8,9,10,11,12,13,14,15,16,17,18,19,20,21]","[""Q01"",""Q02"",""Q03"",""Q03"",""Q03"",""Q04"",""Q05"",""Q06"",""Q07"",""Q08"",""Q09"",""Q10"",""Q11"",""Q12"",""Q13"",""Q14"",""Q15"",""Q16"",""Q17"",""Q18"",""Q19"",""Q20"",""Q21"",""Q22""]","[6702,10162.200000047684,14418.100000023842,17139,18754.30000001192,20641.5,22324.900000035763,24582,27838.30000001192,32777.200000047684,45237.10000002384,48163,52095.40000003576,59004,62846.10000002384,65154.80000001192,72414.60000002384,77808.5,84171.80000001192,85621.80000001192,128736,130391.30000001192,181318.60000002384,185743.20000004768]","[]","[2.800000011920929,4566.800000011921,6702,10162.200000047684,14418.100000023842,17139,18754.30000001192,20641.5,22324.900000035763,24582,27838.30000001192,32777.200000047684,45237.10000002384,48163,52095.40000003576,56281.60000002384,59004,60711.30000001192,62846.10000002384,65154.80000001192,71228.30000001192,72414.60000002384,77808.5,81997.80000001192,84171.80000001192,85621.80000001192,128736,130391.30000001192,181318.60000002384,185743.20000004768,187187.80000001192]","0.2727272727272727","0.47619047619047616","0","drsp","","","","","","","","","","","","","","","","","","","","","","","","","","","","","","",""
"23202.600000023842","","","","survey-template","4","247050","0.0-2.0-2.0","57","1","2025-07-16 08:24:43","1f75c3e559b7213887762d5229550c2b","168.210.171.183","Mozilla/5.0 (Windows NT 10.0; Win64; x64) AppleWebKit/537.36 (KHTML, like Gecko) Chrome/138.0.0.0 Safari/537.36","WebKit","Chrome","138.0.0.0","Windows","10.0","https://app.prolific.com/","en-US,en;q=0.9","667abff30a4bfe675c592b14","686e379bc37a29ffa5cdc956","687761bae4e619d7f3480ebd","1","1","667abff30a4bfe675c592b14","1","1","2025-07-16T08:28:54.241Z","","{""Q01"":""3"",""Q02"":""4"",""Q03"":""5""}","[0,1,2]","[""Q01"",""Q02"",""Q03""]","[6123.399999976158,14416.699999988079,21153.30000001192]","[]","[6123.399999976158,14416.699999988079,21153.30000001192,23200.19999998808]","0.3333333333333333","0","0","stress","","","","","","","","","","","","","","","","","","","","","","","","","","","","","","",""
"71834","","","","instructions","5","318881","0.0-3.0-0.0","57","1","2025-07-16 08:24:43","1f75c3e559b7213887762d5229550c2b","168.210.171.183","Mozilla/5.0 (Windows NT 10.0; Win64; x64) AppleWebKit/537.36 (KHTML, like Gecko) Chrome/138.0.0.0 Safari/537.36","WebKit","Chrome","138.0.0.0","Windows","10.0","https://app.prolific.com/","en-US,en;q=0.9","667abff30a4bfe675c592b14","686e379bc37a29ffa5cdc956","687761bae4e619d7f3480ebd","1","1","667abff30a4bfe675c592b14","1","1","","","","","","","","","","","","","[{""page_index"":0,""viewing_time"":71833}]","","","","","","","","","","","","","","","","","","","","","","","","","","","","","",""
"15317","","<p>Before you start with this game please answer the following three questions yourself. </p>
  <p>Through this game, we measure several aspects of your cognitive performance, such as reaction times, multi-tasking capabilities </p>
  <p>and the ability to assess the situation you are in.</p>
  <p></p>
  <p><b>How good do you usually are in such tasks?</b></p>","99","html-slider-response","6","334206","0.0-4.0-0.0","57","1","2025-07-16 08:24:43","1f75c3e559b7213887762d5229550c2b","168.210.171.183","Mozilla/5.0 (Windows NT 10.0; Win64; x64) AppleWebKit/537.36 (KHTML, like Gecko) Chrome/138.0.0.0 Safari/537.36","WebKit","Chrome","138.0.0.0","Windows","10.0","https://app.prolific.com/","en-US,en;q=0.9","667abff30a4bfe675c592b14","686e379bc37a29ffa5cdc956","687761bae4e619d7f3480ebd","1","1","667abff30a4bfe675c592b14","1","1","2025-07-16T08:30:21.397Z","","","","","","","","","","","PreSkillQ","","50","","","","","","","","","","","","","","","","","","","","","","","","","","","","",""
"6184","","<div style=""width:500px;"">
  <p>How well do you think you will perform in this task compared to other participants?</p>
  </div>","100","html-slider-response","7","340393","0.0-4.0-1.0","57","1","2025-07-16 08:24:43","1f75c3e559b7213887762d5229550c2b","168.210.171.183","Mozilla/5.0 (Windows NT 10.0; Win64; x64) AppleWebKit/537.36 (KHTML, like Gecko) Chrome/138.0.0.0 Safari/537.36","WebKit","Chrome","138.0.0.0","Windows","10.0","https://app.prolific.com/","en-US,en;q=0.9","667abff30a4bfe675c592b14","686e379bc37a29ffa5cdc956","687761bae4e619d7f3480ebd","1","1","667abff30a4bfe675c592b14","1","1","2025-07-16T08:30:27.584Z","","","","","","","","","","","PrePerfQ","","50","","","","","","","","","","","","","","","","","","","","","","","","","","","","",""
"7560","","<div style=""width:500px;"">
  <p>What best describes how you currently feel?</p>
  </div>","60","html-slider-response","8","347955","0.0-4.0-2.0","57","1","2025-07-16 08:24:43","1f75c3e559b7213887762d5229550c2b","168.210.171.183","Mozilla/5.0 (Windows NT 10.0; Win64; x64) AppleWebKit/537.36 (KHTML, like Gecko) Chrome/138.0.0.0 Safari/537.36","WebKit","Chrome","138.0.0.0","Windows","10.0","https://app.prolific.com/","en-US,en;q=0.9","667abff30a4bfe675c592b14","686e379bc37a29ffa5cdc956","687761bae4e619d7f3480ebd","1","1","667abff30a4bfe675c592b14","1","1","2025-07-16T08:30:35.146Z","","","","","","","","","","","PreMotivationQ","","50","","","","","","","","","","","","","","","","","","","","","","","","","","","","",""
"","","","","ctl-task-cpt","9","374985","0.0-5.0-0.0","57","1","2025-07-16 08:24:43","1f75c3e559b7213887762d5229550c2b","168.210.171.183","Mozilla/5.0 (Windows NT 10.0; Win64; x64) AppleWebKit/537.36 (KHTML, like Gecko) Chrome/138.0.0.0 Safari/537.36","WebKit","Chrome","138.0.0.0","Windows","10.0","https://app.prolific.com/","en-US,en;q=0.9","667abff30a4bfe675c592b14","686e379bc37a29ffa5cdc956","687761bae4e619d7f3480ebd","1","1","667abff30a4bfe675c592b14","1","1","2025-07-16T08:31:02.176Z","","","","","","","","","","","","","","win-only","3","g1:SW,g2:NE","1","1","0","352844.1","2478.3","7485.1","24017.2","1","4","8","6","2","8","8","8","0","0.06060606060606061","1731.7","3000","1180","[""up"",""right""]","{""num_key_presses"":6,""num_perfect"":6,""num_errors"":0,""num_randdir"":0,""num_randdir_good_moves"":0,""num_whilered"":0,""num_whileblue"":0,""num_blue"":0,""num_good_moves"":6}","[291.22232142857143,297.12857142857143,0.9,291.22232142857143,297.12857142857143,106.7,291.22232142857143,297.12857142857143,208.3,291.22232142857143,297.12857142857143,313.1,291.22232142857143,297.12857142857143,417.8,291.22232142857143,297.12857142857143,519.5,291.22232142857143,297.12857142857143,623.7,270.22232142857143,342.12857142857143,724.4,287.22232142857143,331.12857142857143,830.6,455.22232142857143,140.12857142857143,933.2,482.22232142857143,113.12857142857143,1035.5,497.22232142857143,104.12857142857143,1141.9,508.22232142857143,91.12857142857143,1248.4,548.2223214285714,58.128571428571426,1349.9,547.2223214285714,58.128571428571426,1451.3,547.2223214285714,59.128571428571426,1552.8,547.2223214285714,59.128571428571426,1653.9,547.2223214285714,59.128571428571426,1761,547.2223214285714,59.128571428571426,1861.1,547.2223214285714,59.128571428571426,1964.7,547.2223214285714,59.128571428571426,2066,547.2223214285714,59.128571428571426,2170,547.2223214285714,59.128571428571426,2273.6,547.2223214285714,59.128571428571426,2377.3,547.2223214285714,59.128571428571426,2482.7,547.2223214285714,59.128571428571426,2584.7,547.2223214285714,59.128571428571426,2690.4,547.2223214285714,59.128571428571426,2794.2,547.2223214285714,59.128571428571426,2896.9,547.2223214285714,59.128571428571426,2997.7,547.2223214285714,59.128571428571426,3103.2,547.2223214285714,59.128571428571426,3203.8,547.2223214285714,59.128571428571426,3311.8,547.2223214285714,59.128571428571426,3413,547.2223214285714,59.128571428571426,3513,547.2223214285714,59.128571428571426,3613.4,547.2223214285714,59.128571428571426,3714.5,420.22232142857143,202.12857142857143,3833.6,379.22232142857143,240.12857142857143,3933.9,378.22232142857143,241.12857142857143,4034,348.22232142857143,268.12857142857143,4134.2,313.22232142857143,304.12857142857143,4235.9,296.22232142857143,320.12857142857143,4344.8,270.22232142857143,340.12857142857143,4452.4,266.22232142857143,342.12857142857143,4553.1,260.22232142857143,342.12857142857143,4653.7,259.22232142857143,342.12857142857143,4755,259.22232142857143,342.12857142857143,4860.5,259.22232142857143,342.12857142857143,4963.3]","[1597.4,1597.2,1000,0.2,597.2,""smooth"",""right"",""right"",""good_move"",4604,3005.4,2625.6,1598.7,379.7,""smooth"",""right"",""right"",""good_move"",7615.9,3009,2586.8,4606.9,422.2,""smooth"",""right"",""right"",""good_move"",10875.2,3258.2,2824.2,7617,434,""smooth"",""up"",""up"",""good_move"",13465.6,2589.1,2129.1,10876.5,460,""smooth"",""up"",""up"",""good_move"",16336.6,2870,2486.1,13466.6,383.9,""smooth"",""up"",""up"",""good_move""]","",""
"7602","","<div style=""width:500px;"">
  <p>What determined the result of this run?</p>
  </div>","91","html-slider-response","10","382599","0.0-5.0-1.0","57","1","2025-07-16 08:24:43","1f75c3e559b7213887762d5229550c2b","168.210.171.183","Mozilla/5.0 (Windows NT 10.0; Win64; x64) AppleWebKit/537.36 (KHTML, like Gecko) Chrome/138.0.0.0 Safari/537.36","WebKit","Chrome","138.0.0.0","Windows","10.0","https://app.prolific.com/","en-US,en;q=0.9","667abff30a4bfe675c592b14","686e379bc37a29ffa5cdc956","687761bae4e619d7f3480ebd","1","1","667abff30a4bfe675c592b14","1","1","2025-07-16T08:31:09.791Z","","","","","","","","","","","AttribQ","","50","","","","","","","","","","","","","","","","","","","","","","","","","","","","",""
"3339","","<div style=""width:500px;"">
  <p>How much control did you have over the ball?</p>
  </div>","95","html-slider-response","11","385954","0.0-5.0-2.0","57","1","2025-07-16 08:24:43","1f75c3e559b7213887762d5229550c2b","168.210.171.183","Mozilla/5.0 (Windows NT 10.0; Win64; x64) AppleWebKit/537.36 (KHTML, like Gecko) Chrome/138.0.0.0 Safari/537.36","WebKit","Chrome","138.0.0.0","Windows","10.0","https://app.prolific.com/","en-US,en;q=0.9","667abff30a4bfe675c592b14","686e379bc37a29ffa5cdc956","687761bae4e619d7f3480ebd","1","1","667abff30a4bfe675c592b14","1","1","2025-07-16T08:31:13.145Z","","","","","","","","","","","ControlQ","","50","","","","","","","","","","","","","","","","","","","","","","","","","","","","",""
"9910","","<div style=""width:500px;"">
  <p>How would you describe your current emotional state?</p>
  </div>","46","html-slider-response","12","395867","0.0-5.0-3.0","57","1","2025-07-16 08:24:43","1f75c3e559b7213887762d5229550c2b","168.210.171.183","Mozilla/5.0 (Windows NT 10.0; Win64; x64) AppleWebKit/537.36 (KHTML, like Gecko) Chrome/138.0.0.0 Safari/537.36","WebKit","Chrome","138.0.0.0","Windows","10.0","https://app.prolific.com/","en-US,en;q=0.9","667abff30a4bfe675c592b14","686e379bc37a29ffa5cdc956","687761bae4e619d7f3480ebd","1","1","667abff30a4bfe675c592b14","1","1","2025-07-16T08:31:23.058Z","","","","","","","","","","","StressQ","","50","","","","","","","","","","","","","","","","","","","","","","","","","","","","",""
"6879","","<div style=""width:500px;"">
  <p>What best describes how you currently feel?</p>
  </div>","81","html-slider-response","13","402748","0.0-5.0-4.0","57","1","2025-07-16 08:24:43","1f75c3e559b7213887762d5229550c2b","168.210.171.183","Mozilla/5.0 (Windows NT 10.0; Win64; x64) AppleWebKit/537.36 (KHTML, like Gecko) Chrome/138.0.0.0 Safari/537.36","WebKit","Chrome","138.0.0.0","Windows","10.0","https://app.prolific.com/","en-US,en;q=0.9","667abff30a4bfe675c592b14","686e379bc37a29ffa5cdc956","687761bae4e619d7f3480ebd","1","1","667abff30a4bfe675c592b14","1","1","2025-07-16T08:31:29.940Z","","","","","","","","","","","MotivationQ","","50","","","","","","","","","","","","","","","","","","","","","","","","","","","","",""
"","","","","ctl-task-cpt","14","432797","0.0-5.0-0.1","57","1","2025-07-16 08:24:43","1f75c3e559b7213887762d5229550c2b","168.210.171.183","Mozilla/5.0 (Windows NT 10.0; Win64; x64) AppleWebKit/537.36 (KHTML, like Gecko) Chrome/138.0.0.0 Safari/537.36","WebKit","Chrome","138.0.0.0","Windows","10.0","https://app.prolific.com/","en-US,en;q=0.9","667abff30a4bfe675c592b14","686e379bc37a29ffa5cdc956","687761bae4e619d7f3480ebd","1","1","667abff30a4bfe675c592b14","1","1","2025-07-16T08:31:59.988Z","","","","","","","","","","","","","","win-only","3","g1:SW,g2:NE","0.9","2","0","407637.2","1535.7","6538.7","27042.2","1","4","4","6","2","4","4","12","8","0.09090909090909091","1263.9","3000","790","[""up"",""right""]","{""num_key_presses"":6,""num_perfect"":5,""num_errors"":0,""num_randdir"":1,""num_randdir_good_moves"":1,""num_whilered"":0,""num_whileblue"":0,""num_blue"":1,""num_good_moves"":6}","[296.22232142857143,299.12857142857143,0.6,296.22232142857143,299.12857142857143,104.9,296.22232142857143,299.12857142857143,205.1,296.22232142857143,299.12857142857143,308.1,296.22232142857143,299.12857142857143,415.1,296.22232142857143,299.12857142857143,515.5,359.22232142857143,243.12857142857143,617.5,444.22232142857143,162.12857142857143,722,503.22232142857143,113.12857142857143,828.5,516.2223214285714,100.12857142857143,931.7,538.2223214285714,68.12857142857143,1034.1,538.2223214285714,68.12857142857143,1134.3,538.2223214285714,68.12857142857143,1237.9,538.2223214285714,68.12857142857143,1341,538.2223214285714,68.12857142857143,1443.8,538.2223214285714,68.12857142857143,1545.3,538.2223214285714,68.12857142857143,1645.9,538.2223214285714,68.12857142857143,1747.1,538.2223214285714,68.12857142857143,1850.5,538.2223214285714,68.12857142857143,1955.8,538.2223214285714,68.12857142857143,2057.1,538.2223214285714,68.12857142857143,2160.4,484.22232142857143,146.12857142857143,2263.1,407.22232142857143,267.12857142857143,2364.9,325.22232142857143,331.12857142857143,2469.7,272.22232142857143,362.12857142857143,2578,269.22232142857143,361.12857142857143,2681.9,269.22232142857143,361.12857142857143,2792.1,269.22232142857143,361.12857142857143,2896.3,269.22232142857143,361.12857142857143,2999.7,269.22232142857143,361.12857142857143,3104.4,269.22232142857143,361.12857142857143,3207.9,269.22232142857143,361.12857142857143,3309.9,269.22232142857143,361.12857142857143,3410.2,269.22232142857143,361.12857142857143,3514.7,269.22232142857143,361.12857142857143,3615.1,269.22232142857143,361.12857142857143,3720.1,269.22232142857143,361.12857142857143,3821.7,269.22232142857143,361.12857142857143,3922.1,269.22232142857143,361.12857142857143,4024.5,269.22232142857143,361.12857142857143,4126.1,269.22232142857143,361.12857142857143,4226.9,269.22232142857143,361.12857142857143,4330.3,269.22232142857143,361.12857142857143,4432.2,269.22232142857143,361.12857142857143,4535.4,269.22232142857143,361.12857142857143,4641,269.22232142857143,361.12857142857143,4745.1,269.22232142857143,361.12857142857143,4852,269.22232142857143,361.12857142857143,4959]","[1544.4,1544.4,1000,0.1,544.4,""smooth"",""up"",""up"",""good_move"",8926.1,7380.8,3109.3,5299.2,517.6,""smooth"",""up"",""up"",""good_move"",12193.3,3266.5,2716.1,8926.8,550.4,""smooth"",""up"",""up"",""good_move"",15211.3,3017,2595,12194.3,422,""smooth"",""right"",""right"",""good_move"",17872,2659.6,2206,15212.4,453.6,""oops"",""right"",""right"",""good_move"",20372.7,2499.2,2119.6,17873.6,379.6,""smooth"",""right"",""right"",""good_move""]","",""
"5398","","<div style=""width:500px;"">
  <p>What determined the result of this run?</p>
  </div>","90","html-slider-response","15","438198","0.0-5.0-1.1","57","1","2025-07-16 08:24:43","1f75c3e559b7213887762d5229550c2b","168.210.171.183","Mozilla/5.0 (Windows NT 10.0; Win64; x64) AppleWebKit/537.36 (KHTML, like Gecko) Chrome/138.0.0.0 Safari/537.36","WebKit","Chrome","138.0.0.0","Windows","10.0","https://app.prolific.com/","en-US,en;q=0.9","667abff30a4bfe675c592b14","686e379bc37a29ffa5cdc956","687761bae4e619d7f3480ebd","1","1","667abff30a4bfe675c592b14","1","1","2025-07-16T08:32:05.389Z","","","","","","","","","","","AttribQ","","50","","","","","","","","","","","","","","","","","","","","","","","","","","","","",""
"5140","","<div style=""width:500px;"">
  <p>How much control did you have over the ball?</p>
  </div>","87","html-slider-response","16","443337","0.0-5.0-2.1","57","1","2025-07-16 08:24:43","1f75c3e559b7213887762d5229550c2b","168.210.171.183","Mozilla/5.0 (Windows NT 10.0; Win64; x64) AppleWebKit/537.36 (KHTML, like Gecko) Chrome/138.0.0.0 Safari/537.36","WebKit","Chrome","138.0.0.0","Windows","10.0","https://app.prolific.com/","en-US,en;q=0.9","667abff30a4bfe675c592b14","686e379bc37a29ffa5cdc956","687761bae4e619d7f3480ebd","1","1","667abff30a4bfe675c592b14","1","1","2025-07-16T08:32:10.528Z","","","","","","","","","","","ControlQ","","50","","","","","","","","","","","","","","","","","","","","","","","","","","","","",""
"31741","","<div style=""width:500px;"">
  <p>How would you describe your current emotional state?</p>
  </div>","45","html-slider-response","17","475085","0.0-5.0-3.1","57","1","2025-07-16 08:24:43","1f75c3e559b7213887762d5229550c2b","168.210.171.183","Mozilla/5.0 (Windows NT 10.0; Win64; x64) AppleWebKit/537.36 (KHTML, like Gecko) Chrome/138.0.0.0 Safari/537.36","WebKit","Chrome","138.0.0.0","Windows","10.0","https://app.prolific.com/","en-US,en;q=0.9","667abff30a4bfe675c592b14","686e379bc37a29ffa5cdc956","687761bae4e619d7f3480ebd","1","1","667abff30a4bfe675c592b14","1","1","2025-07-16T08:32:42.276Z","","","","","","","","","","","StressQ","","50","","","","","","","","","","","","","","","","","","","","","","","","","","","","",""
"20768","","<div style=""width:500px;"">
  <p>What best describes how you currently feel?</p>
  </div>","69","html-slider-response","18","495859","0.0-5.0-4.1","57","1","2025-07-16 08:24:43","1f75c3e559b7213887762d5229550c2b","168.210.171.183","Mozilla/5.0 (Windows NT 10.0; Win64; x64) AppleWebKit/537.36 (KHTML, like Gecko) Chrome/138.0.0.0 Safari/537.36","WebKit","Chrome","138.0.0.0","Windows","10.0","https://app.prolific.com/","en-US,en;q=0.9","667abff30a4bfe675c592b14","686e379bc37a29ffa5cdc956","687761bae4e619d7f3480ebd","1","1","667abff30a4bfe675c592b14","1","1","2025-07-16T08:33:03.050Z","","","","","","","","","","","MotivationQ","","50","","","","","","","","","","","","","","","","","","","","","","","","","","","","",""
"","","","","ctl-task-cpt","19","522858","0.0-5.0-0.2","57","1","2025-07-16 08:24:43","1f75c3e559b7213887762d5229550c2b","168.210.171.183","Mozilla/5.0 (Windows NT 10.0; Win64; x64) AppleWebKit/537.36 (KHTML, like Gecko) Chrome/138.0.0.0 Safari/537.36","WebKit","Chrome","138.0.0.0","Windows","10.0","https://app.prolific.com/","en-US,en;q=0.9","667abff30a4bfe675c592b14","686e379bc37a29ffa5cdc956","687761bae4e619d7f3480ebd","1","1","667abff30a4bfe675c592b14","1","1","2025-07-16T08:33:30.049Z","","","","","","","","","","","","","","win-only","3","g1:SW,g2:NE","0.8","3","0","500755.1","1579.5","6584.7","23976.8","1","4","4","6","2","4","4","16","12","0.12121212121212122","1360.4","3000","1105","[""up"",""right""]","{""num_key_presses"":6,""num_perfect"":6,""num_errors"":0,""num_randdir"":0,""num_randdir_good_moves"":0,""num_whilered"":0,""num_whileblue"":0,""num_blue"":0,""num_good_moves"":6}","[290.22232142857143,296.12857142857143,14.2,290.22232142857143,296.12857142857143,104.1,290.22232142857143,296.12857142857143,209.5,290.22232142857143,296.12857142857143,314.5,290.22232142857143,296.12857142857143,420.3,290.22232142857143,296.12857142857143,521,346.22232142857143,257.12857142857143,632.4,500.22232142857143,114.12857142857143,739.3,514.2223214285714,100.12857142857143,850.9,516.2223214285714,97.12857142857143,951.5,527.2223214285714,73.12857142857143,1063.4,529.2223214285714,69.12857142857143,1166.1,529.2223214285714,69.12857142857143,1272.9,529.2223214285714,69.12857142857143,1380.1,529.2223214285714,69.12857142857143,1486,529.2223214285714,69.12857142857143,1588.5,529.2223214285714,69.12857142857143,1691.3,529.2223214285714,69.12857142857143,1797.1,529.2223214285714,69.12857142857143,1902.8,529.2223214285714,69.12857142857143,2004.3,529.2223214285714,69.12857142857143,2110.6,433.22232142857143,193.12857142857143,2212.2,355.22232142857143,279.12857142857143,2320.2,326.22232142857143,300.12857142857143,2426,283.22232142857143,326.12857142857143,2527.8,275.22232142857143,335.12857142857143,2632.5,272.22232142857143,338.12857142857143,2741.4,272.22232142857143,338.12857142857143,2841.9,272.22232142857143,338.12857142857143,2942.4,272.22232142857143,338.12857142857143,3050.3,272.22232142857143,338.12857142857143,3150.3,272.22232142857143,338.12857142857143,3255.7,272.22232142857143,338.12857142857143,3362,272.22232142857143,338.12857142857143,3466.8,272.22232142857143,338.12857142857143,3566.9,272.22232142857143,338.12857142857143,3668.7,272.22232142857143,338.12857142857143,3775.6,272.22232142857143,338.12857142857143,3882.3,272.22232142857143,338.12857142857143,3989.2,272.22232142857143,338.12857142857143,4091.1,272.22232142857143,338.12857142857143,4191.8,272.22232142857143,338.12857142857143,4292.7,272.22232142857143,338.12857142857143,4399.8,272.22232142857143,338.12857142857143,4509.1,272.22232142857143,338.12857142857143,4609.2,272.22232142857143,338.12857142857143,4710.8,272.22232142857143,338.12857142857143,4811.8,272.22232142857143,338.12857142857143,4917.3]","[1560.5,1560.5,1000,0,560.5,""smooth"",""right"",""right"",""good_move"",4264.5,2703.1,2270.7,1561.4,432.4,""smooth"",""up"",""up"",""good_move"",7629.5,3363.6,2846.6,4266,517,""smooth"",""up"",""up"",""good_move"",10875,3244.5,2896.6,7630.6,347.9,""smooth"",""right"",""right"",""good_move"",13844.6,2967.9,2545.3,10876.7,422.6,""smooth"",""up"",""up"",""good_move"",17266.7,3421.2,2967.9,13845.7,453.2,""smooth"",""right"",""right"",""good_move""]","",""
"4090","","<div style=""width:500px;"">
  <p>What determined the result of this run?</p>
  </div>","82","html-slider-response","20","526954","0.0-5.0-1.2","57","1","2025-07-16 08:24:43","1f75c3e559b7213887762d5229550c2b","168.210.171.183","Mozilla/5.0 (Windows NT 10.0; Win64; x64) AppleWebKit/537.36 (KHTML, like Gecko) Chrome/138.0.0.0 Safari/537.36","WebKit","Chrome","138.0.0.0","Windows","10.0","https://app.prolific.com/","en-US,en;q=0.9","667abff30a4bfe675c592b14","686e379bc37a29ffa5cdc956","687761bae4e619d7f3480ebd","1","1","667abff30a4bfe675c592b14","1","1","2025-07-16T08:33:34.145Z","","","","","","","","","","","AttribQ","","50","","","","","","","","","","","","","","","","","","","","","","","","","","","","",""
"4984","","<div style=""width:500px;"">
  <p>How much control did you have over the ball?</p>
  </div>","89","html-slider-response","21","531940","0.0-5.0-2.2","57","1","2025-07-16 08:24:43","1f75c3e559b7213887762d5229550c2b","168.210.171.183","Mozilla/5.0 (Windows NT 10.0; Win64; x64) AppleWebKit/537.36 (KHTML, like Gecko) Chrome/138.0.0.0 Safari/537.36","WebKit","Chrome","138.0.0.0","Windows","10.0","https://app.prolific.com/","en-US,en;q=0.9","667abff30a4bfe675c592b14","686e379bc37a29ffa5cdc956","687761bae4e619d7f3480ebd","1","1","667abff30a4bfe675c592b14","1","1","2025-07-16T08:33:39.132Z","","","","","","","","","","","ControlQ","","50","","","","","","","","","","","","","","","","","","","","","","","","","","","","",""
"4328","","<div style=""width:500px;"">
  <p>How would you describe your current emotional state?</p>
  </div>","49","html-slider-response","22","536273","0.0-5.0-3.2","57","1","2025-07-16 08:24:43","1f75c3e559b7213887762d5229550c2b","168.210.171.183","Mozilla/5.0 (Windows NT 10.0; Win64; x64) AppleWebKit/537.36 (KHTML, like Gecko) Chrome/138.0.0.0 Safari/537.36","WebKit","Chrome","138.0.0.0","Windows","10.0","https://app.prolific.com/","en-US,en;q=0.9","667abff30a4bfe675c592b14","686e379bc37a29ffa5cdc956","687761bae4e619d7f3480ebd","1","1","667abff30a4bfe675c592b14","1","1","2025-07-16T08:33:43.464Z","","","","","","","","","","","StressQ","","50","","","","","","","","","","","","","","","","","","","","","","","","","","","","",""
"4073","","<div style=""width:500px;"">
  <p>What best describes how you currently feel?</p>
  </div>","78","html-slider-response","23","540348","0.0-5.0-4.2","57","1","2025-07-16 08:24:43","1f75c3e559b7213887762d5229550c2b","168.210.171.183","Mozilla/5.0 (Windows NT 10.0; Win64; x64) AppleWebKit/537.36 (KHTML, like Gecko) Chrome/138.0.0.0 Safari/537.36","WebKit","Chrome","138.0.0.0","Windows","10.0","https://app.prolific.com/","en-US,en;q=0.9","667abff30a4bfe675c592b14","686e379bc37a29ffa5cdc956","687761bae4e619d7f3480ebd","1","1","667abff30a4bfe675c592b14","1","1","2025-07-16T08:33:47.539Z","","","","","","","","","","","MotivationQ","","50","","","","","","","","","","","","","","","","","","","","","","","","","","","","",""
"","","","","ctl-task-cpt","24","570986","0.0-5.0-0.3","57","1","2025-07-16 08:24:43","1f75c3e559b7213887762d5229550c2b","168.210.171.183","Mozilla/5.0 (Windows NT 10.0; Win64; x64) AppleWebKit/537.36 (KHTML, like Gecko) Chrome/138.0.0.0 Safari/537.36","WebKit","Chrome","138.0.0.0","Windows","10.0","https://app.prolific.com/","en-US,en;q=0.9","667abff30a4bfe675c592b14","686e379bc37a29ffa5cdc956","687761bae4e619d7f3480ebd","1","1","667abff30a4bfe675c592b14","1","1","2025-07-16T08:34:18.178Z","","","","","","","","","","","","","","win-only","0","g1:NW,g2:SE","0.7","4","0","545244.8","2099.9","7103.7","27613.8","1","4","8","6","2","8","8","24","16","0.18181818181818182","1389.8","3000","910","[""down"",""right""]","{""num_key_presses"":6,""num_perfect"":6,""num_errors"":0,""num_randdir"":0,""num_randdir_good_moves"":0,""num_whilered"":0,""num_whileblue"":0,""num_blue"":1,""num_good_moves"":6}","[298.22232142857143,293.12857142857143,0.5,298.22232142857143,293.12857142857143,101.8,298.22232142857143,293.12857142857143,205.5,298.22232142857143,293.12857142857143,308,298.22232142857143,293.12857142857143,421.4,298.22232142857143,293.12857142857143,524.8,373.22232142857143,363.12857142857143,629.4,449.22232142857143,459.12857142857143,729.7,472.22232142857143,495.12857142857143,838.9,484.22232142857143,513.1285714285714,940.9,520.2223214285714,545.1285714285714,1049.9,522.2223214285714,544.1285714285714,1151.9,522.2223214285714,544.1285714285714,1254.2,522.2223214285714,544.1285714285714,1357.1,522.2223214285714,544.1285714285714,1465.5,522.2223214285714,544.1285714285714,1570.6,522.2223214285714,544.1285714285714,1670.8,522.2223214285714,544.1285714285714,1780.2,522.2223214285714,544.1285714285714,1881.4,522.2223214285714,544.1285714285714,1984.1,480.22232142857143,510.12857142857143,2089.1,365.22232142857143,402.12857142857143,2203,323.22232142857143,344.12857142857143,2303.7,313.22232142857143,324.12857142857143,2408,289.22232142857143,294.12857142857143,2524.3,259.22232142857143,261.12857142857143,2625.9,254.22232142857143,256.12857142857143,2731.5,254.22232142857143,256.12857142857143,2838.1,254.22232142857143,256.12857142857143,2939.7,254.22232142857143,256.12857142857143,3041.3,254.22232142857143,256.12857142857143,3143.2,254.22232142857143,256.12857142857143,3249.6,254.22232142857143,256.12857142857143,3351.9,254.22232142857143,256.12857142857143,3455.3,254.22232142857143,256.12857142857143,3555.8,254.22232142857143,256.12857142857143,3656.6,254.22232142857143,256.12857142857143,3764.8,254.22232142857143,256.12857142857143,3867.8,254.22232142857143,256.12857142857143,3968.7,254.22232142857143,256.12857142857143,4071.1,254.22232142857143,256.12857142857143,4177,254.22232142857143,256.12857142857143,4282.3,254.22232142857143,256.12857142857143,4382.3,254.22232142857143,256.12857142857143,4482.7,254.22232142857143,256.12857142857143,4582.8,254.22232142857143,256.12857142857143,4686.3,254.22232142857143,256.12857142857143,4788.3,254.22232142857143,256.12857142857143,4899.9]","[1601.9,1602,1000,0,602,""smooth"",""down"",""down"",""good_move"",4211.1,2607.9,2155.9,1603.2,452,""smooth"",""down"",""down"",""good_move"",11003,6790.6,2474.4,7985.9,542.7,""smooth"",""down"",""down"",""good_move"",14285.2,3281.6,2732.2,11003.6,549.4,""smooth"",""right"",""right"",""good_move"",17448.5,3162.1,2715.7,14286.5,446.4,""smooth"",""right"",""right"",""good_move"",20385.2,2935.7,2502.8,17449.5,432.9,""smooth"",""right"",""right"",""good_move""]","",""
"7358","","<div style=""width:500px;"">
  <p>What determined the result of this run?</p>
  </div>","99","html-slider-response","25","578348","0.0-5.0-1.3","57","1","2025-07-16 08:24:43","1f75c3e559b7213887762d5229550c2b","168.210.171.183","Mozilla/5.0 (Windows NT 10.0; Win64; x64) AppleWebKit/537.36 (KHTML, like Gecko) Chrome/138.0.0.0 Safari/537.36","WebKit","Chrome","138.0.0.0","Windows","10.0","https://app.prolific.com/","en-US,en;q=0.9","667abff30a4bfe675c592b14","686e379bc37a29ffa5cdc956","687761bae4e619d7f3480ebd","1","1","667abff30a4bfe675c592b14","1","1","2025-07-16T08:34:25.539Z","","","","","","","","","","","AttribQ","","50","","","","","","","","","","","","","","","","","","","","","","","","","","","","",""
"4149","","<div style=""width:500px;"">
  <p>How much control did you have over the ball?</p>
  </div>","89","html-slider-response","26","582499","0.0-5.0-2.3","57","1","2025-07-16 08:24:43","1f75c3e559b7213887762d5229550c2b","168.210.171.183","Mozilla/5.0 (Windows NT 10.0; Win64; x64) AppleWebKit/537.36 (KHTML, like Gecko) Chrome/138.0.0.0 Safari/537.36","WebKit","Chrome","138.0.0.0","Windows","10.0","https://app.prolific.com/","en-US,en;q=0.9","667abff30a4bfe675c592b14","686e379bc37a29ffa5cdc956","687761bae4e619d7f3480ebd","1","1","667abff30a4bfe675c592b14","1","1","2025-07-16T08:34:29.690Z","","","","","","","","","","","ControlQ","","50","","","","","","","","","","","","","","","","","","","","","","","","","","","","",""
"3630","","<div style=""width:500px;"">
  <p>How would you describe your current emotional state?</p>
  </div>","48","html-slider-response","27","586131","0.0-5.0-3.3","57","1","2025-07-16 08:24:43","1f75c3e559b7213887762d5229550c2b","168.210.171.183","Mozilla/5.0 (Windows NT 10.0; Win64; x64) AppleWebKit/537.36 (KHTML, like Gecko) Chrome/138.0.0.0 Safari/537.36","WebKit","Chrome","138.0.0.0","Windows","10.0","https://app.prolific.com/","en-US,en;q=0.9","667abff30a4bfe675c592b14","686e379bc37a29ffa5cdc956","687761bae4e619d7f3480ebd","1","1","667abff30a4bfe675c592b14","1","1","2025-07-16T08:34:33.322Z","","","","","","","","","","","StressQ","","50","","","","","","","","","","","","","","","","","","","","","","","","","","","","",""
"3780","","<div style=""width:500px;"">
  <p>What best describes how you currently feel?</p>
  </div>","80","html-slider-response","28","589913","0.0-5.0-4.3","57","1","2025-07-16 08:24:43","1f75c3e559b7213887762d5229550c2b","168.210.171.183","Mozilla/5.0 (Windows NT 10.0; Win64; x64) AppleWebKit/537.36 (KHTML, like Gecko) Chrome/138.0.0.0 Safari/537.36","WebKit","Chrome","138.0.0.0","Windows","10.0","https://app.prolific.com/","en-US,en;q=0.9","667abff30a4bfe675c592b14","686e379bc37a29ffa5cdc956","687761bae4e619d7f3480ebd","1","1","667abff30a4bfe675c592b14","1","1","2025-07-16T08:34:37.105Z","","","","","","","","","","","MotivationQ","","50","","","","","","","","","","","","","","","","","","","","","","","","","","","","",""
"","","","","ctl-task-cpt","29","631623","0.0-5.0-0.4","57","1","2025-07-16 08:24:43","1f75c3e559b7213887762d5229550c2b","168.210.171.183","Mozilla/5.0 (Windows NT 10.0; Win64; x64) AppleWebKit/537.36 (KHTML, like Gecko) Chrome/138.0.0.0 Safari/537.36","WebKit","Chrome","138.0.0.0","Windows","10.0","https://app.prolific.com/","en-US,en;q=0.9","667abff30a4bfe675c592b14","686e379bc37a29ffa5cdc956","687761bae4e619d7f3480ebd","1","1","667abff30a4bfe675c592b14","1","1","2025-07-16T08:35:18.814Z","","","","","","","","","","","","","","win-only","3","g1:SW,g2:NE","0.6","5","0","594814.4","1567.1","6586.7","38684.3","1","4","8","6","2","-8","-8","16","24","0.12121212121212122","1092.9","3000","-1815","[""up"",""right""]","{""num_key_presses"":8,""num_perfect"":4,""num_errors"":0,""num_randdir"":4,""num_randdir_good_moves"":2,""num_whilered"":0,""num_whileblue"":0,""num_blue"":2,""num_good_moves"":6}","[297.22232142857143,287.12857142857143,8.9,297.22232142857143,287.12857142857143,117.7,297.22232142857143,287.12857142857143,233.4,297.22232142857143,287.12857142857143,333.8,297.22232142857143,287.12857142857143,434.3,297.22232142857143,287.12857142857143,537.5,486.22232142857143,78.12857142857143,638.3,522.2223214285714,46.128571428571426,741.2,523.2223214285714,45.128571428571426,841.9,523.2223214285714,45.128571428571426,944.6,523.2223214285714,45.128571428571426,1053.5,523.2223214285714,45.128571428571426,1162.8,523.2223214285714,45.128571428571426,1266.8,523.2223214285714,45.128571428571426,1367.8,523.2223214285714,45.128571428571426,1477.2,523.2223214285714,45.128571428571426,1582.1,523.2223214285714,45.128571428571426,1683.4,523.2223214285714,45.128571428571426,1790.9,523.2223214285714,45.128571428571426,1902.1,397.22232142857143,210.12857142857143,2003.9,336.22232142857143,282.12857142857143,2104.1,314.22232142857143,309.12857142857143,2208,299.22232142857143,317.12857142857143,2316,278.22232142857143,329.12857142857143,2420.4,270.22232142857143,335.12857142857143,2521.7,270.22232142857143,335.12857142857143,2624.9,270.22232142857143,335.12857142857143,2732.7,270.22232142857143,335.12857142857143,2833.8,270.22232142857143,335.12857142857143,2934.4,270.22232142857143,335.12857142857143,3035.2,270.22232142857143,335.12857142857143,3136.4,270.22232142857143,335.12857142857143,3242.2,270.22232142857143,335.12857142857143,3349.5,270.22232142857143,335.12857142857143,3451.9,270.22232142857143,335.12857142857143,3552,270.22232142857143,335.12857142857143,3659.2,270.22232142857143,335.12857142857143,3759.2,270.22232142857143,335.12857142857143,3865.6,270.22232142857143,335.12857142857143,3966,270.22232142857143,335.12857142857143,4068.9,270.22232142857143,335.12857142857143,4177.1,270.22232142857143,335.12857142857143,4281.1,270.22232142857143,335.12857142857143,4382.2,270.22232142857143,335.12857142857143,4485.1,270.22232142857143,335.12857142857143,4598.9,270.22232142857143,335.12857142857143,4699.7,270.22232142857143,335.12857142857143,4800.3,270.22232142857143,335.12857142857143,4907.2]","[9224.6,9224.6,2395.3,6296.9,532.4,""smooth"",""right"",""right"",""good_move"",12573.4,3347.5,2776,9225.9,571.5,""oops"",""right"",""right"",""good_move"",14831.8,2255.4,1724.9,12576.4,530.5,""oops"",""right"",""left"",""bad_move"",18309.5,3476.4,3015,14833.1,461.4,""smooth"",""up"",""up"",""good_move"",21280.5,2969.7,2473.4,18310.8,496.4,""oops"",""up"",""right"",""good_move"",24754.6,3472.9,2921.4,21281.7,551.5,""smooth"",""up"",""up"",""good_move"",27934.8,3178.4,2498.9,24756.5,679.4,""smooth"",""up"",""up"",""good_move"",29877.2,1939.6,1479.5,27937.6,460.1,""oops"",""right"",""left"",""bad_move""]","",""
"9567","","<div style=""width:500px;"">
  <p>What determined the result of this run?</p>
  </div>","66","html-slider-response","30","641192","0.0-5.0-1.4","57","1","2025-07-16 08:24:43","1f75c3e559b7213887762d5229550c2b","168.210.171.183","Mozilla/5.0 (Windows NT 10.0; Win64; x64) AppleWebKit/537.36 (KHTML, like Gecko) Chrome/138.0.0.0 Safari/537.36","WebKit","Chrome","138.0.0.0","Windows","10.0","https://app.prolific.com/","en-US,en;q=0.9","667abff30a4bfe675c592b14","686e379bc37a29ffa5cdc956","687761bae4e619d7f3480ebd","1","1","667abff30a4bfe675c592b14","1","1","2025-07-16T08:35:28.383Z","","","","","","","","","","","AttribQ","","50","","","","","","","","","","","","","","","","","","","","","","","","","","","","",""
"3699","","<div style=""width:500px;"">
  <p>How much control did you have over the ball?</p>
  </div>","27","html-slider-response","31","644894","0.0-5.0-2.4","57","1","2025-07-16 08:24:43","1f75c3e559b7213887762d5229550c2b","168.210.171.183","Mozilla/5.0 (Windows NT 10.0; Win64; x64) AppleWebKit/537.36 (KHTML, like Gecko) Chrome/138.0.0.0 Safari/537.36","WebKit","Chrome","138.0.0.0","Windows","10.0","https://app.prolific.com/","en-US,en;q=0.9","667abff30a4bfe675c592b14","686e379bc37a29ffa5cdc956","687761bae4e619d7f3480ebd","1","1","667abff30a4bfe675c592b14","1","1","2025-07-16T08:35:32.085Z","","","","","","","","","","","ControlQ","","50","","","","","","","","","","","","","","","","","","","","","","","","","","","","",""
"4711","","<div style=""width:500px;"">
  <p>How would you describe your current emotional state?</p>
  </div>","45","html-slider-response","32","649608","0.0-5.0-3.4","57","1","2025-07-16 08:24:43","1f75c3e559b7213887762d5229550c2b","168.210.171.183","Mozilla/5.0 (Windows NT 10.0; Win64; x64) AppleWebKit/537.36 (KHTML, like Gecko) Chrome/138.0.0.0 Safari/537.36","WebKit","Chrome","138.0.0.0","Windows","10.0","https://app.prolific.com/","en-US,en;q=0.9","667abff30a4bfe675c592b14","686e379bc37a29ffa5cdc956","687761bae4e619d7f3480ebd","1","1","667abff30a4bfe675c592b14","1","1","2025-07-16T08:35:36.801Z","","","","","","","","","","","StressQ","","50","","","","","","","","","","","","","","","","","","","","","","","","","","","","",""
"7968","","<div style=""width:500px;"">
  <p>What best describes how you currently feel?</p>
  </div>","79","html-slider-response","33","657582","0.0-5.0-4.4","57","1","2025-07-16 08:24:43","1f75c3e559b7213887762d5229550c2b","168.210.171.183","Mozilla/5.0 (Windows NT 10.0; Win64; x64) AppleWebKit/537.36 (KHTML, like Gecko) Chrome/138.0.0.0 Safari/537.36","WebKit","Chrome","138.0.0.0","Windows","10.0","https://app.prolific.com/","en-US,en;q=0.9","667abff30a4bfe675c592b14","686e379bc37a29ffa5cdc956","687761bae4e619d7f3480ebd","1","1","667abff30a4bfe675c592b14","1","1","2025-07-16T08:35:44.773Z","","","","","","","","","","","MotivationQ","","50","","","","","","","","","","","","","","","","","","","","","","","","","","","","",""
"","","","","ctl-task-cpt","34","712157","0.0-5.0-0.5","57","1","2025-07-16 08:24:43","1f75c3e559b7213887762d5229550c2b","168.210.171.183","Mozilla/5.0 (Windows NT 10.0; Win64; x64) AppleWebKit/537.36 (KHTML, like Gecko) Chrome/138.0.0.0 Safari/537.36","WebKit","Chrome","138.0.0.0","Windows","10.0","https://app.prolific.com/","en-US,en;q=0.9","667abff30a4bfe675c592b14","686e379bc37a29ffa5cdc956","687761bae4e619d7f3480ebd","1","1","667abff30a4bfe675c592b14","1","1","2025-07-16T08:36:39.348Z","","","","","","","","","","","","","","win-only","1","g1:NE,g2:SW","0.5","6","0","662483.6","3947.2","8963.6","51551","1","4","4","6","2","-4","-5","11","16","0.08333333333333333","1315.1","3000","-1915","[""down"",""left""]","{""num_key_presses"":9,""num_perfect"":5,""num_errors"":1,""num_randdir"":3,""num_randdir_good_moves"":2,""num_whilered"":0,""num_whileblue"":1,""num_blue"":5,""num_good_moves"":7}","[294.22232142857143,293.12857142857143,0.8,294.22232142857143,293.12857142857143,105.8,294.22232142857143,293.12857142857143,215.7,294.22232142857143,293.12857142857143,326.4,294.22232142857143,293.12857142857143,428.2,294.22232142857143,293.12857142857143,530,289.22232142857143,299.12857142857143,646.4,113.22232142857143,489.12857142857143,747.2,71.22232142857143,531.1285714285714,849.7,68.22232142857143,533.1285714285714,961.4,62.222321428571426,541.1285714285714,1068.3,62.222321428571426,541.1285714285714,1177.1,62.222321428571426,541.1285714285714,1279.8,62.222321428571426,541.1285714285714,1384.2,62.222321428571426,541.1285714285714,1489.1,62.222321428571426,541.1285714285714,1591.4,62.222321428571426,541.1285714285714,1697,62.222321428571426,541.1285714285714,1800.9,62.222321428571426,541.1285714285714,1901.2,62.222321428571426,541.1285714285714,2001.5,62.222321428571426,541.1285714285714,2104.7,222.22232142857143,415.12857142857143,2219,290.22232142857143,352.12857142857143,2335,309.22232142857143,324.12857142857143,2436.8,322.22232142857143,308.12857142857143,2545.6,328.22232142857143,294.12857142857143,2646.8,331.22232142857143,288.12857142857143,2747.7,331.22232142857143,288.12857142857143,2855.1,331.22232142857143,288.12857142857143,2964.4,331.22232142857143,288.12857142857143,3065.7,331.22232142857143,288.12857142857143,3168.8,331.22232142857143,288.12857142857143,3272.8,331.22232142857143,288.12857142857143,3379,331.22232142857143,288.12857142857143,3483,331.22232142857143,288.12857142857143,3584.3,331.22232142857143,288.12857142857143,3685.3,331.22232142857143,288.12857142857143,3793.3,331.22232142857143,288.12857142857143,3899.5,331.22232142857143,288.12857142857143,4002,331.22232142857143,288.12857142857143,4108,331.22232142857143,288.12857142857143,4210.1,331.22232142857143,288.12857142857143,4314.3,331.22232142857143,288.12857142857143,4418.3,331.22232142857143,288.12857142857143,4520.7,331.22232142857143,288.12857142857143,4624.9,331.22232142857143,288.12857142857143,4739.2,331.22232142857143,288.12857142857143,4850.3,331.22232142857143,288.12857142857143,4951.3]","[1574.3,1574.3,1000,0,574.3,""smooth"",""left"",""left"",""good_move"",7599,6013.1,1847.3,5259.9,491.8,""oops"",""left"",""right"",""bad_move"",10854.8,3255,2644.1,7599.8,610.9,""oops"",""down"",""down"",""good_move"",13944.6,3069.8,2319.7,10874.9,750,""smooth"",""down"",""down"",""good_move"",20072.8,6127.1,2000.5,17612.6,459.7,""smooth"",""left"",""left"",""good_move"",22643.5,2569.8,1944.2,20073.8,625.5,""smooth"",""left"",""left"",""good_move"",26463.7,3819.1,3327.2,22644.6,491.9,""smooth"",""left"",""left"",""good_move"",30381.3,3916.5,3524.1,26464.8,392.4,""while_blue"",""down"",""right"",""bad_move"",33481.7,3099.1,2149.6,30382.6,949.5,""oops"",""left"",""down"",""good_move""]","",""
"9275","","<div style=""width:500px;"">
  <p>What determined the result of this run?</p>
  </div>","64","html-slider-response","35","721435","0.0-5.0-1.5","57","1","2025-07-16 08:24:43","1f75c3e559b7213887762d5229550c2b","168.210.171.183","Mozilla/5.0 (Windows NT 10.0; Win64; x64) AppleWebKit/537.36 (KHTML, like Gecko) Chrome/138.0.0.0 Safari/537.36","WebKit","Chrome","138.0.0.0","Windows","10.0","https://app.prolific.com/","en-US,en;q=0.9","667abff30a4bfe675c592b14","686e379bc37a29ffa5cdc956","687761bae4e619d7f3480ebd","1","1","667abff30a4bfe675c592b14","1","1","2025-07-16T08:36:48.626Z","","","","","","","","","","","AttribQ","","50","","","","","","","","","","","","","","","","","","","","","","","","","","","","",""
"6824","","<div style=""width:500px;"">
  <p>How much control did you have over the ball?</p>
  </div>","28","html-slider-response","36","728262","0.0-5.0-2.5","57","1","2025-07-16 08:24:43","1f75c3e559b7213887762d5229550c2b","168.210.171.183","Mozilla/5.0 (Windows NT 10.0; Win64; x64) AppleWebKit/537.36 (KHTML, like Gecko) Chrome/138.0.0.0 Safari/537.36","WebKit","Chrome","138.0.0.0","Windows","10.0","https://app.prolific.com/","en-US,en;q=0.9","667abff30a4bfe675c592b14","686e379bc37a29ffa5cdc956","687761bae4e619d7f3480ebd","1","1","667abff30a4bfe675c592b14","1","1","2025-07-16T08:36:55.453Z","","","","","","","","","","","ControlQ","","50","","","","","","","","","","","","","","","","","","","","","","","","","","","","",""
"10728","","<div style=""width:500px;"">
  <p>How would you describe your current emotional state?</p>
  </div>","66","html-slider-response","37","738991","0.0-5.0-3.5","57","1","2025-07-16 08:24:43","1f75c3e559b7213887762d5229550c2b","168.210.171.183","Mozilla/5.0 (Windows NT 10.0; Win64; x64) AppleWebKit/537.36 (KHTML, like Gecko) Chrome/138.0.0.0 Safari/537.36","WebKit","Chrome","138.0.0.0","Windows","10.0","https://app.prolific.com/","en-US,en;q=0.9","667abff30a4bfe675c592b14","686e379bc37a29ffa5cdc956","687761bae4e619d7f3480ebd","1","1","667abff30a4bfe675c592b14","1","1","2025-07-16T08:37:06.182Z","","","","","","","","","","","StressQ","","50","","","","","","","","","","","","","","","","","","","","","","","","","","","","",""
"5678","","<div style=""width:500px;"">
  <p>What best describes how you currently feel?</p>
  </div>","86","html-slider-response","38","744672","0.0-5.0-4.5","57","1","2025-07-16 08:24:43","1f75c3e559b7213887762d5229550c2b","168.210.171.183","Mozilla/5.0 (Windows NT 10.0; Win64; x64) AppleWebKit/537.36 (KHTML, like Gecko) Chrome/138.0.0.0 Safari/537.36","WebKit","Chrome","138.0.0.0","Windows","10.0","https://app.prolific.com/","en-US,en;q=0.9","667abff30a4bfe675c592b14","686e379bc37a29ffa5cdc956","687761bae4e619d7f3480ebd","1","1","667abff30a4bfe675c592b14","1","1","2025-07-16T08:37:11.863Z","","","","","","","","","","","MotivationQ","","50","","","","","","","","","","","","","","","","","","","","","","","","","","","","",""
"","","","","ctl-task-cpt","39","793550","0.0-5.0-0.6","57","1","2025-07-16 08:24:43","1f75c3e559b7213887762d5229550c2b","168.210.171.183","Mozilla/5.0 (Windows NT 10.0; Win64; x64) AppleWebKit/537.36 (KHTML, like Gecko) Chrome/138.0.0.0 Safari/537.36","WebKit","Chrome","138.0.0.0","Windows","10.0","https://app.prolific.com/","en-US,en;q=0.9","667abff30a4bfe675c592b14","686e379bc37a29ffa5cdc956","687761bae4e619d7f3480ebd","1","1","667abff30a4bfe675c592b14","1","1","2025-07-16T08:38:00.741Z","","","","","","","","","","","","","","win-only","2","g1:SE,g2:NW","0.4","7","0","749578.9","5161.2","10164.3","45862","1","4","8","6","2","-8","-9","2","11","0.015151515151515152","1741.3","3000","-1485","[""left"",""up""]","{""num_key_presses"":9,""num_perfect"":3,""num_errors"":1,""num_randdir"":5,""num_randdir_good_moves"":3,""num_whilered"":0,""num_whileblue"":1,""num_blue"":3,""num_good_moves"":6}","[297.22232142857143,289.12857142857143,0.7,297.22232142857143,289.12857142857143,102.2,297.22232142857143,289.12857142857143,203.6,297.22232142857143,289.12857142857143,314,297.22232142857143,289.12857142857143,418.4,297.22232142857143,289.12857142857143,520.5,490.22232142857143,455.12857142857143,627.2,500.22232142857143,491.12857142857143,729.4,352.22232142857143,364.12857142857143,842.7,193.22232142857143,131.12857142857143,958.9,175.22232142857143,102.12857142857143,1064.5,163.22232142857143,99.12857142857143,1171.1,124.22232142857143,86.12857142857143,1281.5,90.22232142857143,71.12857142857143,1391.6,86.22232142857143,68.12857142857143,1496.7,85.22232142857143,64.12857142857143,1607.4,85.22232142857143,64.12857142857143,1710.9,85.22232142857143,64.12857142857143,1812.4,85.22232142857143,64.12857142857143,1917.8,85.22232142857143,64.12857142857143,2023.4,85.22232142857143,64.12857142857143,2135.5,92.22232142857143,72.12857142857143,2238.2,415.22232142857143,444.12857142857143,2342.5,433.22232142857143,464.12857142857143,2448.9,426.22232142857143,468.12857142857143,2549.3,365.22232142857143,418.12857142857143,2650,341.22232142857143,378.12857142857143,2769.7,339.22232142857143,353.12857142857143,2882.6,339.22232142857143,353.12857142857143,2987.3,339.22232142857143,353.12857142857143,3104.8,339.22232142857143,353.12857142857143,3208,339.22232142857143,353.12857142857143,3312.2,339.22232142857143,353.12857142857143,3415.1,339.22232142857143,353.12857142857143,3516.8,339.22232142857143,353.12857142857143,3619.7,339.22232142857143,353.12857142857143,3723.8,339.22232142857143,353.12857142857143,3830.7,339.22232142857143,353.12857142857143,3931,339.22232142857143,353.12857142857143,4141.6,339.22232142857143,353.12857142857143,4243.8,339.22232142857143,353.12857142857143,4350.6,339.22232142857143,353.12857142857143,4454.5,339.22232142857143,353.12857142857143,4567.9,339.22232142857143,353.12857142857143,4671.4,339.22232142857143,353.12857142857143,4771.6,339.22232142857143,353.12857142857143,4881.5,339.22232142857143,353.12857142857143,4985.7]","[1680.7,1680.7,1000,0,680.7,""smooth"",""up"",""up"",""good_move"",4767,3085.3,2513.3,1681.7,572,""smooth"",""up"",""up"",""good_move"",15148.3,10380.1,3307.6,11257.7,583,""oops"",""up"",""up"",""good_move"",18161.3,3011.4,2377.8,15149.9,633.6,""oops"",""left"",""left"",""good_move"",20860.7,2698,2154.4,18162.7,543.6,""oops"",""left"",""right"",""bad_move"",24147.2,3285.2,2568,20862,717.2,""oops"",""left"",""left"",""good_move"",26822.7,2674,2177.4,24148.7,496.6,""oops"",""down"",""right"",""bad_move"",29969.2,3145.3,2413.8,26823.9,731.5,""smooth"",""left"",""left"",""good_move"",33423.7,3453.1,3096.5,29970.7,356.5,""while_blue"",""left"",""right"",""bad_move""]","",""
"5093","","<div style=""width:500px;"">
  <p>What determined the result of this run?</p>
  </div>","71","html-slider-response","40","798645","0.0-5.0-1.6","57","1","2025-07-16 08:24:43","1f75c3e559b7213887762d5229550c2b","168.210.171.183","Mozilla/5.0 (Windows NT 10.0; Win64; x64) AppleWebKit/537.36 (KHTML, like Gecko) Chrome/138.0.0.0 Safari/537.36","WebKit","Chrome","138.0.0.0","Windows","10.0","https://app.prolific.com/","en-US,en;q=0.9","667abff30a4bfe675c592b14","686e379bc37a29ffa5cdc956","687761bae4e619d7f3480ebd","1","1","667abff30a4bfe675c592b14","1","1","2025-07-16T08:38:05.836Z","","","","","","","","","","","AttribQ","","50","","","","","","","","","","","","","","","","","","","","","","","","","","","","",""
"3656","","<div style=""width:500px;"">
  <p>How much control did you have over the ball?</p>
  </div>","6","html-slider-response","41","802303","0.0-5.0-2.6","57","1","2025-07-16 08:24:43","1f75c3e559b7213887762d5229550c2b","168.210.171.183","Mozilla/5.0 (Windows NT 10.0; Win64; x64) AppleWebKit/537.36 (KHTML, like Gecko) Chrome/138.0.0.0 Safari/537.36","WebKit","Chrome","138.0.0.0","Windows","10.0","https://app.prolific.com/","en-US,en;q=0.9","667abff30a4bfe675c592b14","686e379bc37a29ffa5cdc956","687761bae4e619d7f3480ebd","1","1","667abff30a4bfe675c592b14","1","1","2025-07-16T08:38:09.495Z","","","","","","","","","","","ControlQ","","50","","","","","","","","","","","","","","","","","","","","","","","","","","","","",""
"4476","","<div style=""width:500px;"">
  <p>How would you describe your current emotional state?</p>
  </div>","66","html-slider-response","42","806787","0.0-5.0-3.6","57","1","2025-07-16 08:24:43","1f75c3e559b7213887762d5229550c2b","168.210.171.183","Mozilla/5.0 (Windows NT 10.0; Win64; x64) AppleWebKit/537.36 (KHTML, like Gecko) Chrome/138.0.0.0 Safari/537.36","WebKit","Chrome","138.0.0.0","Windows","10.0","https://app.prolific.com/","en-US,en;q=0.9","667abff30a4bfe675c592b14","686e379bc37a29ffa5cdc956","687761bae4e619d7f3480ebd","1","1","667abff30a4bfe675c592b14","1","1","2025-07-16T08:38:13.978Z","","","","","","","","","","","StressQ","","50","","","","","","","","","","","","","","","","","","","","","","","","","","","","",""
"3671","","<div style=""width:500px;"">
  <p>What best describes how you currently feel?</p>
  </div>","32","html-slider-response","43","810464","0.0-5.0-4.6","57","1","2025-07-16 08:24:43","1f75c3e559b7213887762d5229550c2b","168.210.171.183","Mozilla/5.0 (Windows NT 10.0; Win64; x64) AppleWebKit/537.36 (KHTML, like Gecko) Chrome/138.0.0.0 Safari/537.36","WebKit","Chrome","138.0.0.0","Windows","10.0","https://app.prolific.com/","en-US,en;q=0.9","667abff30a4bfe675c592b14","686e379bc37a29ffa5cdc956","687761bae4e619d7f3480ebd","1","1","667abff30a4bfe675c592b14","1","1","2025-07-16T08:38:17.655Z","","","","","","","","","","","MotivationQ","","50","","","","","","","","","","","","","","","","","","","","","","","","","","","","",""
"","","","","ctl-task-cpt","44","864116","0.0-5.0-0.7","57","1","2025-07-16 08:24:43","1f75c3e559b7213887762d5229550c2b","168.210.171.183","Mozilla/5.0 (Windows NT 10.0; Win64; x64) AppleWebKit/537.36 (KHTML, like Gecko) Chrome/138.0.0.0 Safari/537.36","WebKit","Chrome","138.0.0.0","Windows","10.0","https://app.prolific.com/","en-US,en;q=0.9","667abff30a4bfe675c592b14","686e379bc37a29ffa5cdc956","687761bae4e619d7f3480ebd","1","1","667abff30a4bfe675c592b14","1","1","2025-07-16T08:39:11.308Z","","","","","","","","","","","","","","win-only","1","g1:NE,g2:SW","0.3","8","0","815374.4","2964.6","7976","50621.2","1","4","4","6","2","-4","-4","0","2","0","1431.6","3000","-925","[""down"",""left""]","{""num_key_presses"":10,""num_perfect"":3,""num_errors"":0,""num_randdir"":7,""num_randdir_good_moves"":3,""num_whilered"":0,""num_whileblue"":0,""num_blue"":3,""num_good_moves"":6}","[301.22232142857143,297.12857142857143,1.1,301.22232142857143,297.12857142857143,108.2,301.22232142857143,297.12857142857143,212.9,301.22232142857143,297.12857142857143,318.8,301.22232142857143,297.12857142857143,430.5,301.22232142857143,297.12857142857143,532.2,301.22232142857143,297.12857142857143,635.6,245.22232142857143,345.12857142857143,744.4,50.222321428571426,530.1285714285714,857.1,37.222321428571426,540.1285714285714,966.6,34.222321428571426,542.1285714285714,1069.2,34.222321428571426,539.1285714285714,1174.5,34.222321428571426,539.1285714285714,1276,34.222321428571426,539.1285714285714,1382.7,34.222321428571426,539.1285714285714,1493.5,34.222321428571426,539.1285714285714,1596.1,34.222321428571426,539.1285714285714,1715.2,34.222321428571426,539.1285714285714,1818,34.222321428571426,539.1285714285714,1922.9,34.222321428571426,539.1285714285714,2043.2,34.222321428571426,539.1285714285714,2145.4,266.22232142857143,424.12857142857143,2245.7,313.22232142857143,367.12857142857143,2347.3,317.22232142857143,338.12857142857143,2459.4,329.22232142857143,302.12857142857143,2563.1,352.22232142857143,269.12857142857143,2663.2,356.22232142857143,263.12857142857143,2763.7,356.22232142857143,263.12857142857143,2864.8,356.22232142857143,263.12857142857143,2967.2,356.22232142857143,263.12857142857143,3075.3,356.22232142857143,263.12857142857143,3184.6,356.22232142857143,263.12857142857143,3291.3,356.22232142857143,263.12857142857143,3393.4,356.22232142857143,263.12857142857143,3498.8,356.22232142857143,263.12857142857143,3607.4,356.22232142857143,263.12857142857143,3707.4,356.22232142857143,263.12857142857143,3810.2,356.22232142857143,263.12857142857143,3915.4,356.22232142857143,263.12857142857143,4019.8,356.22232142857143,263.12857142857143,4128.4,356.22232142857143,263.12857142857143,4231.2,356.22232142857143,263.12857142857143,4334.3,356.22232142857143,263.12857142857143,4434.3,356.22232142857143,263.12857142857143,4537.9,356.22232142857143,263.12857142857143,4647.8,356.22232142857143,263.12857142857143,4758,356.22232142857143,263.12857142857143,4863.7,356.22232142857143,263.12857142857143,4964.9]","[1705.6,1705.6,1000,0,705.6,""oops"",""down"",""up"",""bad_move"",11557.5,9851.1,2455.4,8638.9,463.3,""oops"",""left"",""left"",""good_move"",14121.7,2559,1966.3,11562.8,592.6,""oops"",""left"",""right"",""bad_move"",17037.3,2914.3,2351.4,14123.1,562.9,""smooth"",""left"",""left"",""good_move"",20472.9,3434.1,2992,17038.9,442,""smooth"",""down"",""down"",""good_move"",23437.2,2963,2446.3,20474.2,516.7,""smooth"",""down"",""down"",""good_move"",26654.2,3215.8,2701.6,23438.4,514.2,""oops"",""down"",""right"",""bad_move"",34103.5,7448.3,3037.6,30539.5,526.4,""oops"",""down"",""down"",""good_move"",37343.2,3239,2751.2,34104.2,487.8,""oops"",""left"",""right"",""bad_move"",40959.2,3615.4,3156.5,37343.8,458.9,""oops"",""down"",""down"",""good_move""]","",""
"5823","","<div style=""width:500px;"">
  <p>What determined the result of this run?</p>
  </div>","65","html-slider-response","45","869943","0.0-5.0-1.7","57","1","2025-07-16 08:24:43","1f75c3e559b7213887762d5229550c2b","168.210.171.183","Mozilla/5.0 (Windows NT 10.0; Win64; x64) AppleWebKit/537.36 (KHTML, like Gecko) Chrome/138.0.0.0 Safari/537.36","WebKit","Chrome","138.0.0.0","Windows","10.0","https://app.prolific.com/","en-US,en;q=0.9","667abff30a4bfe675c592b14","686e379bc37a29ffa5cdc956","687761bae4e619d7f3480ebd","1","1","667abff30a4bfe675c592b14","1","1","2025-07-16T08:39:17.134Z","","","","","","","","","","","AttribQ","","50","","","","","","","","","","","","","","","","","","","","","","","","","","","","",""
"3085","","<div style=""width:500px;"">
  <p>How much control did you have over the ball?</p>
  </div>","0","html-slider-response","46","873032","0.0-5.0-2.7","57","1","2025-07-16 08:24:43","1f75c3e559b7213887762d5229550c2b","168.210.171.183","Mozilla/5.0 (Windows NT 10.0; Win64; x64) AppleWebKit/537.36 (KHTML, like Gecko) Chrome/138.0.0.0 Safari/537.36","WebKit","Chrome","138.0.0.0","Windows","10.0","https://app.prolific.com/","en-US,en;q=0.9","667abff30a4bfe675c592b14","686e379bc37a29ffa5cdc956","687761bae4e619d7f3480ebd","1","1","667abff30a4bfe675c592b14","1","1","2025-07-16T08:39:20.223Z","","","","","","","","","","","ControlQ","","50","","","","","","","","","","","","","","","","","","","","","","","","","","","","",""
"3365","","<div style=""width:500px;"">
  <p>How would you describe your current emotional state?</p>
  </div>","67","html-slider-response","47","876402","0.0-5.0-3.7","57","1","2025-07-16 08:24:43","1f75c3e559b7213887762d5229550c2b","168.210.171.183","Mozilla/5.0 (Windows NT 10.0; Win64; x64) AppleWebKit/537.36 (KHTML, like Gecko) Chrome/138.0.0.0 Safari/537.36","WebKit","Chrome","138.0.0.0","Windows","10.0","https://app.prolific.com/","en-US,en;q=0.9","667abff30a4bfe675c592b14","686e379bc37a29ffa5cdc956","687761bae4e619d7f3480ebd","1","1","667abff30a4bfe675c592b14","1","1","2025-07-16T08:39:23.593Z","","","","","","","","","","","StressQ","","50","","","","","","","","","","","","","","","","","","","","","","","","","","","","",""
"4422","","<div style=""width:500px;"">
  <p>What best describes how you currently feel?</p>
  </div>","67","html-slider-response","48","880828","0.0-5.0-4.7","57","1","2025-07-16 08:24:43","1f75c3e559b7213887762d5229550c2b","168.210.171.183","Mozilla/5.0 (Windows NT 10.0; Win64; x64) AppleWebKit/537.36 (KHTML, like Gecko) Chrome/138.0.0.0 Safari/537.36","WebKit","Chrome","138.0.0.0","Windows","10.0","https://app.prolific.com/","en-US,en;q=0.9","667abff30a4bfe675c592b14","686e379bc37a29ffa5cdc956","687761bae4e619d7f3480ebd","1","1","667abff30a4bfe675c592b14","1","1","2025-07-16T08:39:28.019Z","","","","","","","","","","","MotivationQ","","50","","","","","","","","","","","","","","","","","","","","","","","","","","","","",""
"","","","","ctl-task-cpt","49","943247","0.0-5.0-0.8","57","1","2025-07-16 08:24:43","1f75c3e559b7213887762d5229550c2b","168.210.171.183","Mozilla/5.0 (Windows NT 10.0; Win64; x64) AppleWebKit/537.36 (KHTML, like Gecko) Chrome/138.0.0.0 Safari/537.36","WebKit","Chrome","138.0.0.0","Windows","10.0","https://app.prolific.com/","en-US,en;q=0.9","667abff30a4bfe675c592b14","686e379bc37a29ffa5cdc956","687761bae4e619d7f3480ebd","1","1","667abff30a4bfe675c592b14","1","1","2025-07-16T08:40:30.439Z","","","","","","","","","","","","","","win-only","2","g1:SE,g2:NW","0.2","9","0","885740.8","1420.9","6428.1","59393.1","1","4","8","6","2","-8","-8","0","0","0","1446.8","3000","-1400","[""left"",""up""]","{""num_key_presses"":12,""num_perfect"":2,""num_errors"":0,""num_randdir"":10,""num_randdir_good_moves"":5,""num_whilered"":0,""num_whileblue"":0,""num_blue"":4,""num_good_moves"":7}","[293.22232142857143,298.12857142857143,1,293.22232142857143,298.12857142857143,105.4,293.22232142857143,298.12857142857143,208.8,293.22232142857143,298.12857142857143,311.5,293.22232142857143,298.12857142857143,420.7,293.22232142857143,298.12857142857143,529.4,303.22232142857143,313.12857142857143,629.7,198.22232142857143,246.12857142857143,741.7,112.22232142857143,135.12857142857143,850.8,85.22232142857143,75.12857142857143,951.6,84.22232142857143,72.12857142857143,1059.9,81.22232142857143,70.12857142857143,1163.1,81.22232142857143,70.12857142857143,1272.6,81.22232142857143,70.12857142857143,1383.7,81.22232142857143,70.12857142857143,1486.4,81.22232142857143,70.12857142857143,1590.1,81.22232142857143,70.12857142857143,1704.4,81.22232142857143,70.12857142857143,1809.2,81.22232142857143,70.12857142857143,1909.4,81.22232142857143,70.12857142857143,2012.4,81.22232142857143,70.12857142857143,2123.5,253.22232142857143,278.12857142857143,2238.4,271.22232142857143,313.12857142857143,2351.3,271.22232142857143,314.12857142857143,2460.2,271.22232142857143,314.12857142857143,2575.4,271.22232142857143,314.12857142857143,2697,271.22232142857143,314.12857142857143,2804.4,271.22232142857143,314.12857142857143,2908,271.22232142857143,314.12857142857143,3008.6,271.22232142857143,314.12857142857143,3109.1,271.22232142857143,314.12857142857143,3214.5,271.22232142857143,314.12857142857143,3318.5,271.22232142857143,314.12857142857143,3419.1,271.22232142857143,314.12857142857143,3531.5,271.22232142857143,314.12857142857143,3644.3,271.22232142857143,314.12857142857143,3759,271.22232142857143,314.12857142857143,3868.2,271.22232142857143,314.12857142857143,3979.8,271.22232142857143,314.12857142857143,4080.8,271.22232142857143,314.12857142857143,4182.4,271.22232142857143,314.12857142857143,4289.2,271.22232142857143,314.12857142857143,4401,271.22232142857143,314.12857142857143,4513.3,271.22232142857143,314.12857142857143,4638.9,271.22232142857143,314.12857142857143,4740.3,271.22232142857143,314.12857142857143,4841.4,271.22232142857143,314.12857142857143,4947.1]","[5070.3,5070.3,2556.9,2015.9,497.5,""smooth"",""left"",""left"",""good_move"",8486.7,3414.9,2833.9,5071.8,581,""oops"",""left"",""left"",""good_move"",11519.7,3029.6,2477.7,8490.2,551.9,""oops"",""up"",""right"",""bad_move"",18002.4,6480.1,2464.6,15088.7,449.1,""oops"",""up"",""down"",""bad_move"",20865.2,2859.5,2395.4,18005.7,464.1,""smooth"",""left"",""left"",""good_move"",24107.7,3241.2,2772.9,20866.5,468.3,""oops"",""left"",""left"",""good_move"",27256.4,3147.3,2755.5,24109.1,391.8,""oops"",""up"",""up"",""good_move"",30364.6,3106.7,2644.9,27258,461.8,""oops"",""up"",""down"",""bad_move"",33704.3,3338.5,2908.2,30366,430.3,""oops"",""up"",""down"",""bad_move"",40701.3,6995.5,2599.9,37732.6,368.8,""oops"",""up"",""right"",""bad_move"",47199.6,6493.1,2142.1,44596.9,460.6,""oops"",""up"",""left"",""good_move"",50217.1,3016.6,2551.5,47200.5,465.1,""oops"",""up"",""left"",""good_move""]","",""
"9897","","<div style=""width:500px;"">
  <p>What determined the result of this run?</p>
  </div>","70","html-slider-response","50","953147","0.0-5.0-1.8","57","1","2025-07-16 08:24:43","1f75c3e559b7213887762d5229550c2b","168.210.171.183","Mozilla/5.0 (Windows NT 10.0; Win64; x64) AppleWebKit/537.36 (KHTML, like Gecko) Chrome/138.0.0.0 Safari/537.36","WebKit","Chrome","138.0.0.0","Windows","10.0","https://app.prolific.com/","en-US,en;q=0.9","667abff30a4bfe675c592b14","686e379bc37a29ffa5cdc956","687761bae4e619d7f3480ebd","1","1","667abff30a4bfe675c592b14","1","1","2025-07-16T08:40:40.339Z","","","","","","","","","","","AttribQ","","50","","","","","","","","","","","","","","","","","","","","","","","","","","","","",""
"2937","","<div style=""width:500px;"">
  <p>How much control did you have over the ball?</p>
  </div>","0","html-slider-response","51","956090","0.0-5.0-2.8","57","1","2025-07-16 08:24:43","1f75c3e559b7213887762d5229550c2b","168.210.171.183","Mozilla/5.0 (Windows NT 10.0; Win64; x64) AppleWebKit/537.36 (KHTML, like Gecko) Chrome/138.0.0.0 Safari/537.36","WebKit","Chrome","138.0.0.0","Windows","10.0","https://app.prolific.com/","en-US,en;q=0.9","667abff30a4bfe675c592b14","686e379bc37a29ffa5cdc956","687761bae4e619d7f3480ebd","1","1","667abff30a4bfe675c592b14","1","1","2025-07-16T08:40:43.281Z","","","","","","","","","","","ControlQ","","50","","","","","","","","","","","","","","","","","","","","","","","","","","","","",""
"2844","","<div style=""width:500px;"">
  <p>How would you describe your current emotional state?</p>
  </div>","79","html-slider-response","52","958939","0.0-5.0-3.8","57","1","2025-07-16 08:24:43","1f75c3e559b7213887762d5229550c2b","168.210.171.183","Mozilla/5.0 (Windows NT 10.0; Win64; x64) AppleWebKit/537.36 (KHTML, like Gecko) Chrome/138.0.0.0 Safari/537.36","WebKit","Chrome","138.0.0.0","Windows","10.0","https://app.prolific.com/","en-US,en;q=0.9","667abff30a4bfe675c592b14","686e379bc37a29ffa5cdc956","687761bae4e619d7f3480ebd","1","1","667abff30a4bfe675c592b14","1","1","2025-07-16T08:40:46.130Z","","","","","","","","","","","StressQ","","50","","","","","","","","","","","","","","","","","","","","","","","","","","","","",""
"3813","","<div style=""width:500px;"">
  <p>What best describes how you currently feel?</p>
  </div>","55","html-slider-response","53","962754","0.0-5.0-4.8","57","1","2025-07-16 08:24:43","1f75c3e559b7213887762d5229550c2b","168.210.171.183","Mozilla/5.0 (Windows NT 10.0; Win64; x64) AppleWebKit/537.36 (KHTML, like Gecko) Chrome/138.0.0.0 Safari/537.36","WebKit","Chrome","138.0.0.0","Windows","10.0","https://app.prolific.com/","en-US,en;q=0.9","667abff30a4bfe675c592b14","686e379bc37a29ffa5cdc956","687761bae4e619d7f3480ebd","1","1","667abff30a4bfe675c592b14","1","1","2025-07-16T08:40:49.945Z","","","","","","","","","","","MotivationQ","","50","","","","","","","","","","","","","","","","","","","","","","","","","","","","",""
"","","","","ctl-task-cpt","54","1036223","0.0-5.0-0.9","57","1","2025-07-16 08:24:43","1f75c3e559b7213887762d5229550c2b","168.210.171.183","Mozilla/5.0 (Windows NT 10.0; Win64; x64) AppleWebKit/537.36 (KHTML, like Gecko) Chrome/138.0.0.0 Safari/537.36","WebKit","Chrome","138.0.0.0","Windows","10.0","https://app.prolific.com/","en-US,en;q=0.9","667abff30a4bfe675c592b14","686e379bc37a29ffa5cdc956","687761bae4e619d7f3480ebd","1","1","667abff30a4bfe675c592b14","1","1","2025-07-16T08:42:03.414Z","","","","","","","","","","","","","","win-only","2","g1:SE,g2:NW","0.4","10","0","967670.9","2187.9","7197.3","70443.3","1","4","4","6","2","-4","-4","0","0","0","2416","3000","-1480","[""left"",""up""]","{""num_key_presses"":13,""num_perfect"":6,""num_errors"":0,""num_randdir"":7,""num_randdir_good_moves"":2,""num_whilered"":0,""num_whileblue"":0,""num_blue"":7,""num_good_moves"":8}","[295.22232142857143,287.12857142857143,0.7,295.22232142857143,287.12857142857143,104,295.22232142857143,287.12857142857143,205.4,295.22232142857143,287.12857142857143,314.1,295.22232142857143,287.12857142857143,432.1,295.22232142857143,287.12857142857143,538.8,295.22232142857143,287.12857142857143,646.7,341.22232142857143,373.12857142857143,754,466.22232142857143,569.1285714285714,863.5,477.22232142857143,580.1285714285714,974.5,243.22232142857143,215.12857142857143,1099.6,157.22232142857143,50.128571428571426,1214,134.22232142857143,31.128571428571426,1326.2,134.22232142857143,31.128571428571426,1436.9,134.22232142857143,31.128571428571426,1540.7,58.222321428571426,41.128571428571426,1649.5,40.222321428571426,45.128571428571426,1750.1,41.222321428571426,45.128571428571426,1852.8,42.222321428571426,45.128571428571426,1954.2,44.222321428571426,44.128571428571426,2064,46.222321428571426,43.128571428571426,2166.4,47.222321428571426,43.128571428571426,2274.7,47.222321428571426,43.128571428571426,2378.4,47.222321428571426,43.128571428571426,2483,47.222321428571426,43.128571428571426,2587,47.222321428571426,43.128571428571426,2688.9,47.222321428571426,43.128571428571426,2791.8,47.222321428571426,43.128571428571426,2897.7,47.222321428571426,43.128571428571426,3003.2,212.22232142857143,209.12857142857143,3108.2,333.22232142857143,367.12857142857143,3208.4,335.22232142857143,369.12857142857143,3322.9,335.22232142857143,369.12857142857143,3426.7,335.22232142857143,369.12857142857143,3530.4,335.22232142857143,369.12857142857143,3641.1,335.22232142857143,369.12857142857143,3759.5,335.22232142857143,369.12857142857143,3865,335.22232142857143,369.12857142857143,3972.5,335.22232142857143,369.12857142857143,4075.5,335.22232142857143,369.12857142857143,4183.8,335.22232142857143,369.12857142857143,4288.3,335.22232142857143,369.12857142857143,4404.1,335.22232142857143,369.12857142857143,4511.7,335.22232142857143,369.12857142857143,4616.6,335.22232142857143,369.12857142857143,4717.8,335.22232142857143,369.12857142857143,4821.4,335.22232142857143,369.12857142857143,4925.1]","[4713.8,4713.7,2192.1,2005.1,516.6,""smooth"",""left"",""left"",""good_move"",11645.7,6930.9,2423.4,8703.3,519,""smooth"",""up"",""up"",""good_move"",21274,9626,2224.2,18617.6,432.2,""smooth"",""left"",""left"",""good_move"",24414.8,3139.3,2567.2,21275.5,572.1,""oops"",""left"",""right"",""bad_move"",27126,2709.6,2179.2,24416.4,530.4,""oops"",""up"",""right"",""bad_move"",29995.7,2867.2,2366.5,27128.5,500.8,""smooth"",""up"",""up"",""good_move"",32958.5,2960.7,2442.9,29997.9,517.8,""oops"",""up"",""up"",""good_move"",39712.5,6752.6,1999.5,37276.2,436.8,""oops"",""left"",""left"",""good_move"",42403.7,2688.5,1875.6,39715.2,812.9,""oops"",""left"",""down"",""bad_move"",45438.3,3033,2547.1,42405.3,485.9,""oops"",""left"",""down"",""bad_move"",48570.4,3130.5,2601.5,45439.9,529,""oops"",""left"",""down"",""bad_move"",51083.6,2511.8,1790.6,48571.8,721.2,""smooth"",""up"",""up"",""good_move"",54201.5,3116.6,2570.1,51085.1,546.4,""smooth"",""up"",""up"",""good_move""]","",""
"5743","","<div style=""width:500px;"">
  <p>What determined the result of this run?</p>
  </div>","64","html-slider-response","55","1041966","0.0-5.0-1.9","57","1","2025-07-16 08:24:43","1f75c3e559b7213887762d5229550c2b","168.210.171.183","Mozilla/5.0 (Windows NT 10.0; Win64; x64) AppleWebKit/537.36 (KHTML, like Gecko) Chrome/138.0.0.0 Safari/537.36","WebKit","Chrome","138.0.0.0","Windows","10.0","https://app.prolific.com/","en-US,en;q=0.9","667abff30a4bfe675c592b14","686e379bc37a29ffa5cdc956","687761bae4e619d7f3480ebd","1","1","667abff30a4bfe675c592b14","1","1","2025-07-16T08:42:09.158Z","","","","","","","","","","","AttribQ","","50","","","","","","","","","","","","","","","","","","","","","","","","","","","","",""
"5265","","<div style=""width:500px;"">
  <p>How much control did you have over the ball?</p>
  </div>","0","html-slider-response","56","1047235","0.0-5.0-2.9","57","1","2025-07-16 08:24:43","1f75c3e559b7213887762d5229550c2b","168.210.171.183","Mozilla/5.0 (Windows NT 10.0; Win64; x64) AppleWebKit/537.36 (KHTML, like Gecko) Chrome/138.0.0.0 Safari/537.36","WebKit","Chrome","138.0.0.0","Windows","10.0","https://app.prolific.com/","en-US,en;q=0.9","667abff30a4bfe675c592b14","686e379bc37a29ffa5cdc956","687761bae4e619d7f3480ebd","1","1","667abff30a4bfe675c592b14","1","1","2025-07-16T08:42:14.426Z","","","","","","","","","","","ControlQ","","50","","","","","","","","","","","","","","","","","","","","","","","","","","","","",""
"4329","","<div style=""width:500px;"">
  <p>How would you describe your current emotional state?</p>
  </div>","32","html-slider-response","57","1051568","0.0-5.0-3.9","57","1","2025-07-16 08:24:43","1f75c3e559b7213887762d5229550c2b","168.210.171.183","Mozilla/5.0 (Windows NT 10.0; Win64; x64) AppleWebKit/537.36 (KHTML, like Gecko) Chrome/138.0.0.0 Safari/537.36","WebKit","Chrome","138.0.0.0","Windows","10.0","https://app.prolific.com/","en-US,en;q=0.9","667abff30a4bfe675c592b14","686e379bc37a29ffa5cdc956","687761bae4e619d7f3480ebd","1","1","667abff30a4bfe675c592b14","1","1","2025-07-16T08:42:18.759Z","","","","","","","","","","","StressQ","","50","","","","","","","","","","","","","","","","","","","","","","","","","","","","",""
"3927","","<div style=""width:500px;"">
  <p>What best describes how you currently feel?</p>
  </div>","61","html-slider-response","58","1055501","0.0-5.0-4.9","57","1","2025-07-16 08:24:43","1f75c3e559b7213887762d5229550c2b","168.210.171.183","Mozilla/5.0 (Windows NT 10.0; Win64; x64) AppleWebKit/537.36 (KHTML, like Gecko) Chrome/138.0.0.0 Safari/537.36","WebKit","Chrome","138.0.0.0","Windows","10.0","https://app.prolific.com/","en-US,en;q=0.9","667abff30a4bfe675c592b14","686e379bc37a29ffa5cdc956","687761bae4e619d7f3480ebd","1","1","667abff30a4bfe675c592b14","1","1","2025-07-16T08:42:22.692Z","","","","","","","","","","","MotivationQ","","50","","","","","","","","","","","","","","","","","","","","","","","","","","","","",""
"","","","","ctl-task-cpt","59","1118561","0.0-5.0-0.10","57","1","2025-07-16 08:24:43","1f75c3e559b7213887762d5229550c2b","168.210.171.183","Mozilla/5.0 (Windows NT 10.0; Win64; x64) AppleWebKit/537.36 (KHTML, like Gecko) Chrome/138.0.0.0 Safari/537.36","WebKit","Chrome","138.0.0.0","Windows","10.0","https://app.prolific.com/","en-US,en;q=0.9","667abff30a4bfe675c592b14","686e379bc37a29ffa5cdc956","687761bae4e619d7f3480ebd","1","1","667abff30a4bfe675c592b14","1","1","2025-07-16T08:43:25.752Z","","","","","","","","","","","","","","win-only","3","g1:SW,g2:NE","0.5","11","0","1060423.7","1380.7","6384.1","60020.4","1","4","4","6","2","4","4","4","0","0.030303030303030304","1293.8","3000","195","[""up"",""right""]","{""num_key_presses"":14,""num_perfect"":8,""num_errors"":0,""num_randdir"":6,""num_randdir_good_moves"":2,""num_whilered"":0,""num_whileblue"":0,""num_blue"":3,""num_good_moves"":10}","[294.22232142857143,290.12857142857143,0.5,294.22232142857143,290.12857142857143,114.7,294.22232142857143,290.12857142857143,218.4,294.22232142857143,290.12857142857143,323.8,294.22232142857143,290.12857142857143,442,294.22232142857143,290.12857142857143,543,461.22232142857143,150.12857142857143,648.7,519.2223214285714,98.12857142857143,759.7,538.2223214285714,78.12857142857143,870,549.2223214285714,65.12857142857143,975.3,549.2223214285714,63.128571428571426,1079.9,549.2223214285714,63.128571428571426,1180.3,549.2223214285714,63.128571428571426,1284.6,549.2223214285714,63.128571428571426,1390.2,549.2223214285714,63.128571428571426,1492.3,549.2223214285714,63.128571428571426,1605.9,549.2223214285714,63.128571428571426,1722,549.2223214285714,63.128571428571426,1826.6,549.2223214285714,63.128571428571426,1931.9,517.2223214285714,111.12857142857143,2035.5,429.22232142857143,287.12857142857143,2150.9,416.22232142857143,317.12857142857143,2266.2,416.22232142857143,317.12857142857143,2371.8,416.22232142857143,317.12857142857143,2481.9,416.22232142857143,317.12857142857143,2591.9,416.22232142857143,317.12857142857143,2703.9,416.22232142857143,317.12857142857143,2805.2,416.22232142857143,317.12857142857143,2906.8,416.22232142857143,317.12857142857143,3008.5,416.22232142857143,317.12857142857143,3118.3,416.22232142857143,317.12857142857143,3232.9,416.22232142857143,317.12857142857143,3359.1,416.22232142857143,317.12857142857143,3461.1,416.22232142857143,317.12857142857143,3562.9,416.22232142857143,317.12857142857143,3670.5,416.22232142857143,317.12857142857143,3779.8,416.22232142857143,317.12857142857143,3882.7,416.22232142857143,317.12857142857143,3990.8,416.22232142857143,317.12857142857143,4090.8,416.22232142857143,317.12857142857143,4192.3,416.22232142857143,317.12857142857143,4293.8,416.22232142857143,317.12857142857143,4396.1,416.22232142857143,317.12857142857143,4497.3,416.22232142857143,317.12857142857143,4608.3,416.22232142857143,317.12857142857143,4708.5,416.22232142857143,317.12857142857143,4811.3,416.22232142857143,317.12857142857143,4919.5]","[1570.4,1570.4,1000,0,570.4,""smooth"",""up"",""up"",""good_move"",5932.6,4360.1,3799.7,1572.5,560.4,""smooth"",""up"",""up"",""good_move"",9723,3787.4,2684.8,5935.6,1102.6,""oops"",""up"",""left"",""bad_move"",12535.5,2808.9,2325.1,9726.6,483.8,""smooth"",""up"",""up"",""good_move"",15414.9,2878.1,2446.9,12536.9,431.1,""smooth"",""right"",""right"",""good_move"",18089.4,2673.1,2227.7,15416.3,445.4,""oops"",""right"",""right"",""good_move"",24470.9,6379.7,2501.4,21526.3,443.2,""smooth"",""right"",""right"",""good_move"",27612.3,3140.8,2654.1,24471.6,486.7,""oops"",""right"",""down"",""bad_move"",30526.6,2896.8,2368.5,27629.8,528.3,""oops"",""right"",""right"",""good_move"",40498.2,9970.4,2766.9,37339.4,391.9,""oops"",""up"",""down"",""bad_move"",43201.1,2696.4,2176.6,40504.7,519.8,""oops"",""down"",""down"",""bad_move"",46520.7,3318.6,2877.2,43202.1,441.4,""smooth"",""up"",""up"",""good_move"",50290.4,3767.9,3350.3,46522.5,417.6,""smooth"",""up"",""up"",""good_move"",53465.7,3174.4,2747.7,50291.3,426.8,""smooth"",""up"",""up"",""good_move""]","",""
"13017","","<div style=""width:500px;"">
  <p>What determined the result of this run?</p>
  </div>","51","html-slider-response","60","1131582","0.0-5.0-1.10","57","1","2025-07-16 08:24:43","1f75c3e559b7213887762d5229550c2b","168.210.171.183","Mozilla/5.0 (Windows NT 10.0; Win64; x64) AppleWebKit/537.36 (KHTML, like Gecko) Chrome/138.0.0.0 Safari/537.36","WebKit","Chrome","138.0.0.0","Windows","10.0","https://app.prolific.com/","en-US,en;q=0.9","667abff30a4bfe675c592b14","686e379bc37a29ffa5cdc956","687761bae4e619d7f3480ebd","1","1","667abff30a4bfe675c592b14","1","1","2025-07-16T08:43:38.773Z","","","","","","","","","","","AttribQ","","50","","","","","","","","","","","","","","","","","","","","","","","","","","","","",""
"7358","","<div style=""width:500px;"">
  <p>How much control did you have over the ball?</p>
  </div>","32","html-slider-response","61","1138945","0.0-5.0-2.10","57","1","2025-07-16 08:24:43","1f75c3e559b7213887762d5229550c2b","168.210.171.183","Mozilla/5.0 (Windows NT 10.0; Win64; x64) AppleWebKit/537.36 (KHTML, like Gecko) Chrome/138.0.0.0 Safari/537.36","WebKit","Chrome","138.0.0.0","Windows","10.0","https://app.prolific.com/","en-US,en;q=0.9","667abff30a4bfe675c592b14","686e379bc37a29ffa5cdc956","687761bae4e619d7f3480ebd","1","1","667abff30a4bfe675c592b14","1","1","2025-07-16T08:43:46.136Z","","","","","","","","","","","ControlQ","","50","","","","","","","","","","","","","","","","","","","","","","","","","","","","",""
"10823","","<div style=""width:500px;"">
  <p>How would you describe your current emotional state?</p>
  </div>","60","html-slider-response","62","1149771","0.0-5.0-3.10","57","1","2025-07-16 08:24:43","1f75c3e559b7213887762d5229550c2b","168.210.171.183","Mozilla/5.0 (Windows NT 10.0; Win64; x64) AppleWebKit/537.36 (KHTML, like Gecko) Chrome/138.0.0.0 Safari/537.36","WebKit","Chrome","138.0.0.0","Windows","10.0","https://app.prolific.com/","en-US,en;q=0.9","667abff30a4bfe675c592b14","686e379bc37a29ffa5cdc956","687761bae4e619d7f3480ebd","1","1","667abff30a4bfe675c592b14","1","1","2025-07-16T08:43:56.962Z","","","","","","","","","","","StressQ","","50","","","","","","","","","","","","","","","","","","","","","","","","","","","","",""
"45452","","<div style=""width:500px;"">
  <p>What best describes how you currently feel?</p>
  </div>","45","html-slider-response","63","1195224","0.0-5.0-4.10","57","1","2025-07-16 08:24:43","1f75c3e559b7213887762d5229550c2b","168.210.171.183","Mozilla/5.0 (Windows NT 10.0; Win64; x64) AppleWebKit/537.36 (KHTML, like Gecko) Chrome/138.0.0.0 Safari/537.36","WebKit","Chrome","138.0.0.0","Windows","10.0","https://app.prolific.com/","en-US,en;q=0.9","667abff30a4bfe675c592b14","686e379bc37a29ffa5cdc956","687761bae4e619d7f3480ebd","1","1","667abff30a4bfe675c592b14","1","1","2025-07-16T08:44:42.415Z","","","","","","","","","","","MotivationQ","","50","","","","","","","","","","","","","","","","","","","","","","","","","","","","",""
"","","","","ctl-task-cpt","64","1245641","0.0-5.0-0.11","57","1","2025-07-16 08:24:43","1f75c3e559b7213887762d5229550c2b","168.210.171.183","Mozilla/5.0 (Windows NT 10.0; Win64; x64) AppleWebKit/537.36 (KHTML, like Gecko) Chrome/138.0.0.0 Safari/537.36","WebKit","Chrome","138.0.0.0","Windows","10.0","https://app.prolific.com/","en-US,en;q=0.9","667abff30a4bfe675c592b14","686e379bc37a29ffa5cdc956","687761bae4e619d7f3480ebd","1","1","667abff30a4bfe675c592b14","1","1","2025-07-16T08:45:32.832Z","","","","","","","","","","","","","","win-only","0","g1:NW,g2:SE","0.6","12","0","1200155.6","2118.6","7133.8","47392.7","1","4","8","6","2","8","8","12","4","0.09090909090909091","1505.3","3000","1250","[""down"",""right""]","{""num_key_presses"":10,""num_perfect"":6,""num_errors"":0,""num_randdir"":4,""num_randdir_good_moves"":2,""num_whilered"":0,""num_whileblue"":0,""num_blue"":3,""num_good_moves"":8}","[293.22232142857143,299.12857142857143,1.8,293.22232142857143,299.12857142857143,114.9,293.22232142857143,299.12857142857143,232.5,293.22232142857143,299.12857142857143,349.7,293.22232142857143,299.12857142857143,459.1,293.22232142857143,299.12857142857143,566.2,293.22232142857143,299.12857142857143,667.3,510.22232142857143,558.1285714285714,775.2,551.2223214285714,616.1285714285714,890.8,551.2223214285714,616.1285714285714,994.9,539.2223214285714,540.1285714285714,1115.4,536.2223214285714,534.1285714285714,1231.2,536.2223214285714,534.1285714285714,1340.8,536.2223214285714,534.1285714285714,1441.7,536.2223214285714,534.1285714285714,1587.5,536.2223214285714,534.1285714285714,1688.1,536.2223214285714,534.1285714285714,1804,536.2223214285714,534.1285714285714,1914,536.2223214285714,534.1285714285714,2034,536.2223214285714,534.1285714285714,2144.6,536.2223214285714,534.1285714285714,2254.5,536.2223214285714,534.1285714285714,2368.1,536.2223214285714,534.1285714285714,2487.5,536.2223214285714,534.1285714285714,2604.4,536.2223214285714,534.1285714285714,2720.9,536.2223214285714,534.1285714285714,2836,536.2223214285714,534.1285714285714,2956.7,536.2223214285714,534.1285714285714,3079.3,536.2223214285714,534.1285714285714,3196.9,536.2223214285714,534.1285714285714,3314.8,536.2223214285714,534.1285714285714,3418.7,536.2223214285714,534.1285714285714,3527.1,536.2223214285714,534.1285714285714,3632.4,536.2223214285714,534.1285714285714,3737.5,536.2223214285714,534.1285714285714,3841.6,536.2223214285714,534.1285714285714,3948.8,536.2223214285714,534.1285714285714,4060.1,536.2223214285714,534.1285714285714,4163.7,536.2223214285714,534.1285714285714,4263.8,536.2223214285714,534.1285714285714,4371.1,536.2223214285714,534.1285714285714,4476.2,536.2223214285714,534.1285714285714,4581.3,536.2223214285714,534.1285714285714,4685.6,536.2223214285714,534.1285714285714,4796.5,536.2223214285714,534.1285714285714,4897.6,536.2223214285714,534.1285714285714,4997.6]","[1672.2,1672.1,1000,0.1,672.1,""oops"",""down"",""left"",""bad_move"",5407.7,3734.1,2176,1673.6,1558.1,""smooth"",""down"",""down"",""good_move"",8764.6,3351.7,2659.1,5412.9,692.6,""smooth"",""down"",""down"",""good_move"",11174.7,2407.4,1840.6,8767.3,566.8,""oops"",""down"",""up"",""bad_move"",14374.8,3198.6,1996.5,11176.2,1202.1,""smooth"",""right"",""right"",""good_move"",21147.7,6769.6,2645.7,18104.7,397.3,""oops"",""down"",""right"",""good_move"",31169.3,10020.8,2462.7,28277.5,429.1,""smooth"",""down"",""down"",""good_move"",33087.4,1917.1,1211.4,31170.3,705.7,""oops"",""down"",""right"",""good_move"",36672.3,3583.5,3165,33088.8,418.5,""smooth"",""down"",""down"",""good_move"",39940,3266.3,2874.6,36673.7,391.7,""smooth"",""right"",""right"",""good_move""]","",""
"4582","","<div style=""width:500px;"">
  <p>What determined the result of this run?</p>
  </div>","60","html-slider-response","65","1250228","0.0-5.0-1.11","57","1","2025-07-16 08:24:43","1f75c3e559b7213887762d5229550c2b","168.210.171.183","Mozilla/5.0 (Windows NT 10.0; Win64; x64) AppleWebKit/537.36 (KHTML, like Gecko) Chrome/138.0.0.0 Safari/537.36","WebKit","Chrome","138.0.0.0","Windows","10.0","https://app.prolific.com/","en-US,en;q=0.9","667abff30a4bfe675c592b14","686e379bc37a29ffa5cdc956","687761bae4e619d7f3480ebd","1","1","667abff30a4bfe675c592b14","1","1","2025-07-16T08:45:37.429Z","","","","","","","","","","","AttribQ","","50","","","","","","","","","","","","","","","","","","","","","","","","","","","","",""
"4452","","<div style=""width:500px;"">
  <p>How much control did you have over the ball?</p>
  </div>","78","html-slider-response","66","1254693","0.0-5.0-2.11","57","1","2025-07-16 08:24:43","1f75c3e559b7213887762d5229550c2b","168.210.171.183","Mozilla/5.0 (Windows NT 10.0; Win64; x64) AppleWebKit/537.36 (KHTML, like Gecko) Chrome/138.0.0.0 Safari/537.36","WebKit","Chrome","138.0.0.0","Windows","10.0","https://app.prolific.com/","en-US,en;q=0.9","667abff30a4bfe675c592b14","686e379bc37a29ffa5cdc956","687761bae4e619d7f3480ebd","1","1","667abff30a4bfe675c592b14","1","1","2025-07-16T08:45:41.884Z","","","","","","","","","","","ControlQ","","50","","","","","","","","","","","","","","","","","","","","","","","","","","","","",""
"4754","","<div style=""width:500px;"">
  <p>How would you describe your current emotional state?</p>
  </div>","50","html-slider-response","67","1259450","0.0-5.0-3.11","57","1","2025-07-16 08:24:43","1f75c3e559b7213887762d5229550c2b","168.210.171.183","Mozilla/5.0 (Windows NT 10.0; Win64; x64) AppleWebKit/537.36 (KHTML, like Gecko) Chrome/138.0.0.0 Safari/537.36","WebKit","Chrome","138.0.0.0","Windows","10.0","https://app.prolific.com/","en-US,en;q=0.9","667abff30a4bfe675c592b14","686e379bc37a29ffa5cdc956","687761bae4e619d7f3480ebd","1","1","667abff30a4bfe675c592b14","1","1","2025-07-16T08:45:46.642Z","","","","","","","","","","","StressQ","","50","","","","","","","","","","","","","","","","","","","","","","","","","","","","",""
"4288","","<div style=""width:500px;"">
  <p>What best describes how you currently feel?</p>
  </div>","74","html-slider-response","68","1263743","0.0-5.0-4.11","57","1","2025-07-16 08:24:43","1f75c3e559b7213887762d5229550c2b","168.210.171.183","Mozilla/5.0 (Windows NT 10.0; Win64; x64) AppleWebKit/537.36 (KHTML, like Gecko) Chrome/138.0.0.0 Safari/537.36","WebKit","Chrome","138.0.0.0","Windows","10.0","https://app.prolific.com/","en-US,en;q=0.9","667abff30a4bfe675c592b14","686e379bc37a29ffa5cdc956","687761bae4e619d7f3480ebd","1","1","667abff30a4bfe675c592b14","1","1","2025-07-16T08:45:50.935Z","","","","","","","","","","","MotivationQ","","50","","","","","","","","","","","","","","","","","","","","","","","","","","","","",""
"","","","","ctl-task-cpt","69","1296981","0.0-5.0-0.12","57","1","2025-07-16 08:24:43","1f75c3e559b7213887762d5229550c2b","168.210.171.183","Mozilla/5.0 (Windows NT 10.0; Win64; x64) AppleWebKit/537.36 (KHTML, like Gecko) Chrome/138.0.0.0 Safari/537.36","WebKit","Chrome","138.0.0.0","Windows","10.0","https://app.prolific.com/","en-US,en;q=0.9","667abff30a4bfe675c592b14","686e379bc37a29ffa5cdc956","687761bae4e619d7f3480ebd","1","1","667abff30a4bfe675c592b14","1","1","2025-07-16T08:46:24.172Z","","","","","","","","","","","","","","win-only","1","g1:NE,g2:SW","0.7","13","0","1268678.5","2141.2","7147.3","30203.4","1","4","4","6","2","4","4","16","12","0.12121212121212122","1277.8","3000","1475","[""down"",""left""]","{""num_key_presses"":8,""num_perfect"":5,""num_errors"":0,""num_randdir"":3,""num_randdir_good_moves"":2,""num_whilered"":0,""num_whileblue"":0,""num_blue"":0,""num_good_moves"":7}","[295.22232142857143,300.12857142857143,0.6,295.22232142857143,300.12857142857143,108.4,295.22232142857143,300.12857142857143,213.2,295.22232142857143,300.12857142857143,322.3,295.22232142857143,300.12857142857143,427.8,295.22232142857143,300.12857142857143,543.1,228.22232142857143,366.12857142857143,655.9,87.22232142857143,547.1285714285714,779.1,59.222321428571426,567.1285714285714,894.8,59.222321428571426,567.1285714285714,1003.1,59.222321428571426,567.1285714285714,1105.8,59.222321428571426,567.1285714285714,1214,59.222321428571426,567.1285714285714,1323.5,59.222321428571426,567.1285714285714,1435.2,59.222321428571426,567.1285714285714,1538.4,59.222321428571426,567.1285714285714,1658.4,59.222321428571426,567.1285714285714,1774.6,59.222321428571426,567.1285714285714,1887.6,59.222321428571426,567.1285714285714,1990,59.222321428571426,567.1285714285714,2094.2,59.222321428571426,567.1285714285714,2196.2,104.22232142857143,517.1285714285714,2299.7,238.22232142857143,381.12857142857143,2437.9,322.22232142857143,306.12857142857143,2553.8,322.22232142857143,306.12857142857143,2677.5,322.22232142857143,306.12857142857143,2784.6,322.22232142857143,306.12857142857143,2892.2,322.22232142857143,306.12857142857143,2997.7,322.22232142857143,306.12857142857143,3098.4,322.22232142857143,306.12857142857143,3200.9,322.22232142857143,306.12857142857143,3323.5,322.22232142857143,306.12857142857143,3439,322.22232142857143,306.12857142857143,3546.8,322.22232142857143,306.12857142857143,3647.5,322.22232142857143,306.12857142857143,3762.5,322.22232142857143,306.12857142857143,3863.5,322.22232142857143,306.12857142857143,3969.7,322.22232142857143,306.12857142857143,4073.4,322.22232142857143,306.12857142857143,4179.6,322.22232142857143,306.12857142857143,4287.9,322.22232142857143,306.12857142857143,4404.7,322.22232142857143,306.12857142857143,4523.3,322.22232142857143,306.12857142857143,4628.6,322.22232142857143,306.12857142857143,4745.9,322.22232142857143,306.12857142857143,4859.1,322.22232142857143,306.12857142857143,4978.2]","[1522,1522,1000,0,522,""oops"",""down"",""up"",""bad_move"",4913.1,3390.1,2973.8,1523,416.3,""smooth"",""left"",""left"",""good_move"",8952.1,4037.4,2161.4,4914.7,1876,""smooth"",""left"",""left"",""good_move"",12149.6,3181.2,2402.5,8968.4,778.7,""smooth"",""down"",""down"",""good_move"",14440.3,2289.3,1789.4,12151.1,499.8,""smooth"",""down"",""down"",""good_move"",17054.5,2612.9,2234.5,14441.7,378.3,""oops"",""down"",""left"",""good_move"",20507.5,3451.5,3084.3,17056.1,367.1,""oops"",""down"",""down"",""good_move"",22841.9,2330.9,1904.8,20511.1,426,""smooth"",""down"",""down"",""good_move""]","",""
"6413","","<div style=""width:500px;"">
  <p>What determined the result of this run?</p>
  </div>","68","html-slider-response","70","1303398","0.0-5.0-1.12","57","1","2025-07-16 08:24:43","1f75c3e559b7213887762d5229550c2b","168.210.171.183","Mozilla/5.0 (Windows NT 10.0; Win64; x64) AppleWebKit/537.36 (KHTML, like Gecko) Chrome/138.0.0.0 Safari/537.36","WebKit","Chrome","138.0.0.0","Windows","10.0","https://app.prolific.com/","en-US,en;q=0.9","667abff30a4bfe675c592b14","686e379bc37a29ffa5cdc956","687761bae4e619d7f3480ebd","1","1","667abff30a4bfe675c592b14","1","1","2025-07-16T08:46:30.589Z","","","","","","","","","","","AttribQ","","50","","","","","","","","","","","","","","","","","","","","","","","","","","","","",""
"3910","","<div style=""width:500px;"">
  <p>How much control did you have over the ball?</p>
  </div>","47","html-slider-response","71","1307311","0.0-5.0-2.12","57","1","2025-07-16 08:24:43","1f75c3e559b7213887762d5229550c2b","168.210.171.183","Mozilla/5.0 (Windows NT 10.0; Win64; x64) AppleWebKit/537.36 (KHTML, like Gecko) Chrome/138.0.0.0 Safari/537.36","WebKit","Chrome","138.0.0.0","Windows","10.0","https://app.prolific.com/","en-US,en;q=0.9","667abff30a4bfe675c592b14","686e379bc37a29ffa5cdc956","687761bae4e619d7f3480ebd","1","1","667abff30a4bfe675c592b14","1","1","2025-07-16T08:46:34.503Z","","","","","","","","","","","ControlQ","","50","","","","","","","","","","","","","","","","","","","","","","","","","","","","",""
"42071","","<div style=""width:500px;"">
  <p>How would you describe your current emotional state?</p>
  </div>","51","html-slider-response","72","1349386","0.0-5.0-3.12","57","1","2025-07-16 08:24:43","1f75c3e559b7213887762d5229550c2b","168.210.171.183","Mozilla/5.0 (Windows NT 10.0; Win64; x64) AppleWebKit/537.36 (KHTML, like Gecko) Chrome/138.0.0.0 Safari/537.36","WebKit","Chrome","138.0.0.0","Windows","10.0","https://app.prolific.com/","en-US,en;q=0.9","667abff30a4bfe675c592b14","686e379bc37a29ffa5cdc956","687761bae4e619d7f3480ebd","1","1","667abff30a4bfe675c592b14","1","1","2025-07-16T08:47:16.577Z","","","","","","","","","","","StressQ","","50","","","","","","","","","","","","","","","","","","","","","","","","","","","","",""
"10437","","<div style=""width:500px;"">
  <p>What best describes how you currently feel?</p>
  </div>","54","html-slider-response","73","1359823","0.0-5.0-4.12","57","1","2025-07-16 08:24:43","1f75c3e559b7213887762d5229550c2b","168.210.171.183","Mozilla/5.0 (Windows NT 10.0; Win64; x64) AppleWebKit/537.36 (KHTML, like Gecko) Chrome/138.0.0.0 Safari/537.36","WebKit","Chrome","138.0.0.0","Windows","10.0","https://app.prolific.com/","en-US,en;q=0.9","667abff30a4bfe675c592b14","686e379bc37a29ffa5cdc956","687761bae4e619d7f3480ebd","1","1","667abff30a4bfe675c592b14","1","1","2025-07-16T08:47:27.014Z","","","","","","","","","","","MotivationQ","","50","","","","","","","","","","","","","","","","","","","","","","","","","","","","",""
"","","","","ctl-task-cpt","74","1393379","0.0-5.0-0.13","57","1","2025-07-16 08:24:43","1f75c3e559b7213887762d5229550c2b","168.210.171.183","Mozilla/5.0 (Windows NT 10.0; Win64; x64) AppleWebKit/537.36 (KHTML, like Gecko) Chrome/138.0.0.0 Safari/537.36","WebKit","Chrome","138.0.0.0","Windows","10.0","https://app.prolific.com/","en-US,en;q=0.9","667abff30a4bfe675c592b14","686e379bc37a29ffa5cdc956","687761bae4e619d7f3480ebd","1","1","667abff30a4bfe675c592b14","1","1","2025-07-16T08:48:00.571Z","","","","","","","","","","","","","","win-only","2","g1:SE,g2:NW","0.8","14","0","1364761.1","2390.7","7402.4","30520.3","1","4","8","6","2","8","8","24","16","0.18181818181818182","1555.3","3000","1695","[""left"",""up""]","{""num_key_presses"":8,""num_perfect"":6,""num_errors"":0,""num_randdir"":2,""num_randdir_good_moves"":1,""num_whilered"":0,""num_whileblue"":0,""num_blue"":0,""num_good_moves"":7}","[296.22232142857143,290.12857142857143,0.5,296.22232142857143,290.12857142857143,113.6,296.22232142857143,290.12857142857143,224.6,296.22232142857143,290.12857142857143,332.2,296.22232142857143,290.12857142857143,451.3,296.22232142857143,290.12857142857143,555,315.22232142857143,321.12857142857143,662.2,261.22232142857143,275.12857142857143,776.7,129.22232142857143,127.12857142857143,885,103.22232142857143,92.12857142857143,994.1,98.22232142857143,86.12857142857143,1111.3,62.222321428571426,54.128571428571426,1226.2,47.222321428571426,35.128571428571426,1353.4,47.222321428571426,33.128571428571426,1468.5,47.222321428571426,33.128571428571426,1571.1,47.222321428571426,33.128571428571426,1677.7,47.222321428571426,33.128571428571426,1786.2,47.222321428571426,33.128571428571426,1892.9,47.222321428571426,33.128571428571426,1994.6,47.222321428571426,33.128571428571426,2096.7,114.22232142857143,124.12857142857143,2196.9,290.22232142857143,332.12857142857143,2297.7,319.22232142857143,370.12857142857143,2407.9,319.22232142857143,370.12857142857143,2550.1,319.22232142857143,370.12857142857143,2653.2,319.22232142857143,370.12857142857143,2762.3,319.22232142857143,370.12857142857143,2866.9,319.22232142857143,370.12857142857143,2977.8,319.22232142857143,370.12857142857143,3124.7,319.22232142857143,370.12857142857143,3226.2,319.22232142857143,370.12857142857143,3326.6,319.22232142857143,370.12857142857143,3427.4,319.22232142857143,370.12857142857143,3528.5,319.22232142857143,370.12857142857143,3630.2,319.22232142857143,370.12857142857143,3731.2,319.22232142857143,370.12857142857143,3836.8,319.22232142857143,370.12857142857143,3946.7,319.22232142857143,370.12857142857143,4052.9,319.22232142857143,370.12857142857143,4220.1,319.22232142857143,370.12857142857143,4321.7,319.22232142857143,370.12857142857143,4436.8,319.22232142857143,370.12857142857143,4538.3,319.22232142857143,370.12857142857143,4644.8,319.22232142857143,370.12857142857143,4761.1,319.22232142857143,370.12857142857143,4866.4,319.22232142857143,370.12857142857143,4971.1]","[1806.7,1806.7,1000,0,806.7,""smooth"",""left"",""left"",""good_move"",4899.5,3091.7,2600.8,1807.8,490.9,""smooth"",""left"",""left"",""good_move"",8314.6,3413.9,3023.8,4900.7,390.1,""smooth"",""left"",""left"",""good_move"",11241.8,2926.1,2400.2,8315.8,525.8,""smooth"",""up"",""up"",""good_move"",14075.4,2831.7,2003.5,11243.7,828.2,""oops"",""up"",""up"",""good_move"",16932.8,2855.6,2182.4,14077.2,673.2,""oops"",""up"",""right"",""bad_move"",19684.8,2750.2,2261.2,16934.6,489,""smooth"",""up"",""up"",""good_move"",22783.6,3097.4,2719.5,19687.1,377,""smooth"",""left"",""left"",""good_move""]","",""
"5222","","<div style=""width:500px;"">
  <p>What determined the result of this run?</p>
