"rt","response_timestamp","stimulus","response","trial_type","trial_index","time_elapsed","internal_node_id","run_id","condition","recorded_at","source_code_version","ip","user_agent","device","browser","browser_version","platform","platform_version","referer","accept_language","PROLIFIC_PID","STUDY_ID","SESSION_ID","WEEK","prolific_id","week","realtime","success","responses","item_order","radio_event_ids","radio_event_times","key_event_times","mouse_event_times","straightlining","zigzagging","honeypot","eventType","view_history","slider_start","which_type","canvas_config","goals_layout","control_level","trial_number","tutorial_trial_number","trial_start_time","phase1_start_time","phase2_start_time","phase3_start_time","goal_1_value","goal_1_distance","goal_2_value","goal_2_distance","goal_selected","outcome","outcome_total","participant_final_score","participant_initial_score","participant_final_score_prop","goal_choice_rt","allocated_time","allocated_time_remaining","goal_direction","counts","mouse_movements","key_presses","question_order","question_id"
"4031","1752051025939","<p style='font-size:40px;line-height:1.25'><strong>Welcome to the experiment!</strong></p><p style='font-size:1.1em;line-height:1.25'>Thank you for participanting in our experiment again! You will be asked to play the Dysfunctional Ball Game again. We will briefly recap the rules before we start.</p><p style='font-size:1.1em;line-height:1.25'>Press <strong>Next</strong> to continue.</p>","0","custom-html-button-response","0","5508","0.0-0.0","19","1","2025-07-09 08:49:59","01610cd0009c79a99da7d0a3353eb402","41.145.194.11","Mozilla/5.0 (Windows NT 10.0; Win64; x64) AppleWebKit/537.36 (KHTML, like Gecko) Chrome/137.0.0.0 Safari/537.36","WebKit","Chrome","137.0.0.0","Windows","10.0","https://app.prolific.com/","en-ZA,en-GB;q=0.9,en-US;q=0.8,en;q=0.7,zu;q=0.6","5f3287b83428cb05746e2214","683db7602f5db6a34d12d064","686e2ce6dc8a53743a2e9c69","1","5f3287b83428cb05746e2214","1","2025-07-09T08:50:25.943Z","","","","","","","","","","","","","","","","","","","","","","","","","","","","","","","","","","","","","","","","","",""
"11583","","","","fullscreen","1","18126","0.0-1.0","19","1","2025-07-09 08:49:59","01610cd0009c79a99da7d0a3353eb402","41.145.194.11","Mozilla/5.0 (Windows NT 10.0; Win64; x64) AppleWebKit/537.36 (KHTML, like Gecko) Chrome/137.0.0.0 Safari/537.36","WebKit","Chrome","137.0.0.0","Windows","10.0","https://app.prolific.com/","en-ZA,en-GB;q=0.9,en-US;q=0.8,en;q=0.7,zu;q=0.6","5f3287b83428cb05746e2214","683db7602f5db6a34d12d064","686e2ce6dc8a53743a2e9c69","1","5f3287b83428cb05746e2214","1","","true","","","","","","","","","","","","","","","","","","","","","","","","","","","","","","","","","","","","","","","","",""
"2797","1752051041366","<p style='font-size:1.1em;line-height:1.25'>In the following, we will ask you a few questions relating to your feelings in the last 24 hours.<br></p><p style='font-size:1.1em;line-height:1.25'>Press the <strong>Next</strong> button to continue.</p>","0","custom-html-button-response","2","20933","0.0-2.0-0.0","19","1","2025-07-09 08:49:59","01610cd0009c79a99da7d0a3353eb402","41.145.194.11","Mozilla/5.0 (Windows NT 10.0; Win64; x64) AppleWebKit/537.36 (KHTML, like Gecko) Chrome/137.0.0.0 Safari/537.36","WebKit","Chrome","137.0.0.0","Windows","10.0","https://app.prolific.com/","en-ZA,en-GB;q=0.9,en-US;q=0.8,en;q=0.7,zu;q=0.6","5f3287b83428cb05746e2214","683db7602f5db6a34d12d064","686e2ce6dc8a53743a2e9c69","1","5f3287b83428cb05746e2214","1","2025-07-09T08:50:41.369Z","","","","","","","","","","","","","","","","","","","","","","","","","","","","","","","","","","","","","","","","","",""
"54490.90000003576","","","","survey-template","3","75447","0.0-2.0-1.0","19","1","2025-07-09 08:49:59","01610cd0009c79a99da7d0a3353eb402","41.145.194.11","Mozilla/5.0 (Windows NT 10.0; Win64; x64) AppleWebKit/537.36 (KHTML, like Gecko) Chrome/137.0.0.0 Safari/537.36","WebKit","Chrome","137.0.0.0","Windows","10.0","https://app.prolific.com/","en-ZA,en-GB;q=0.9,en-US;q=0.8,en;q=0.7,zu;q=0.6","5f3287b83428cb05746e2214","683db7602f5db6a34d12d064","686e2ce6dc8a53743a2e9c69","1","5f3287b83428cb05746e2214","1","2025-07-09T08:51:35.883Z","","{""Q01"":""0"",""Q02"":""0"",""Q03"":""0"",""Q04"":""0"",""Q05"":""0"",""Q06"":""0"",""Q07"":""0"",""Q08"":""0"",""Q09"":""0"",""Q10"":""0"",""Q11"":""0"",""Q12"":""0"",""Q13"":""5"",""Q14"":""0"",""Q15"":""0"",""Q16"":""0"",""Q17"":""0"",""Q18"":""0"",""Q19"":""0"",""Q20"":""0"",""Q21"":""0"",""Q22"":""0""}","[0,1,2,3,4,5,6,7,8,9,10,11,12,13,14,15,16,17,18,19,20,21]","[""Q01"",""Q02"",""Q03"",""Q04"",""Q05"",""Q06"",""Q07"",""Q08"",""Q09"",""Q10"",""Q11"",""Q12"",""Q13"",""Q14"",""Q15"",""Q16"",""Q17"",""Q18"",""Q19"",""Q20"",""Q19"",""Q21"",""Q22""]","[2368.7000000476837,3463.100000023842,4615.900000035763,5673.400000035763,6788.400000035763,7903.5,9057.600000023842,10268.300000011921,16470,17795.400000035763,19131.200000047684,20246.400000035763,22332.200000047684,28118.400000035763,29175.600000023842,30617.5,34808.5,35961.60000002384,39781,41209.30000001192,44467.60000002384,50100.60000002384,51871.10000002384]","[]","[0.800000011920929,2368.7000000476837,3463.100000023842,4615.900000035763,5673.400000035763,6788.400000035763,7903.5,9057.600000023842,10268.300000011921,16470,17795.400000035763,19131.200000047684,20246.400000035763,22332.200000047684,28118.400000035763,29175.600000023842,30617.5,34808.5,35961.60000002384,39781,41209.30000001192,44467.60000002384,50100.60000002384,51871.10000002384,54388.30000001192]","0.9545454545454546","0.09523809523809523","0","drsp","","","","","","","","","","","","","","","","","","","","","","","","","","","","","","",""
"6419.100000023842","","","","survey-template","4","81874","0.0-2.0-2.0","19","1","2025-07-09 08:49:59","01610cd0009c79a99da7d0a3353eb402","41.145.194.11","Mozilla/5.0 (Windows NT 10.0; Win64; x64) AppleWebKit/537.36 (KHTML, like Gecko) Chrome/137.0.0.0 Safari/537.36","WebKit","Chrome","137.0.0.0","Windows","10.0","https://app.prolific.com/","en-ZA,en-GB;q=0.9,en-US;q=0.8,en;q=0.7,zu;q=0.6","5f3287b83428cb05746e2214","683db7602f5db6a34d12d064","686e2ce6dc8a53743a2e9c69","1","5f3287b83428cb05746e2214","1","2025-07-09T08:51:42.310Z","","{""Q01"":""0"",""Q02"":""5"",""Q03"":""0""}","[0,1,2]","[""Q01"",""Q02"",""Q03""]","[2910.600000023842,4100.800000011921,5245.300000011921]","[]","[2910.600000023842,4100.800000011921,5245.300000011921,6416.600000023842]","1","0","0","stress","","","","","","","","","","","","","","","","","","","","","","","","","","","","","","",""
"7517","","","","instructions","5","89397","0.0-3.0-0.0","19","1","2025-07-09 08:49:59","01610cd0009c79a99da7d0a3353eb402","41.145.194.11","Mozilla/5.0 (Windows NT 10.0; Win64; x64) AppleWebKit/537.36 (KHTML, like Gecko) Chrome/137.0.0.0 Safari/537.36","WebKit","Chrome","137.0.0.0","Windows","10.0","https://app.prolific.com/","en-ZA,en-GB;q=0.9,en-US;q=0.8,en;q=0.7,zu;q=0.6","5f3287b83428cb05746e2214","683db7602f5db6a34d12d064","686e2ce6dc8a53743a2e9c69","1","5f3287b83428cb05746e2214","1","","","","","","","","","","","","","[{""page_index"":0,""viewing_time"":7516}]","","","","","","","","","","","","","","","","","","","","","","","","","","","","","",""
"10060","","<p>Before you start with this game please answer the following three questions yourself. </p>
  <p>Through this game, we measure several aspects of your cognitive performance, such as reaction times, multi-tasking capabilities </p>
  <p>and the ability to assess the situation you are in.</p>
  <p></p>
  <p><b>How good do you usually are in such tasks?</b></p>","100","html-slider-response","6","99665","0.0-4.0-0.0","19","1","2025-07-09 08:49:59","01610cd0009c79a99da7d0a3353eb402","41.145.194.11","Mozilla/5.0 (Windows NT 10.0; Win64; x64) AppleWebKit/537.36 (KHTML, like Gecko) Chrome/137.0.0.0 Safari/537.36","WebKit","Chrome","137.0.0.0","Windows","10.0","https://app.prolific.com/","en-ZA,en-GB;q=0.9,en-US;q=0.8,en;q=0.7,zu;q=0.6","5f3287b83428cb05746e2214","683db7602f5db6a34d12d064","686e2ce6dc8a53743a2e9c69","1","5f3287b83428cb05746e2214","1","2025-07-09T08:52:00.100Z","","","","","","","","","","","PreSkillQ","","50","","","","","","","","","","","","","","","","","","","","","","","","","","","","",""
"6808","","<div style=""width:500px;"">
  <p>How well do you think you will perform in this task compared to other participants?</p>
  </div>","84","html-slider-response","7","106478","0.0-4.0-1.0","19","1","2025-07-09 08:49:59","01610cd0009c79a99da7d0a3353eb402","41.145.194.11","Mozilla/5.0 (Windows NT 10.0; Win64; x64) AppleWebKit/537.36 (KHTML, like Gecko) Chrome/137.0.0.0 Safari/537.36","WebKit","Chrome","137.0.0.0","Windows","10.0","https://app.prolific.com/","en-ZA,en-GB;q=0.9,en-US;q=0.8,en;q=0.7,zu;q=0.6","5f3287b83428cb05746e2214","683db7602f5db6a34d12d064","686e2ce6dc8a53743a2e9c69","1","5f3287b83428cb05746e2214","1","2025-07-09T08:52:06.913Z","","","","","","","","","","","PrePerfQ","","50","","","","","","","","","","","","","","","","","","","","","","","","","","","","",""
"4436","","<div style=""width:500px;"">
  <p>What best describes how you currently feel?</p>
  </div>","100","html-slider-response","8","110919","0.0-4.0-2.0","19","1","2025-07-09 08:49:59","01610cd0009c79a99da7d0a3353eb402","41.145.194.11","Mozilla/5.0 (Windows NT 10.0; Win64; x64) AppleWebKit/537.36 (KHTML, like Gecko) Chrome/137.0.0.0 Safari/537.36","WebKit","Chrome","137.0.0.0","Windows","10.0","https://app.prolific.com/","en-ZA,en-GB;q=0.9,en-US;q=0.8,en;q=0.7,zu;q=0.6","5f3287b83428cb05746e2214","683db7602f5db6a34d12d064","686e2ce6dc8a53743a2e9c69","1","5f3287b83428cb05746e2214","1","2025-07-09T08:52:11.354Z","","","","","","","","","","","PreMotivationQ","","50","","","","","","","","","","","","","","","","","","","","","","","","","","","","",""
"","","","","ctl-task-cpt","9","153745","0.0-5.0-0.0","19","1","2025-07-09 08:49:59","01610cd0009c79a99da7d0a3353eb402","41.145.194.11","Mozilla/5.0 (Windows NT 10.0; Win64; x64) AppleWebKit/537.36 (KHTML, like Gecko) Chrome/137.0.0.0 Safari/537.36","WebKit","Chrome","137.0.0.0","Windows","10.0","https://app.prolific.com/","en-ZA,en-GB;q=0.9,en-US;q=0.8,en;q=0.7,zu;q=0.6","5f3287b83428cb05746e2214","683db7602f5db6a34d12d064","686e2ce6dc8a53743a2e9c69","1","5f3287b83428cb05746e2214","1","2025-07-09T08:52:54.180Z","","","","","","","","","","","","","","win-only","0","g1:NW,g2:SE","1","1","0","132742.5","5273.1","12050.6","39604.2","1","4","4","6","2","4","3","3","0","0.022727272727272728","1481.6","3000","635","[""down"",""right""]","{""num_key_presses"":7,""num_perfect"":6,""num_errors"":1,""num_randdir"":0,""num_randdir_good_moves"":0,""num_whilered"":0,""num_whileblue"":0,""num_blue"":2,""num_good_moves"":6}","[295.22232142857143,303.12857142857143,50.7,295.22232142857143,303.12857142857143,125,295.22232142857143,303.12857142857143,228.1,295.22232142857143,303.12857142857143,330.3,295.22232142857143,303.12857142857143,436.8,295.22232142857143,303.12857142857143,543.9,295.22232142857143,303.12857142857143,649.9,392.22232142857143,393.12857142857143,756.2,491.22232142857143,542.1285714285714,882.8,511.22232142857143,559.1285714285714,986.8,519.2223214285714,562.1285714285714,1102.1,526.2223214285714,562.1285714285714,1210.2,526.2223214285714,562.1285714285714,1313,526.2223214285714,562.1285714285714,1420.6,526.2223214285714,562.1285714285714,1525.9,526.2223214285714,562.1285714285714,1631.6,526.2223214285714,562.1285714285714,1742.6,526.2223214285714,562.1285714285714,1843.3,526.2223214285714,562.1285714285714,1948.8,526.2223214285714,562.1285714285714,2066.1,526.2223214285714,562.1285714285714,2175.3,526.2223214285714,562.1285714285714,2275.6,526.2223214285714,562.1285714285714,2590.4,526.2223214285714,562.1285714285714,2690.9,526.2223214285714,562.1285714285714,2797.2,526.2223214285714,562.1285714285714,2903.9,526.2223214285714,562.1285714285714,3010,526.2223214285714,562.1285714285714,3110.8,526.2223214285714,562.1285714285714,3213,526.2223214285714,562.1285714285714,3325.5,526.2223214285714,562.1285714285714,3432.4,526.2223214285714,562.1285714285714,3537.3,526.2223214285714,562.1285714285714,3637.8,526.2223214285714,562.1285714285714,3774.1,526.2223214285714,562.1285714285714,3880.7,526.2223214285714,562.1285714285714,3983.3,526.2223214285714,562.1285714285714,4088.2,526.2223214285714,562.1285714285714,4191.5,526.2223214285714,562.1285714285714,4291.5,526.2223214285714,562.1285714285714,4398.4,526.2223214285714,562.1285714285714,4498.6,526.2223214285714,562.1285714285714,4604.1,526.2223214285714,562.1285714285714,4706.5,526.2223214285714,562.1285714285714,4809.7]","[54.5,53.9,1000,0.6,-946.1,""error"",""-"",""-"",""no_move"",11671.3,11615.3,2516.8,8566.2,588.3,""smooth"",""down"",""down"",""good_move"",14942.5,3268.8,2726,11673.8,542.8,""smooth"",""down"",""down"",""good_move"",18433.5,3489.3,2958.3,14944.4,530.8,""smooth"",""down"",""down"",""good_move"",21267.6,2832.3,2326.7,18435.6,505.4,""smooth"",""right"",""right"",""good_move"",24069.2,2799.3,2246.4,21270,552.9,""smooth"",""right"",""right"",""good_move"",27326.5,3254.2,2097.7,24072.3,1156.5,""smooth"",""right"",""right"",""good_move""]","",""
"6833","","<div style=""width:500px;"">
  <p>What determined the result of this run?</p>
  </div>","100","html-slider-response","10","160582","0.0-5.0-1.0","19","1","2025-07-09 08:49:59","01610cd0009c79a99da7d0a3353eb402","41.145.194.11","Mozilla/5.0 (Windows NT 10.0; Win64; x64) AppleWebKit/537.36 (KHTML, like Gecko) Chrome/137.0.0.0 Safari/537.36","WebKit","Chrome","137.0.0.0","Windows","10.0","https://app.prolific.com/","en-ZA,en-GB;q=0.9,en-US;q=0.8,en;q=0.7,zu;q=0.6","5f3287b83428cb05746e2214","683db7602f5db6a34d12d064","686e2ce6dc8a53743a2e9c69","1","5f3287b83428cb05746e2214","1","2025-07-09T08:53:01.018Z","","","","","","","","","","","AttribQ","","50","","","","","","","","","","","","","","","","","","","","","","","","","","","","",""
"11697","","<div style=""width:500px;"">
  <p>How much control did you have over the ball?</p>
  </div>","100","html-slider-response","11","172286","0.0-5.0-2.0","19","1","2025-07-09 08:49:59","01610cd0009c79a99da7d0a3353eb402","41.145.194.11","Mozilla/5.0 (Windows NT 10.0; Win64; x64) AppleWebKit/537.36 (KHTML, like Gecko) Chrome/137.0.0.0 Safari/537.36","WebKit","Chrome","137.0.0.0","Windows","10.0","https://app.prolific.com/","en-ZA,en-GB;q=0.9,en-US;q=0.8,en;q=0.7,zu;q=0.6","5f3287b83428cb05746e2214","683db7602f5db6a34d12d064","686e2ce6dc8a53743a2e9c69","1","5f3287b83428cb05746e2214","1","2025-07-09T08:53:12.721Z","","","","","","","","","","","ControlQ","","50","","","","","","","","","","","","","","","","","","","","","","","","","","","","",""
"4972","","<div style=""width:500px;"">
  <p>How would you describe your current emotional state?</p>
  </div>","0","html-slider-response","12","177264","0.0-5.0-3.0","19","1","2025-07-09 08:49:59","01610cd0009c79a99da7d0a3353eb402","41.145.194.11","Mozilla/5.0 (Windows NT 10.0; Win64; x64) AppleWebKit/537.36 (KHTML, like Gecko) Chrome/137.0.0.0 Safari/537.36","WebKit","Chrome","137.0.0.0","Windows","10.0","https://app.prolific.com/","en-ZA,en-GB;q=0.9,en-US;q=0.8,en;q=0.7,zu;q=0.6","5f3287b83428cb05746e2214","683db7602f5db6a34d12d064","686e2ce6dc8a53743a2e9c69","1","5f3287b83428cb05746e2214","1","2025-07-09T08:53:17.699Z","","","","","","","","","","","StressQ","","50","","","","","","","","","","","","","","","","","","","","","","","","","","","","",""
"4646","","<div style=""width:500px;"">
  <p>What best describes how you currently feel?</p>
  </div>","100","html-slider-response","13","181917","0.0-5.0-4.0","19","1","2025-07-09 08:49:59","01610cd0009c79a99da7d0a3353eb402","41.145.194.11","Mozilla/5.0 (Windows NT 10.0; Win64; x64) AppleWebKit/537.36 (KHTML, like Gecko) Chrome/137.0.0.0 Safari/537.36","WebKit","Chrome","137.0.0.0","Windows","10.0","https://app.prolific.com/","en-ZA,en-GB;q=0.9,en-US;q=0.8,en;q=0.7,zu;q=0.6","5f3287b83428cb05746e2214","683db7602f5db6a34d12d064","686e2ce6dc8a53743a2e9c69","1","5f3287b83428cb05746e2214","1","2025-07-09T08:53:22.352Z","","","","","","","","","","","MotivationQ","","50","","","","","","","","","","","","","","","","","","","","","","","","","","","","",""
"","","","","ctl-task-cpt","14","210479","0.0-5.0-0.1","19","1","2025-07-09 08:49:59","01610cd0009c79a99da7d0a3353eb402","41.145.194.11","Mozilla/5.0 (Windows NT 10.0; Win64; x64) AppleWebKit/537.36 (KHTML, like Gecko) Chrome/137.0.0.0 Safari/537.36","WebKit","Chrome","137.0.0.0","Windows","10.0","https://app.prolific.com/","en-ZA,en-GB;q=0.9,en-US;q=0.8,en;q=0.7,zu;q=0.6","5f3287b83428cb05746e2214","683db7602f5db6a34d12d064","686e2ce6dc8a53743a2e9c69","1","5f3287b83428cb05746e2214","1","2025-07-09T08:53:50.914Z","","","","","","","","","","","","","","win-only","2","g1:SE,g2:NW","0.9","2","0","203531.2","4662.1","9665.3","25550.1","1","4","8","6","1","-1","-1","2","3","0.015151515151515152","5003.2","3000","-2160","[""down"",""right""]","{""num_key_presses"":4,""num_perfect"":4,""num_errors"":0,""num_randdir"":0,""num_randdir_good_moves"":0,""num_whilered"":0,""num_whileblue"":0,""num_blue"":0,""num_good_moves"":3}","[296.22232142857143,294.12857142857143,1.7,296.22232142857143,294.12857142857143,100.7,296.22232142857143,294.12857142857143,213.7,296.22232142857143,294.12857142857143,320.5,296.22232142857143,294.12857142857143,422,296.22232142857143,294.12857142857143,523.8,296.22232142857143,294.12857142857143,623.8,296.22232142857143,294.12857142857143,727.5,296.22232142857143,294.12857142857143,839.4,296.22232142857143,294.12857142857143,942.5,350.22232142857143,320.12857142857143,1053.9,391.22232142857143,350.12857142857143,1155.3,402.22232142857143,376.12857142857143,1256.3,400.22232142857143,379.12857142857143,1369.1,388.22232142857143,378.12857142857143,1472.4,384.22232142857143,377.12857142857143,1578.3,384.22232142857143,377.12857142857143,1685,377.22232142857143,374.12857142857143,1789,372.22232142857143,370.12857142857143,1893.5,368.22232142857143,368.12857142857143,1994.4,364.22232142857143,366.12857142857143,2097.6,359.22232142857143,362.12857142857143,2204.3,356.22232142857143,361.12857142857143,2318.8,356.22232142857143,360.12857142857143,2423.1,356.22232142857143,360.12857142857143,2529.7,356.22232142857143,360.12857142857143,2643.1,356.22232142857143,360.12857142857143,2751,356.22232142857143,360.12857142857143,2860,356.22232142857143,359.12857142857143,2970.3,356.22232142857143,359.12857142857143,3089.9,356.22232142857143,359.12857142857143,3193.3,356.22232142857143,359.12857142857143,3296.3,356.22232142857143,359.12857142857143,3403.7,356.22232142857143,359.12857142857143,3512.7,356.22232142857143,359.12857142857143,3613.8,356.22232142857143,359.12857142857143,3719.3,356.22232142857143,359.12857142857143,3819.7,356.22232142857143,359.12857142857143,3923.9,356.22232142857143,359.12857142857143,4030.6,196.22232142857143,248.12857142857143,4138.7,99.22232142857143,202.12857142857143,4239.2,99.22232142857143,202.12857142857143,4345.5,99.22232142857143,202.12857142857143,4461.7,80.22232142857143,162.12857142857143,4569.2,53.222321428571426,96.12857142857143,4673.2,41.222321428571426,72.12857142857143,4778.9,35.222321428571426,55.128571428571426,4884.4,35.222321428571426,55.128571428571426,4989.4]","[2226.8,2226.8,1000,0,1226.8,""smooth"",""left"",""left"",""bad_move"",5931.7,3701.5,2325,2230.2,1376.5,""smooth"",""down"",""down"",""good_move"",9609.8,3675.6,2888,5934.4,787.5,""smooth"",""down"",""down"",""good_move"",13086.6,3474.5,2892.1,9612.2,582.3,""smooth"",""right"",""right"",""good_move""]","",""
"4727","","<div style=""width:500px;"">
  <p>What determined the result of this run?</p>
  </div>","0","html-slider-response","15","215209","0.0-5.0-1.1","19","1","2025-07-09 08:49:59","01610cd0009c79a99da7d0a3353eb402","41.145.194.11","Mozilla/5.0 (Windows NT 10.0; Win64; x64) AppleWebKit/537.36 (KHTML, like Gecko) Chrome/137.0.0.0 Safari/537.36","WebKit","Chrome","137.0.0.0","Windows","10.0","https://app.prolific.com/","en-ZA,en-GB;q=0.9,en-US;q=0.8,en;q=0.7,zu;q=0.6","5f3287b83428cb05746e2214","683db7602f5db6a34d12d064","686e2ce6dc8a53743a2e9c69","1","5f3287b83428cb05746e2214","1","2025-07-09T08:53:55.644Z","","","","","","","","","","","AttribQ","","50","","","","","","","","","","","","","","","","","","","","","","","","","","","","",""
"5155","","<div style=""width:500px;"">
  <p>How much control did you have over the ball?</p>
  </div>","100","html-slider-response","16","220369","0.0-5.0-2.1","19","1","2025-07-09 08:49:59","01610cd0009c79a99da7d0a3353eb402","41.145.194.11","Mozilla/5.0 (Windows NT 10.0; Win64; x64) AppleWebKit/537.36 (KHTML, like Gecko) Chrome/137.0.0.0 Safari/537.36","WebKit","Chrome","137.0.0.0","Windows","10.0","https://app.prolific.com/","en-ZA,en-GB;q=0.9,en-US;q=0.8,en;q=0.7,zu;q=0.6","5f3287b83428cb05746e2214","683db7602f5db6a34d12d064","686e2ce6dc8a53743a2e9c69","1","5f3287b83428cb05746e2214","1","2025-07-09T08:54:00.805Z","","","","","","","","","","","ControlQ","","50","","","","","","","","","","","","","","","","","","","","","","","","","","","","",""
"4416","","<div style=""width:500px;"">
  <p>How would you describe your current emotional state?</p>
  </div>","0","html-slider-response","17","224790","0.0-5.0-3.1","19","1","2025-07-09 08:49:59","01610cd0009c79a99da7d0a3353eb402","41.145.194.11","Mozilla/5.0 (Windows NT 10.0; Win64; x64) AppleWebKit/537.36 (KHTML, like Gecko) Chrome/137.0.0.0 Safari/537.36","WebKit","Chrome","137.0.0.0","Windows","10.0","https://app.prolific.com/","en-ZA,en-GB;q=0.9,en-US;q=0.8,en;q=0.7,zu;q=0.6","5f3287b83428cb05746e2214","683db7602f5db6a34d12d064","686e2ce6dc8a53743a2e9c69","1","5f3287b83428cb05746e2214","1","2025-07-09T08:54:05.225Z","","","","","","","","","","","StressQ","","50","","","","","","","","","","","","","","","","","","","","","","","","","","","","",""
"3673","","<div style=""width:500px;"">
  <p>What best describes how you currently feel?</p>
  </div>","98","html-slider-response","18","228473","0.0-5.0-4.1","19","1","2025-07-09 08:49:59","01610cd0009c79a99da7d0a3353eb402","41.145.194.11","Mozilla/5.0 (Windows NT 10.0; Win64; x64) AppleWebKit/537.36 (KHTML, like Gecko) Chrome/137.0.0.0 Safari/537.36","WebKit","Chrome","137.0.0.0","Windows","10.0","https://app.prolific.com/","en-ZA,en-GB;q=0.9,en-US;q=0.8,en;q=0.7,zu;q=0.6","5f3287b83428cb05746e2214","683db7602f5db6a34d12d064","686e2ce6dc8a53743a2e9c69","1","5f3287b83428cb05746e2214","1","2025-07-09T08:54:08.909Z","","","","","","","","","","","MotivationQ","","50","","","","","","","","","","","","","","","","","","","","","","","","","","","","",""
"","","","","ctl-task-cpt","19","256050","0.0-5.0-0.2","19","1","2025-07-09 08:49:59","01610cd0009c79a99da7d0a3353eb402","41.145.194.11","Mozilla/5.0 (Windows NT 10.0; Win64; x64) AppleWebKit/537.36 (KHTML, like Gecko) Chrome/137.0.0.0 Safari/537.36","WebKit","Chrome","137.0.0.0","Windows","10.0","https://app.prolific.com/","en-ZA,en-GB;q=0.9,en-US;q=0.8,en;q=0.7,zu;q=0.6","5f3287b83428cb05746e2214","683db7602f5db6a34d12d064","686e2ce6dc8a53743a2e9c69","1","5f3287b83428cb05746e2214","1","2025-07-09T08:54:36.485Z","","","","","","","","","","","","","","win-only","1","g1:NE,g2:SW","0.8","3","0","250092","1725.9","6746.3","24541.5","1","4","4","6","2","4","4","6","2","0.045454545454545456","1348.7","3000","1110","[""down"",""left""]","{""num_key_presses"":6,""num_perfect"":5,""num_errors"":0,""num_randdir"":1,""num_randdir_good_moves"":1,""num_whilered"":0,""num_whileblue"":0,""num_blue"":0,""num_good_moves"":6}","[295.22232142857143,291.12857142857143,0.2,295.22232142857143,291.12857142857143,107.8,295.22232142857143,291.12857142857143,221.7,295.22232142857143,291.12857142857143,321.9,295.22232142857143,291.12857142857143,424.1,284.22232142857143,295.12857142857143,561,122.22232142857143,447.12857142857143,675.3,83.22232142857143,511.12857142857143,778.8,80.22232142857143,519.1285714285714,885.4,74.22232142857143,530.1285714285714,990.9,70.22232142857143,534.1285714285714,1097.8,70.22232142857143,534.1285714285714,1201.9,70.22232142857143,534.1285714285714,1302.5,70.22232142857143,534.1285714285714,1403.9,70.22232142857143,534.1285714285714,1529.5,70.22232142857143,534.1285714285714,1642.3,70.22232142857143,534.1285714285714,1755.6,70.22232142857143,534.1285714285714,1869.7,70.22232142857143,534.1285714285714,1971.8,70.22232142857143,534.1285714285714,2080.2,70.22232142857143,534.1285714285714,2187.9,70.22232142857143,534.1285714285714,2296.1,70.22232142857143,534.1285714285714,2397.3,70.22232142857143,534.1285714285714,2506.5,70.22232142857143,534.1285714285714,2621.5,70.22232142857143,534.1285714285714,2728.9,70.22232142857143,534.1285714285714,2829.6,70.22232142857143,534.1285714285714,2931.8,70.22232142857143,534.1285714285714,3046.8,70.22232142857143,534.1285714285714,3146.9,70.22232142857143,534.1285714285714,3266.1,70.22232142857143,534.1285714285714,3377.3,70.22232142857143,534.1285714285714,3479.7,70.22232142857143,534.1285714285714,3584.9,70.22232142857143,534.1285714285714,3688.6,70.22232142857143,534.1285714285714,3792,70.22232142857143,534.1285714285714,3900.7,70.22232142857143,534.1285714285714,4003.9,70.22232142857143,534.1285714285714,4107.6,70.22232142857143,534.1285714285714,4214.8,64.22232142857143,534.1285714285714,4315.4,63.222321428571426,534.1285714285714,4422.8,62.222321428571426,534.1285714285714,4525.3,62.222321428571426,534.1285714285714,4628.1,62.222321428571426,534.1285714285714,4730.9,62.222321428571426,534.1285714285714,4838,62.222321428571426,534.1285714285714,4955.1]","[1799.3,1799.3,1000,0,799.3,""smooth"",""down"",""down"",""good_move"",5940.7,4136.9,3651.9,1803.8,485,""smooth"",""down"",""down"",""good_move"",8931.7,2989,2454.7,5942.7,534.3,""smooth"",""down"",""down"",""good_move"",11746.5,2810,2326.7,8936.6,483.2,""smooth"",""left"",""left"",""good_move"",15014,3265.2,2769.7,11748.8,495.5,""oops"",""left"",""left"",""good_move"",17633.2,2606.1,2060,15027.1,546.1,""smooth"",""left"",""left"",""good_move""]","",""
"3991","","<div style=""width:500px;"">
  <p>What determined the result of this run?</p>
  </div>","100","html-slider-response","20","260085","0.0-5.0-1.2","19","1","2025-07-09 08:49:59","01610cd0009c79a99da7d0a3353eb402","41.145.194.11","Mozilla/5.0 (Windows NT 10.0; Win64; x64) AppleWebKit/537.36 (KHTML, like Gecko) Chrome/137.0.0.0 Safari/537.36","WebKit","Chrome","137.0.0.0","Windows","10.0","https://app.prolific.com/","en-ZA,en-GB;q=0.9,en-US;q=0.8,en;q=0.7,zu;q=0.6","5f3287b83428cb05746e2214","683db7602f5db6a34d12d064","686e2ce6dc8a53743a2e9c69","1","5f3287b83428cb05746e2214","1","2025-07-09T08:54:40.520Z","","","","","","","","","","","AttribQ","","50","","","","","","","","","","","","","","","","","","","","","","","","","","","","",""
"3174","","<div style=""width:500px;"">
  <p>How much control did you have over the ball?</p>
  </div>","100","html-slider-response","21","263268","0.0-5.0-2.2","19","1","2025-07-09 08:49:59","01610cd0009c79a99da7d0a3353eb402","41.145.194.11","Mozilla/5.0 (Windows NT 10.0; Win64; x64) AppleWebKit/537.36 (KHTML, like Gecko) Chrome/137.0.0.0 Safari/537.36","WebKit","Chrome","137.0.0.0","Windows","10.0","https://app.prolific.com/","en-ZA,en-GB;q=0.9,en-US;q=0.8,en;q=0.7,zu;q=0.6","5f3287b83428cb05746e2214","683db7602f5db6a34d12d064","686e2ce6dc8a53743a2e9c69","1","5f3287b83428cb05746e2214","1","2025-07-09T08:54:43.703Z","","","","","","","","","","","ControlQ","","50","","","","","","","","","","","","","","","","","","","","","","","","","","","","",""
"3609","","<div style=""width:500px;"">
  <p>How would you describe your current emotional state?</p>
  </div>","0","html-slider-response","22","266884","0.0-5.0-3.2","19","1","2025-07-09 08:49:59","01610cd0009c79a99da7d0a3353eb402","41.145.194.11","Mozilla/5.0 (Windows NT 10.0; Win64; x64) AppleWebKit/537.36 (KHTML, like Gecko) Chrome/137.0.0.0 Safari/537.36","WebKit","Chrome","137.0.0.0","Windows","10.0","https://app.prolific.com/","en-ZA,en-GB;q=0.9,en-US;q=0.8,en;q=0.7,zu;q=0.6","5f3287b83428cb05746e2214","683db7602f5db6a34d12d064","686e2ce6dc8a53743a2e9c69","1","5f3287b83428cb05746e2214","1","2025-07-09T08:54:47.320Z","","","","","","","","","","","StressQ","","50","","","","","","","","","","","","","","","","","","","","","","","","","","","","",""
"5271","","<div style=""width:500px;"">
  <p>What best describes how you currently feel?</p>
  </div>","100","html-slider-response","23","272160","0.0-5.0-4.2","19","1","2025-07-09 08:49:59","01610cd0009c79a99da7d0a3353eb402","41.145.194.11","Mozilla/5.0 (Windows NT 10.0; Win64; x64) AppleWebKit/537.36 (KHTML, like Gecko) Chrome/137.0.0.0 Safari/537.36","WebKit","Chrome","137.0.0.0","Windows","10.0","https://app.prolific.com/","en-ZA,en-GB;q=0.9,en-US;q=0.8,en;q=0.7,zu;q=0.6","5f3287b83428cb05746e2214","683db7602f5db6a34d12d064","686e2ce6dc8a53743a2e9c69","1","5f3287b83428cb05746e2214","1","2025-07-09T08:54:52.596Z","","","","","","","","","","","MotivationQ","","50","","","","","","","","","","","","","","","","","","","","","","","","","","","","",""
"","","","","ctl-task-cpt","24","303189","0.0-5.0-0.3","19","1","2025-07-09 08:49:59","01610cd0009c79a99da7d0a3353eb402","41.145.194.11","Mozilla/5.0 (Windows NT 10.0; Win64; x64) AppleWebKit/537.36 (KHTML, like Gecko) Chrome/137.0.0.0 Safari/537.36","WebKit","Chrome","137.0.0.0","Windows","10.0","https://app.prolific.com/","en-ZA,en-GB;q=0.9,en-US;q=0.8,en;q=0.7,zu;q=0.6","5f3287b83428cb05746e2214","683db7602f5db6a34d12d064","686e2ce6dc8a53743a2e9c69","1","5f3287b83428cb05746e2214","1","2025-07-09T08:55:23.624Z","","","","","","","","","","","","","","win-only","2","g1:SE,g2:NW","0.7","4","0","293775","1659","6669.7","27997.7","1","4","8","6","2","8","8","14","6","0.10606060606060606","2610.8","3000","1550","[""left"",""up""]","{""num_key_presses"":8,""num_perfect"":6,""num_errors"":0,""num_randdir"":2,""num_randdir_good_moves"":1,""num_whilered"":0,""num_whileblue"":0,""num_blue"":0,""num_good_moves"":7}","[299.22232142857143,298.12857142857143,0.1,299.22232142857143,298.12857142857143,115.7,299.22232142857143,298.12857142857143,222.1,299.22232142857143,298.12857142857143,326.4,299.22232142857143,298.12857142857143,428.2,299.22232142857143,298.12857142857143,544.3,299.22232142857143,298.12857142857143,659.8,299.22232142857143,298.12857142857143,769.5,299.22232142857143,298.12857142857143,872.1,299.22232142857143,298.12857142857143,975,299.22232142857143,298.12857142857143,1075.9,299.22232142857143,298.12857142857143,1178.2,299.22232142857143,298.12857142857143,1283.9,299.22232142857143,298.12857142857143,1389,299.22232142857143,298.12857142857143,1491.6,299.22232142857143,298.12857142857143,1597.3,268.22232142857143,271.12857142857143,1702.9,65.22232142857143,144.12857142857143,1803.2,40.222321428571426,110.12857142857143,1906.1,39.222321428571426,103.12857142857143,2009.9,46.222321428571426,76.12857142857143,2117.1,51.222321428571426,46.128571428571426,2223.2,51.222321428571426,36.128571428571426,2331,51.222321428571426,36.128571428571426,2447.8,51.222321428571426,36.128571428571426,2552.6,51.222321428571426,36.128571428571426,2654.4,51.222321428571426,36.128571428571426,2758.2,51.222321428571426,36.128571428571426,2872.4,51.222321428571426,36.128571428571426,2974.7,51.222321428571426,36.128571428571426,3077.8,51.222321428571426,36.128571428571426,3181.8,51.222321428571426,36.128571428571426,3298,51.222321428571426,36.128571428571426,3400.2,51.222321428571426,36.128571428571426,3510.1,51.222321428571426,36.128571428571426,3617.5,51.222321428571426,36.128571428571426,3719.3,51.222321428571426,36.128571428571426,3900.4,51.222321428571426,36.128571428571426,4008.3,51.222321428571426,36.128571428571426,4137.8,51.222321428571426,36.128571428571426,4251.2,51.222321428571426,36.128571428571426,4365.3,51.222321428571426,36.128571428571426,4469,51.222321428571426,36.128571428571426,4572.6,51.222321428571426,36.128571428571426,4680.7,51.222321428571426,36.128571428571426,4780.8,51.222321428571426,36.128571428571426,4883.1,51.222321428571426,36.128571428571426,4994.9]","[1579.9,1579.9,1000,0,579.9,""smooth"",""left"",""left"",""good_move"",3968.8,2386.2,1864.8,1582.6,521.4,""smooth"",""left"",""left"",""good_move"",6677.6,2690.2,2268.3,3987.5,421.8,""smooth"",""up"",""up"",""good_move"",9656.2,2976.2,2509,6680.2,467,""oops"",""up"",""down"",""bad_move"",12225.7,2563.9,2045.7,9661.8,518.2,""smooth"",""left"",""left"",""good_move"",15068.6,2840.8,2400.8,12227.8,440,""smooth"",""up"",""up"",""good_move"",18111,3032.5,2066.5,15078.5,966.1,""smooth"",""up"",""up"",""good_move"",21058.5,2945.5,1989.6,18113.1,955.9,""oops"",""up"",""up"",""good_move""]","",""
"5294","","<div style=""width:500px;"">
  <p>What determined the result of this run?</p>
  </div>","100","html-slider-response","25","308492","0.0-5.0-1.3","19","1","2025-07-09 08:49:59","01610cd0009c79a99da7d0a3353eb402","41.145.194.11","Mozilla/5.0 (Windows NT 10.0; Win64; x64) AppleWebKit/537.36 (KHTML, like Gecko) Chrome/137.0.0.0 Safari/537.36","WebKit","Chrome","137.0.0.0","Windows","10.0","https://app.prolific.com/","en-ZA,en-GB;q=0.9,en-US;q=0.8,en;q=0.7,zu;q=0.6","5f3287b83428cb05746e2214","683db7602f5db6a34d12d064","686e2ce6dc8a53743a2e9c69","1","5f3287b83428cb05746e2214","1","2025-07-09T08:55:28.927Z","","","","","","","","","","","AttribQ","","50","","","","","","","","","","","","","","","","","","","","","","","","","","","","",""
"6394","","<div style=""width:500px;"">
  <p>How much control did you have over the ball?</p>
  </div>","88","html-slider-response","26","314894","0.0-5.0-2.3","19","1","2025-07-09 08:49:59","01610cd0009c79a99da7d0a3353eb402","41.145.194.11","Mozilla/5.0 (Windows NT 10.0; Win64; x64) AppleWebKit/537.36 (KHTML, like Gecko) Chrome/137.0.0.0 Safari/537.36","WebKit","Chrome","137.0.0.0","Windows","10.0","https://app.prolific.com/","en-ZA,en-GB;q=0.9,en-US;q=0.8,en;q=0.7,zu;q=0.6","5f3287b83428cb05746e2214","683db7602f5db6a34d12d064","686e2ce6dc8a53743a2e9c69","1","5f3287b83428cb05746e2214","1","2025-07-09T08:55:35.329Z","","","","","","","","","","","ControlQ","","50","","","","","","","","","","","","","","","","","","","","","","","","","","","","",""
"3587","","<div style=""width:500px;"">
  <p>How would you describe your current emotional state?</p>
  </div>","0","html-slider-response","27","318487","0.0-5.0-3.3","19","1","2025-07-09 08:49:59","01610cd0009c79a99da7d0a3353eb402","41.145.194.11","Mozilla/5.0 (Windows NT 10.0; Win64; x64) AppleWebKit/537.36 (KHTML, like Gecko) Chrome/137.0.0.0 Safari/537.36","WebKit","Chrome","137.0.0.0","Windows","10.0","https://app.prolific.com/","en-ZA,en-GB;q=0.9,en-US;q=0.8,en;q=0.7,zu;q=0.6","5f3287b83428cb05746e2214","683db7602f5db6a34d12d064","686e2ce6dc8a53743a2e9c69","1","5f3287b83428cb05746e2214","1","2025-07-09T08:55:38.922Z","","","","","","","","","","","StressQ","","50","","","","","","","","","","","","","","","","","","","","","","","","","","","","",""
"4990","","<div style=""width:500px;"">
  <p>What best describes how you currently feel?</p>
  </div>","100","html-slider-response","28","323485","0.0-5.0-4.3","19","1","2025-07-09 08:49:59","01610cd0009c79a99da7d0a3353eb402","41.145.194.11","Mozilla/5.0 (Windows NT 10.0; Win64; x64) AppleWebKit/537.36 (KHTML, like Gecko) Chrome/137.0.0.0 Safari/537.36","WebKit","Chrome","137.0.0.0","Windows","10.0","https://app.prolific.com/","en-ZA,en-GB;q=0.9,en-US;q=0.8,en;q=0.7,zu;q=0.6","5f3287b83428cb05746e2214","683db7602f5db6a34d12d064","686e2ce6dc8a53743a2e9c69","1","5f3287b83428cb05746e2214","1","2025-07-09T08:55:43.921Z","","","","","","","","","","","MotivationQ","","50","","","","","","","","","","","","","","","","","","","","","","","","","","","","",""
"","","","","ctl-task-cpt","29","363623","0.0-5.0-0.4","19","1","2025-07-09 08:49:59","01610cd0009c79a99da7d0a3353eb402","41.145.194.11","Mozilla/5.0 (Windows NT 10.0; Win64; x64) AppleWebKit/537.36 (KHTML, like Gecko) Chrome/137.0.0.0 Safari/537.36","WebKit","Chrome","137.0.0.0","Windows","10.0","https://app.prolific.com/","en-ZA,en-GB;q=0.9,en-US;q=0.8,en;q=0.7,zu;q=0.6","5f3287b83428cb05746e2214","683db7602f5db6a34d12d064","686e2ce6dc8a53743a2e9c69","1","5f3287b83428cb05746e2214","1","2025-07-09T08:56:24.058Z","","","","","","","","","","","","","","win-only","1","g1:NE,g2:SW","0.6","5","0","345102.2","2565.3","7582.7","37109.2","1","4","4","6","2","4","4","18","14","0.13636363636363635","1680.9","3000","1310","[""down"",""left""]","{""num_key_presses"":10,""num_perfect"":6,""num_errors"":0,""num_randdir"":4,""num_randdir_good_moves"":2,""num_whilered"":0,""num_whileblue"":0,""num_blue"":0,""num_good_moves"":8}","[293.22232142857143,300.12857142857143,1.1,293.22232142857143,300.12857142857143,108.7,293.22232142857143,300.12857142857143,211,293.22232142857143,300.12857142857143,317.2,293.22232142857143,300.12857142857143,420.6,293.22232142857143,300.12857142857143,521.4,240.22232142857143,331.12857142857143,636.2,141.22232142857143,438.12857142857143,740.6,95.22232142857143,478.12857142857143,855.9,87.22232142857143,492.12857142857143,961,84.22232142857143,511.12857142857143,1069.3,81.22232142857143,520.1285714285714,1174.9,81.22232142857143,520.1285714285714,1292.7,81.22232142857143,520.1285714285714,1401.8,81.22232142857143,520.1285714285714,1505.5,81.22232142857143,520.1285714285714,1607.9,81.22232142857143,520.1285714285714,1714.2,81.22232142857143,520.1285714285714,1826.7,81.22232142857143,520.1285714285714,1926.8,81.22232142857143,520.1285714285714,2038.3,81.22232142857143,520.1285714285714,2145.1,81.22232142857143,520.1285714285714,2246.6,81.22232142857143,520.1285714285714,2354.7,81.22232142857143,520.1285714285714,2466.2,81.22232142857143,520.1285714285714,2574.9,81.22232142857143,520.1285714285714,2684.4,81.22232142857143,520.1285714285714,2784.8,81.22232142857143,520.1285714285714,2889.7,81.22232142857143,520.1285714285714,3011,81.22232142857143,520.1285714285714,3118.2,81.22232142857143,520.1285714285714,3222.1,81.22232142857143,520.1285714285714,3327.8,81.22232142857143,520.1285714285714,3434.5,81.22232142857143,520.1285714285714,3537.7,81.22232142857143,520.1285714285714,3651.3,81.22232142857143,520.1285714285714,3761.6,81.22232142857143,520.1285714285714,3875.2,81.22232142857143,520.1285714285714,3978.5,81.22232142857143,520.1285714285714,4088.9,81.22232142857143,520.1285714285714,4191.4,81.22232142857143,520.1285714285714,4293,81.22232142857143,520.1285714285714,4401.8,81.22232142857143,520.1285714285714,4502.5,81.22232142857143,520.1285714285714,4611.3,81.22232142857143,520.1285714285714,4717.9,81.22232142857143,520.1285714285714,4834.5,81.22232142857143,520.1285714285714,4936.4]","[1533.7,1533.7,1000,0,533.7,""oops"",""down"",""left"",""good_move"",4961.8,3426.3,2549.6,1535.5,876.7,""oops"",""down"",""up"",""bad_move"",8812.1,3848.5,3460.4,4963.6,388.1,""oops"",""down"",""left"",""good_move"",12158,3343.6,2198.7,8814.4,1144.9,""oops"",""down"",""up"",""bad_move"",15593.4,3433.4,2834.4,12160,599,""smooth"",""down"",""down"",""good_move"",18317.5,2721.8,2263.1,15595.8,458.7,""smooth"",""down"",""down"",""good_move"",21321.6,3001.9,2590,18319.7,411.9,""smooth"",""down"",""down"",""good_move"",24064.5,2741.1,1927.3,21323.5,813.7,""smooth"",""down"",""down"",""good_move"",26618.7,2546.6,2136.9,24072.1,409.7,""smooth"",""left"",""left"",""good_move"",29241.2,2618.9,2152.9,26622.4,466,""smooth"",""down"",""down"",""good_move""]","",""
"4506","","<div style=""width:500px;"">
  <p>What determined the result of this run?</p>
  </div>","28","html-slider-response","30","368134","0.0-5.0-1.4","19","1","2025-07-09 08:49:59","01610cd0009c79a99da7d0a3353eb402","41.145.194.11","Mozilla/5.0 (Windows NT 10.0; Win64; x64) AppleWebKit/537.36 (KHTML, like Gecko) Chrome/137.0.0.0 Safari/537.36","WebKit","Chrome","137.0.0.0","Windows","10.0","https://app.prolific.com/","en-ZA,en-GB;q=0.9,en-US;q=0.8,en;q=0.7,zu;q=0.6","5f3287b83428cb05746e2214","683db7602f5db6a34d12d064","686e2ce6dc8a53743a2e9c69","1","5f3287b83428cb05746e2214","1","2025-07-09T08:56:28.570Z","","","","","","","","","","","AttribQ","","50","","","","","","","","","","","","","","","","","","","","","","","","","","","","",""
"4040","","<div style=""width:500px;"">
  <p>How much control did you have over the ball?</p>
  </div>","77","html-slider-response","31","372183","0.0-5.0-2.4","19","1","2025-07-09 08:49:59","01610cd0009c79a99da7d0a3353eb402","41.145.194.11","Mozilla/5.0 (Windows NT 10.0; Win64; x64) AppleWebKit/537.36 (KHTML, like Gecko) Chrome/137.0.0.0 Safari/537.36","WebKit","Chrome","137.0.0.0","Windows","10.0","https://app.prolific.com/","en-ZA,en-GB;q=0.9,en-US;q=0.8,en;q=0.7,zu;q=0.6","5f3287b83428cb05746e2214","683db7602f5db6a34d12d064","686e2ce6dc8a53743a2e9c69","1","5f3287b83428cb05746e2214","1","2025-07-09T08:56:32.619Z","","","","","","","","","","","ControlQ","","50","","","","","","","","","","","","","","","","","","","","","","","","","","","","",""
"3800","","<div style=""width:500px;"">
  <p>How would you describe your current emotional state?</p>
  </div>","17","html-slider-response","32","375989","0.0-5.0-3.4","19","1","2025-07-09 08:49:59","01610cd0009c79a99da7d0a3353eb402","41.145.194.11","Mozilla/5.0 (Windows NT 10.0; Win64; x64) AppleWebKit/537.36 (KHTML, like Gecko) Chrome/137.0.0.0 Safari/537.36","WebKit","Chrome","137.0.0.0","Windows","10.0","https://app.prolific.com/","en-ZA,en-GB;q=0.9,en-US;q=0.8,en;q=0.7,zu;q=0.6","5f3287b83428cb05746e2214","683db7602f5db6a34d12d064","686e2ce6dc8a53743a2e9c69","1","5f3287b83428cb05746e2214","1","2025-07-09T08:56:36.424Z","","","","","","","","","","","StressQ","","50","","","","","","","","","","","","","","","","","","","","","","","","","","","","",""
"4843","","<div style=""width:500px;"">
  <p>What best describes how you currently feel?</p>
  </div>","84","html-slider-response","33","380838","0.0-5.0-4.4","19","1","2025-07-09 08:49:59","01610cd0009c79a99da7d0a3353eb402","41.145.194.11","Mozilla/5.0 (Windows NT 10.0; Win64; x64) AppleWebKit/537.36 (KHTML, like Gecko) Chrome/137.0.0.0 Safari/537.36","WebKit","Chrome","137.0.0.0","Windows","10.0","https://app.prolific.com/","en-ZA,en-GB;q=0.9,en-US;q=0.8,en;q=0.7,zu;q=0.6","5f3287b83428cb05746e2214","683db7602f5db6a34d12d064","686e2ce6dc8a53743a2e9c69","1","5f3287b83428cb05746e2214","1","2025-07-09T08:56:41.273Z","","","","","","","","","","","MotivationQ","","50","","","","","","","","","","","","","","","","","","","","","","","","","","","","",""
"","","","","ctl-task-cpt","34","427479","0.0-5.0-0.5","19","1","2025-07-09 08:49:59","01610cd0009c79a99da7d0a3353eb402","41.145.194.11","Mozilla/5.0 (Windows NT 10.0; Win64; x64) AppleWebKit/537.36 (KHTML, like Gecko) Chrome/137.0.0.0 Safari/537.36","WebKit","Chrome","137.0.0.0","Windows","10.0","https://app.prolific.com/","en-ZA,en-GB;q=0.9,en-US;q=0.8,en;q=0.7,zu;q=0.6","5f3287b83428cb05746e2214","683db7602f5db6a34d12d064","686e2ce6dc8a53743a2e9c69","1","5f3287b83428cb05746e2214","1","2025-07-09T08:57:27.914Z","","","","","","","","","","","","","","win-only","3","g1:SW,g2:NE","0.5","6","0","402456.7","1817.2","6844.4","43614.1","1","4","8","6","2","8","8","26","18","0.19696969696969696","1900.8","3000","1785","[""up"",""right""]","{""num_key_presses"":10,""num_perfect"":5,""num_errors"":0,""num_randdir"":5,""num_randdir_good_moves"":3,""num_whilered"":0,""num_whileblue"":0,""num_blue"":0,""num_good_moves"":8}","[296.22232142857143,295.12857142857143,1.2,296.22232142857143,295.12857142857143,110.5,296.22232142857143,295.12857142857143,225.9,296.22232142857143,295.12857142857143,338.3,296.22232142857143,295.12857142857143,461.9,296.22232142857143,295.12857142857143,580.9,296.22232142857143,295.12857142857143,685.3,321.22232142857143,254.12857142857143,790.1,414.22232142857143,180.12857142857143,891.2,414.22232142857143,180.12857142857143,1018.7,416.22232142857143,178.12857142857143,1150.2,459.22232142857143,108.12857142857143,1280,496.22232142857143,76.12857142857143,1381.4,515.2223214285714,60.128571428571426,1519.5,516.2223214285714,60.128571428571426,1625.5,516.2223214285714,60.128571428571426,1740.3,516.2223214285714,60.128571428571426,1857.1,516.2223214285714,60.128571428571426,1969.2,516.2223214285714,60.128571428571426,2069.7,516.2223214285714,60.128571428571426,2171.3,516.2223214285714,60.128571428571426,2300.3,516.2223214285714,60.128571428571426,2402.5,516.2223214285714,60.128571428571426,2534,516.2223214285714,60.128571428571426,2644.6,516.2223214285714,60.128571428571426,2751.4,516.2223214285714,60.128571428571426,2851.7,516.2223214285714,60.128571428571426,2955.4,516.2223214285714,60.128571428571426,3078.1,516.2223214285714,60.128571428571426,3207.6,516.2223214285714,60.128571428571426,3315.7,516.2223214285714,60.128571428571426,3425.3,516.2223214285714,60.128571428571426,3531.6,516.2223214285714,60.128571428571426,3638.4,516.2223214285714,60.128571428571426,3751.7,516.2223214285714,60.128571428571426,3856,516.2223214285714,60.128571428571426,3965.2,516.2223214285714,60.128571428571426,4082.8,516.2223214285714,60.128571428571426,4197.3,516.2223214285714,60.128571428571426,4297.3,516.2223214285714,60.128571428571426,4409,516.2223214285714,60.128571428571426,4511.6,516.2223214285714,60.128571428571426,4612,516.2223214285714,60.128571428571426,4715.4,516.2223214285714,60.128571428571426,4836.6,516.2223214285714,60.128571428571426,4938.6]","[1474.3,1474.3,1000,0,474.3,""smooth"",""right"",""right"",""good_move"",4662.2,3184.6,2714.5,1477.7,470,""smooth"",""right"",""right"",""good_move"",7531.7,2858.7,1907,4673,951.7,""oops"",""up"",""down"",""bad_move"",10567.3,3033.3,2453.6,7534,579.7,""oops"",""right"",""right"",""good_move"",13859.3,3287.7,2805.9,10571.6,481.8,""oops"",""up"",""up"",""good_move"",17851.9,3990.3,2676.7,13861.6,1313.6,""smooth"",""up"",""up"",""good_move"",22566.7,4711.9,2401,17854.8,2310.9,""smooth"",""up"",""up"",""good_move"",27456,4886.9,2422.1,22569.1,2464.8,""oops"",""up"",""left"",""bad_move"",32482.7,5023.9,3463.7,27458.8,1560.2,""oops"",""up"",""right"",""good_move"",36201.4,3716.2,3130.5,32485.2,585.7,""smooth"",""up"",""up"",""good_move""]","",""
"5653","","<div style=""width:500px;"">
  <p>What determined the result of this run?</p>
  </div>","85","html-slider-response","35","433139","0.0-5.0-1.5","19","1","2025-07-09 08:49:59","01610cd0009c79a99da7d0a3353eb402","41.145.194.11","Mozilla/5.0 (Windows NT 10.0; Win64; x64) AppleWebKit/537.36 (KHTML, like Gecko) Chrome/137.0.0.0 Safari/537.36","WebKit","Chrome","137.0.0.0","Windows","10.0","https://app.prolific.com/","en-ZA,en-GB;q=0.9,en-US;q=0.8,en;q=0.7,zu;q=0.6","5f3287b83428cb05746e2214","683db7602f5db6a34d12d064","686e2ce6dc8a53743a2e9c69","1","5f3287b83428cb05746e2214","1","2025-07-09T08:57:33.574Z","","","","","","","","","","","AttribQ","","50","","","","","","","","","","","","","","","","","","","","","","","","","","","","",""
"4776","","<div style=""width:500px;"">
  <p>How much control did you have over the ball?</p>
  </div>","72","html-slider-response","36","437921","0.0-5.0-2.5","19","1","2025-07-09 08:49:59","01610cd0009c79a99da7d0a3353eb402","41.145.194.11","Mozilla/5.0 (Windows NT 10.0; Win64; x64) AppleWebKit/537.36 (KHTML, like Gecko) Chrome/137.0.0.0 Safari/537.36","WebKit","Chrome","137.0.0.0","Windows","10.0","https://app.prolific.com/","en-ZA,en-GB;q=0.9,en-US;q=0.8,en;q=0.7,zu;q=0.6","5f3287b83428cb05746e2214","683db7602f5db6a34d12d064","686e2ce6dc8a53743a2e9c69","1","5f3287b83428cb05746e2214","1","2025-07-09T08:57:38.356Z","","","","","","","","","","","ControlQ","","50","","","","","","","","","","","","","","","","","","","","","","","","","","","","",""
"3955","","<div style=""width:500px;"">
  <p>How would you describe your current emotional state?</p>
  </div>","10","html-slider-response","37","441881","0.0-5.0-3.5","19","1","2025-07-09 08:49:59","01610cd0009c79a99da7d0a3353eb402","41.145.194.11","Mozilla/5.0 (Windows NT 10.0; Win64; x64) AppleWebKit/537.36 (KHTML, like Gecko) Chrome/137.0.0.0 Safari/537.36","WebKit","Chrome","137.0.0.0","Windows","10.0","https://app.prolific.com/","en-ZA,en-GB;q=0.9,en-US;q=0.8,en;q=0.7,zu;q=0.6","5f3287b83428cb05746e2214","683db7602f5db6a34d12d064","686e2ce6dc8a53743a2e9c69","1","5f3287b83428cb05746e2214","1","2025-07-09T08:57:42.316Z","","","","","","","","","","","StressQ","","50","","","","","","","","","","","","","","","","","","","","","","","","","","","","",""
"4151","","<div style=""width:500px;"">
  <p>What best describes how you currently feel?</p>
  </div>","98","html-slider-response","38","446040","0.0-5.0-4.5","19","1","2025-07-09 08:49:59","01610cd0009c79a99da7d0a3353eb402","41.145.194.11","Mozilla/5.0 (Windows NT 10.0; Win64; x64) AppleWebKit/537.36 (KHTML, like Gecko) Chrome/137.0.0.0 Safari/537.36","WebKit","Chrome","137.0.0.0","Windows","10.0","https://app.prolific.com/","en-ZA,en-GB;q=0.9,en-US;q=0.8,en;q=0.7,zu;q=0.6","5f3287b83428cb05746e2214","683db7602f5db6a34d12d064","686e2ce6dc8a53743a2e9c69","1","5f3287b83428cb05746e2214","1","2025-07-09T08:57:46.476Z","","","","","","","","","","","MotivationQ","","50","","","","","","","","","","","","","","","","","","","","","","","","","","","","",""
"","","","","ctl-task-cpt","39","506740","0.0-5.0-0.6","19","1","2025-07-09 08:49:59","01610cd0009c79a99da7d0a3353eb402","41.145.194.11","Mozilla/5.0 (Windows NT 10.0; Win64; x64) AppleWebKit/537.36 (KHTML, like Gecko) Chrome/137.0.0.0 Safari/537.36","WebKit","Chrome","137.0.0.0","Windows","10.0","https://app.prolific.com/","en-ZA,en-GB;q=0.9,en-US;q=0.8,en;q=0.7,zu;q=0.6","5f3287b83428cb05746e2214","683db7602f5db6a34d12d064","686e2ce6dc8a53743a2e9c69","1","5f3287b83428cb05746e2214","1","2025-07-09T08:58:47.175Z","","","","","","","","","","","","","","win-only","3","g1:SW,g2:NE","0.4","7","0","467656","1898.5","6907.2","57663.9","1","4","4","6","2","4","4","30","26","0.22727272727272727","1997.8","3000","1675","[""up"",""right""]","{""num_key_presses"":10,""num_perfect"":4,""num_errors"":0,""num_randdir"":6,""num_randdir_good_moves"":4,""num_whilered"":0,""num_whileblue"":0,""num_blue"":4,""num_good_moves"":8}","[295.22232142857143,296.12857142857143,5.4,295.22232142857143,296.12857142857143,105.9,295.22232142857143,296.12857142857143,206.3,295.22232142857143,296.12857142857143,317.6,295.22232142857143,296.12857142857143,421.4,295.22232142857143,296.12857142857143,538.4,295.22232142857143,296.12857142857143,640.6,295.22232142857143,296.12857142857143,754.3,417.22232142857143,188.12857142857143,882,479.22232142857143,125.12857142857143,983.4,479.22232142857143,125.12857142857143,1092.4,479.22232142857143,125.12857142857143,1199.9,496.22232142857143,100.12857142857143,1317.6,508.22232142857143,89.12857142857143,1428,512.2223214285714,85.12857142857143,1530.7,519.2223214285714,76.12857142857143,1649.8,519.2223214285714,76.12857142857143,1766.7,519.2223214285714,76.12857142857143,1873.1,519.2223214285714,76.12857142857143,2005.7,519.2223214285714,76.12857142857143,2127.1,519.2223214285714,76.12857142857143,2249.4,519.2223214285714,76.12857142857143,2370.6,519.2223214285714,76.12857142857143,2484.7,519.2223214285714,76.12857142857143,2599.2,519.2223214285714,76.12857142857143,2713.4,519.2223214285714,76.12857142857143,2816,519.2223214285714,76.12857142857143,2934.1,519.2223214285714,76.12857142857143,3043.6,519.2223214285714,76.12857142857143,3159.8,519.2223214285714,76.12857142857143,3271.2,519.2223214285714,76.12857142857143,3382.3,519.2223214285714,76.12857142857143,3505,519.2223214285714,76.12857142857143,3625.3,519.2223214285714,76.12857142857143,3747.5,519.2223214285714,76.12857142857143,3864.2,519.2223214285714,76.12857142857143,3972.2,519.2223214285714,76.12857142857143,4078.3,519.2223214285714,76.12857142857143,4201.9,519.2223214285714,76.12857142857143,4311.5,519.2223214285714,76.12857142857143,4430.2,519.2223214285714,76.12857142857143,4541.5,519.2223214285714,76.12857142857143,4641.8,519.2223214285714,76.12857142857143,4759.4,519.2223214285714,76.12857142857143,4871.8,519.2223214285714,76.12857142857143,4984.2]","[1690.3,1690.3,1000,0,690.4,""oops"",""up"",""right"",""good_move"",4697.5,2994.9,2511.1,1702.7,483.8,""smooth"",""right"",""right"",""good_move"",7648.3,2948.7,1799.5,4699.6,1149.2,""smooth"",""up"",""up"",""good_move"",11367.1,3716.9,2811.8,7650.2,905.1,""smooth"",""up"",""up"",""good_move"",22014,10641.2,1998.3,19554.5,461.2,""oops"",""right"",""left"",""bad_move"",26775.7,4759.7,2267.4,22016.1,2492.3,""oops"",""up"",""left"",""bad_move"",35232,8452,2516.8,32262.1,453.1,""oops"",""right"",""right"",""good_move"",38954.6,3721.1,3132,35233.5,589.1,""smooth"",""right"",""right"",""good_move"",42164.7,3208.4,2652.6,38956.4,555.8,""oops"",""right"",""up"",""good_move"",50351.9,8185.5,2933.5,46921.6,496.8,""oops"",""right"",""right"",""good_move""]","",""
"3089","","<div style=""width:500px;"">
  <p>What determined the result of this run?</p>
  </div>","100","html-slider-response","40","509839","0.0-5.0-1.6","19","1","2025-07-09 08:49:59","01610cd0009c79a99da7d0a3353eb402","41.145.194.11","Mozilla/5.0 (Windows NT 10.0; Win64; x64) AppleWebKit/537.36 (KHTML, like Gecko) Chrome/137.0.0.0 Safari/537.36","WebKit","Chrome","137.0.0.0","Windows","10.0","https://app.prolific.com/","en-ZA,en-GB;q=0.9,en-US;q=0.8,en;q=0.7,zu;q=0.6","5f3287b83428cb05746e2214","683db7602f5db6a34d12d064","686e2ce6dc8a53743a2e9c69","1","5f3287b83428cb05746e2214","1","2025-07-09T08:58:50.274Z","","","","","","","","","","","AttribQ","","50","","","","","","","","","","","","","","","","","","","","","","","","","","","","",""
"4458","","<div style=""width:500px;"">
  <p>How much control did you have over the ball?</p>
  </div>","81","html-slider-response","41","514302","0.0-5.0-2.6","19","1","2025-07-09 08:49:59","01610cd0009c79a99da7d0a3353eb402","41.145.194.11","Mozilla/5.0 (Windows NT 10.0; Win64; x64) AppleWebKit/537.36 (KHTML, like Gecko) Chrome/137.0.0.0 Safari/537.36","WebKit","Chrome","137.0.0.0","Windows","10.0","https://app.prolific.com/","en-ZA,en-GB;q=0.9,en-US;q=0.8,en;q=0.7,zu;q=0.6","5f3287b83428cb05746e2214","683db7602f5db6a34d12d064","686e2ce6dc8a53743a2e9c69","1","5f3287b83428cb05746e2214","1","2025-07-09T08:58:54.737Z","","","","","","","","","","","ControlQ","","50","","","","","","","","","","","","","","","","","","","","","","","","","","","","",""
"5230","","<div style=""width:500px;"">
  <p>How would you describe your current emotional state?</p>
  </div>","5","html-slider-response","42","519539","0.0-5.0-3.6","19","1","2025-07-09 08:49:59","01610cd0009c79a99da7d0a3353eb402","41.145.194.11","Mozilla/5.0 (Windows NT 10.0; Win64; x64) AppleWebKit/537.36 (KHTML, like Gecko) Chrome/137.0.0.0 Safari/537.36","WebKit","Chrome","137.0.0.0","Windows","10.0","https://app.prolific.com/","en-ZA,en-GB;q=0.9,en-US;q=0.8,en;q=0.7,zu;q=0.6","5f3287b83428cb05746e2214","683db7602f5db6a34d12d064","686e2ce6dc8a53743a2e9c69","1","5f3287b83428cb05746e2214","1","2025-07-09T08:58:59.974Z","","","","","","","","","","","StressQ","","50","","","","","","","","","","","","","","","","","","","","","","","","","","","","",""
"3613","","<div style=""width:500px;"">
  <p>What best describes how you currently feel?</p>
  </div>","98","html-slider-response","43","523159","0.0-5.0-4.6","19","1","2025-07-09 08:49:59","01610cd0009c79a99da7d0a3353eb402","41.145.194.11","Mozilla/5.0 (Windows NT 10.0; Win64; x64) AppleWebKit/537.36 (KHTML, like Gecko) Chrome/137.0.0.0 Safari/537.36","WebKit","Chrome","137.0.0.0","Windows","10.0","https://app.prolific.com/","en-ZA,en-GB;q=0.9,en-US;q=0.8,en;q=0.7,zu;q=0.6","5f3287b83428cb05746e2214","683db7602f5db6a34d12d064","686e2ce6dc8a53743a2e9c69","1","5f3287b83428cb05746e2214","1","2025-07-09T08:59:03.595Z","","","","","","","","","","","MotivationQ","","50","","","","","","","","","","","","","","","","","","","","","","","","","","","","",""
"","","","","ctl-task-cpt","44","579276","0.0-5.0-0.7","19","1","2025-07-09 08:49:59","01610cd0009c79a99da7d0a3353eb402","41.145.194.11","Mozilla/5.0 (Windows NT 10.0; Win64; x64) AppleWebKit/537.36 (KHTML, like Gecko) Chrome/137.0.0.0 Safari/537.36","WebKit","Chrome","137.0.0.0","Windows","10.0","https://app.prolific.com/","en-ZA,en-GB;q=0.9,en-US;q=0.8,en;q=0.7,zu;q=0.6","5f3287b83428cb05746e2214","683db7602f5db6a34d12d064","686e2ce6dc8a53743a2e9c69","1","5f3287b83428cb05746e2214","1","2025-07-09T08:59:59.711Z","","","","","","","","","","","","","","win-only","1","g1:NE,g2:SW","0.3","8","0","544775.5","2197","7205.7","53079.3","1","4","8","6","2","8","8","38","30","0.2878787878787879","1484.1","3000","1465","[""down"",""left""]","{""num_key_presses"":12,""num_perfect"":4,""num_errors"":0,""num_randdir"":8,""num_randdir_good_moves"":5,""num_whilered"":0,""num_whileblue"":0,""num_blue"":1,""num_good_moves"":9}","[298.22232142857143,297.12857142857143,12.4,298.22232142857143,297.12857142857143,112,298.22232142857143,297.12857142857143,234.2,298.22232142857143,297.12857142857143,337.5,298.22232142857143,297.12857142857143,460.4,298.22232142857143,297.12857142857143,595.7,289.22232142857143,303.12857142857143,745.5,122.22232142857143,526.1285714285714,885.6,85.22232142857143,553.1285714285714,1030.3,56.222321428571426,555.1285714285714,1148,53.222321428571426,553.1285714285714,1288.2,53.222321428571426,553.1285714285714,1410.9,53.222321428571426,553.1285714285714,1518,53.222321428571426,553.1285714285714,1652.4,53.222321428571426,553.1285714285714,1792.3,53.222321428571426,553.1285714285714,1910.7,53.222321428571426,553.1285714285714,2033.8,53.222321428571426,553.1285714285714,2177,53.222321428571426,553.1285714285714,2291.4,53.222321428571426,553.1285714285714,2405,53.222321428571426,553.1285714285714,2511.4,53.222321428571426,553.1285714285714,2616.5,53.222321428571426,553.1285714285714,2728.7,53.222321428571426,553.1285714285714,2844.6,53.222321428571426,553.1285714285714,2951.1,53.222321428571426,553.1285714285714,3055.4,53.222321428571426,553.1285714285714,3177.3,53.222321428571426,553.1285714285714,3286.8,53.222321428571426,553.1285714285714,3392.3,53.222321428571426,553.1285714285714,3500.7,53.222321428571426,553.1285714285714,3609,53.222321428571426,553.1285714285714,3714.4,53.222321428571426,553.1285714285714,3829.5,53.222321428571426,553.1285714285714,3941.6,53.222321428571426,553.1285714285714,4047.9,53.222321428571426,553.1285714285714,4153.7,53.222321428571426,553.1285714285714,4270.1,53.222321428571426,553.1285714285714,4447.5,53.222321428571426,553.1285714285714,4557.2,53.222321428571426,553.1285714285714,4671.9,53.222321428571426,553.1285714285714,4820.2,53.222321428571426,553.1285714285714,4927.6]","[1583.7,1583.7,1000,0,583.7,""oops"",""down"",""down"",""good_move"",4689.6,3102.9,2475.1,1586.8,627.8,""smooth"",""down"",""down"",""good_move"",10085.3,5389.3,1382.1,8090.5,612.8,""oops"",""left"",""down"",""good_move"",13489.2,3398.9,2725.5,10090.4,673.4,""oops"",""left"",""up"",""bad_move"",18521.3,5021.4,2936.1,13499.9,2085.3,""oops"",""down"",""up"",""bad_move"",23288.5,4765.2,2664.5,18523.4,2100.6,""smooth"",""left"",""left"",""good_move"",27093.9,3792.5,2502.3,23301.4,1290.3,""smooth"",""left"",""left"",""good_move"",31409.8,4311.9,2107.5,27098,2204.3,""oops"",""down"",""left"",""good_move"",34658,3235.3,2580.5,31422.7,654.8,""oops"",""down"",""right"",""bad_move"",37872.1,3211.1,2631.5,34661,579.6,""oops"",""down"",""down"",""good_move"",40736.4,2862.2,2277.7,37874.2,584.5,""oops"",""down"",""left"",""good_move"",45341.7,4592.6,2232.6,40749.1,2360,""smooth"",""down"",""down"",""good_move""]","",""
"4658","","<div style=""width:500px;"">
  <p>What determined the result of this run?</p>
  </div>","73","html-slider-response","45","583937","0.0-5.0-1.7","19","1","2025-07-09 08:49:59","01610cd0009c79a99da7d0a3353eb402","41.145.194.11","Mozilla/5.0 (Windows NT 10.0; Win64; x64) AppleWebKit/537.36 (KHTML, like Gecko) Chrome/137.0.0.0 Safari/537.36","WebKit","Chrome","137.0.0.0","Windows","10.0","https://app.prolific.com/","en-ZA,en-GB;q=0.9,en-US;q=0.8,en;q=0.7,zu;q=0.6","5f3287b83428cb05746e2214","683db7602f5db6a34d12d064","686e2ce6dc8a53743a2e9c69","1","5f3287b83428cb05746e2214","1","2025-07-09T09:00:04.372Z","","","","","","","","","","","AttribQ","","50","","","","","","","","","","","","","","","","","","","","","","","","","","","","",""
"4316","","<div style=""width:500px;"">
  <p>How much control did you have over the ball?</p>
  </div>","56","html-slider-response","46","588261","0.0-5.0-2.7","19","1","2025-07-09 08:49:59","01610cd0009c79a99da7d0a3353eb402","41.145.194.11","Mozilla/5.0 (Windows NT 10.0; Win64; x64) AppleWebKit/537.36 (KHTML, like Gecko) Chrome/137.0.0.0 Safari/537.36","WebKit","Chrome","137.0.0.0","Windows","10.0","https://app.prolific.com/","en-ZA,en-GB;q=0.9,en-US;q=0.8,en;q=0.7,zu;q=0.6","5f3287b83428cb05746e2214","683db7602f5db6a34d12d064","686e2ce6dc8a53743a2e9c69","1","5f3287b83428cb05746e2214","1","2025-07-09T09:00:08.696Z","","","","","","","","","","","ControlQ","","50","","","","","","","","","","","","","","","","","","","","","","","","","","","","",""
"4274","","<div style=""width:500px;"">
  <p>How would you describe your current emotional state?</p>
  </div>","83","html-slider-response","47","592538","0.0-5.0-3.7","19","1","2025-07-09 08:49:59","01610cd0009c79a99da7d0a3353eb402","41.145.194.11","Mozilla/5.0 (Windows NT 10.0; Win64; x64) AppleWebKit/537.36 (KHTML, like Gecko) Chrome/137.0.0.0 Safari/537.36","WebKit","Chrome","137.0.0.0","Windows","10.0","https://app.prolific.com/","en-ZA,en-GB;q=0.9,en-US;q=0.8,en;q=0.7,zu;q=0.6","5f3287b83428cb05746e2214","683db7602f5db6a34d12d064","686e2ce6dc8a53743a2e9c69","1","5f3287b83428cb05746e2214","1","2025-07-09T09:00:12.974Z","","","","","","","","","","","StressQ","","50","","","","","","","","","","","","","","","","","","","","","","","","","","","","",""
"5123","","<div style=""width:500px;"">
  <p>What best describes how you currently feel?</p>
  </div>","68","html-slider-response","48","597668","0.0-5.0-4.7","19","1","2025-07-09 08:49:59","01610cd0009c79a99da7d0a3353eb402","41.145.194.11","Mozilla/5.0 (Windows NT 10.0; Win64; x64) AppleWebKit/537.36 (KHTML, like Gecko) Chrome/137.0.0.0 Safari/537.36","WebKit","Chrome","137.0.0.0","Windows","10.0","https://app.prolific.com/","en-ZA,en-GB;q=0.9,en-US;q=0.8,en;q=0.7,zu;q=0.6","5f3287b83428cb05746e2214","683db7602f5db6a34d12d064","686e2ce6dc8a53743a2e9c69","1","5f3287b83428cb05746e2214","1","2025-07-09T09:00:18.103Z","","","","","","","","","","","MotivationQ","","50","","","","","","","","","","","","","","","","","","","","","","","","","","","","",""
"","","","","ctl-task-cpt","49","683185","0.0-5.0-0.8","19","1","2025-07-09 08:49:59","01610cd0009c79a99da7d0a3353eb402","41.145.194.11","Mozilla/5.0 (Windows NT 10.0; Win64; x64) AppleWebKit/537.36 (KHTML, like Gecko) Chrome/137.0.0.0 Safari/537.36","WebKit","Chrome","137.0.0.0","Windows","10.0","https://app.prolific.com/","en-ZA,en-GB;q=0.9,en-US;q=0.8,en;q=0.7,zu;q=0.6","5f3287b83428cb05746e2214","683db7602f5db6a34d12d064","686e2ce6dc8a53743a2e9c69","1","5f3287b83428cb05746e2214","1","2025-07-09T09:01:43.621Z","","","","","","","","","","","","","","win-only","1","g1:NE,g2:SW","0.2","9","0","619284.8","1667.5","6696.8","82478.3","1","4","4","6","2","-4","-4","34","38","0.25757575757575757","1658.7","3000","-685","[""down"",""left""]","{""num_key_presses"":14,""num_perfect"":3,""num_errors"":0,""num_randdir"":11,""num_randdir_good_moves"":5,""num_whilered"":0,""num_whileblue"":0,""num_blue"":2,""num_good_moves"":8}","[298.22232142857143,299.12857142857143,1,298.22232142857143,299.12857142857143,115.4,298.22232142857143,299.12857142857143,232,298.22232142857143,299.12857142857143,355.4,297.22232142857143,298.12857142857143,467.6,286.22232142857143,301.12857142857143,582.8,162.22232142857143,449.12857142857143,716,107.22232142857143,515.1285714285714,832.2,107.22232142857143,515.1285714285714,944.5,107.22232142857143,515.1285714285714,1070.3,84.22232142857143,527.1285714285714,1185,65.22232142857143,540.1285714285714,1300.8,63.222321428571426,542.1285714285714,1425,63.222321428571426,542.1285714285714,1542.9,63.222321428571426,542.1285714285714,1644.4,63.222321428571426,542.1285714285714,1752.5,63.222321428571426,542.1285714285714,1874.6,63.222321428571426,542.1285714285714,1985.6,63.222321428571426,542.1285714285714,2101.3,63.222321428571426,542.1285714285714,2215.8,63.222321428571426,542.1285714285714,2335.9,63.222321428571426,542.1285714285714,2455.9,63.222321428571426,542.1285714285714,2578.3,63.222321428571426,542.1285714285714,2698.2,63.222321428571426,542.1285714285714,2807.5,63.222321428571426,542.1285714285714,2923.4,63.222321428571426,542.1285714285714,3038.9,63.222321428571426,542.1285714285714,3143,63.222321428571426,542.1285714285714,3258,63.222321428571426,542.1285714285714,3374,63.222321428571426,542.1285714285714,3493.1,63.222321428571426,542.1285714285714,3615.5,63.222321428571426,542.1285714285714,3729,63.222321428571426,542.1285714285714,3829.2,63.222321428571426,542.1285714285714,3941.7,63.222321428571426,542.1285714285714,4041.7,63.222321428571426,542.1285714285714,4155.3,63.222321428571426,542.1285714285714,4271.4,63.222321428571426,542.1285714285714,4388.1,63.222321428571426,542.1285714285714,4507.7,63.222321428571426,542.1285714285714,4621.4,63.222321428571426,542.1285714285714,4736,63.222321428571426,542.1285714285714,4849.5,63.222321428571426,542.1285714285714,4967.2]","[1825,1825,1000,0,825,""smooth"",""down"",""down"",""good_move"",5398.2,3571.2,3076.3,1827.1,494.9,""oops"",""down"",""down"",""good_move"",15342.9,9942.5,2567.9,12171.9,603.1,""oops"",""down"",""up"",""bad_move"",19543.5,4198.3,2866.1,15345.2,1332.2,""oops"",""down"",""down"",""good_move"",22959.5,3414.1,2464.4,19545.4,949.7,""oops"",""down"",""right"",""bad_move"",26182,3219.2,2440.9,22962.8,778.3,""smooth"",""down"",""down"",""good_move"",29801.8,3617.6,2679,26184.3,938.5,""oops"",""left"",""right"",""bad_move"",39666.6,9861.3,2083.2,29805.4,7778,""oops"",""left"",""up"",""bad_move"",47166.9,7491.1,2680.4,39675.9,4810.7,""oops"",""left"",""down"",""good_move"",51305.3,4128,3177.5,47177.4,950.6,""oops"",""left"",""up"",""bad_move"",58445.9,7138.4,2548.6,51307.5,4589.8,""oops"",""left"",""down"",""good_move"",61689.8,3242.4,2653.4,58447.5,589,""oops"",""left"",""left"",""good_move"",67004.9,5312.9,2324.5,61692,2988.4,""smooth"",""left"",""left"",""good_move"",72246.4,5239.6,3132.7,67006.8,2106.9,""oops"",""left"",""up"",""bad_move""]","",""
"5225","","<div style=""width:500px;"">
  <p>What determined the result of this run?</p>
  </div>","1","html-slider-response","50","688416","0.0-5.0-1.8","19","1","2025-07-09 08:49:59","01610cd0009c79a99da7d0a3353eb402","41.145.194.11","Mozilla/5.0 (Windows NT 10.0; Win64; x64) AppleWebKit/537.36 (KHTML, like Gecko) Chrome/137.0.0.0 Safari/537.36","WebKit","Chrome","137.0.0.0","Windows","10.0","https://app.prolific.com/","en-ZA,en-GB;q=0.9,en-US;q=0.8,en;q=0.7,zu;q=0.6","5f3287b83428cb05746e2214","683db7602f5db6a34d12d064","686e2ce6dc8a53743a2e9c69","1","5f3287b83428cb05746e2214","1","2025-07-09T09:01:48.851Z","","","","","","","","","","","AttribQ","","50","","","","","","","","","","","","","","","","","","","","","","","","","","","","",""
"3801","","<div style=""width:500px;"">
  <p>How much control did you have over the ball?</p>
  </div>","0","html-slider-response","51","692224","0.0-5.0-2.8","19","1","2025-07-09 08:49:59","01610cd0009c79a99da7d0a3353eb402","41.145.194.11","Mozilla/5.0 (Windows NT 10.0; Win64; x64) AppleWebKit/537.36 (KHTML, like Gecko) Chrome/137.0.0.0 Safari/537.36","WebKit","Chrome","137.0.0.0","Windows","10.0","https://app.prolific.com/","en-ZA,en-GB;q=0.9,en-US;q=0.8,en;q=0.7,zu;q=0.6","5f3287b83428cb05746e2214","683db7602f5db6a34d12d064","686e2ce6dc8a53743a2e9c69","1","5f3287b83428cb05746e2214","1","2025-07-09T09:01:52.659Z","","","","","","","","","","","ControlQ","","50","","","","","","","","","","","","","","","","","","","","","","","","","","","","",""
"3761","","<div style=""width:500px;"">
  <p>How would you describe your current emotional state?</p>
  </div>","99","html-slider-response","52","695993","0.0-5.0-3.8","19","1","2025-07-09 08:49:59","01610cd0009c79a99da7d0a3353eb402","41.145.194.11","Mozilla/5.0 (Windows NT 10.0; Win64; x64) AppleWebKit/537.36 (KHTML, like Gecko) Chrome/137.0.0.0 Safari/537.36","WebKit","Chrome","137.0.0.0","Windows","10.0","https://app.prolific.com/","en-ZA,en-GB;q=0.9,en-US;q=0.8,en;q=0.7,zu;q=0.6","5f3287b83428cb05746e2214","683db7602f5db6a34d12d064","686e2ce6dc8a53743a2e9c69","1","5f3287b83428cb05746e2214","1","2025-07-09T09:01:56.429Z","","","","","","","","","","","StressQ","","50","","","","","","","","","","","","","","","","","","","","","","","","","","","","",""
"5320","","<div style=""width:500px;"">
  <p>What best describes how you currently feel?</p>
  </div>","50","html-slider-response","53","701320","0.0-5.0-4.8","19","1","2025-07-09 08:49:59","01610cd0009c79a99da7d0a3353eb402","41.145.194.11","Mozilla/5.0 (Windows NT 10.0; Win64; x64) AppleWebKit/537.36 (KHTML, like Gecko) Chrome/137.0.0.0 Safari/537.36","WebKit","Chrome","137.0.0.0","Windows","10.0","https://app.prolific.com/","en-ZA,en-GB;q=0.9,en-US;q=0.8,en;q=0.7,zu;q=0.6","5f3287b83428cb05746e2214","683db7602f5db6a34d12d064","686e2ce6dc8a53743a2e9c69","1","5f3287b83428cb05746e2214","1","2025-07-09T09:02:01.755Z","","","","","","","","","","","MotivationQ","","50","","","","","","","","","","","","","","","","","","","","","","","","","","","","",""
"","","","","ctl-task-cpt","54","839348","0.0-5.0-0.9","19","1","2025-07-09 08:49:59","01610cd0009c79a99da7d0a3353eb402","41.145.194.11","Mozilla/5.0 (Windows NT 10.0; Win64; x64) AppleWebKit/537.36 (KHTML, like Gecko) Chrome/137.0.0.0 Safari/537.36","WebKit","Chrome","137.0.0.0","Windows","10.0","https://app.prolific.com/","en-ZA,en-GB;q=0.9,en-US;q=0.8,en;q=0.7,zu;q=0.6","5f3287b83428cb05746e2214","683db7602f5db6a34d12d064","686e2ce6dc8a53743a2e9c69","1","5f3287b83428cb05746e2214","1","2025-07-09T09:04:19.784Z","","","","","","","","","","","","","","win-only","3","g1:SW,g2:NE","0.4","10","0","722935.7","1487.4","6496.8","134991.2","1","4","8","6","2","8","7","41","34","0.3106060606060606","1503.1","3000","615","[""up"",""right""]","{""num_key_presses"":25,""num_perfect"":10,""num_errors"":1,""num_randdir"":14,""num_randdir_good_moves"":5,""num_whilered"":0,""num_whileblue"":0,""num_blue"":4,""num_good_moves"":15}","[298.22232142857143,295.12857142857143,3.8,298.22232142857143,295.12857142857143,100.5,298.22232142857143,295.12857142857143,206,298.22232142857143,295.12857142857143,330.1,298.22232142857143,295.12857142857143,447.1,298.22232142857143,295.12857142857143,547.2,298.22232142857143,295.12857142857143,655,505.22232142857143,127.12857142857143,775.6,537.2223214285714,75.12857142857143,879.6,538.2223214285714,72.12857142857143,988.7,538.2223214285714,72.12857142857143,1111.4,538.2223214285714,72.12857142857143,1224,538.2223214285714,72.12857142857143,1329,538.2223214285714,72.12857142857143,1441.2,538.2223214285714,72.12857142857143,1553.3,538.2223214285714,72.12857142857143,1655.1,538.2223214285714,72.12857142857143,1758.2,538.2223214285714,72.12857142857143,1861.4,538.2223214285714,72.12857142857143,1975.5,538.2223214285714,72.12857142857143,2079.1,538.2223214285714,72.12857142857143,2197.6,538.2223214285714,72.12857142857143,2308.8,538.2223214285714,72.12857142857143,2427.8,538.2223214285714,72.12857142857143,2541,538.2223214285714,72.12857142857143,2643,538.2223214285714,72.12857142857143,2745,538.2223214285714,72.12857142857143,2886.1,538.2223214285714,72.12857142857143,2991.1,538.2223214285714,72.12857142857143,3109,538.2223214285714,72.12857142857143,3209.4,538.2223214285714,72.12857142857143,3311.6,538.2223214285714,72.12857142857143,3436.4,538.2223214285714,72.12857142857143,3541.8,538.2223214285714,72.12857142857143,3651.9,538.2223214285714,72.12857142857143,3759,538.2223214285714,72.12857142857143,3874.8,538.2223214285714,72.12857142857143,3976.7,538.2223214285714,72.12857142857143,4080.8,538.2223214285714,72.12857142857143,4193.1,538.2223214285714,72.12857142857143,4298.4,538.2223214285714,72.12857142857143,4409.2,538.2223214285714,72.12857142857143,4518.6,538.2223214285714,72.12857142857143,4625.7,538.2223214285714,72.12857142857143,4731.1,538.2223214285714,72.12857142857143,4835.6,538.2223214285714,72.12857142857143,4956]","[1821.8,1821.8,1000,0,821.8,""oops"",""right"",""right"",""good_move"",5252.8,3428.5,2920.7,1824.4,507.7,""smooth"",""right"",""right"",""good_move"",11580.6,6319.7,2290.8,8710.1,579.7,""smooth"",""right"",""right"",""good_move"",18544.8,6962.8,2464.4,15582.7,497.7,""oops"",""up"",""down"",""bad_move"",21597.7,3049.3,2161.6,18548.5,887.6,""oops"",""up"",""down"",""bad_move"",25038.8,3436.7,2296.5,21602.2,1140.2,""smooth"",""up"",""up"",""good_move"",31560.5,6517.7,2635.3,25042.8,3882.4,""oops"",""up"",""down"",""bad_move"",35003.5,3441.5,2170.9,31562,1270.6,""oops"",""up"",""left"",""bad_move"",41447.1,6441.7,2799.6,35005.4,3642.1,""oops"",""up"",""up"",""good_move"",47275.3,5826.3,2774.9,41449.1,3051.3,""smooth"",""up"",""up"",""good_move"",51282.7,4003.7,2513.1,47279.1,1490.6,""oops"",""up"",""up"",""good_move"",56091.6,4806.7,2151,51284.9,2655.7,""oops"",""up"",""right"",""good_move"",59116.5,3018.8,2285.7,56097.7,733.1,""smooth"",""up"",""up"",""good_move"",64507.3,5387.9,2480.6,59119.5,2907.2,""oops"",""up"",""down"",""bad_move"",67241.6,2731.8,2104.2,64509.8,627.6,""smooth"",""up"",""up"",""good_move"",73774.1,6528.6,1471.6,67245.6,5056.9,""oops"",""up"",""down"",""bad_move"",78516.5,4741,945.9,76933.7,636.9,""oops"",""up"",""down"",""bad_move"",82542.9,4017.5,2279,82118.7,-1854.8,""error"",""-"",""-"",""no_move"",86857.8,4311.8,2638.2,83591,628.6,""oops"",""up"",""down"",""bad_move"",90741.6,3881.1,2768.3,86860.5,1112.8,""smooth"",""up"",""up"",""good_move"",99063.2,8309.2,2902.1,90754.1,5407.1,""smooth"",""up"",""up"",""good_move"",107881.9,8817.3,1802.3,99064.7,7014.9,""oops"",""up"",""down"",""bad_move"",110990.5,3107.2,2374.1,107883.3,733.1,""smooth"",""up"",""up"",""good_move"",121170.8,10178.2,2089.9,110992.7,8088.2,""smooth"",""up"",""up"",""good_move"",128292.4,7119.6,2577.6,121172.8,4542,""oops"",""up"",""up"",""good_move""]","",""
"4263","","<div style=""width:500px;"">
  <p>What determined the result of this run?</p>
  </div>","2","html-slider-response","55","843615","0.0-5.0-1.9","19","1","2025-07-09 08:49:59","01610cd0009c79a99da7d0a3353eb402","41.145.194.11","Mozilla/5.0 (Windows NT 10.0; Win64; x64) AppleWebKit/537.36 (KHTML, like Gecko) Chrome/137.0.0.0 Safari/537.36","WebKit","Chrome","137.0.0.0","Windows","10.0","https://app.prolific.com/","en-ZA,en-GB;q=0.9,en-US;q=0.8,en;q=0.7,zu;q=0.6","5f3287b83428cb05746e2214","683db7602f5db6a34d12d064","686e2ce6dc8a53743a2e9c69","1","5f3287b83428cb05746e2214","1","2025-07-09T09:04:24.050Z","","","","","","","","","","","AttribQ","","50","","","","","","","","","","","","","","","","","","","","","","","","","","","","",""
"3352","","<div style=""width:500px;"">
  <p>How much control did you have over the ball?</p>
  </div>","15","html-slider-response","56","846974","0.0-5.0-2.9","19","1","2025-07-09 08:49:59","01610cd0009c79a99da7d0a3353eb402","41.145.194.11","Mozilla/5.0 (Windows NT 10.0; Win64; x64) AppleWebKit/537.36 (KHTML, like Gecko) Chrome/137.0.0.0 Safari/537.36","WebKit","Chrome","137.0.0.0","Windows","10.0","https://app.prolific.com/","en-ZA,en-GB;q=0.9,en-US;q=0.8,en;q=0.7,zu;q=0.6","5f3287b83428cb05746e2214","683db7602f5db6a34d12d064","686e2ce6dc8a53743a2e9c69","1","5f3287b83428cb05746e2214","1","2025-07-09T09:04:27.410Z","","","","","","","","","","","ControlQ","","50","","","","","","","","","","","","","","","","","","","","","","","","","","","","",""
"5087","","<div style=""width:500px;"">
  <p>How would you describe your current emotional state?</p>
  </div>","81","html-slider-response","57","852066","0.0-5.0-3.9","19","1","2025-07-09 08:49:59","01610cd0009c79a99da7d0a3353eb402","41.145.194.11","Mozilla/5.0 (Windows NT 10.0; Win64; x64) AppleWebKit/537.36 (KHTML, like Gecko) Chrome/137.0.0.0 Safari/537.36","WebKit","Chrome","137.0.0.0","Windows","10.0","https://app.prolific.com/","en-ZA,en-GB;q=0.9,en-US;q=0.8,en;q=0.7,zu;q=0.6","5f3287b83428cb05746e2214","683db7602f5db6a34d12d064","686e2ce6dc8a53743a2e9c69","1","5f3287b83428cb05746e2214","1","2025-07-09T09:04:32.501Z","","","","","","","","","","","StressQ","","50","","","","","","","","","","","","","","","","","","","","","","","","","","","","",""
"4052","","<div style=""width:500px;"">
  <p>What best describes how you currently feel?</p>
  </div>","0","html-slider-response","58","856122","0.0-5.0-4.9","19","1","2025-07-09 08:49:59","01610cd0009c79a99da7d0a3353eb402","41.145.194.11","Mozilla/5.0 (Windows NT 10.0; Win64; x64) AppleWebKit/537.36 (KHTML, like Gecko) Chrome/137.0.0.0 Safari/537.36","WebKit","Chrome","137.0.0.0","Windows","10.0","https://app.prolific.com/","en-ZA,en-GB;q=0.9,en-US;q=0.8,en;q=0.7,zu;q=0.6","5f3287b83428cb05746e2214","683db7602f5db6a34d12d064","686e2ce6dc8a53743a2e9c69","1","5f3287b83428cb05746e2214","1","2025-07-09T09:04:36.557Z","","","","","","","","","","","MotivationQ","","50","","","","","","","","","","","","","","","","","","","","","","","","","","","","",""
"","","","","ctl-task-cpt","59","979444","0.0-5.0-0.10","19","1","2025-07-09 08:49:59","01610cd0009c79a99da7d0a3353eb402","41.145.194.11","Mozilla/5.0 (Windows NT 10.0; Win64; x64) AppleWebKit/537.36 (KHTML, like Gecko) Chrome/137.0.0.0 Safari/537.36","WebKit","Chrome","137.0.0.0","Windows","10.0","https://app.prolific.com/","en-ZA,en-GB;q=0.9,en-US;q=0.8,en;q=0.7,zu;q=0.6","5f3287b83428cb05746e2214","683db7602f5db6a34d12d064","686e2ce6dc8a53743a2e9c69","1","5f3287b83428cb05746e2214","1","2025-07-09T09:06:39.880Z","","","","","","","","","","","","","","win-only","3","g1:SW,g2:NE","0.5","11","0","877738.1","2123.6","7139.9","120258","1","4","8","6","2","8","7","48","41","0.36363636363636365","1816.4","3000","1165","[""up"",""right""]","{""num_key_presses"":22,""num_perfect"":11,""num_errors"":1,""num_randdir"":10,""num_randdir_good_moves"":3,""num_whilered"":0,""num_whileblue"":1,""num_blue"":4,""num_good_moves"":14}","[296.22232142857143,296.12857142857143,4.4,296.22232142857143,296.12857142857143,110.9,296.22232142857143,296.12857142857143,241.2,296.22232142857143,296.12857142857143,355.6,296.22232142857143,296.12857142857143,456.2,296.22232142857143,296.12857142857143,576.4,296.22232142857143,297.12857142857143,689,434.22232142857143,157.12857142857143,828.7,457.22232142857143,126.12857142857143,943.9,457.22232142857143,126.12857142857143,1071.3,460.22232142857143,123.12857142857143,1198.6,507.22232142857143,81.12857142857143,1306.8,532.2223214285714,57.128571428571426,1425.2,532.2223214285714,57.128571428571426,1537.2,532.2223214285714,57.128571428571426,1677.4,532.2223214285714,57.128571428571426,1789.3,532.2223214285714,57.128571428571426,1906.1,532.2223214285714,57.128571428571426,2034.6,532.2223214285714,57.128571428571426,2144.1,532.2223214285714,57.128571428571426,2251.9,532.2223214285714,57.128571428571426,2393.5,532.2223214285714,57.128571428571426,2494,532.2223214285714,57.128571428571426,2617.8,532.2223214285714,57.128571428571426,2729.8,532.2223214285714,57.128571428571426,2846.6,532.2223214285714,57.128571428571426,2965.4,532.2223214285714,57.128571428571426,3074.4,532.2223214285714,57.128571428571426,3182.8,532.2223214285714,57.128571428571426,3307.6,532.2223214285714,57.128571428571426,3421.8,532.2223214285714,57.128571428571426,3540.1,532.2223214285714,57.128571428571426,3655.3,532.2223214285714,57.128571428571426,3771.9,532.2223214285714,57.128571428571426,3894.4,532.2223214285714,57.128571428571426,4014.5,532.2223214285714,57.128571428571426,4141.6,532.2223214285714,57.128571428571426,4263.9,532.2223214285714,57.128571428571426,4385.7,532.2223214285714,57.128571428571426,4511.8,532.2223214285714,57.128571428571426,4630.8,532.2223214285714,57.128571428571426,4748.1,532.2223214285714,57.128571428571426,4868,532.2223214285714,57.128571428571426,4983.5]","[1629.9,1629.9,1000,0,629.9,""oops"",""right"",""left"",""bad_move"",6357.3,4723.7,2025.7,1633.6,2698,""smooth"",""right"",""right"",""good_move"",9607,3240.7,2787.5,6366.3,453.2,""oops"",""right"",""down"",""bad_move"",16003.6,6392.7,2621,12818.8,563.8,""oops"",""right"",""right"",""good_move"",19413.5,3399.9,2425.4,16013.6,974.5,""smooth"",""right"",""right"",""good_move"",22507.1,3091.9,2417.2,19415.3,674.6,""smooth"",""right"",""right"",""good_move"",25756.8,3247.8,2351.2,22509,896.6,""smooth"",""up"",""up"",""good_move"",33821.8,8062.6,2215,25759.2,5847.6,""smooth"",""up"",""up"",""good_move"",42524.4,8699.9,2213.4,33824.6,6486.4,""oops"",""up"",""down"",""bad_move"",45508.9,2983.1,1923.4,42525.8,1059.7,""oops"",""up"",""left"",""bad_move"",52001.8,6489.9,2858.9,45511.9,3631,""smooth"",""up"",""up"",""good_move"",57828.1,5824.3,1955.5,52003.8,3868.8,""smooth"",""up"",""up"",""good_move"",64130.5,6299.3,1778.6,57831.3,4520.7,""oops"",""up"",""left"",""bad_move"",68506.8,4371.3,2129.4,64135.5,2241.9,""smooth"",""up"",""up"",""good_move"",73276.5,4767.3,2769.6,68509.3,1997.7,""oops"",""right"",""down"",""bad_move"",76799.6,3512.6,2970.2,73287,542.4,""oops"",""right"",""right"",""good_move"",79514.2,2711.6,2153.6,76802.6,558,""smooth"",""right"",""right"",""good_move"",82804.4,3288.5,2762.3,79516.2,526,""oops"",""up"",""left"",""bad_move"",89769.4,6948.7,6429.9,82820.9,518.7,""while_blue"",""right"",""left"",""bad_move"",101931.6,12160.3,2875.7,98521.3,534.6,""smooth"",""right"",""right"",""good_move"",105234.7,3298.9,2748.1,101935.8,550.8,""oops"",""right"",""right"",""good_move"",112388.3,7151.8,3479.5,108338.7,570.1,""smooth"",""up"",""up"",""good_move""]","",""
"4265","","<div style=""width:500px;"">
  <p>What determined the result of this run?</p>
  </div>","24","html-slider-response","60","983716","0.0-5.0-1.10","19","1","2025-07-09 08:49:59","01610cd0009c79a99da7d0a3353eb402","41.145.194.11","Mozilla/5.0 (Windows NT 10.0; Win64; x64) AppleWebKit/537.36 (KHTML, like Gecko) Chrome/137.0.0.0 Safari/537.36","WebKit","Chrome","137.0.0.0","Windows","10.0","https://app.prolific.com/","en-ZA,en-GB;q=0.9,en-US;q=0.8,en;q=0.7,zu;q=0.6","5f3287b83428cb05746e2214","683db7602f5db6a34d12d064","686e2ce6dc8a53743a2e9c69","1","5f3287b83428cb05746e2214","1","2025-07-09T09:06:44.151Z","","","","","","","","","","","AttribQ","","50","","","","","","","","","","","","","","","","","","","","","","","","","","","","",""
"3311","","<div style=""width:500px;"">
  <p>How much control did you have over the ball?</p>
  </div>","1","html-slider-response","61","987035","0.0-5.0-2.10","19","1","2025-07-09 08:49:59","01610cd0009c79a99da7d0a3353eb402","41.145.194.11","Mozilla/5.0 (Windows NT 10.0; Win64; x64) AppleWebKit/537.36 (KHTML, like Gecko) Chrome/137.0.0.0 Safari/537.36","WebKit","Chrome","137.0.0.0","Windows","10.0","https://app.prolific.com/","en-ZA,en-GB;q=0.9,en-US;q=0.8,en;q=0.7,zu;q=0.6","5f3287b83428cb05746e2214","683db7602f5db6a34d12d064","686e2ce6dc8a53743a2e9c69","1","5f3287b83428cb05746e2214","1","2025-07-09T09:06:47.471Z","","","","","","","","","","","ControlQ","","50","","","","","","","","","","","","","","","","","","","","","","","","","","","","",""
"4727","","<div style=""width:500px;"">
  <p>How would you describe your current emotional state?</p>
  </div>","85","html-slider-response","62","991770","0.0-5.0-3.10","19","1","2025-07-09 08:49:59","01610cd0009c79a99da7d0a3353eb402","41.145.194.11","Mozilla/5.0 (Windows NT 10.0; Win64; x64) AppleWebKit/537.36 (KHTML, like Gecko) Chrome/137.0.0.0 Safari/537.36","WebKit","Chrome","137.0.0.0","Windows","10.0","https://app.prolific.com/","en-ZA,en-GB;q=0.9,en-US;q=0.8,en;q=0.7,zu;q=0.6","5f3287b83428cb05746e2214","683db7602f5db6a34d12d064","686e2ce6dc8a53743a2e9c69","1","5f3287b83428cb05746e2214","1","2025-07-09T09:06:52.205Z","","","","","","","","","","","StressQ","","50","","","","","","","","","","","","","","","","","","","","","","","","","","","","",""
"3728","","<div style=""width:500px;"">
  <p>What best describes how you currently feel?</p>
  </div>","18","html-slider-response","63","995506","0.0-5.0-4.10","19","1","2025-07-09 08:49:59","01610cd0009c79a99da7d0a3353eb402","41.145.194.11","Mozilla/5.0 (Windows NT 10.0; Win64; x64) AppleWebKit/537.36 (KHTML, like Gecko) Chrome/137.0.0.0 Safari/537.36","WebKit","Chrome","137.0.0.0","Windows","10.0","https://app.prolific.com/","en-ZA,en-GB;q=0.9,en-US;q=0.8,en;q=0.7,zu;q=0.6","5f3287b83428cb05746e2214","683db7602f5db6a34d12d064","686e2ce6dc8a53743a2e9c69","1","5f3287b83428cb05746e2214","1","2025-07-09T09:06:55.942Z","","","","","","","","","","","MotivationQ","","50","","","","","","","","","","","","","","","","","","","","","","","","","","","","",""
"","","","","ctl-task-cpt","64","1039947","0.0-5.0-0.11","19","1","2025-07-09 08:49:59","01610cd0009c79a99da7d0a3353eb402","41.145.194.11","Mozilla/5.0 (Windows NT 10.0; Win64; x64) AppleWebKit/537.36 (KHTML, like Gecko) Chrome/137.0.0.0 Safari/537.36","WebKit","Chrome","137.0.0.0","Windows","10.0","https://app.prolific.com/","en-ZA,en-GB;q=0.9,en-US;q=0.8,en;q=0.7,zu;q=0.6","5f3287b83428cb05746e2214","683db7602f5db6a34d12d064","686e2ce6dc8a53743a2e9c69","1","5f3287b83428cb05746e2214","1","2025-07-09T09:07:40.383Z","","","","","","","","","","","","","","win-only","0","g1:NW,g2:SE","0.6","12","0","1017131.1","1711.4","6746.6","41391.3","1","4","4","6","2","4","4","52","48","0.3939393939393939","1819.3","3000","2480","[""down"",""right""]","{""num_key_presses"":8,""num_perfect"":4,""num_errors"":0,""num_randdir"":4,""num_randdir_good_moves"":3,""num_whilered"":0,""num_whileblue"":0,""num_blue"":0,""num_good_moves"":7}","[296.22232142857143,298.12857142857143,1.1,296.22232142857143,298.12857142857143,136,296.22232142857143,298.12857142857143,294,296.22232142857143,298.12857142857143,448.6,296.22232142857143,298.12857142857143,597.3,296.22232142857143,298.12857142857143,757.4,297.22232142857143,298.12857142857143,945.5,460.22232142857143,428.12857142857143,1062.2,500.22232142857143,491.12857142857143,1176.4,511.22232142857143,515.1285714285714,1366.8,515.2223214285714,521.1285714285714,1473.9,522.2223214285714,535.1285714285714,1653.8,522.2223214285714,535.1285714285714,1837.3,522.2223214285714,535.1285714285714,2017,522.2223214285714,535.1285714285714,2182.6,522.2223214285714,535.1285714285714,2284.6,522.2223214285714,535.1285714285714,2459.2,522.2223214285714,535.1285714285714,2610.1,522.2223214285714,535.1285714285714,2777.3,522.2223214285714,535.1285714285714,2918.9,522.2223214285714,535.1285714285714,3064.2,522.2223214285714,535.1285714285714,3224.4,522.2223214285714,535.1285714285714,3367.9,522.2223214285714,535.1285714285714,3510.7,522.2223214285714,535.1285714285714,3661.6,522.2223214285714,535.1285714285714,3802.8,522.2223214285714,535.1285714285714,3949.5,522.2223214285714,535.1285714285714,4087,522.2223214285714,535.1285714285714,4221.3,522.2223214285714,535.1285714285714,4371,522.2223214285714,535.1285714285714,4510.7,522.2223214285714,535.1285714285714,4659.5,522.2223214285714,535.1285714285714,4806.2,522.2223214285714,535.1285714285714,4958.6]","[1886,1886,1000,0,886,""oops"",""down"",""left"",""bad_move"",15632.8,13742.5,2288.2,1890.3,11454.3,""smooth"",""down"",""down"",""good_move"",18689.5,3040.1,2293.9,15649.4,746.2,""smooth"",""right"",""right"",""good_move"",21327.9,2634.8,1953.9,18693.2,680.9,""smooth"",""right"",""right"",""good_move"",24261.4,2929.5,2419.3,21331.9,510.2,""smooth"",""right"",""right"",""good_move"",27257.6,2992.9,2512.7,24264.8,480.2,""oops"",""down"",""right"",""good_move"",30329.6,3070.1,2502.7,27259.7,567.2,""oops"",""down"",""down"",""good_move"",33792.7,3459.7,2885.7,30333,574.1,""oops"",""down"",""down"",""good_move""]","",""
"8005","","<div style=""width:500px;"">
  <p>What determined the result of this run?</p>
  </div>","81","html-slider-response","65","1047956","0.0-5.0-1.11","19","1","2025-07-09 08:49:59","01610cd0009c79a99da7d0a3353eb402","41.145.194.11","Mozilla/5.0 (Windows NT 10.0; Win64; x64) AppleWebKit/537.36 (KHTML, like Gecko) Chrome/137.0.0.0 Safari/537.36","WebKit","Chrome","137.0.0.0","Windows","10.0","https://app.prolific.com/","en-ZA,en-GB;q=0.9,en-US;q=0.8,en;q=0.7,zu;q=0.6","5f3287b83428cb05746e2214","683db7602f5db6a34d12d064","686e2ce6dc8a53743a2e9c69","1","5f3287b83428cb05746e2214","1","2025-07-09T09:07:48.391Z","","","","","","","","","","","AttribQ","","50","","","","","","","","","","","","","","","","","","","","","","","","","","","","",""
"3740","","<div style=""width:500px;"">
  <p>How much control did you have over the ball?</p>
  </div>","75","html-slider-response","66","1051703","0.0-5.0-2.11","19","1","2025-07-09 08:49:59","01610cd0009c79a99da7d0a3353eb402","41.145.194.11","Mozilla/5.0 (Windows NT 10.0; Win64; x64) AppleWebKit/537.36 (KHTML, like Gecko) Chrome/137.0.0.0 Safari/537.36","WebKit","Chrome","137.0.0.0","Windows","10.0","https://app.prolific.com/","en-ZA,en-GB;q=0.9,en-US;q=0.8,en;q=0.7,zu;q=0.6","5f3287b83428cb05746e2214","683db7602f5db6a34d12d064","686e2ce6dc8a53743a2e9c69","1","5f3287b83428cb05746e2214","1","2025-07-09T09:07:52.138Z","","","","","","","","","","","ControlQ","","50","","","","","","","","","","","","","","","","","","","","","","","","","","","","",""
"3334","","<div style=""width:500px;"">
  <p>How would you describe your current emotional state?</p>
  </div>","68","html-slider-response","67","1055043","0.0-5.0-3.11","19","1","2025-07-09 08:49:59","01610cd0009c79a99da7d0a3353eb402","41.145.194.11","Mozilla/5.0 (Windows NT 10.0; Win64; x64) AppleWebKit/537.36 (KHTML, like Gecko) Chrome/137.0.0.0 Safari/537.36","WebKit","Chrome","137.0.0.0","Windows","10.0","https://app.prolific.com/","en-ZA,en-GB;q=0.9,en-US;q=0.8,en;q=0.7,zu;q=0.6","5f3287b83428cb05746e2214","683db7602f5db6a34d12d064","686e2ce6dc8a53743a2e9c69","1","5f3287b83428cb05746e2214","1","2025-07-09T09:07:55.478Z","","","","","","","","","","","StressQ","","50","","","","","","","","","","","","","","","","","","","","","","","","","","","","",""
"4728","","<div style=""width:500px;"">
  <p>What best describes how you currently feel?</p>
  </div>","50","html-slider-response","68","1059778","0.0-5.0-4.11","19","1","2025-07-09 08:49:59","01610cd0009c79a99da7d0a3353eb402","41.145.194.11","Mozilla/5.0 (Windows NT 10.0; Win64; x64) AppleWebKit/537.36 (KHTML, like Gecko) Chrome/137.0.0.0 Safari/537.36","WebKit","Chrome","137.0.0.0","Windows","10.0","https://app.prolific.com/","en-ZA,en-GB;q=0.9,en-US;q=0.8,en;q=0.7,zu;q=0.6","5f3287b83428cb05746e2214","683db7602f5db6a34d12d064","686e2ce6dc8a53743a2e9c69","1","5f3287b83428cb05746e2214","1","2025-07-09T09:08:00.213Z","","","","","","","","","","","MotivationQ","","50","","","","","","","","","","","","","","","","","","","","","","","","","","","","",""
"","","","","ctl-task-cpt","69","1121868","0.0-5.0-0.12","19","1","2025-07-09 08:49:59","01610cd0009c79a99da7d0a3353eb402","41.145.194.11","Mozilla/5.0 (Windows NT 10.0; Win64; x64) AppleWebKit/537.36 (KHTML, like Gecko) Chrome/137.0.0.0 Safari/537.36","WebKit","Chrome","137.0.0.0","Windows","10.0","https://app.prolific.com/","en-ZA,en-GB;q=0.9,en-US;q=0.8,en;q=0.7,zu;q=0.6","5f3287b83428cb05746e2214","683db7602f5db6a34d12d064","686e2ce6dc8a53743a2e9c69","1","5f3287b83428cb05746e2214","1","2025-07-09T09:09:02.303Z","","","","","","","","","","","","","","win-only","2","g1:SE,g2:NW","0.7","13","0","1081399.7","1925","6949.9","59018.3","1","4","8","6","2","8","8","60","52","0.45454545454545453","1748.5","3000","2250","[""left"",""up""]","{""num_key_presses"":8,""num_perfect"":6,""num_errors"":0,""num_randdir"":2,""num_randdir_good_moves"":1,""num_whilered"":0,""num_whileblue"":0,""num_blue"":2,""num_good_moves"":7}","[293.22232142857143,298.12857142857143,5.3,293.22232142857143,298.12857142857143,161.7,293.22232142857143,298.12857142857143,283.4,293.22232142857143,298.12857142857143,555.7,293.22232142857143,298.12857142857143,697.7,293.22232142857143,298.12857142857143,798.3,240.22232142857143,248.12857142857143,939.5,92.22232142857143,71.12857142857143,1139.6,73.22232142857143,58.128571428571426,1323.3,68.22232142857143,59.128571428571426,1499.9,68.22232142857143,59.128571428571426,1664.7,68.22232142857143,59.128571428571426,1825.8,68.22232142857143,59.128571428571426,1973.6,68.22232142857143,59.128571428571426,2117.8,68.22232142857143,59.128571428571426,2252.9,68.22232142857143,59.128571428571426,2426.3,68.22232142857143,59.128571428571426,2556.2,68.22232142857143,59.128571428571426,2686.3,68.22232142857143,59.128571428571426,2814.6,68.22232142857143,59.128571428571426,2957.4,68.22232142857143,59.128571428571426,3082.5,68.22232142857143,59.128571428571426,3237,68.22232142857143,59.128571428571426,3346.1,68.22232142857143,59.128571428571426,3462,68.22232142857143,59.128571428571426,3597.3,68.22232142857143,59.128571428571426,3723.9,68.22232142857143,59.128571428571426,3838.9,68.22232142857143,59.128571428571426,3956.2,68.22232142857143,59.128571428571426,4082.9,68.22232142857143,59.128571428571426,4196.5,68.22232142857143,59.128571428571426,4300,68.22232142857143,59.128571428571426,4423.7,68.22232142857143,59.128571428571426,4532.1,68.22232142857143,59.128571428571426,4633.7,68.22232142857143,59.128571428571426,4766.6,68.22232142857143,59.128571428571426,4874.2,68.22232142857143,59.128571428571426,4983.2]","[2034,2034,1000,0,1034,""smooth"",""left"",""left"",""good_move"",8207.2,6164.4,1892.6,2042.8,4271.8,""oops"",""left"",""down"",""bad_move"",11284,3075.1,2387.6,8208.9,687.5,""smooth"",""left"",""left"",""good_move"",25591.6,14300.3,3027.9,22043.2,520.5,""oops"",""left"",""left"",""good_move"",30923.2,5330.5,2481.8,25592.8,2848.6,""smooth"",""up"",""up"",""good_move"",37332.8,6405,2630.5,30927.9,3774.4,""smooth"",""up"",""up"",""good_move"",44709.2,7375.3,2052.9,37334.1,5322.2,""smooth"",""up"",""up"",""good_move"",51553.9,6843.1,2346.9,44710.8,4496.2,""smooth"",""up"",""up"",""good_move""]","",""
"12289","","<div style=""width:500px;"">
  <p>What determined the result of this run?</p>
  </div>","100","html-slider-response","70","1134161","0.0-5.0-1.12","19","1","2025-07-09 08:49:59","01610cd0009c79a99da7d0a3353eb402","41.145.194.11","Mozilla/5.0 (Windows NT 10.0; Win64; x64) AppleWebKit/537.36 (KHTML, like Gecko) Chrome/137.0.0.0 Safari/537.36","WebKit","Chrome","137.0.0.0","Windows","10.0","https://app.prolific.com/","en-ZA,en-GB;q=0.9,en-US;q=0.8,en;q=0.7,zu;q=0.6","5f3287b83428cb05746e2214","683db7602f5db6a34d12d064","686e2ce6dc8a53743a2e9c69","1","5f3287b83428cb05746e2214","1","2025-07-09T09:09:14.596Z","","","","","","","","","","","AttribQ","","50","","","","","","","","","","","","","","","","","","","","","","","","","","","","",""
"7278","","<div style=""width:500px;"">
  <p>How much control did you have over the ball?</p>
  </div>","67","html-slider-response","71","1141446","0.0-5.0-2.12","19","1","2025-07-09 08:49:59","01610cd0009c79a99da7d0a3353eb402","41.145.194.11","Mozilla/5.0 (Windows NT 10.0; Win64; x64) AppleWebKit/537.36 (KHTML, like Gecko) Chrome/137.0.0.0 Safari/537.36","WebKit","Chrome","137.0.0.0","Windows","10.0","https://app.prolific.com/","en-ZA,en-GB;q=0.9,en-US;q=0.8,en;q=0.7,zu;q=0.6","5f3287b83428cb05746e2214","683db7602f5db6a34d12d064","686e2ce6dc8a53743a2e9c69","1","5f3287b83428cb05746e2214","1","2025-07-09T09:09:21.881Z","","","","","","","","","","","ControlQ","","50","","","","","","","","","","","","","","","","","","","","","","","","","","","","",""
"3413","","<div style=""width:500px;"">
  <p>How would you describe your current emotional state?</p>
  </div>","74","html-slider-response","72","1144865","0.0-5.0-3.12","19","1","2025-07-09 08:49:59","01610cd0009c79a99da7d0a3353eb402","41.145.194.11","Mozilla/5.0 (Windows NT 10.0; Win64; x64) AppleWebKit/537.36 (KHTML, like Gecko) Chrome/137.0.0.0 Safari/537.36","WebKit","Chrome","137.0.0.0","Windows","10.0","https://app.prolific.com/","en-ZA,en-GB;q=0.9,en-US;q=0.8,en;q=0.7,zu;q=0.6","5f3287b83428cb05746e2214","683db7602f5db6a34d12d064","686e2ce6dc8a53743a2e9c69","1","5f3287b83428cb05746e2214","1","2025-07-09T09:09:25.300Z","","","","","","","","","","","StressQ","","50","","","","","","","","","","","","","","","","","","","","","","","","","","","","",""
"3998","","<div style=""width:500px;"">
  <p>What best describes how you currently feel?</p>
  </div>","80","html-slider-response","73","1148869","0.0-5.0-4.12","19","1","2025-07-09 08:49:59","01610cd0009c79a99da7d0a3353eb402","41.145.194.11","Mozilla/5.0 (Windows NT 10.0; Win64; x64) AppleWebKit/537.36 (KHTML, like Gecko) Chrome/137.0.0.0 Safari/537.36","WebKit","Chrome","137.0.0.0","Windows","10.0","https://app.prolific.com/","en-ZA,en-GB;q=0.9,en-US;q=0.8,en;q=0.7,zu;q=0.6","5f3287b83428cb05746e2214","683db7602f5db6a34d12d064","686e2ce6dc8a53743a2e9c69","1","5f3287b83428cb05746e2214","1","2025-07-09T09:09:29.304Z","","","","","","","","","","","MotivationQ","","50","","","","","","","","","","","","","","","","","","","","","","","","","","","","",""
