"rt","response_timestamp","stimulus","response","trial_type","trial_index","time_elapsed","internal_node_id","run_id","condition","recorded_at","source_code_version","ip","user_agent","device","browser","browser_version","platform","platform_version","referer","accept_language","PROLIFIC_PID","STUDY_ID","SESSION_ID","WEEK","BATCH","prolific_id","week","batch","realtime","success","responses","item_order","radio_event_ids","radio_event_times","key_event_times","mouse_event_times","straightlining","zigzagging","honeypot","eventType","view_history","slider_start","which_type","canvas_config","goals_layout","control_level","trial_number","tutorial_trial_number","trial_start_time","phase1_start_time","phase2_start_time","phase3_start_time","goal_1_value","goal_1_distance","goal_2_value","goal_2_distance","goal_selected","outcome","outcome_total","participant_final_score","participant_initial_score","participant_final_score_prop","goal_choice_rt","allocated_time","allocated_time_remaining","goal_direction","counts","mouse_movements","key_presses","question_order","question_id"
"6043","1752653805410","<p style='font-size:40px;line-height:1.25'><strong>Welcome to the experiment!</strong></p><p style='font-size:1.1em;line-height:1.25'>Thank you for participanting in our experiment again! You will be asked to play the Dysfunctional Ball Game again. We will briefly recap the rules before we start.</p><p style='font-size:1.1em;line-height:1.25'>Press <strong>Next</strong> to continue.</p>","0","custom-html-button-response","0","6057","0.0-0.0","36","1","2025-07-16 08:16:38","1f75c3e559b7213887762d5229550c2b","178.212.218.4","Mozilla/5.0 (Windows NT 10.0; Win64; x64; rv:140.0) Gecko/20100101 Firefox/140.0","","Firefox","140.0","Windows","10.0","https://app.prolific.com/","pl,en-US;q=0.7,en;q=0.3","5c2b339a85602a00012ffedd","686e379bc37a29ffa5cdc956","68775fddb55b94ea11b3551b","1","1","5c2b339a85602a00012ffedd","1","1","2025-07-16T08:16:45.410Z","","","","","","","","","","","","","","","","","","","","","","","","","","","","","","","","","","","","","","","","","",""
"2471","","","","fullscreen","1","9531","0.0-1.0","36","1","2025-07-16 08:16:38","1f75c3e559b7213887762d5229550c2b","178.212.218.4","Mozilla/5.0 (Windows NT 10.0; Win64; x64; rv:140.0) Gecko/20100101 Firefox/140.0","","Firefox","140.0","Windows","10.0","https://app.prolific.com/","pl,en-US;q=0.7,en;q=0.3","5c2b339a85602a00012ffedd","686e379bc37a29ffa5cdc956","68775fddb55b94ea11b3551b","1","1","5c2b339a85602a00012ffedd","1","1","","true","","","","","","","","","","","","","","","","","","","","","","","","","","","","","","","","","","","","","","","","",""
"4649","1752653813534","<p style='font-size:1.1em;line-height:1.25'>In the following, we will ask you a few questions relating to your feelings in the last 24 hours.<br></p><p style='font-size:1.1em;line-height:1.25'>Press the <strong>Next</strong> button to continue.</p>","0","custom-html-button-response","2","14181","0.0-2.0-0.0","36","1","2025-07-16 08:16:38","1f75c3e559b7213887762d5229550c2b","178.212.218.4","Mozilla/5.0 (Windows NT 10.0; Win64; x64; rv:140.0) Gecko/20100101 Firefox/140.0","","Firefox","140.0","Windows","10.0","https://app.prolific.com/","pl,en-US;q=0.7,en;q=0.3","5c2b339a85602a00012ffedd","686e379bc37a29ffa5cdc956","68775fddb55b94ea11b3551b","1","1","5c2b339a85602a00012ffedd","1","1","2025-07-16T08:16:53.534Z","","","","","","","","","","","","","","","","","","","","","","","","","","","","","","","","","","","","","","","","","",""
"67144","","","","survey-template","3","81329","0.0-2.0-1.0","36","1","2025-07-16 08:16:38","1f75c3e559b7213887762d5229550c2b","178.212.218.4","Mozilla/5.0 (Windows NT 10.0; Win64; x64; rv:140.0) Gecko/20100101 Firefox/140.0","","Firefox","140.0","Windows","10.0","https://app.prolific.com/","pl,en-US;q=0.7,en;q=0.3","5c2b339a85602a00012ffedd","686e379bc37a29ffa5cdc956","68775fddb55b94ea11b3551b","1","1","5c2b339a85602a00012ffedd","1","1","2025-07-16T08:18:00.683Z","","{""Q01"":""3"",""Q02"":""3"",""Q03"":""2"",""Q04"":""5"",""Q05"":""2"",""Q06"":""3"",""Q07"":""3"",""Q08"":""1"",""Q09"":""2"",""Q10"":""4"",""Q11"":""2"",""Q12"":""3"",""Q13"":""5"",""Q14"":""2"",""Q15"":""1"",""Q16"":""3"",""Q17"":""4"",""Q18"":""3"",""Q19"":""5"",""Q20"":""3"",""Q21"":""3"",""Q22"":""2""}","[0,1,2,3,4,5,6,7,8,9,10,11,12,13,14,15,16,17,18,19,20,21]","[""Q01"",""Q02"",""Q03"",""Q04"",""Q05"",""Q06"",""Q07"",""Q08"",""Q09"",""Q10"",""Q11"",""Q12"",""Q13"",""Q14"",""Q15"",""Q16"",""Q16"",""Q17"",""Q18"",""Q19"",""Q20"",""Q21"",""Q20"",""Q21"",""Q22""]","[6529,7866,8926,11576,14721,18376,19906,23298,25630,27634,29408,32975,35668,39896,43568,45941,47257,48519,49587,53606,56742,60224,62727,63468,66423]","[]","[1,3319,5365,5833,6149,6529,7866,8926,11576,14721,17145,18376,19488,19906,23298,25630,27634,29408,32975,35668,39059,39896,43568,45941,47257,48519,49587,53247,53606,56742,60224,61203,61967,62727,63468,66423,67143]","0.4090909090909091","0.38095238095238093","0","drsp","","","","","","","","","","","","","","","","","","","","","","","","","","","","","","",""
"8537","","","","survey-template","4","89870","0.0-2.0-2.0","36","1","2025-07-16 08:16:38","1f75c3e559b7213887762d5229550c2b","178.212.218.4","Mozilla/5.0 (Windows NT 10.0; Win64; x64; rv:140.0) Gecko/20100101 Firefox/140.0","","Firefox","140.0","Windows","10.0","https://app.prolific.com/","pl,en-US;q=0.7,en;q=0.3","5c2b339a85602a00012ffedd","686e379bc37a29ffa5cdc956","68775fddb55b94ea11b3551b","1","1","5c2b339a85602a00012ffedd","1","1","2025-07-16T08:18:09.223Z","","{""Q01"":""5"",""Q02"":""1"",""Q03"":""4""}","[0,1,2]","[""Q01"",""Q02"",""Q03""]","[2425,3672,8106]","[]","[2425,3672,5368,6565,7416,8106,8537]","0.6666666666666666","0.5","0","stress","","","","","","","","","","","","","","","","","","","","","","","","","","","","","","",""
"55177","","","","instructions","5","145048","0.0-3.0-0.0","36","1","2025-07-16 08:16:38","1f75c3e559b7213887762d5229550c2b","178.212.218.4","Mozilla/5.0 (Windows NT 10.0; Win64; x64; rv:140.0) Gecko/20100101 Firefox/140.0","","Firefox","140.0","Windows","10.0","https://app.prolific.com/","pl,en-US;q=0.7,en;q=0.3","5c2b339a85602a00012ffedd","686e379bc37a29ffa5cdc956","68775fddb55b94ea11b3551b","1","1","5c2b339a85602a00012ffedd","1","1","","","","","","","","","","","","","[{""page_index"":0,""viewing_time"":55177}]","","","","","","","","","","","","","","","","","","","","","","","","","","","","","",""
"3159","","<p>Before you start with this game please answer the following three questions yourself. </p>
  <p>Through this game, we measure several aspects of your cognitive performance, such as reaction times, multi-tasking capabilities </p>
  <p>and the ability to assess the situation you are in.</p>
  <p></p>
  <p><b>How good do you usually are in such tasks?</b></p>","57","html-slider-response","6","148210","0.0-4.0-0.0","36","1","2025-07-16 08:16:38","1f75c3e559b7213887762d5229550c2b","178.212.218.4","Mozilla/5.0 (Windows NT 10.0; Win64; x64; rv:140.0) Gecko/20100101 Firefox/140.0","","Firefox","140.0","Windows","10.0","https://app.prolific.com/","pl,en-US;q=0.7,en;q=0.3","5c2b339a85602a00012ffedd","686e379bc37a29ffa5cdc956","68775fddb55b94ea11b3551b","1","1","5c2b339a85602a00012ffedd","1","1","2025-07-16T08:19:07.563Z","","","","","","","","","","","PreSkillQ","","50","","","","","","","","","","","","","","","","","","","","","","","","","","","","",""
"2521","","<div style=""width:500px;"">
  <p>How well do you think you will perform in this task compared to other participants?</p>
  </div>","57","html-slider-response","7","150732","0.0-4.0-1.0","36","1","2025-07-16 08:16:38","1f75c3e559b7213887762d5229550c2b","178.212.218.4","Mozilla/5.0 (Windows NT 10.0; Win64; x64; rv:140.0) Gecko/20100101 Firefox/140.0","","Firefox","140.0","Windows","10.0","https://app.prolific.com/","pl,en-US;q=0.7,en;q=0.3","5c2b339a85602a00012ffedd","686e379bc37a29ffa5cdc956","68775fddb55b94ea11b3551b","1","1","5c2b339a85602a00012ffedd","1","1","2025-07-16T08:19:10.085Z","","","","","","","","","","","PrePerfQ","","50","","","","","","","","","","","","","","","","","","","","","","","","","","","","",""
"3028","","<div style=""width:500px;"">
  <p>What best describes how you currently feel?</p>
  </div>","20","html-slider-response","8","153761","0.0-4.0-2.0","36","1","2025-07-16 08:16:38","1f75c3e559b7213887762d5229550c2b","178.212.218.4","Mozilla/5.0 (Windows NT 10.0; Win64; x64; rv:140.0) Gecko/20100101 Firefox/140.0","","Firefox","140.0","Windows","10.0","https://app.prolific.com/","pl,en-US;q=0.7,en;q=0.3","5c2b339a85602a00012ffedd","686e379bc37a29ffa5cdc956","68775fddb55b94ea11b3551b","1","1","5c2b339a85602a00012ffedd","1","1","2025-07-16T08:19:13.114Z","","","","","","","","","","","PreMotivationQ","","50","","","","","","","","","","","","","","","","","","","","","","","","","","","","",""
"","","","","ctl-task-cpt","9","165295","0.0-5.0-0.0","36","1","2025-07-16 08:16:38","1f75c3e559b7213887762d5229550c2b","178.212.218.4","Mozilla/5.0 (Windows NT 10.0; Win64; x64; rv:140.0) Gecko/20100101 Firefox/140.0","","Firefox","140.0","Windows","10.0","https://app.prolific.com/","pl,en-US;q=0.7,en;q=0.3","5c2b339a85602a00012ffedd","686e379bc37a29ffa5cdc956","68775fddb55b94ea11b3551b","1","1","5c2b339a85602a00012ffedd","1","1","2025-07-16T08:19:24.648Z","","","","","","","","","","","","","","win-only","3","g1:SW,g2:NE","1","1","0","155231","3525","-9999","8531","1","4","8","6","-9999","-4","-4","0","0","0","-9999","3000","3000","[]","{""num_key_presses"":0,""num_perfect"":0,""num_errors"":0,""num_randdir"":0,""num_randdir_good_moves"":0,""num_whilered"":0,""num_whileblue"":0,""num_blue"":0,""num_good_moves"":0}","[555.4285714285714,542.1285683768136,0,555.4285714285714,541.1285683768136,102,555.4285714285714,541.1285683768136,208,555.4285714285714,541.1285683768136,310,555.4285714285714,541.1285683768136,412,555.4285714285714,541.1285683768136,514,555.4285714285714,541.1285683768136,616,555.4285714285714,541.1285683768136,718,555.4285714285714,541.1285683768136,820,555.4285714285714,541.1285683768136,922,555.4285714285714,541.1285683768136,1024,555.4285714285714,541.1285683768136,1126,555.4285714285714,541.1285683768136,1230,555.4285714285714,541.1285683768136,1332,555.4285714285714,541.1285683768136,1434,555.4285714285714,541.1285683768136,1536,555.4285714285714,541.1285683768136,1638,555.4285714285714,541.1285683768136,1740,555.4285714285714,541.1285683768136,1841,555.4285714285714,541.1285683768136,1944,555.4285714285714,541.1285683768136,2045,555.4285714285714,541.1285683768136,2147,555.4285714285714,541.1285683768136,2249,555.4285714285714,541.1285683768136,2351,555.4285714285714,541.1285683768136,2453,555.4285714285714,541.1285683768136,2555,555.4285714285714,541.1285683768136,2657,555.4285714285714,541.1285683768136,2759,555.4285714285714,541.1285683768136,2861,555.4285714285714,541.1285683768136,2962,555.4285714285714,541.1285683768136,3065,555.4285714285714,541.1285683768136,3171,555.4285714285714,541.1285683768136,3271,555.4285714285714,541.1285683768136,3373,555.4285714285714,541.1285683768136,3475,555.4285714285714,541.1285683768136,3577,555.4285714285714,541.1285683768136,3679,555.4285714285714,541.1285683768136,3781,555.4285714285714,541.1285683768136,3883,555.4285714285714,541.1285683768136,3985,555.4285714285714,541.1285683768136,4085,555.4285714285714,541.1285683768136,4189,555.4285714285714,541.1285683768136,4290,555.4285714285714,541.1285683768136,4392,555.4285714285714,541.1285683768136,4495,555.4285714285714,541.1285683768136,4596,555.4285714285714,541.1285683768136,4700,555.4285714285714,541.1285683768136,4802,555.4285714285714,541.1285683768136,4904]","[]","",""
"3637","","<div style=""width:500px;"">
  <p>What determined the result of this run?</p>
  </div>","100","html-slider-response","10","168933","0.0-5.0-1.0","36","1","2025-07-16 08:16:38","1f75c3e559b7213887762d5229550c2b","178.212.218.4","Mozilla/5.0 (Windows NT 10.0; Win64; x64; rv:140.0) Gecko/20100101 Firefox/140.0","","Firefox","140.0","Windows","10.0","https://app.prolific.com/","pl,en-US;q=0.7,en;q=0.3","5c2b339a85602a00012ffedd","686e379bc37a29ffa5cdc956","68775fddb55b94ea11b3551b","1","1","5c2b339a85602a00012ffedd","1","1","2025-07-16T08:19:28.286Z","","","","","","","","","","","AttribQ","","50","","","","","","","","","","","","","","","","","","","","","","","","","","","","",""
"2999","","<div style=""width:500px;"">
  <p>How much control did you have over the ball?</p>
  </div>","58","html-slider-response","11","171934","0.0-5.0-2.0","36","1","2025-07-16 08:16:38","1f75c3e559b7213887762d5229550c2b","178.212.218.4","Mozilla/5.0 (Windows NT 10.0; Win64; x64; rv:140.0) Gecko/20100101 Firefox/140.0","","Firefox","140.0","Windows","10.0","https://app.prolific.com/","pl,en-US;q=0.7,en;q=0.3","5c2b339a85602a00012ffedd","686e379bc37a29ffa5cdc956","68775fddb55b94ea11b3551b","1","1","5c2b339a85602a00012ffedd","1","1","2025-07-16T08:19:31.287Z","","","","","","","","","","","ControlQ","","50","","","","","","","","","","","","","","","","","","","","","","","","","","","","",""
"2669","","<div style=""width:500px;"">
  <p>How would you describe your current emotional state?</p>
  </div>","81","html-slider-response","12","174604","0.0-5.0-3.0","36","1","2025-07-16 08:16:38","1f75c3e559b7213887762d5229550c2b","178.212.218.4","Mozilla/5.0 (Windows NT 10.0; Win64; x64; rv:140.0) Gecko/20100101 Firefox/140.0","","Firefox","140.0","Windows","10.0","https://app.prolific.com/","pl,en-US;q=0.7,en;q=0.3","5c2b339a85602a00012ffedd","686e379bc37a29ffa5cdc956","68775fddb55b94ea11b3551b","1","1","5c2b339a85602a00012ffedd","1","1","2025-07-16T08:19:33.957Z","","","","","","","","","","","StressQ","","50","","","","","","","","","","","","","","","","","","","","","","","","","","","","",""
"4232","","<div style=""width:500px;"">
  <p>What best describes how you currently feel?</p>
  </div>","63","html-slider-response","13","178838","0.0-5.0-4.0","36","1","2025-07-16 08:16:38","1f75c3e559b7213887762d5229550c2b","178.212.218.4","Mozilla/5.0 (Windows NT 10.0; Win64; x64; rv:140.0) Gecko/20100101 Firefox/140.0","","Firefox","140.0","Windows","10.0","https://app.prolific.com/","pl,en-US;q=0.7,en;q=0.3","5c2b339a85602a00012ffedd","686e379bc37a29ffa5cdc956","68775fddb55b94ea11b3551b","1","1","5c2b339a85602a00012ffedd","1","1","2025-07-16T08:19:38.191Z","","","","","","","","","","","MotivationQ","","50","","","","","","","","","","","","","","","","","","","","","","","","","","","","",""
"","","","","ctl-task-cpt","14","207918","0.0-5.0-0.1","36","1","2025-07-16 08:16:38","1f75c3e559b7213887762d5229550c2b","178.212.218.4","Mozilla/5.0 (Windows NT 10.0; Win64; x64; rv:140.0) Gecko/20100101 Firefox/140.0","","Firefox","140.0","Windows","10.0","https://app.prolific.com/","pl,en-US;q=0.7,en;q=0.3","5c2b339a85602a00012ffedd","686e379bc37a29ffa5cdc956","68775fddb55b94ea11b3551b","1","1","5c2b339a85602a00012ffedd","1","1","2025-07-16T08:20:07.271Z","","","","","","","","","","","","","","win-only","0","g1:NW,g2:SE","0.9","2","0","180307","1116","6122","26078","1","4","4","6","2","4","4","4","0","0.030303030303030304","1780","3000","985","[""down"",""right""]","{""num_key_presses"":6,""num_perfect"":6,""num_errors"":0,""num_randdir"":0,""num_randdir_good_moves"":0,""num_whilered"":0,""num_whileblue"":0,""num_blue"":1,""num_good_moves"":6}","[548.4285714285714,547.1285683768136,0,548.4285714285714,547.1285683768136,101,548.4285714285714,547.1285683768136,201,548.4285714285714,547.1285683768136,302,519.4285714285714,544.1285683768136,404,463.42857142857144,503.12856837681363,506,463.42857142857144,501.12856837681363,608,248.42857142857144,387.12856837681363,709,237.42857142857144,314.12856837681363,812,165.42857142857144,169.12856837681363,916,113.42857142857143,122.12856837681362,1021,108.42857142857143,117.12856837681362,1124,108.42857142857143,117.12856837681362,1226,125.42857142857143,128.12856837681363,1328,1075.4285714285713,1063.1285683768135,1430,1122.4285714285713,1194.1285683768135,1532,1085.4285714285713,1142.1285683768135,1634,1049.4285714285713,1051.1285683768135,1736,1049.4285714285713,1051.1285683768135,1837,1049.4285714285713,1051.1285683768135,1942,1080.4285714285713,1057.1285683768135,2048,1259.4285714285713,984.1285683768136,2151,1099.4285714285713,787.1285683768136,2255,824.4285714285714,426.12856837681363,2357,746.4285714285714,736.1285683768136,2459,742.4285714285714,749.1285683768136,2561,742.4285714285714,749.1285683768136,2664,742.4285714285714,749.1285683768136,2765,742.4285714285714,749.1285683768136,2867,742.4285714285714,749.1285683768136,2969,742.4285714285714,749.1285683768136,3074,742.4285714285714,749.1285683768136,3179,742.4285714285714,749.1285683768136,3281,742.4285714285714,749.1285683768136,3382,742.4285714285714,749.1285683768136,3484,742.4285714285714,749.1285683768136,3586,742.4285714285714,749.1285683768136,3688,742.4285714285714,749.1285683768136,3791,742.4285714285714,749.1285683768136,3892,742.4285714285714,749.1285683768136,3994,742.4285714285714,749.1285683768136,4096,742.4285714285714,749.1285683768136,4199,742.4285714285714,749.1285683768136,4300,742.4285714285714,749.1285683768136,4402,742.4285714285714,749.1285683768136,4505,742.4285714285714,749.1285683768136,4610,742.4285714285714,749.1285683768136,4736,742.4285714285714,749.1285683768136,4838,742.4285714285714,749.1285683768136,4940]","[1502,1502,1000,0,502,""smooth"",""right"",""right"",""good_move"",4290,2788,2364.4,1502,423.6,""smooth"",""down"",""down"",""good_move"",7530,3240,2838.2,4290,401.8,""smooth"",""down"",""down"",""good_move"",14184,6654,2485.4,11325,373.6,""smooth"",""down"",""down"",""good_move"",17151,2967,2579,14184,388,""smooth"",""right"",""right"",""good_move"",19850,2699,2325.2,17151,373.8,""smooth"",""right"",""right"",""good_move""]","",""
"3222","","<div style=""width:500px;"">
  <p>What determined the result of this run?</p>
  </div>","100","html-slider-response","15","211141","0.0-5.0-1.1","36","1","2025-07-16 08:16:38","1f75c3e559b7213887762d5229550c2b","178.212.218.4","Mozilla/5.0 (Windows NT 10.0; Win64; x64; rv:140.0) Gecko/20100101 Firefox/140.0","","Firefox","140.0","Windows","10.0","https://app.prolific.com/","pl,en-US;q=0.7,en;q=0.3","5c2b339a85602a00012ffedd","686e379bc37a29ffa5cdc956","68775fddb55b94ea11b3551b","1","1","5c2b339a85602a00012ffedd","1","1","2025-07-16T08:20:10.494Z","","","","","","","","","","","AttribQ","","50","","","","","","","","","","","","","","","","","","","","","","","","","","","","",""
"2752","","<div style=""width:500px;"">
  <p>How much control did you have over the ball?</p>
  </div>","100","html-slider-response","16","213894","0.0-5.0-2.1","36","1","2025-07-16 08:16:38","1f75c3e559b7213887762d5229550c2b","178.212.218.4","Mozilla/5.0 (Windows NT 10.0; Win64; x64; rv:140.0) Gecko/20100101 Firefox/140.0","","Firefox","140.0","Windows","10.0","https://app.prolific.com/","pl,en-US;q=0.7,en;q=0.3","5c2b339a85602a00012ffedd","686e379bc37a29ffa5cdc956","68775fddb55b94ea11b3551b","1","1","5c2b339a85602a00012ffedd","1","1","2025-07-16T08:20:13.247Z","","","","","","","","","","","ControlQ","","50","","","","","","","","","","","","","","","","","","","","","","","","","","","","",""
"2688","","<div style=""width:500px;"">
  <p>How would you describe your current emotional state?</p>
  </div>","37","html-slider-response","17","216583","0.0-5.0-3.1","36","1","2025-07-16 08:16:38","1f75c3e559b7213887762d5229550c2b","178.212.218.4","Mozilla/5.0 (Windows NT 10.0; Win64; x64; rv:140.0) Gecko/20100101 Firefox/140.0","","Firefox","140.0","Windows","10.0","https://app.prolific.com/","pl,en-US;q=0.7,en;q=0.3","5c2b339a85602a00012ffedd","686e379bc37a29ffa5cdc956","68775fddb55b94ea11b3551b","1","1","5c2b339a85602a00012ffedd","1","1","2025-07-16T08:20:15.936Z","","","","","","","","","","","StressQ","","50","","","","","","","","","","","","","","","","","","","","","","","","","","","","",""
"2949","","<div style=""width:500px;"">
  <p>What best describes how you currently feel?</p>
  </div>","68","html-slider-response","18","219535","0.0-5.0-4.1","36","1","2025-07-16 08:16:38","1f75c3e559b7213887762d5229550c2b","178.212.218.4","Mozilla/5.0 (Windows NT 10.0; Win64; x64; rv:140.0) Gecko/20100101 Firefox/140.0","","Firefox","140.0","Windows","10.0","https://app.prolific.com/","pl,en-US;q=0.7,en;q=0.3","5c2b339a85602a00012ffedd","686e379bc37a29ffa5cdc956","68775fddb55b94ea11b3551b","1","1","5c2b339a85602a00012ffedd","1","1","2025-07-16T08:20:18.888Z","","","","","","","","","","","MotivationQ","","50","","","","","","","","","","","","","","","","","","","","","","","","","","","","",""
"","","","","ctl-task-cpt","19","239740","0.0-5.0-0.2","36","1","2025-07-16 08:16:38","1f75c3e559b7213887762d5229550c2b","178.212.218.4","Mozilla/5.0 (Windows NT 10.0; Win64; x64; rv:140.0) Gecko/20100101 Firefox/140.0","","Firefox","140.0","Windows","10.0","https://app.prolific.com/","pl,en-US;q=0.7,en;q=0.3","5c2b339a85602a00012ffedd","686e379bc37a29ffa5cdc956","68775fddb55b94ea11b3551b","1","1","5c2b339a85602a00012ffedd","1","1","2025-07-16T08:20:39.093Z","","","","","","","","","","","","","","win-only","2","g1:SE,g2:NW","0.8","3","0","221005","1505","6506","17202","1","4","4","6","1","1","1","5","4","0.03787878787878788","1395","3000","1840","[""down"",""right""]","{""num_key_presses"":4,""num_perfect"":4,""num_errors"":0,""num_randdir"":0,""num_randdir_good_moves"":0,""num_whilered"":0,""num_whileblue"":0,""num_blue"":0,""num_good_moves"":4}","[544.4285714285714,560.1285683768136,0,544.4285714285714,560.1285683768136,102,544.4285714285714,560.1285683768136,202,544.4285714285714,560.1285683768136,304,544.4285714285714,560.1285683768136,405,633.4285714285714,586.1285683768136,507,255.42857142857144,372.12856837681363,607,78.42857142857143,213.12856837681363,711,128.42857142857144,238.12856837681363,813,494.42857142857144,591.1285683768136,915,1047.4285714285713,942.1285683768136,1018,1021.4285714285714,938.1285683768136,1121,977.4285714285714,976.1285683768136,1223,973.4285714285714,981.1285683768136,1325,973.4285714285714,981.1285683768136,1426,972.4285714285714,981.1285683768136,1528,1055.4285714285713,971.1285683768136,1628,1406.4285714285713,716.1285683768136,1732,1380.4285714285713,697.1285683768136,1835,1380.4285714285713,697.1285683768136,1938,1380.4285714285713,697.1285683768136,2038,1380.4285714285713,697.1285683768136,2140,1380.4285714285713,697.1285683768136,2242,1380.4285714285713,697.1285683768136,2345,1380.4285714285713,697.1285683768136,2447,1380.4285714285713,697.1285683768136,2549,1380.4285714285713,697.1285683768136,2650,1380.4285714285713,697.1285683768136,2752,1380.4285714285713,697.1285683768136,2854,1380.4285714285713,697.1285683768136,2956,1380.4285714285713,697.1285683768136,3058,1380.4285714285713,697.1285683768136,3160,1380.4285714285713,697.1285683768136,3262,1380.4285714285713,697.1285683768136,3364,1380.4285714285713,697.1285683768136,3466,1380.4285714285713,697.1285683768136,3567,1380.4285714285713,697.1285683768136,3670,1380.4285714285713,697.1285683768136,3771,1380.4285714285713,697.1285683768136,3874,1380.4285714285713,697.1285683768136,3975,1380.4285714285713,697.1285683768136,4077,1380.4285714285713,697.1285683768136,4179,1380.4285714285713,697.1285683768136,4280,1380.4285714285713,697.1285683768136,4383,1380.4285714285713,697.1285683768136,4486,1380.4285714285713,697.1285683768136,4587,1380.4285714285713,697.1285683768136,4689,1380.4285714285713,697.1285683768136,4792,1380.4285714285713,697.1285683768136,4893,1380.4285714285713,697.1285683768136,4995]","[1407,1407,1000,0,407,""smooth"",""right"",""right"",""good_move"",4691,3284,2930,1407,354,""smooth"",""right"",""right"",""good_move"",7567,2876,2522.9,4691,353.1,""smooth"",""down"",""down"",""good_move"",10586,3019,2728.5,7567,290.5,""smooth"",""down"",""down"",""good_move""]","",""
"4559","","<div style=""width:500px;"">
  <p>What determined the result of this run?</p>
  </div>","100","html-slider-response","20","244300","0.0-5.0-1.2","36","1","2025-07-16 08:16:38","1f75c3e559b7213887762d5229550c2b","178.212.218.4","Mozilla/5.0 (Windows NT 10.0; Win64; x64; rv:140.0) Gecko/20100101 Firefox/140.0","","Firefox","140.0","Windows","10.0","https://app.prolific.com/","pl,en-US;q=0.7,en;q=0.3","5c2b339a85602a00012ffedd","686e379bc37a29ffa5cdc956","68775fddb55b94ea11b3551b","1","1","5c2b339a85602a00012ffedd","1","1","2025-07-16T08:20:43.653Z","","","","","","","","","","","AttribQ","","50","","","","","","","","","","","","","","","","","","","","","","","","","","","","",""
"2861","","<div style=""width:500px;"">
  <p>How much control did you have over the ball?</p>
  </div>","100","html-slider-response","21","247162","0.0-5.0-2.2","36","1","2025-07-16 08:16:38","1f75c3e559b7213887762d5229550c2b","178.212.218.4","Mozilla/5.0 (Windows NT 10.0; Win64; x64; rv:140.0) Gecko/20100101 Firefox/140.0","","Firefox","140.0","Windows","10.0","https://app.prolific.com/","pl,en-US;q=0.7,en;q=0.3","5c2b339a85602a00012ffedd","686e379bc37a29ffa5cdc956","68775fddb55b94ea11b3551b","1","1","5c2b339a85602a00012ffedd","1","1","2025-07-16T08:20:46.516Z","","","","","","","","","","","ControlQ","","50","","","","","","","","","","","","","","","","","","","","","","","","","","","","",""
"2224","","<div style=""width:500px;"">
  <p>How would you describe your current emotional state?</p>
  </div>","20","html-slider-response","22","249389","0.0-5.0-3.2","36","1","2025-07-16 08:16:38","1f75c3e559b7213887762d5229550c2b","178.212.218.4","Mozilla/5.0 (Windows NT 10.0; Win64; x64; rv:140.0) Gecko/20100101 Firefox/140.0","","Firefox","140.0","Windows","10.0","https://app.prolific.com/","pl,en-US;q=0.7,en;q=0.3","5c2b339a85602a00012ffedd","686e379bc37a29ffa5cdc956","68775fddb55b94ea11b3551b","1","1","5c2b339a85602a00012ffedd","1","1","2025-07-16T08:20:48.742Z","","","","","","","","","","","StressQ","","50","","","","","","","","","","","","","","","","","","","","","","","","","","","","",""
"2052","","<div style=""width:500px;"">
  <p>What best describes how you currently feel?</p>
  </div>","71","html-slider-response","23","251442","0.0-5.0-4.2","36","1","2025-07-16 08:16:38","1f75c3e559b7213887762d5229550c2b","178.212.218.4","Mozilla/5.0 (Windows NT 10.0; Win64; x64; rv:140.0) Gecko/20100101 Firefox/140.0","","Firefox","140.0","Windows","10.0","https://app.prolific.com/","pl,en-US;q=0.7,en;q=0.3","5c2b339a85602a00012ffedd","686e379bc37a29ffa5cdc956","68775fddb55b94ea11b3551b","1","1","5c2b339a85602a00012ffedd","1","1","2025-07-16T08:20:50.795Z","","","","","","","","","","","MotivationQ","","50","","","","","","","","","","","","","","","","","","","","","","","","","","","","",""
"","","","","ctl-task-cpt","24","282868","0.0-5.0-0.3","36","1","2025-07-16 08:16:38","1f75c3e559b7213887762d5229550c2b","178.212.218.4","Mozilla/5.0 (Windows NT 10.0; Win64; x64; rv:140.0) Gecko/20100101 Firefox/140.0","","Firefox","140.0","Windows","10.0","https://app.prolific.com/","pl,en-US;q=0.7,en;q=0.3","5c2b339a85602a00012ffedd","686e379bc37a29ffa5cdc956","68775fddb55b94ea11b3551b","1","1","5c2b339a85602a00012ffedd","1","1","2025-07-16T08:21:22.221Z","","","","","","","","","","","","","","win-only","1","g1:NE,g2:SW","0.7","4","0","252911","1114","6117","28424","1","4","8","6","1","1","1","6","5","0.045454545454545456","1876","3000","1020","[""up"",""right""]","{""num_key_presses"":6,""num_perfect"":4,""num_errors"":0,""num_randdir"":2,""num_randdir_good_moves"":1,""num_whilered"":0,""num_whileblue"":0,""num_blue"":2,""num_good_moves"":5}","[560.4285714285714,560.1285683768136,0,560.4285714285714,560.1285683768136,104,560.4285714285714,560.1285683768136,204,560.4285714285714,560.1285683768136,306,560.4285714285714,560.1285683768136,408,617.4285714285714,545.1285683768136,509,617.4285714285714,544.1285683768136,611,414.42857142857144,705.1285683768136,715,266.42857142857144,948.1285683768136,815,265.42857142857144,963.1285683768136,917,265.42857142857144,963.1285683768136,1019,265.42857142857144,963.1285683768136,1123,265.42857142857144,963.1285683768136,1224,265.42857142857144,963.1285683768136,1327,265.42857142857144,963.1285683768136,1429,904.4285714285714,270.12856837681363,1530,928.4285714285714,193.12856837681363,1633,1008.4285714285714,78.12856837681362,1735,1017.4285714285714,71.12856837681362,1836,1017.4285714285714,71.12856837681362,1938,1017.4285714285714,71.12856837681362,2042,1017.4285714285714,72.12856837681362,2145,861.4285714285714,483.12856837681363,2249,809.4285714285714,575.1285683768136,2351,885.4285714285714,291.12856837681363,2451,912.4285714285714,221.12856837681363,2552,912.4285714285714,221.12856837681363,2653,912.4285714285714,221.12856837681363,2756,912.4285714285714,221.12856837681363,2858,912.4285714285714,221.12856837681363,2960,912.4285714285714,221.12856837681363,3061,912.4285714285714,221.12856837681363,3162,912.4285714285714,221.12856837681363,3266,912.4285714285714,221.12856837681363,3367,912.4285714285714,221.12856837681363,3469,912.4285714285714,221.12856837681363,3571,912.4285714285714,221.12856837681363,3673,912.4285714285714,221.12856837681363,3775,912.4285714285714,221.12856837681363,3876,912.4285714285714,221.12856837681363,3978,912.4285714285714,221.12856837681363,4083,912.4285714285714,221.12856837681363,4187,912.4285714285714,221.12856837681363,4288,912.4285714285714,221.12856837681363,4389,912.4285714285714,221.12856837681363,4492,912.4285714285714,221.12856837681363,4593,912.4285714285714,221.12856837681363,4695,912.4285714285714,221.12856837681363,4798,912.4285714285714,221.12856837681363,4899]","[1399,1399,1000,0,399,""oops"",""up"",""up"",""good_move"",7288,5889,2123.5,4826,338.5,""smooth"",""up"",""up"",""good_move"",13765,6477,2428,11035,302,""smooth"",""right"",""right"",""good_move"",16556,2791,2393.9,13765,397.1,""oops"",""right"",""left"",""bad_move"",19005,2449,1837.8,16556,611.2,""smooth"",""right"",""right"",""good_move"",22202,3197,2834.3,19005,362.7,""smooth"",""right"",""right"",""good_move""]","",""
"3284","","<div style=""width:500px;"">
  <p>What determined the result of this run?</p>
  </div>","63","html-slider-response","25","286155","0.0-5.0-1.3","36","1","2025-07-16 08:16:38","1f75c3e559b7213887762d5229550c2b","178.212.218.4","Mozilla/5.0 (Windows NT 10.0; Win64; x64; rv:140.0) Gecko/20100101 Firefox/140.0","","Firefox","140.0","Windows","10.0","https://app.prolific.com/","pl,en-US;q=0.7,en;q=0.3","5c2b339a85602a00012ffedd","686e379bc37a29ffa5cdc956","68775fddb55b94ea11b3551b","1","1","5c2b339a85602a00012ffedd","1","1","2025-07-16T08:21:25.508Z","","","","","","","","","","","AttribQ","","50","","","","","","","","","","","","","","","","","","","","","","","","","","","","",""
"1536","","<div style=""width:500px;"">
  <p>How much control did you have over the ball?</p>
  </div>","61","html-slider-response","26","287693","0.0-5.0-2.3","36","1","2025-07-16 08:16:38","1f75c3e559b7213887762d5229550c2b","178.212.218.4","Mozilla/5.0 (Windows NT 10.0; Win64; x64; rv:140.0) Gecko/20100101 Firefox/140.0","","Firefox","140.0","Windows","10.0","https://app.prolific.com/","pl,en-US;q=0.7,en;q=0.3","5c2b339a85602a00012ffedd","686e379bc37a29ffa5cdc956","68775fddb55b94ea11b3551b","1","1","5c2b339a85602a00012ffedd","1","1","2025-07-16T08:21:27.046Z","","","","","","","","","","","ControlQ","","50","","","","","","","","","","","","","","","","","","","","","","","","","","","","",""
"1755","","<div style=""width:500px;"">
  <p>How would you describe your current emotional state?</p>
  </div>","64","html-slider-response","27","289450","0.0-5.0-3.3","36","1","2025-07-16 08:16:38","1f75c3e559b7213887762d5229550c2b","178.212.218.4","Mozilla/5.0 (Windows NT 10.0; Win64; x64; rv:140.0) Gecko/20100101 Firefox/140.0","","Firefox","140.0","Windows","10.0","https://app.prolific.com/","pl,en-US;q=0.7,en;q=0.3","5c2b339a85602a00012ffedd","686e379bc37a29ffa5cdc956","68775fddb55b94ea11b3551b","1","1","5c2b339a85602a00012ffedd","1","1","2025-07-16T08:21:28.803Z","","","","","","","","","","","StressQ","","50","","","","","","","","","","","","","","","","","","","","","","","","","","","","",""
"2295","","<div style=""width:500px;"">
  <p>What best describes how you currently feel?</p>
  </div>","65","html-slider-response","28","291746","0.0-5.0-4.3","36","1","2025-07-16 08:16:38","1f75c3e559b7213887762d5229550c2b","178.212.218.4","Mozilla/5.0 (Windows NT 10.0; Win64; x64; rv:140.0) Gecko/20100101 Firefox/140.0","","Firefox","140.0","Windows","10.0","https://app.prolific.com/","pl,en-US;q=0.7,en;q=0.3","5c2b339a85602a00012ffedd","686e379bc37a29ffa5cdc956","68775fddb55b94ea11b3551b","1","1","5c2b339a85602a00012ffedd","1","1","2025-07-16T08:21:31.099Z","","","","","","","","","","","MotivationQ","","50","","","","","","","","","","","","","","","","","","","","","","","","","","","","",""
"","","","","ctl-task-cpt","29","329884","0.0-5.0-0.4","36","1","2025-07-16 08:16:38","1f75c3e559b7213887762d5229550c2b","178.212.218.4","Mozilla/5.0 (Windows NT 10.0; Win64; x64; rv:140.0) Gecko/20100101 Firefox/140.0","","Firefox","140.0","Windows","10.0","https://app.prolific.com/","pl,en-US;q=0.7,en;q=0.3","5c2b339a85602a00012ffedd","686e379bc37a29ffa5cdc956","68775fddb55b94ea11b3551b","1","1","5c2b339a85602a00012ffedd","1","1","2025-07-16T08:22:09.237Z","","","","","","","","","","","","","","win-only","0","g1:NW,g2:SE","0.6","5","0","293215","801","5802","35135","1","4","4","6","2","4","4","10","6","0.07575757575757576","2082","3000","465","[""down"",""right""]","{""num_key_presses"":8,""num_perfect"":6,""num_errors"":0,""num_randdir"":2,""num_randdir_good_moves"":1,""num_whilered"":0,""num_whileblue"":0,""num_blue"":2,""num_good_moves"":7}","[557.4285714285714,547.1285683768136,0,557.4285714285714,546.1285683768136,105,557.4285714285714,546.1285683768136,207,557.4285714285714,546.1285683768136,310,557.4285714285714,546.1285683768136,413,441.42857142857144,518.1285683768136,515,436.42857142857144,508.12856837681363,616,436.42857142857144,508.12856837681363,718,704.4285714285714,646.1285683768136,821,1100.4285714285713,962.1285683768136,922,1071.4285714285713,955.1285683768136,1025,1099.4285714285713,1024.1285683768135,1129,1062.4285714285713,1002.1285683768136,1233,1033.4285714285713,992.1285683768136,1334,924.4285714285714,893.1285683768136,1436,122.42857142857143,113.12856837681362,1538,175.42857142857144,106.12856837681362,1640,280.42857142857144,288.12856837681363,1744,949.4285714285714,972.1285683768136,1846,977.4285714285714,1005.1285683768136,1948,977.4285714285714,1004.1285683768136,2050,977.4285714285714,1004.1285683768136,2152,977.4285714285714,1004.1285683768136,2254,977.4285714285714,994.1285683768136,2354,954.4285714285714,773.1285683768136,2459,899.4285714285714,741.1285683768136,2561,900.4285714285714,739.1285683768136,2662,1170.4285714285713,598.1285683768136,2767,1279.4285714285713,561.1285683768136,2870,1178.4285714285713,718.1285683768136,2975,1178.4285714285713,718.1285683768136,3076,1178.4285714285713,718.1285683768136,3181,1178.4285714285713,718.1285683768136,3284,1178.4285714285713,718.1285683768136,3385,1178.4285714285713,718.1285683768136,3487,1178.4285714285713,718.1285683768136,3589,1178.4285714285713,718.1285683768136,3691,1178.4285714285713,718.1285683768136,3793,1178.4285714285713,718.1285683768136,3895,1178.4285714285713,718.1285683768136,3997,1178.4285714285713,718.1285683768136,4101,1178.4285714285713,718.1285683768136,4206,1178.4285714285713,718.1285683768136,4308,1178.4285714285713,718.1285683768136,4411,1178.4285714285713,718.1285683768136,4512,1178.4285714285713,718.1285683768136,4615,1178.4285714285713,718.1285683768136,4717,1178.4285714285713,718.1285683768136,4818,1178.4285714285713,718.1285683768136,4920]","[1431,1431,1000,0,431,""smooth"",""down"",""down"",""good_move"",4302,2871,2491.7,1431,379.3,""smooth"",""down"",""down"",""good_move"",6489,2187,1780.7,4302,406.3,""oops"",""down"",""left"",""bad_move"",9193,2704,2317.8,6490,385.2,""smooth"",""right"",""right"",""good_move"",12805,3612,3277.3,9193,334.7,""smooth"",""right"",""right"",""good_move"",18941,6136,2580,16004,357,""smooth"",""right"",""right"",""good_move"",22096,3155,2762.4,18941,392.6,""smooth"",""right"",""right"",""good_move"",29227,7131,2948.5,25884,394.5,""oops"",""down"",""down"",""good_move""]","",""
"3437","","<div style=""width:500px;"">
  <p>What determined the result of this run?</p>
  </div>","72","html-slider-response","30","333322","0.0-5.0-1.4","36","1","2025-07-16 08:16:38","1f75c3e559b7213887762d5229550c2b","178.212.218.4","Mozilla/5.0 (Windows NT 10.0; Win64; x64; rv:140.0) Gecko/20100101 Firefox/140.0","","Firefox","140.0","Windows","10.0","https://app.prolific.com/","pl,en-US;q=0.7,en;q=0.3","5c2b339a85602a00012ffedd","686e379bc37a29ffa5cdc956","68775fddb55b94ea11b3551b","1","1","5c2b339a85602a00012ffedd","1","1","2025-07-16T08:22:12.675Z","","","","","","","","","","","AttribQ","","50","","","","","","","","","","","","","","","","","","","","","","","","","","","","",""
"1971","","<div style=""width:500px;"">
  <p>How much control did you have over the ball?</p>
  </div>","87","html-slider-response","31","335295","0.0-5.0-2.4","36","1","2025-07-16 08:16:38","1f75c3e559b7213887762d5229550c2b","178.212.218.4","Mozilla/5.0 (Windows NT 10.0; Win64; x64; rv:140.0) Gecko/20100101 Firefox/140.0","","Firefox","140.0","Windows","10.0","https://app.prolific.com/","pl,en-US;q=0.7,en;q=0.3","5c2b339a85602a00012ffedd","686e379bc37a29ffa5cdc956","68775fddb55b94ea11b3551b","1","1","5c2b339a85602a00012ffedd","1","1","2025-07-16T08:22:14.648Z","","","","","","","","","","","ControlQ","","50","","","","","","","","","","","","","","","","","","","","","","","","","","","","",""
"2282","","<div style=""width:500px;"">
  <p>How would you describe your current emotional state?</p>
  </div>","26","html-slider-response","32","337578","0.0-5.0-3.4","36","1","2025-07-16 08:16:38","1f75c3e559b7213887762d5229550c2b","178.212.218.4","Mozilla/5.0 (Windows NT 10.0; Win64; x64; rv:140.0) Gecko/20100101 Firefox/140.0","","Firefox","140.0","Windows","10.0","https://app.prolific.com/","pl,en-US;q=0.7,en;q=0.3","5c2b339a85602a00012ffedd","686e379bc37a29ffa5cdc956","68775fddb55b94ea11b3551b","1","1","5c2b339a85602a00012ffedd","1","1","2025-07-16T08:22:16.931Z","","","","","","","","","","","StressQ","","50","","","","","","","","","","","","","","","","","","","","","","","","","","","","",""
"1875","","<div style=""width:500px;"">
  <p>What best describes how you currently feel?</p>
  </div>","86","html-slider-response","33","339452","0.0-5.0-4.4","36","1","2025-07-16 08:16:38","1f75c3e559b7213887762d5229550c2b","178.212.218.4","Mozilla/5.0 (Windows NT 10.0; Win64; x64; rv:140.0) Gecko/20100101 Firefox/140.0","","Firefox","140.0","Windows","10.0","https://app.prolific.com/","pl,en-US;q=0.7,en;q=0.3","5c2b339a85602a00012ffedd","686e379bc37a29ffa5cdc956","68775fddb55b94ea11b3551b","1","1","5c2b339a85602a00012ffedd","1","1","2025-07-16T08:22:18.805Z","","","","","","","","","","","MotivationQ","","50","","","","","","","","","","","","","","","","","","","","","","","","","","","","",""
"","","","","ctl-task-cpt","34","366360","0.0-5.0-0.5","36","1","2025-07-16 08:16:38","1f75c3e559b7213887762d5229550c2b","178.212.218.4","Mozilla/5.0 (Windows NT 10.0; Win64; x64; rv:140.0) Gecko/20100101 Firefox/140.0","","Firefox","140.0","Windows","10.0","https://app.prolific.com/","pl,en-US;q=0.7,en;q=0.3","5c2b339a85602a00012ffedd","686e379bc37a29ffa5cdc956","68775fddb55b94ea11b3551b","1","1","5c2b339a85602a00012ffedd","1","1","2025-07-16T08:22:45.713Z","","","","","","","","","","","","","","win-only","2","g1:SE,g2:NW","0.5","6","0","340922","603","5604","23905","1","4","8","6","1","1","1","11","10","0.08333333333333333","1724","3000","625","[""down"",""right""]","{""num_key_presses"":6,""num_perfect"":3,""num_errors"":0,""num_randdir"":3,""num_randdir_good_moves"":2,""num_whilered"":0,""num_whileblue"":0,""num_blue"":1,""num_good_moves"":5}","[556.4285714285714,565.1285683768136,1,556.4285714285714,565.1285683768136,100,556.4285714285714,565.1285683768136,205,556.4285714285714,565.1285683768136,306,556.4285714285714,565.1285683768136,410,556.4285714285714,565.1285683768136,511,556.4285714285714,565.1285683768136,614,556.4285714285714,565.1285683768136,715,477.42857142857144,543.1285683768136,817,265.42857142857144,329.12856837681363,919,233.42857142857144,248.12856837681363,1020,233.42857142857144,248.12856837681363,1121,295.42857142857144,306.12856837681363,1223,986.4285714285714,963.1285683768136,1326,1097.4285714285713,1042.1285683768135,1429,1099.4285714285713,1061.1285683768135,1531,1043.4285714285713,1022.1285683768136,1632,1024.4285714285713,1014.1285683768136,1733,1024.4285714285713,1014.1285683768136,1833,1024.4285714285713,1014.1285683768136,1933,1024.4285714285713,1014.1285683768136,2036,1024.4285714285713,1014.1285683768136,2137,1024.4285714285713,1014.1285683768136,2237,1003.4285714285714,1011.1285683768136,2340,1003.4285714285714,1011.1285683768136,2440,1003.4285714285714,1011.1285683768136,2543,1003.4285714285714,1011.1285683768136,2645,1003.4285714285714,1011.1285683768136,2747,1003.4285714285714,1011.1285683768136,2848,1003.4285714285714,1011.1285683768136,2951,1003.4285714285714,1011.1285683768136,3053,1003.4285714285714,1011.1285683768136,3153,1003.4285714285714,1011.1285683768136,3257,1003.4285714285714,1011.1285683768136,3358,1003.4285714285714,1011.1285683768136,3461,1003.4285714285714,1011.1285683768136,3562,1003.4285714285714,1011.1285683768136,3665,1003.4285714285714,1011.1285683768136,3766,1003.4285714285714,1011.1285683768136,3868,1003.4285714285714,1011.1285683768136,3971,1003.4285714285714,1011.1285683768136,4071,1003.4285714285714,1011.1285683768136,4176,1003.4285714285714,1011.1285683768136,4280,1003.4285714285714,1011.1285683768136,4382,1003.4285714285714,1011.1285683768136,4484,1003.4285714285714,1011.1285683768136,4586,1003.4285714285714,1011.1285683768136,4690,1003.4285714285714,1011.1285683768136,4791,1003.4285714285714,1011.1285683768136,4893,1003.4285714285714,1011.1285683768136,4995]","[4455,4455,1834.8,2002,619.2,""smooth"",""right"",""right"",""good_move"",7002,2546,2022.2,4456,523.8,""oops"",""right"",""down"",""good_move"",9258,2256,1800.7,7002,455.3,""smooth"",""right"",""right"",""good_move"",12214,2956,2477.8,9258,478.2,""oops"",""down"",""left"",""bad_move"",15561,3346,2892.3,12215,453.7,""oops"",""down"",""down"",""good_move"",18200,2639,2277.8,15561,361.2,""smooth"",""right"",""right"",""good_move""]","",""
"2047","","<div style=""width:500px;"">
  <p>What determined the result of this run?</p>
  </div>","95","html-slider-response","35","368408","0.0-5.0-1.5","36","1","2025-07-16 08:16:38","1f75c3e559b7213887762d5229550c2b","178.212.218.4","Mozilla/5.0 (Windows NT 10.0; Win64; x64; rv:140.0) Gecko/20100101 Firefox/140.0","","Firefox","140.0","Windows","10.0","https://app.prolific.com/","pl,en-US;q=0.7,en;q=0.3","5c2b339a85602a00012ffedd","686e379bc37a29ffa5cdc956","68775fddb55b94ea11b3551b","1","1","5c2b339a85602a00012ffedd","1","1","2025-07-16T08:22:47.761Z","","","","","","","","","","","AttribQ","","50","","","","","","","","","","","","","","","","","","","","","","","","","","","","",""
"2361","","<div style=""width:500px;"">
  <p>How much control did you have over the ball?</p>
  </div>","43","html-slider-response","36","370770","0.0-5.0-2.5","36","1","2025-07-16 08:16:38","1f75c3e559b7213887762d5229550c2b","178.212.218.4","Mozilla/5.0 (Windows NT 10.0; Win64; x64; rv:140.0) Gecko/20100101 Firefox/140.0","","Firefox","140.0","Windows","10.0","https://app.prolific.com/","pl,en-US;q=0.7,en;q=0.3","5c2b339a85602a00012ffedd","686e379bc37a29ffa5cdc956","68775fddb55b94ea11b3551b","1","1","5c2b339a85602a00012ffedd","1","1","2025-07-16T08:22:50.123Z","","","","","","","","","","","ControlQ","","50","","","","","","","","","","","","","","","","","","","","","","","","","","","","",""
"2857","","<div style=""width:500px;"">
  <p>How would you describe your current emotional state?</p>
  </div>","57","html-slider-response","37","373628","0.0-5.0-3.5","36","1","2025-07-16 08:16:38","1f75c3e559b7213887762d5229550c2b","178.212.218.4","Mozilla/5.0 (Windows NT 10.0; Win64; x64; rv:140.0) Gecko/20100101 Firefox/140.0","","Firefox","140.0","Windows","10.0","https://app.prolific.com/","pl,en-US;q=0.7,en;q=0.3","5c2b339a85602a00012ffedd","686e379bc37a29ffa5cdc956","68775fddb55b94ea11b3551b","1","1","5c2b339a85602a00012ffedd","1","1","2025-07-16T08:22:52.981Z","","","","","","","","","","","StressQ","","50","","","","","","","","","","","","","","","","","","","","","","","","","","","","",""
"1448","","<div style=""width:500px;"">
  <p>What best describes how you currently feel?</p>
  </div>","62","html-slider-response","38","375079","0.0-5.0-4.5","36","1","2025-07-16 08:16:38","1f75c3e559b7213887762d5229550c2b","178.212.218.4","Mozilla/5.0 (Windows NT 10.0; Win64; x64; rv:140.0) Gecko/20100101 Firefox/140.0","","Firefox","140.0","Windows","10.0","https://app.prolific.com/","pl,en-US;q=0.7,en;q=0.3","5c2b339a85602a00012ffedd","686e379bc37a29ffa5cdc956","68775fddb55b94ea11b3551b","1","1","5c2b339a85602a00012ffedd","1","1","2025-07-16T08:22:54.432Z","","","","","","","","","","","MotivationQ","","50","","","","","","","","","","","","","","","","","","","","","","","","","","","","",""
"","","","","ctl-task-cpt","39","393591","0.0-5.0-0.6","36","1","2025-07-16 08:16:38","1f75c3e559b7213887762d5229550c2b","178.212.218.4","Mozilla/5.0 (Windows NT 10.0; Win64; x64; rv:140.0) Gecko/20100101 Firefox/140.0","","Firefox","140.0","Windows","10.0","https://app.prolific.com/","pl,en-US;q=0.7,en;q=0.3","5c2b339a85602a00012ffedd","686e379bc37a29ffa5cdc956","68775fddb55b94ea11b3551b","1","1","5c2b339a85602a00012ffedd","1","1","2025-07-16T08:23:12.944Z","","","","","","","","","","","","","","win-only","3","g1:SW,g2:NE","0.4","7","0","376549","693","5695","15508","1","4","4","6","1","1","1","12","11","0.09090909090909091","2091","3000","1575","[""down"",""left""]","{""num_key_presses"":4,""num_perfect"":4,""num_errors"":0,""num_randdir"":0,""num_randdir_good_moves"":0,""num_whilered"":0,""num_whileblue"":0,""num_blue"":0,""num_good_moves"":4}","[568.4285714285714,556.1285683768136,0,568.4285714285714,556.1285683768136,102,568.4285714285714,556.1285683768136,206,568.4285714285714,556.1285683768136,311,568.4285714285714,556.1285683768136,413,568.4285714285714,556.1285683768136,514,568.4285714285714,556.1285683768136,615,508.42857142857144,626.1285683768136,717,478.42857142857144,691.1285683768136,819,472.42857142857144,702.1285683768136,921,451.42857142857144,703.1285683768136,1023,715.4285714285714,407.12856837681363,1125,959.4285714285714,197.12856837681363,1229,986.4285714285714,155.12856837681363,1331,972.4285714285714,140.12856837681363,1433,306.42857142857144,684.1285683768136,1535,230.42857142857144,830.1285683768136,1635,222.42857142857144,842.1285683768136,1737,114.42857142857143,974.1285683768136,1841,98.42857142857143,1013.1285683768136,1943,82.42857142857143,1041.1285683768135,2046,82.42857142857143,1041.1285683768135,2151,82.42857142857143,1041.1285683768135,2252,82.42857142857143,1041.1285683768135,2352,82.42857142857143,1041.1285683768135,2452,82.42857142857143,1041.1285683768135,2555,82.42857142857143,1041.1285683768135,2657,80.42857142857143,1045.1285683768135,2758,68.42857142857143,1046.1285683768135,2861,43.42857142857143,1041.1285683768135,2964,43.42857142857143,1041.1285683768135,3064,43.42857142857143,1041.1285683768135,3165,43.42857142857143,1041.1285683768135,3265,43.42857142857143,1041.1285683768135,3367,43.42857142857143,1041.1285683768135,3469,43.42857142857143,1041.1285683768135,3569,43.42857142857143,1041.1285683768135,3671,43.42857142857143,1041.1285683768135,3773,43.42857142857143,1041.1285683768135,3875,43.42857142857143,1041.1285683768135,3977,43.42857142857143,1041.1285683768135,4079,43.42857142857143,1041.1285683768135,4181,43.42857142857143,1041.1285683768135,4283,43.42857142857143,1041.1285683768135,4384,43.42857142857143,1041.1285683768135,4486,43.42857142857143,1041.1285683768135,4588,43.42857142857143,1041.1285683768135,4691,43.42857142857143,1041.1285683768135,4792,43.42857142857143,1041.1285683768135,4895,43.42857142857143,1041.1285683768135,4996]","[1497,1497,1000,0,497,""smooth"",""left"",""left"",""good_move"",4946,3449,2879.9,1497,569.1,""smooth"",""left"",""left"",""good_move"",7069,2123,1786.4,4946,336.6,""smooth"",""down"",""down"",""good_move"",9708,2639,2290.8,7069,348.2,""smooth"",""down"",""down"",""good_move""]","",""
"3255","","<div style=""width:500px;"">
  <p>What determined the result of this run?</p>
  </div>","100","html-slider-response","40","396846","0.0-5.0-1.6","36","1","2025-07-16 08:16:38","1f75c3e559b7213887762d5229550c2b","178.212.218.4","Mozilla/5.0 (Windows NT 10.0; Win64; x64; rv:140.0) Gecko/20100101 Firefox/140.0","","Firefox","140.0","Windows","10.0","https://app.prolific.com/","pl,en-US;q=0.7,en;q=0.3","5c2b339a85602a00012ffedd","686e379bc37a29ffa5cdc956","68775fddb55b94ea11b3551b","1","1","5c2b339a85602a00012ffedd","1","1","2025-07-16T08:23:16.199Z","","","","","","","","","","","AttribQ","","50","","","","","","","","","","","","","","","","","","","","","","","","","","","","",""
"1675","","<div style=""width:500px;"">
  <p>How much control did you have over the ball?</p>
  </div>","100","html-slider-response","41","398523","0.0-5.0-2.6","36","1","2025-07-16 08:16:38","1f75c3e559b7213887762d5229550c2b","178.212.218.4","Mozilla/5.0 (Windows NT 10.0; Win64; x64; rv:140.0) Gecko/20100101 Firefox/140.0","","Firefox","140.0","Windows","10.0","https://app.prolific.com/","pl,en-US;q=0.7,en;q=0.3","5c2b339a85602a00012ffedd","686e379bc37a29ffa5cdc956","68775fddb55b94ea11b3551b","1","1","5c2b339a85602a00012ffedd","1","1","2025-07-16T08:23:17.876Z","","","","","","","","","","","ControlQ","","50","","","","","","","","","","","","","","","","","","","","","","","","","","","","",""
"1870","","<div style=""width:500px;"">
  <p>How would you describe your current emotional state?</p>
  </div>","51","html-slider-response","42","400395","0.0-5.0-3.6","36","1","2025-07-16 08:16:38","1f75c3e559b7213887762d5229550c2b","178.212.218.4","Mozilla/5.0 (Windows NT 10.0; Win64; x64; rv:140.0) Gecko/20100101 Firefox/140.0","","Firefox","140.0","Windows","10.0","https://app.prolific.com/","pl,en-US;q=0.7,en;q=0.3","5c2b339a85602a00012ffedd","686e379bc37a29ffa5cdc956","68775fddb55b94ea11b3551b","1","1","5c2b339a85602a00012ffedd","1","1","2025-07-16T08:23:19.748Z","","","","","","","","","","","StressQ","","50","","","","","","","","","","","","","","","","","","","","","","","","","","","","",""
"1648","","<div style=""width:500px;"">
  <p>What best describes how you currently feel?</p>
  </div>","60","html-slider-response","43","402044","0.0-5.0-4.6","36","1","2025-07-16 08:16:38","1f75c3e559b7213887762d5229550c2b","178.212.218.4","Mozilla/5.0 (Windows NT 10.0; Win64; x64; rv:140.0) Gecko/20100101 Firefox/140.0","","Firefox","140.0","Windows","10.0","https://app.prolific.com/","pl,en-US;q=0.7,en;q=0.3","5c2b339a85602a00012ffedd","686e379bc37a29ffa5cdc956","68775fddb55b94ea11b3551b","1","1","5c2b339a85602a00012ffedd","1","1","2025-07-16T08:23:21.397Z","","","","","","","","","","","MotivationQ","","50","","","","","","","","","","","","","","","","","","","","","","","","","","","","",""
"","","","","ctl-task-cpt","44","446086","0.0-5.0-0.7","36","1","2025-07-16 08:16:38","1f75c3e559b7213887762d5229550c2b","178.212.218.4","Mozilla/5.0 (Windows NT 10.0; Win64; x64; rv:140.0) Gecko/20100101 Firefox/140.0","","Firefox","140.0","Windows","10.0","https://app.prolific.com/","pl,en-US;q=0.7,en;q=0.3","5c2b339a85602a00012ffedd","686e379bc37a29ffa5cdc956","68775fddb55b94ea11b3551b","1","1","5c2b339a85602a00012ffedd","1","1","2025-07-16T08:24:05.439Z","","","","","","","","","","","","","","win-only","2","g1:SE,g2:NW","0.3","8","0","403515","1246","6253","41039","1","4","8","6","1","-1","-2","10","12","0.07575757575757576","1274","3000","-2485","[""down"",""right""]","{""num_key_presses"":9,""num_perfect"":3,""num_errors"":1,""num_randdir"":5,""num_randdir_good_moves"":3,""num_whilered"":0,""num_whileblue"":1,""num_blue"":3,""num_good_moves"":6}","[552.4285714285714,559.1285683768136,0,552.4285714285714,559.1285683768136,102,552.4285714285714,559.1285683768136,203,552.4285714285714,559.1285683768136,310,552.4285714285714,559.1285683768136,411,552.4285714285714,559.1285683768136,513,559.4285714285714,586.1285683768136,615,870.4285714285714,894.1285683768136,720,900.4285714285714,968.1285683768136,825,906.4285714285714,920.1285683768136,929,929.4285714285714,927.1285683768136,1032,986.4285714285714,980.1285683768136,1133,986.4285714285714,979.1285683768136,1237,986.4285714285714,979.1285683768136,1338,986.4285714285714,979.1285683768136,1440,986.4285714285714,979.1285683768136,1543,986.4285714285714,979.1285683768136,1644,986.4285714285714,979.1285683768136,1745,986.4285714285714,979.1285683768136,1847,986.4285714285714,979.1285683768136,1949,986.4285714285714,979.1285683768136,2050,986.4285714285714,979.1285683768136,2155,986.4285714285714,979.1285683768136,2260,986.4285714285714,979.1285683768136,2361,986.4285714285714,979.1285683768136,2465,986.4285714285714,979.1285683768136,2567,986.4285714285714,979.1285683768136,2671,986.4285714285714,979.1285683768136,2773,986.4285714285714,979.1285683768136,2875,986.4285714285714,979.1285683768136,2977,986.4285714285714,979.1285683768136,3081,986.4285714285714,979.1285683768136,3181,986.4285714285714,979.1285683768136,3284,986.4285714285714,979.1285683768136,3386,986.4285714285714,979.1285683768136,3488,986.4285714285714,979.1285683768136,3589,986.4285714285714,979.1285683768136,3691,986.4285714285714,979.1285683768136,3794,986.4285714285714,979.1285683768136,3896,986.4285714285714,979.1285683768136,3997,986.4285714285714,979.1285683768136,4098,986.4285714285714,979.1285683768136,4203,986.4285714285714,979.1285683768136,4306,986.4285714285714,979.1285683768136,4407,986.4285714285714,979.1285683768136,4511,986.4285714285714,979.1285683768136,4614,986.4285714285714,979.1285683768136,4717,986.4285714285714,979.1285683768136,4819,986.4285714285714,979.1285683768136,4921]","[1445,1445,1000,0,445,""oops"",""down"",""left"",""bad_move"",4971,3526,3128.1,1445,397.9,""oops"",""down"",""right"",""good_move"",10964,5993,2072,8485,407,""while_blue"",""down"",""up"",""bad_move"",13433,2468,1988.6,10965,479.4,""smooth"",""down"",""down"",""good_move"",16407,2974,2623.9,13433,350.1,""oops"",""down"",""down"",""good_move"",20315,3908,3354.2,16407,553.8,""oops"",""down"",""left"",""bad_move"",23133,2818,2365.6,20315,452.4,""smooth"",""right"",""right"",""good_move"",25837,2704,2305.8,23133,398.2,""smooth"",""right"",""right"",""good_move"",28850,3013,2484.7,25837,528.3,""oops"",""right"",""down"",""good_move""]","",""
"2477","","<div style=""width:500px;"">
  <p>What determined the result of this run?</p>
  </div>","0","html-slider-response","45","448565","0.0-5.0-1.7","36","1","2025-07-16 08:16:38","1f75c3e559b7213887762d5229550c2b","178.212.218.4","Mozilla/5.0 (Windows NT 10.0; Win64; x64; rv:140.0) Gecko/20100101 Firefox/140.0","","Firefox","140.0","Windows","10.0","https://app.prolific.com/","pl,en-US;q=0.7,en;q=0.3","5c2b339a85602a00012ffedd","686e379bc37a29ffa5cdc956","68775fddb55b94ea11b3551b","1","1","5c2b339a85602a00012ffedd","1","1","2025-07-16T08:24:07.918Z","","","","","","","","","","","AttribQ","","50","","","","","","","","","","","","","","","","","","","","","","","","","","","","",""
"2312","","<div style=""width:500px;"">
  <p>How much control did you have over the ball?</p>
  </div>","0","html-slider-response","46","450877","0.0-5.0-2.7","36","1","2025-07-16 08:16:38","1f75c3e559b7213887762d5229550c2b","178.212.218.4","Mozilla/5.0 (Windows NT 10.0; Win64; x64; rv:140.0) Gecko/20100101 Firefox/140.0","","Firefox","140.0","Windows","10.0","https://app.prolific.com/","pl,en-US;q=0.7,en;q=0.3","5c2b339a85602a00012ffedd","686e379bc37a29ffa5cdc956","68775fddb55b94ea11b3551b","1","1","5c2b339a85602a00012ffedd","1","1","2025-07-16T08:24:10.231Z","","","","","","","","","","","ControlQ","","50","","","","","","","","","","","","","","","","","","","","","","","","","","","","",""
"2289","","<div style=""width:500px;"">
  <p>How would you describe your current emotional state?</p>
  </div>","100","html-slider-response","47","453167","0.0-5.0-3.7","36","1","2025-07-16 08:16:38","1f75c3e559b7213887762d5229550c2b","178.212.218.4","Mozilla/5.0 (Windows NT 10.0; Win64; x64; rv:140.0) Gecko/20100101 Firefox/140.0","","Firefox","140.0","Windows","10.0","https://app.prolific.com/","pl,en-US;q=0.7,en;q=0.3","5c2b339a85602a00012ffedd","686e379bc37a29ffa5cdc956","68775fddb55b94ea11b3551b","1","1","5c2b339a85602a00012ffedd","1","1","2025-07-16T08:24:12.520Z","","","","","","","","","","","StressQ","","50","","","","","","","","","","","","","","","","","","","","","","","","","","","","",""
"3267","","<div style=""width:500px;"">
  <p>What best describes how you currently feel?</p>
  </div>","10","html-slider-response","48","456435","0.0-5.0-4.7","36","1","2025-07-16 08:16:38","1f75c3e559b7213887762d5229550c2b","178.212.218.4","Mozilla/5.0 (Windows NT 10.0; Win64; x64; rv:140.0) Gecko/20100101 Firefox/140.0","","Firefox","140.0","Windows","10.0","https://app.prolific.com/","pl,en-US;q=0.7,en;q=0.3","5c2b339a85602a00012ffedd","686e379bc37a29ffa5cdc956","68775fddb55b94ea11b3551b","1","1","5c2b339a85602a00012ffedd","1","1","2025-07-16T08:24:15.788Z","","","","","","","","","","","MotivationQ","","50","","","","","","","","","","","","","","","","","","","","","","","","","","","","",""
"","","","","ctl-task-cpt","49","493726","0.0-5.0-0.8","36","1","2025-07-16 08:16:38","1f75c3e559b7213887762d5229550c2b","178.212.218.4","Mozilla/5.0 (Windows NT 10.0; Win64; x64; rv:140.0) Gecko/20100101 Firefox/140.0","","Firefox","140.0","Windows","10.0","https://app.prolific.com/","pl,en-US;q=0.7,en;q=0.3","5c2b339a85602a00012ffedd","686e379bc37a29ffa5cdc956","68775fddb55b94ea11b3551b","1","1","5c2b339a85602a00012ffedd","1","1","2025-07-16T08:24:53.079Z","","","","","","","","","","","","","","win-only","0","g1:NW,g2:SE","0.2","9","0","457904","1815","6817","34290","1","4","8","6","1","-1","-2","8","10","0.06060606060606061","1709","3000","-2500","[""left"",""up""]","{""num_key_presses"":9,""num_perfect"":1,""num_errors"":1,""num_randdir"":7,""num_randdir_good_moves"":2,""num_whilered"":0,""num_whileblue"":0,""num_blue"":1,""num_good_moves"":3}","[549.4285714285714,571.1285683768136,0,549.4285714285714,571.1285683768136,105,549.4285714285714,571.1285683768136,210,549.4285714285714,571.1285683768136,312,549.4285714285714,571.1285683768136,414,549.4285714285714,571.1285683768136,516,549.4285714285714,571.1285683768136,618,549.4285714285714,571.1285683768136,719,564.4285714285714,616.1285683768136,821,728.4285714285714,735.1285683768136,921,751.4285714285714,754.1285683768136,1023,748.4285714285714,802.1285683768136,1128,485.42857142857144,527.1285683768136,1228,208.42857142857144,247.12856837681363,1330,188.42857142857144,151.12856837681363,1433,169.42857142857144,113.12856837681362,1535,131.42857142857144,91.12856837681362,1638,129.42857142857144,91.12856837681362,1740,129.42857142857144,91.12856837681362,1840,129.42857142857144,91.12856837681362,1945,129.42857142857144,91.12856837681362,2049,129.42857142857144,91.12856837681362,2151,129.42857142857144,91.12856837681362,2256,129.42857142857144,91.12856837681362,2359,129.42857142857144,91.12856837681362,2460,129.42857142857144,91.12856837681362,2563,129.42857142857144,91.12856837681362,2664,129.42857142857144,91.12856837681362,2768,129.42857142857144,91.12856837681362,2870,129.42857142857144,91.12856837681362,2970,129.42857142857144,91.12856837681362,3072,129.42857142857144,91.12856837681362,3177,129.42857142857144,91.12856837681362,3277,129.42857142857144,91.12856837681362,3379,129.42857142857144,91.12856837681362,3481,129.42857142857144,91.12856837681362,3583,129.42857142857144,91.12856837681362,3685,129.42857142857144,91.12856837681362,3787,129.42857142857144,91.12856837681362,3889,129.42857142857144,91.12856837681362,3991,129.42857142857144,91.12856837681362,4091,129.42857142857144,91.12856837681362,4193,129.42857142857144,91.12856837681362,4295,129.42857142857144,91.12856837681362,4397,129.42857142857144,91.12856837681362,4499,129.42857142857144,91.12856837681362,4601,129.42857142857144,91.12856837681362,4703,129.42857142857144,91.12856837681362,4805,129.42857142857144,91.12856837681362,4907]","[1392,1392,1000,0,392,""oops"",""up"",""left"",""good_move"",4574,3182,2607.9,1392,574.1,""oops"",""up"",""left"",""good_move"",7325,2751,2373.1,4574,377.9,""oops"",""up"",""down"",""bad_move"",12467,5142,2052,10046,369,""smooth"",""up"",""up"",""good_move"",15872,3405,3054.2,12467,350.8,""oops"",""up"",""down"",""bad_move"",18683,2811,2353.5,15872,457.5,""oops"",""up"",""down"",""bad_move"",21013,2330,1964.3,18683,365.7,""oops"",""up"",""down"",""bad_move"",23756,2743,2400.3,21013,342.7,""oops"",""up"",""right"",""bad_move"",24033,277,2154.5,23756,-1877.5,""error"",""-"",""-"",""no_move""]","",""
"2049","","<div style=""width:500px;"">
  <p>What determined the result of this run?</p>
  </div>","0","html-slider-response","50","495778","0.0-5.0-1.8","36","1","2025-07-16 08:16:38","1f75c3e559b7213887762d5229550c2b","178.212.218.4","Mozilla/5.0 (Windows NT 10.0; Win64; x64; rv:140.0) Gecko/20100101 Firefox/140.0","","Firefox","140.0","Windows","10.0","https://app.prolific.com/","pl,en-US;q=0.7,en;q=0.3","5c2b339a85602a00012ffedd","686e379bc37a29ffa5cdc956","68775fddb55b94ea11b3551b","1","1","5c2b339a85602a00012ffedd","1","1","2025-07-16T08:24:55.131Z","","","","","","","","","","","AttribQ","","50","","","","","","","","","","","","","","","","","","","","","","","","","","","","",""
"1751","","<div style=""width:500px;"">
  <p>How much control did you have over the ball?</p>
  </div>","0","html-slider-response","51","497531","0.0-5.0-2.8","36","1","2025-07-16 08:16:38","1f75c3e559b7213887762d5229550c2b","178.212.218.4","Mozilla/5.0 (Windows NT 10.0; Win64; x64; rv:140.0) Gecko/20100101 Firefox/140.0","","Firefox","140.0","Windows","10.0","https://app.prolific.com/","pl,en-US;q=0.7,en;q=0.3","5c2b339a85602a00012ffedd","686e379bc37a29ffa5cdc956","68775fddb55b94ea11b3551b","1","1","5c2b339a85602a00012ffedd","1","1","2025-07-16T08:24:56.884Z","","","","","","","","","","","ControlQ","","50","","","","","","","","","","","","","","","","","","","","","","","","","","","","",""
"1897","","<div style=""width:500px;"">
  <p>How would you describe your current emotional state?</p>
  </div>","100","html-slider-response","52","499429","0.0-5.0-3.8","36","1","2025-07-16 08:16:38","1f75c3e559b7213887762d5229550c2b","178.212.218.4","Mozilla/5.0 (Windows NT 10.0; Win64; x64; rv:140.0) Gecko/20100101 Firefox/140.0","","Firefox","140.0","Windows","10.0","https://app.prolific.com/","pl,en-US;q=0.7,en;q=0.3","5c2b339a85602a00012ffedd","686e379bc37a29ffa5cdc956","68775fddb55b94ea11b3551b","1","1","5c2b339a85602a00012ffedd","1","1","2025-07-16T08:24:58.782Z","","","","","","","","","","","StressQ","","50","","","","","","","","","","","","","","","","","","","","","","","","","","","","",""
"1699","","<div style=""width:500px;"">
  <p>What best describes how you currently feel?</p>
  </div>","0","html-slider-response","53","501128","0.0-5.0-4.8","36","1","2025-07-16 08:16:38","1f75c3e559b7213887762d5229550c2b","178.212.218.4","Mozilla/5.0 (Windows NT 10.0; Win64; x64; rv:140.0) Gecko/20100101 Firefox/140.0","","Firefox","140.0","Windows","10.0","https://app.prolific.com/","pl,en-US;q=0.7,en;q=0.3","5c2b339a85602a00012ffedd","686e379bc37a29ffa5cdc956","68775fddb55b94ea11b3551b","1","1","5c2b339a85602a00012ffedd","1","1","2025-07-16T08:25:00.481Z","","","","","","","","","","","MotivationQ","","50","","","","","","","","","","","","","","","","","","","","","","","","","","","","",""
"","","","","ctl-task-cpt","54","520691","0.0-5.0-0.9","36","1","2025-07-16 08:16:38","1f75c3e559b7213887762d5229550c2b","178.212.218.4","Mozilla/5.0 (Windows NT 10.0; Win64; x64; rv:140.0) Gecko/20100101 Firefox/140.0","","Firefox","140.0","Windows","10.0","https://app.prolific.com/","pl,en-US;q=0.7,en;q=0.3","5c2b339a85602a00012ffedd","686e379bc37a29ffa5cdc956","68775fddb55b94ea11b3551b","1","1","5c2b339a85602a00012ffedd","1","1","2025-07-16T08:25:20.044Z","","","","","","","","","","","","","","win-only","3","g1:SW,g2:NE","0.4","10","0","502598","1532","6535","16560","1","4","4","6","1","1","1","9","8","0.06818181818181818","1375","3000","1740","[""down"",""left""]","{""num_key_presses"":4,""num_perfect"":4,""num_errors"":0,""num_randdir"":0,""num_randdir_good_moves"":0,""num_whilered"":0,""num_whileblue"":0,""num_blue"":0,""num_good_moves"":4}","[559.4285714285714,555.1285683768136,0,559.4285714285714,555.1285683768136,132,559.4285714285714,555.1285683768136,234,559.4285714285714,555.1285683768136,335,559.4285714285714,555.1285683768136,437,559.4285714285714,555.1285683768136,539,559.4285714285714,555.1285683768136,641,559.4285714285714,555.1285683768136,744,361.42857142857144,732.1285683768136,847,-4.571428571428569,967.1285683768136,950,-3.5714285714285694,968.1285683768136,1051,4.428571428571431,999.1285683768136,1154,52.42857142857143,1018.1285683768136,1257,84.42857142857143,999.1285683768136,1360,84.42857142857143,999.1285683768136,1462,84.42857142857143,999.1285683768136,1565,84.42857142857143,999.1285683768136,1665,84.42857142857143,999.1285683768136,1765,50.42857142857143,993.1285683768136,1868,-63.57142857142857,1257.1285683768135,1970,-63.57142857142857,1257.1285683768135,2074,-63.57142857142857,1257.1285683768135,2176,-63.57142857142857,1257.1285683768135,2280,-63.57142857142857,1257.1285683768135,2383,-63.57142857142857,1257.1285683768135,2484,-63.57142857142857,1257.1285683768135,2586,-63.57142857142857,1257.1285683768135,2688,-63.57142857142857,1257.1285683768135,2790,-63.57142857142857,1257.1285683768135,2892,-63.57142857142857,1257.1285683768135,2994,-63.57142857142857,1257.1285683768135,3096,-63.57142857142857,1257.1285683768135,3201,-63.57142857142857,1257.1285683768135,3303,-63.57142857142857,1257.1285683768135,3404,-63.57142857142857,1257.1285683768135,3507,-63.57142857142857,1257.1285683768135,3608,-63.57142857142857,1257.1285683768135,3710,-63.57142857142857,1257.1285683768135,3813,-63.57142857142857,1257.1285683768135,3914,-63.57142857142857,1257.1285683768135,4016,-63.57142857142857,1257.1285683768135,4117,-63.57142857142857,1257.1285683768135,4217,-63.57142857142857,1257.1285683768135,4319,-63.57142857142857,1257.1285683768135,4421,-63.57142857142857,1257.1285683768135,4523,-63.57142857142857,1257.1285683768135,4625,-63.57142857142857,1257.1285683768135,4727,-63.57142857142857,1257.1285683768135,4829,-63.57142857142857,1257.1285683768135,4931]","[1469,1469,1000,0,469,""smooth"",""left"",""left"",""good_move"",4430,2961,2610.8,1469,350.2,""smooth"",""left"",""left"",""good_move"",7136,2706,2352.7,4430,353.3,""smooth"",""down"",""down"",""good_move"",9916,2780,2415.4,7136,364.6,""smooth"",""down"",""down"",""good_move""]","",""
"3260","","<div style=""width:500px;"">
  <p>What determined the result of this run?</p>
  </div>","100","html-slider-response","55","523952","0.0-5.0-1.9","36","1","2025-07-16 08:16:38","1f75c3e559b7213887762d5229550c2b","178.212.218.4","Mozilla/5.0 (Windows NT 10.0; Win64; x64; rv:140.0) Gecko/20100101 Firefox/140.0","","Firefox","140.0","Windows","10.0","https://app.prolific.com/","pl,en-US;q=0.7,en;q=0.3","5c2b339a85602a00012ffedd","686e379bc37a29ffa5cdc956","68775fddb55b94ea11b3551b","1","1","5c2b339a85602a00012ffedd","1","1","2025-07-16T08:25:23.305Z","","","","","","","","","","","AttribQ","","50","","","","","","","","","","","","","","","","","","","","","","","","","","","","",""
"1497","","<div style=""width:500px;"">
  <p>How much control did you have over the ball?</p>
  </div>","68","html-slider-response","56","525449","0.0-5.0-2.9","36","1","2025-07-16 08:16:38","1f75c3e559b7213887762d5229550c2b","178.212.218.4","Mozilla/5.0 (Windows NT 10.0; Win64; x64; rv:140.0) Gecko/20100101 Firefox/140.0","","Firefox","140.0","Windows","10.0","https://app.prolific.com/","pl,en-US;q=0.7,en;q=0.3","5c2b339a85602a00012ffedd","686e379bc37a29ffa5cdc956","68775fddb55b94ea11b3551b","1","1","5c2b339a85602a00012ffedd","1","1","2025-07-16T08:25:24.802Z","","","","","","","","","","","ControlQ","","50","","","","","","","","","","","","","","","","","","","","","","","","","","","","",""
"1969","","<div style=""width:500px;"">
  <p>How would you describe your current emotional state?</p>
  </div>","66","html-slider-response","57","527420","0.0-5.0-3.9","36","1","2025-07-16 08:16:38","1f75c3e559b7213887762d5229550c2b","178.212.218.4","Mozilla/5.0 (Windows NT 10.0; Win64; x64; rv:140.0) Gecko/20100101 Firefox/140.0","","Firefox","140.0","Windows","10.0","https://app.prolific.com/","pl,en-US;q=0.7,en;q=0.3","5c2b339a85602a00012ffedd","686e379bc37a29ffa5cdc956","68775fddb55b94ea11b3551b","1","1","5c2b339a85602a00012ffedd","1","1","2025-07-16T08:25:26.773Z","","","","","","","","","","","StressQ","","50","","","","","","","","","","","","","","","","","","","","","","","","","","","","",""
"2059","","<div style=""width:500px;"">
  <p>What best describes how you currently feel?</p>
  </div>","56","html-slider-response","58","529479","0.0-5.0-4.9","36","1","2025-07-16 08:16:38","1f75c3e559b7213887762d5229550c2b","178.212.218.4","Mozilla/5.0 (Windows NT 10.0; Win64; x64; rv:140.0) Gecko/20100101 Firefox/140.0","","Firefox","140.0","Windows","10.0","https://app.prolific.com/","pl,en-US;q=0.7,en;q=0.3","5c2b339a85602a00012ffedd","686e379bc37a29ffa5cdc956","68775fddb55b94ea11b3551b","1","1","5c2b339a85602a00012ffedd","1","1","2025-07-16T08:25:28.832Z","","","","","","","","","","","MotivationQ","","50","","","","","","","","","","","","","","","","","","","","","","","","","","","","",""
"","","","","ctl-task-cpt","59","573732","0.0-5.0-0.10","36","1","2025-07-16 08:16:38","1f75c3e559b7213887762d5229550c2b","178.212.218.4","Mozilla/5.0 (Windows NT 10.0; Win64; x64; rv:140.0) Gecko/20100101 Firefox/140.0","","Firefox","140.0","Windows","10.0","https://app.prolific.com/","pl,en-US;q=0.7,en;q=0.3","5c2b339a85602a00012ffedd","686e379bc37a29ffa5cdc956","68775fddb55b94ea11b3551b","1","1","5c2b339a85602a00012ffedd","1","1","2025-07-16T08:26:13.085Z","","","","","","","","","","","","","","win-only","3","g1:SW,g2:NE","0.5","11","0","530949","779","5780","41250","1","4","4","6","1","1","0","9","9","0.06818181818181818","1248","3000","225","[""down"",""left""]","{""num_key_presses"":8,""num_perfect"":5,""num_errors"":1,""num_randdir"":2,""num_randdir_good_moves"":0,""num_whilered"":0,""num_whileblue"":1,""num_blue"":5,""num_good_moves"":6}","[553.4285714285714,563.1285683768136,0,553.4285714285714,563.1285683768136,102,553.4285714285714,563.1285683768136,207,553.4285714285714,563.1285683768136,307,553.4285714285714,563.1285683768136,409,553.4285714285714,563.1285683768136,511,553.4285714285714,563.1285683768136,614,553.4285714285714,563.1285683768136,715,553.4285714285714,563.1285683768136,817,553.4285714285714,563.1285683768136,920,110.42857142857143,1076.1285683768135,1025,105.42857142857143,1077.1285683768135,1127,104.42857142857143,1081.1285683768135,1229,104.42857142857143,1081.1285683768135,1333,104.42857142857143,1081.1285683768135,1435,104.42857142857143,1081.1285683768135,1535,104.42857142857143,1081.1285683768135,1636,104.42857142857143,1081.1285683768135,1738,104.42857142857143,1081.1285683768135,1840,101.42857142857143,1081.1285683768135,1942,99.42857142857143,1081.1285683768135,2043,99.42857142857143,1081.1285683768135,2143,99.42857142857143,1081.1285683768135,2244,99.42857142857143,1081.1285683768135,2346,99.42857142857143,1081.1285683768135,2448,99.42857142857143,1081.1285683768135,2549,99.42857142857143,1081.1285683768135,2652,99.42857142857143,1081.1285683768135,2831,99.42857142857143,1081.1285683768135,2931,99.42857142857143,1081.1285683768135,3034,99.42857142857143,1081.1285683768135,3134,99.42857142857143,1081.1285683768135,3236,99.42857142857143,1081.1285683768135,3338,99.42857142857143,1081.1285683768135,3440,99.42857142857143,1081.1285683768135,3540,99.42857142857143,1081.1285683768135,3643,99.42857142857143,1081.1285683768135,3744,99.42857142857143,1081.1285683768135,3846,99.42857142857143,1081.1285683768135,3948,99.42857142857143,1081.1285683768135,4049,99.42857142857143,1081.1285683768135,4150,99.42857142857143,1081.1285683768135,4252,99.42857142857143,1081.1285683768135,4353,99.42857142857143,1081.1285683768135,4455,99.42857142857143,1081.1285683768135,4558,99.42857142857143,1081.1285683768135,4663,99.42857142857143,1081.1285683768135,4767,99.42857142857143,1081.1285683768135,4869,99.42857142857143,1081.1285683768135,4971]","[1389,1389,1000,0,389,""oops"",""left"",""right"",""bad_move"",10974,9585,2464.5,8004,505.5,""oops"",""left"",""right"",""bad_move"",13529,2555,2198.5,10974,356.5,""smooth"",""left"",""left"",""good_move"",16258,2728,2376,13530,352,""while_blue"",""left"",""down"",""good_move"",19106,2848,2295.3,16258,552.7,""smooth"",""left"",""left"",""good_move"",25286,6180,1859.7,22896,530.3,""smooth"",""left"",""left"",""good_move"",31970,6683,2624.3,28972,373.7,""smooth"",""left"",""left"",""good_move"",35366,3396,2731.7,31970,664.3,""smooth"",""down"",""down"",""good_move""]","",""
"5866","","<div style=""width:500px;"">
  <p>What determined the result of this run?</p>
  </div>","16","html-slider-response","60","579600","0.0-5.0-1.10","36","1","2025-07-16 08:16:38","1f75c3e559b7213887762d5229550c2b","178.212.218.4","Mozilla/5.0 (Windows NT 10.0; Win64; x64; rv:140.0) Gecko/20100101 Firefox/140.0","","Firefox","140.0","Windows","10.0","https://app.prolific.com/","pl,en-US;q=0.7,en;q=0.3","5c2b339a85602a00012ffedd","686e379bc37a29ffa5cdc956","68775fddb55b94ea11b3551b","1","1","5c2b339a85602a00012ffedd","1","1","2025-07-16T08:26:18.953Z","","","","","","","","","","","AttribQ","","50","","","","","","","","","","","","","","","","","","","","","","","","","","","","",""
"2440","","<div style=""width:500px;"">
  <p>How much control did you have over the ball?</p>
  </div>","40","html-slider-response","61","582042","0.0-5.0-2.10","36","1","2025-07-16 08:16:38","1f75c3e559b7213887762d5229550c2b","178.212.218.4","Mozilla/5.0 (Windows NT 10.0; Win64; x64; rv:140.0) Gecko/20100101 Firefox/140.0","","Firefox","140.0","Windows","10.0","https://app.prolific.com/","pl,en-US;q=0.7,en;q=0.3","5c2b339a85602a00012ffedd","686e379bc37a29ffa5cdc956","68775fddb55b94ea11b3551b","1","1","5c2b339a85602a00012ffedd","1","1","2025-07-16T08:26:21.395Z","","","","","","","","","","","ControlQ","","50","","","","","","","","","","","","","","","","","","","","","","","","","","","","",""
"1914","","<div style=""width:500px;"">
  <p>How would you describe your current emotional state?</p>
  </div>","67","html-slider-response","62","583957","0.0-5.0-3.10","36","1","2025-07-16 08:16:38","1f75c3e559b7213887762d5229550c2b","178.212.218.4","Mozilla/5.0 (Windows NT 10.0; Win64; x64; rv:140.0) Gecko/20100101 Firefox/140.0","","Firefox","140.0","Windows","10.0","https://app.prolific.com/","pl,en-US;q=0.7,en;q=0.3","5c2b339a85602a00012ffedd","686e379bc37a29ffa5cdc956","68775fddb55b94ea11b3551b","1","1","5c2b339a85602a00012ffedd","1","1","2025-07-16T08:26:23.310Z","","","","","","","","","","","StressQ","","50","","","","","","","","","","","","","","","","","","","","","","","","","","","","",""
"2809","","<div style=""width:500px;"">
  <p>What best describes how you currently feel?</p>
  </div>","62","html-slider-response","63","586768","0.0-5.0-4.10","36","1","2025-07-16 08:16:38","1f75c3e559b7213887762d5229550c2b","178.212.218.4","Mozilla/5.0 (Windows NT 10.0; Win64; x64; rv:140.0) Gecko/20100101 Firefox/140.0","","Firefox","140.0","Windows","10.0","https://app.prolific.com/","pl,en-US;q=0.7,en;q=0.3","5c2b339a85602a00012ffedd","686e379bc37a29ffa5cdc956","68775fddb55b94ea11b3551b","1","1","5c2b339a85602a00012ffedd","1","1","2025-07-16T08:26:26.121Z","","","","","","","","","","","MotivationQ","","50","","","","","","","","","","","","","","","","","","","","","","","","","","","","",""
"","","","","ctl-task-cpt","64","605623","0.0-5.0-0.11","36","1","2025-07-16 08:16:38","1f75c3e559b7213887762d5229550c2b","178.212.218.4","Mozilla/5.0 (Windows NT 10.0; Win64; x64; rv:140.0) Gecko/20100101 Firefox/140.0","","Firefox","140.0","Windows","10.0","https://app.prolific.com/","pl,en-US;q=0.7,en;q=0.3","5c2b339a85602a00012ffedd","686e379bc37a29ffa5cdc956","68775fddb55b94ea11b3551b","1","1","5c2b339a85602a00012ffedd","1","1","2025-07-16T08:26:44.976Z","","","","","","","","","","","","","","win-only","3","g1:SW,g2:NE","0.6","12","0","588237","915","5917","15853","1","4","8","6","1","1","1","10","9","0.07575757575757576","1275","3000","1795","[""down"",""left""]","{""num_key_presses"":4,""num_perfect"":2,""num_errors"":0,""num_randdir"":2,""num_randdir_good_moves"":2,""num_whilered"":0,""num_whileblue"":0,""num_blue"":0,""num_good_moves"":4}","[564.4285714285714,556.1285683768136,0,564.4285714285714,556.1285683768136,104,564.4285714285714,556.1285683768136,206,564.4285714285714,556.1285683768136,308,564.4285714285714,556.1285683768136,410,564.4285714285714,556.1285683768136,512,564.4285714285714,556.1285683768136,615,564.4285714285714,556.1285683768136,718,70.42857142857143,923.1285683768136,822,-129.57142857142856,1042.1285683768135,924,-129.57142857142856,1042.1285683768135,1027,59.42857142857143,1017.1285683768136,1132,131.42857142857144,994.1285683768136,1234,131.42857142857144,994.1285683768136,1335,131.42857142857144,994.1285683768136,1437,131.42857142857144,994.1285683768136,1537,131.42857142857144,994.1285683768136,1641,131.42857142857144,994.1285683768136,1743,131.42857142857144,994.1285683768136,1845,131.42857142857144,994.1285683768136,1947,131.42857142857144,994.1285683768136,2048,131.42857142857144,994.1285683768136,2148,131.42857142857144,994.1285683768136,2250,131.42857142857144,994.1285683768136,2351,131.42857142857144,994.1285683768136,2455,131.42857142857144,994.1285683768136,2557,131.42857142857144,994.1285683768136,2661,131.42857142857144,994.1285683768136,2764,131.42857142857144,994.1285683768136,2865,131.42857142857144,994.1285683768136,2967,131.42857142857144,994.1285683768136,3070,131.42857142857144,994.1285683768136,3175,131.42857142857144,994.1285683768136,3278,131.42857142857144,994.1285683768136,3378,131.42857142857144,994.1285683768136,3480,131.42857142857144,994.1285683768136,3584,131.42857142857144,994.1285683768136,3687,131.42857142857144,994.1285683768136,3790,131.42857142857144,994.1285683768136,3892,131.42857142857144,994.1285683768136,3994,131.42857142857144,994.1285683768136,4095,131.42857142857144,994.1285683768136,4199,131.42857142857144,994.1285683768136,4302,131.42857142857144,994.1285683768136,4403,131.42857142857144,994.1285683768136,4505,131.42857142857144,994.1285683768136,4608,131.42857142857144,994.1285683768136,4709,131.42857142857144,994.1285683768136,4811,131.42857142857144,994.1285683768136,4914]","[1395,1395,1000,0,395,""smooth"",""left"",""left"",""good_move"",4077,2681,2333,1396,348,""oops"",""left"",""left"",""good_move"",7441,3364,2996.8,4077,367.2,""oops"",""down"",""down"",""good_move"",9834,2393,2031.3,7441,361.7,""smooth"",""down"",""down"",""good_move""]","",""
"2272","","<div style=""width:500px;"">
  <p>What determined the result of this run?</p>
  </div>","100","html-slider-response","65","607896","0.0-5.0-1.11","36","1","2025-07-16 08:16:38","1f75c3e559b7213887762d5229550c2b","178.212.218.4","Mozilla/5.0 (Windows NT 10.0; Win64; x64; rv:140.0) Gecko/20100101 Firefox/140.0","","Firefox","140.0","Windows","10.0","https://app.prolific.com/","pl,en-US;q=0.7,en;q=0.3","5c2b339a85602a00012ffedd","686e379bc37a29ffa5cdc956","68775fddb55b94ea11b3551b","1","1","5c2b339a85602a00012ffedd","1","1","2025-07-16T08:26:47.249Z","","","","","","","","","","","AttribQ","","50","","","","","","","","","","","","","","","","","","","","","","","","","","","","",""
"3143","","<div style=""width:500px;"">
  <p>How much control did you have over the ball?</p>
  </div>","81","html-slider-response","66","611039","0.0-5.0-2.11","36","1","2025-07-16 08:16:38","1f75c3e559b7213887762d5229550c2b","178.212.218.4","Mozilla/5.0 (Windows NT 10.0; Win64; x64; rv:140.0) Gecko/20100101 Firefox/140.0","","Firefox","140.0","Windows","10.0","https://app.prolific.com/","pl,en-US;q=0.7,en;q=0.3","5c2b339a85602a00012ffedd","686e379bc37a29ffa5cdc956","68775fddb55b94ea11b3551b","1","1","5c2b339a85602a00012ffedd","1","1","2025-07-16T08:26:50.392Z","","","","","","","","","","","ControlQ","","50","","","","","","","","","","","","","","","","","","","","","","","","","","","","",""
"1787","","<div style=""width:500px;"">
  <p>How would you describe your current emotional state?</p>
  </div>","80","html-slider-response","67","612828","0.0-5.0-3.11","36","1","2025-07-16 08:16:38","1f75c3e559b7213887762d5229550c2b","178.212.218.4","Mozilla/5.0 (Windows NT 10.0; Win64; x64; rv:140.0) Gecko/20100101 Firefox/140.0","","Firefox","140.0","Windows","10.0","https://app.prolific.com/","pl,en-US;q=0.7,en;q=0.3","5c2b339a85602a00012ffedd","686e379bc37a29ffa5cdc956","68775fddb55b94ea11b3551b","1","1","5c2b339a85602a00012ffedd","1","1","2025-07-16T08:26:52.181Z","","","","","","","","","","","StressQ","","50","","","","","","","","","","","","","","","","","","","","","","","","","","","","",""
"1622","","<div style=""width:500px;"">
  <p>What best describes how you currently feel?</p>
  </div>","66","html-slider-response","68","614451","0.0-5.0-4.11","36","1","2025-07-16 08:16:38","1f75c3e559b7213887762d5229550c2b","178.212.218.4","Mozilla/5.0 (Windows NT 10.0; Win64; x64; rv:140.0) Gecko/20100101 Firefox/140.0","","Firefox","140.0","Windows","10.0","https://app.prolific.com/","pl,en-US;q=0.7,en;q=0.3","5c2b339a85602a00012ffedd","686e379bc37a29ffa5cdc956","68775fddb55b94ea11b3551b","1","1","5c2b339a85602a00012ffedd","1","1","2025-07-16T08:26:53.804Z","","","","","","","","","","","MotivationQ","","50","","","","","","","","","","","","","","","","","","","","","","","","","","","","",""
"","","","","ctl-task-cpt","69","647253","0.0-5.0-0.12","36","1","2025-07-16 08:16:38","1f75c3e559b7213887762d5229550c2b","178.212.218.4","Mozilla/5.0 (Windows NT 10.0; Win64; x64; rv:140.0) Gecko/20100101 Firefox/140.0","","Firefox","140.0","Windows","10.0","https://app.prolific.com/","pl,en-US;q=0.7,en;q=0.3","5c2b339a85602a00012ffedd","686e379bc37a29ffa5cdc956","68775fddb55b94ea11b3551b","1","1","5c2b339a85602a00012ffedd","1","1","2025-07-16T08:27:26.606Z","","","","","","","","","","","","","","win-only","3","g1:SW,g2:NE","0.7","13","0","615920","1201","6202","29799","1","4","8","6","1","1","0","10","10","0.07575757575757576","1264","3000","860","[""down"",""left""]","{""num_key_presses"":8,""num_perfect"":4,""num_errors"":1,""num_randdir"":3,""num_randdir_good_moves"":2,""num_whilered"":0,""num_whileblue"":1,""num_blue"":1,""num_good_moves"":6}","[560.4285714285714,557.1285683768136,0,560.4285714285714,557.1285683768136,101,560.4285714285714,557.1285683768136,203,560.4285714285714,557.1285683768136,306,560.4285714285714,557.1285683768136,408,560.4285714285714,557.1285683768136,512,494.42857142857144,669.1285683768136,612,448.42857142857144,758.1285683768136,715,450.42857142857144,740.1285683768136,817,289.42857142857144,891.1285683768136,917,194.42857142857144,1024.1285683768135,1019,167.42857142857144,981.1285683768136,1119,138.42857142857144,959.1285683768136,1219,138.42857142857144,959.1285683768136,1321,138.42857142857144,959.1285683768136,1422,138.42857142857144,959.1285683768136,1522,90.42857142857143,991.1285683768136,1622,90.42857142857143,991.1285683768136,1724,90.42857142857143,991.1285683768136,1826,90.42857142857143,991.1285683768136,1927,90.42857142857143,991.1285683768136,2030,90.42857142857143,991.1285683768136,2134,90.42857142857143,991.1285683768136,2237,90.42857142857143,991.1285683768136,2339,90.42857142857143,991.1285683768136,2443,90.42857142857143,991.1285683768136,2545,90.42857142857143,991.1285683768136,2645,90.42857142857143,991.1285683768136,2747,90.42857142857143,991.1285683768136,2849,90.42857142857143,991.1285683768136,2951,90.42857142857143,991.1285683768136,3052,90.42857142857143,991.1285683768136,3154,90.42857142857143,991.1285683768136,3254,90.42857142857143,991.1285683768136,3356,90.42857142857143,991.1285683768136,3458,90.42857142857143,991.1285683768136,3559,90.42857142857143,991.1285683768136,3662,90.42857142857143,991.1285683768136,3764,90.42857142857143,991.1285683768136,3866,90.42857142857143,991.1285683768136,3967,90.42857142857143,991.1285683768136,4068,90.42857142857143,991.1285683768136,4168,90.42857142857143,991.1285683768136,4269,90.42857142857143,991.1285683768136,4372,90.42857142857143,991.1285683768136,4474,90.42857142857143,991.1285683768136,4575,90.42857142857143,991.1285683768136,4678,90.42857142857143,991.1285683768136,4780,90.42857142857143,991.1285683768136,4881,90.42857142857143,991.1285683768136,4983]","[1396,1396,1000,0,396,""oops"",""left"",""left"",""good_move"",4490,3094,2733.1,1396,360.9,""oops"",""left"",""right"",""bad_move"",7473,2983,2621.7,4490,361.3,""oops"",""left"",""left"",""good_move"",10905,3432,2974.7,7473,457.3,""smooth"",""left"",""left"",""good_move"",14166,3261,2944,10905,317,""smooth"",""down"",""down"",""good_move"",17713,3547,3241,14166,306,""while_blue"",""down"",""up"",""bad_move"",20884,3171,2807.2,17713,363.8,""smooth"",""down"",""down"",""good_move"",23494,2610,2258.1,20884,351.9,""smooth"",""down"",""down"",""good_move""]","",""
"2427","","<div style=""width:500px;"">
  <p>What determined the result of this run?</p>
  </div>","68","html-slider-response","70","649682","0.0-5.0-1.12","36","1","2025-07-16 08:16:38","1f75c3e559b7213887762d5229550c2b","178.212.218.4","Mozilla/5.0 (Windows NT 10.0; Win64; x64; rv:140.0) Gecko/20100101 Firefox/140.0","","Firefox","140.0","Windows","10.0","https://app.prolific.com/","pl,en-US;q=0.7,en;q=0.3","5c2b339a85602a00012ffedd","686e379bc37a29ffa5cdc956","68775fddb55b94ea11b3551b","1","1","5c2b339a85602a00012ffedd","1","1","2025-07-16T08:27:29.035Z","","","","","","","","","","","AttribQ","","50","","","","","","","","","","","","","","","","","","","","","","","","","","","","",""
"950","","<div style=""width:500px;"">
  <p>How much control did you have over the ball?</p>
  </div>","69","html-slider-response","71","650633","0.0-5.0-2.12","36","1","2025-07-16 08:16:38","1f75c3e559b7213887762d5229550c2b","178.212.218.4","Mozilla/5.0 (Windows NT 10.0; Win64; x64; rv:140.0) Gecko/20100101 Firefox/140.0","","Firefox","140.0","Windows","10.0","https://app.prolific.com/","pl,en-US;q=0.7,en;q=0.3","5c2b339a85602a00012ffedd","686e379bc37a29ffa5cdc956","68775fddb55b94ea11b3551b","1","1","5c2b339a85602a00012ffedd","1","1","2025-07-16T08:27:29.986Z","","","","","","","","","","","ControlQ","","50","","","","","","","","","","","","","","","","","","","","","","","","","","","","",""
"988","","<div style=""width:500px;"">
  <p>How would you describe your current emotional state?</p>
  </div>","55","html-slider-response","72","651623","0.0-5.0-3.12","36","1","2025-07-16 08:16:38","1f75c3e559b7213887762d5229550c2b","178.212.218.4","Mozilla/5.0 (Windows NT 10.0; Win64; x64; rv:140.0) Gecko/20100101 Firefox/140.0","","Firefox","140.0","Windows","10.0","https://app.prolific.com/","pl,en-US;q=0.7,en;q=0.3","5c2b339a85602a00012ffedd","686e379bc37a29ffa5cdc956","68775fddb55b94ea11b3551b","1","1","5c2b339a85602a00012ffedd","1","1","2025-07-16T08:27:30.976Z","","","","","","","","","","","StressQ","","50","","","","","","","","","","","","","","","","","","","","","","","","","","","","",""
"1542","","<div style=""width:500px;"">
  <p>What best describes how you currently feel?</p>
  </div>","64","html-slider-response","73","653166","0.0-5.0-4.12","36","1","2025-07-16 08:16:38","1f75c3e559b7213887762d5229550c2b","178.212.218.4","Mozilla/5.0 (Windows NT 10.0; Win64; x64; rv:140.0) Gecko/20100101 Firefox/140.0","","Firefox","140.0","Windows","10.0","https://app.prolific.com/","pl,en-US;q=0.7,en;q=0.3","5c2b339a85602a00012ffedd","686e379bc37a29ffa5cdc956","68775fddb55b94ea11b3551b","1","1","5c2b339a85602a00012ffedd","1","1","2025-07-16T08:27:32.519Z","","","","","","","","","","","MotivationQ","","50","","","","","","","","","","","","","","","","","","","","","","","","","","","","",""
"","","","","ctl-task-cpt","74","685858","0.0-5.0-0.13","36","1","2025-07-16 08:16:38","1f75c3e559b7213887762d5229550c2b","178.212.218.4","Mozilla/5.0 (Windows NT 10.0; Win64; x64; rv:140.0) Gecko/20100101 Firefox/140.0","","Firefox","140.0","Windows","10.0","https://app.prolific.com/","pl,en-US;q=0.7,en;q=0.3","5c2b339a85602a00012ffedd","686e379bc37a29ffa5cdc956","68775fddb55b94ea11b3551b","1","1","5c2b339a85602a00012ffedd","1","1","2025-07-16T08:28:05.211Z","","","","","","","","","","","","","","win-only","2","g1:SE,g2:NW","0.8","14","0","654636","745","5746","29689","1","4","4","6","1","1","1","11","10","0.08333333333333333","1192","3000","1600","[""down"",""right""]","{""num_key_presses"":4,""num_perfect"":2,""num_errors"":0,""num_randdir"":2,""num_randdir_good_moves"":2,""num_whilered"":0,""num_whileblue"":0,""num_blue"":4,""num_good_moves"":4}","[545.4285714285714,552.1285683768136,1,545.4285714285714,552.1285683768136,102,545.4285714285714,552.1285683768136,205,545.4285714285714,552.1285683768136,359,545.4285714285714,552.1285683768136,460,545.4285714285714,552.1285683768136,563,333.42857142857144,402.12856837681363,663,595.4285714285714,622.1285683768136,765,1189.4285714285713,955.1285683768136,868,1121.4285714285713,972.1285683768136,970,1054.4285714285713,974.1285683768136,1073,1009.4285714285714,965.1285683768136,1177,1009.4285714285714,965.1285683768136,1283,1009.4285714285714,965.1285683768136,1387,1009.4285714285714,965.1285683768136,1487,1009.4285714285714,965.1285683768136,1588,1009.4285714285714,965.1285683768136,1690,1009.4285714285714,965.1285683768136,1792,1009.4285714285714,965.1285683768136,1894,1009.4285714285714,965.1285683768136,1997,1009.4285714285714,965.1285683768136,2098,1009.4285714285714,965.1285683768136,2199,1009.4285714285714,965.1285683768136,2300,1009.4285714285714,965.1285683768136,2402,1009.4285714285714,965.1285683768136,2504,1009.4285714285714,965.1285683768136,2606,1009.4285714285714,965.1285683768136,2708,1009.4285714285714,965.1285683768136,2810,1009.4285714285714,965.1285683768136,2913,1009.4285714285714,965.1285683768136,3013,1009.4285714285714,965.1285683768136,3116,1009.4285714285714,965.1285683768136,3221,1009.4285714285714,965.1285683768136,3324,1009.4285714285714,965.1285683768136,3425,1009.4285714285714,965.1285683768136,3527,1009.4285714285714,965.1285683768136,3629,1009.4285714285714,965.1285683768136,3731,1009.4285714285714,965.1285683768136,3833,1009.4285714285714,965.1285683768136,3933,1009.4285714285714,965.1285683768136,4037,1009.4285714285714,965.1285683768136,4139,1009.4285714285714,965.1285683768136,4240,1009.4285714285714,965.1285683768136,4341,1009.4285714285714,965.1285683768136,4444,1009.4285714285714,965.1285683768136,4545,1009.4285714285714,965.1285683768136,4648,1009.4285714285714,965.1285683768136,4750,1009.4285714285714,965.1285683768136,4852,1009.4285714285714,965.1285683768136,4954]","[1556,1556,1000,0,556,""smooth"",""right"",""right"",""good_move"",4970,3414,3047.4,1556,366.6,""oops"",""right"",""right"",""good_move"",14987,10017,2495.7,12100,391.3,""oops"",""down"",""down"",""good_move"",23842,8855,1621.4,21820,400.6,""smooth"",""down"",""down"",""good_move""]","",""
"1542","","<div style=""width:500px;"">
  <p>What determined the result of this run?</p>
  </div>","73","html-slider-response","75","687401","0.0-5.0-1.13","36","1","2025-07-16 08:16:38","1f75c3e559b7213887762d5229550c2b","178.212.218.4","Mozilla/5.0 (Windows NT 10.0; Win64; x64; rv:140.0) Gecko/20100101 Firefox/140.0","","Firefox","140.0","Windows","10.0","https://app.prolific.com/","pl,en-US;q=0.7,en;q=0.3","5c2b339a85602a00012ffedd","686e379bc37a29ffa5cdc956","68775fddb55b94ea11b3551b","1","1","5c2b339a85602a00012ffedd","1","1","2025-07-16T08:28:06.754Z","","","","","","","","","","","AttribQ","","50","","","","","","","","","","","","","","","","","","","","","","","","","","","","",""
"1659","","<div style=""width:500px;"">
  <p>How much control did you have over the ball?</p>
  </div>","67","html-slider-response","76","689062","0.0-5.0-2.13","36","1","2025-07-16 08:16:38","1f75c3e559b7213887762d5229550c2b","178.212.218.4","Mozilla/5.0 (Windows NT 10.0; Win64; x64; rv:140.0) Gecko/20100101 Firefox/140.0","","Firefox","140.0","Windows","10.0","https://app.prolific.com/","pl,en-US;q=0.7,en;q=0.3","5c2b339a85602a00012ffedd","686e379bc37a29ffa5cdc956","68775fddb55b94ea11b3551b","1","1","5c2b339a85602a00012ffedd","1","1","2025-07-16T08:28:08.415Z","","","","","","","","","","","ControlQ","","50","","","","","","","","","","","","","","","","","","","","","","","","","","","","",""
"864","","<div style=""width:500px;"">
  <p>How would you describe your current emotional state?</p>
  </div>","60","html-slider-response","77","689926","0.0-5.0-3.13","36","1","2025-07-16 08:16:38","1f75c3e559b7213887762d5229550c2b","178.212.218.4","Mozilla/5.0 (Windows NT 10.0; Win64; x64; rv:140.0) Gecko/20100101 Firefox/140.0","","Firefox","140.0","Windows","10.0","https://app.prolific.com/","pl,en-US;q=0.7,en;q=0.3","5c2b339a85602a00012ffedd","686e379bc37a29ffa5cdc956","68775fddb55b94ea11b3551b","1","1","5c2b339a85602a00012ffedd","1","1","2025-07-16T08:28:09.279Z","","","","","","","","","","","StressQ","","50","","","","","","","","","","","","","","","","","","","","","","","","","","","","",""
"986","","<div style=""width:500px;"">
  <p>What best describes how you currently feel?</p>
  </div>","60","html-slider-response","78","690914","0.0-5.0-4.13","36","1","2025-07-16 08:16:38","1f75c3e559b7213887762d5229550c2b","178.212.218.4","Mozilla/5.0 (Windows NT 10.0; Win64; x64; rv:140.0) Gecko/20100101 Firefox/140.0","","Firefox","140.0","Windows","10.0","https://app.prolific.com/","pl,en-US;q=0.7,en;q=0.3","5c2b339a85602a00012ffedd","686e379bc37a29ffa5cdc956","68775fddb55b94ea11b3551b","1","1","5c2b339a85602a00012ffedd","1","1","2025-07-16T08:28:10.267Z","","","","","","","","","","","MotivationQ","","50","","","","","","","","","","","","","","","","","","","","","","","","","","","","",""
"","","","","ctl-task-cpt","79","709755","0.0-5.0-0.14","36","1","2025-07-16 08:16:38","1f75c3e559b7213887762d5229550c2b","178.212.218.4","Mozilla/5.0 (Windows NT 10.0; Win64; x64; rv:140.0) Gecko/20100101 Firefox/140.0","","Firefox","140.0","Windows","10.0","https://app.prolific.com/","pl,en-US;q=0.7,en;q=0.3","5c2b339a85602a00012ffedd","686e379bc37a29ffa5cdc956","68775fddb55b94ea11b3551b","1","1","5c2b339a85602a00012ffedd","1","1","2025-07-16T08:28:29.108Z","","","","","","","","","","","","","","win-only","2","g1:SE,g2:NW","0.9","15","0","692384","1304","6306","15838","1","4","8","6","1","1","1","12","11","0.09090909090909091","1279","3000","1730","[""down"",""right""]","{""num_key_presses"":4,""num_perfect"":3,""num_errors"":0,""num_randdir"":1,""num_randdir_good_moves"":1,""num_whilered"":0,""num_whileblue"":0,""num_blue"":0,""num_good_moves"":4}","[551.4285714285714,551.1285683768136,0,551.4285714285714,551.1285683768136,102,551.4285714285714,551.1285683768136,204,551.4285714285714,551.1285683768136,308,551.4285714285714,551.1285683768136,412,416.42857142857144,496.12856837681363,516,437.42857142857144,502.12856837681363,621,942.4285714285714,817.1285683768136,723,1110.4285714285713,1021.1285683768136,827,1242.4285714285713,1081.1285683768135,933,1083.4285714285713,1045.1285683768135,1038,1047.4285714285713,1029.1285683768135,1142,1008.4285714285714,1010.1285683768136,1245,1008.4285714285714,1009.1285683768136,1348,1008.4285714285714,1009.1285683768136,1452,1008.4285714285714,1009.1285683768136,1553,1008.4285714285714,1009.1285683768136,1655,1008.4285714285714,1009.1285683768136,1757,1008.4285714285714,1009.1285683768136,1859,1008.4285714285714,1009.1285683768136,1961,1008.4285714285714,1009.1285683768136,2062,1008.4285714285714,1009.1285683768136,2165,1008.4285714285714,1009.1285683768136,2266,1008.4285714285714,1009.1285683768136,2368,1008.4285714285714,1009.1285683768136,2469,1008.4285714285714,1009.1285683768136,2572,1008.4285714285714,1009.1285683768136,2674,1008.4285714285714,1009.1285683768136,2775,1008.4285714285714,1009.1285683768136,2878,1008.4285714285714,1009.1285683768136,2980,1008.4285714285714,1009.1285683768136,3080,1008.4285714285714,1009.1285683768136,3181,1008.4285714285714,1009.1285683768136,3284,1008.4285714285714,1009.1285683768136,3386,1008.4285714285714,1009.1285683768136,3488,1008.4285714285714,1009.1285683768136,3590,1008.4285714285714,1009.1285683768136,3692,1008.4285714285714,1009.1285683768136,3794,1008.4285714285714,1009.1285683768136,3896,1008.4285714285714,1009.1285683768136,3997,1008.4285714285714,1009.1285683768136,4098,1008.4285714285714,1009.1285683768136,4198,1008.4285714285714,1009.1285683768136,4300,1008.4285714285714,1009.1285683768136,4403,1008.4285714285714,1009.1285683768136,4504,1008.4285714285714,1009.1285683768136,4606,1008.4285714285714,1009.1285683768136,4709,1008.4285714285714,1009.1285683768136,4810,1008.4285714285714,1009.1285683768136,4912]","[1430,1430,1000,0,430,""smooth"",""down"",""down"",""good_move"",4093,2663,2300.8,1430,362.2,""smooth"",""down"",""down"",""good_move"",6745,2652,2260.4,4093,391.6,""smooth"",""right"",""right"",""good_move"",9427,2682,2315.6,6745,366.4,""oops"",""right"",""right"",""good_move""]","",""
"2085","","<div style=""width:500px;"">
  <p>What determined the result of this run?</p>
  </div>","62","html-slider-response","80","711841","0.0-5.0-1.14","36","1","2025-07-16 08:16:38","1f75c3e559b7213887762d5229550c2b","178.212.218.4","Mozilla/5.0 (Windows NT 10.0; Win64; x64; rv:140.0) Gecko/20100101 Firefox/140.0","","Firefox","140.0","Windows","10.0","https://app.prolific.com/","pl,en-US;q=0.7,en;q=0.3","5c2b339a85602a00012ffedd","686e379bc37a29ffa5cdc956","68775fddb55b94ea11b3551b","1","1","5c2b339a85602a00012ffedd","1","1","2025-07-16T08:28:31.194Z","","","","","","","","","","","AttribQ","","50","","","","","","","","","","","","","","","","","","","","","","","","","","","","",""
"2187","","<div style=""width:500px;"">
  <p>How much control did you have over the ball?</p>
  </div>","60","html-slider-response","81","714030","0.0-5.0-2.14","36","1","2025-07-16 08:16:38","1f75c3e559b7213887762d5229550c2b","178.212.218.4","Mozilla/5.0 (Windows NT 10.0; Win64; x64; rv:140.0) Gecko/20100101 Firefox/140.0","","Firefox","140.0","Windows","10.0","https://app.prolific.com/","pl,en-US;q=0.7,en;q=0.3","5c2b339a85602a00012ffedd","686e379bc37a29ffa5cdc956","68775fddb55b94ea11b3551b","1","1","5c2b339a85602a00012ffedd","1","1","2025-07-16T08:28:33.383Z","","","","","","","","","","","ControlQ","","50","","","","","","","","","","","","","","","","","","","","","","","","","","","","",""
"1495","","<div style=""width:500px;"">
  <p>How would you describe your current emotional state?</p>
