"rt","response_timestamp","stimulus","response","trial_type","trial_index","time_elapsed","internal_node_id","run_id","condition","recorded_at","source_code_version","ip","user_agent","device","browser","browser_version","platform","platform_version","referer","accept_language","PROLIFIC_PID","STUDY_ID","SESSION_ID","WEEK","BATCH","prolific_id","week","batch","realtime","success","responses","item_order","radio_event_ids","radio_event_times","key_event_times","mouse_event_times","straightlining","zigzagging","honeypot","eventType","view_history","slider_start","which_type","canvas_config","goals_layout","control_level","trial_number","tutorial_trial_number","trial_start_time","phase1_start_time","phase2_start_time","phase3_start_time","goal_1_value","goal_1_distance","goal_2_value","goal_2_distance","goal_selected","outcome","outcome_total","participant_final_score","participant_initial_score","participant_final_score_prop","goal_choice_rt","allocated_time","allocated_time_remaining","goal_direction","counts","mouse_movements","key_presses","question_order","question_id"
"1881","1753260698833","<p style='font-size:40px;line-height:1.25'><strong>Welcome to the experiment!</strong></p><p style='font-size:1.1em;line-height:1.25'>Thank you for participanting in our experiment again! You will be asked to play the Dysfunctional Ball Game again. We will briefly recap the rules before we start.</p><p style='font-size:1.1em;line-height:1.25'>Press <strong>Next</strong> to continue.</p>","0","custom-html-button-response","0","1885","0.0-0.0","200","1","2025-07-23 08:51:29","1f75c3e559b7213887762d5229550c2b","175.176.13.53","Mozilla/5.0 (Windows NT 10.0; Win64; x64) AppleWebKit/537.36 (KHTML, like Gecko) Chrome/138.0.0.0 Safari/537.36","WebKit","Chrome","138.0.0.0","Windows","10.0","https://app.prolific.com/","en-US,en;q=0.9","65f0831414fd6e9e51e08708","683db9eb0562dbf637994deb","6880a20c7933ae4c0e1ed910","2","1","65f0831414fd6e9e51e08708","2","1","2025-07-23T08:51:38.835Z","","","","","","","","","","","","","","","","","","","","","","","","","","","","","","","","","","","","","","","","","",""
"1637","","","","fullscreen","1","4538","0.0-1.0","200","1","2025-07-23 08:51:29","1f75c3e559b7213887762d5229550c2b","175.176.13.53","Mozilla/5.0 (Windows NT 10.0; Win64; x64) AppleWebKit/537.36 (KHTML, like Gecko) Chrome/138.0.0.0 Safari/537.36","WebKit","Chrome","138.0.0.0","Windows","10.0","https://app.prolific.com/","en-US,en;q=0.9","65f0831414fd6e9e51e08708","683db9eb0562dbf637994deb","6880a20c7933ae4c0e1ed910","2","1","65f0831414fd6e9e51e08708","2","1","","true","","","","","","","","","","","","","","","","","","","","","","","","","","","","","","","","","","","","","","","","",""
"1442","1753260702932","<p style='font-size:1.1em;line-height:1.25'>In the following, we will ask you a few questions relating to your feelings in the last 24 hours.<br></p><p style='font-size:1.1em;line-height:1.25'>Press the <strong>Next</strong> button to continue.</p>","0","custom-html-button-response","2","5982","0.0-2.0-0.0","200","1","2025-07-23 08:51:29","1f75c3e559b7213887762d5229550c2b","175.176.13.53","Mozilla/5.0 (Windows NT 10.0; Win64; x64) AppleWebKit/537.36 (KHTML, like Gecko) Chrome/138.0.0.0 Safari/537.36","WebKit","Chrome","138.0.0.0","Windows","10.0","https://app.prolific.com/","en-US,en;q=0.9","65f0831414fd6e9e51e08708","683db9eb0562dbf637994deb","6880a20c7933ae4c0e1ed910","2","1","65f0831414fd6e9e51e08708","2","1","2025-07-23T08:51:42.932Z","","","","","","","","","","","","","","","","","","","","","","","","","","","","","","","","","","","","","","","","","",""
"72331.80000001192","","","","survey-template","3","78324","0.0-2.0-1.0","200","1","2025-07-23 08:51:29","1f75c3e559b7213887762d5229550c2b","175.176.13.53","Mozilla/5.0 (Windows NT 10.0; Win64; x64) AppleWebKit/537.36 (KHTML, like Gecko) Chrome/138.0.0.0 Safari/537.36","WebKit","Chrome","138.0.0.0","Windows","10.0","https://app.prolific.com/","en-US,en;q=0.9","65f0831414fd6e9e51e08708","683db9eb0562dbf637994deb","6880a20c7933ae4c0e1ed910","2","1","65f0831414fd6e9e51e08708","2","1","2025-07-23T08:52:55.274Z","","{""Q01"":""1"",""Q02"":""0"",""Q03"":""0"",""Q04"":""1"",""Q05"":""1"",""Q06"":""0"",""Q07"":""1"",""Q08"":""0"",""Q09"":""2"",""Q10"":""0"",""Q11"":""0"",""Q12"":""1"",""Q13"":""5"",""Q14"":""3"",""Q15"":""2"",""Q16"":""1"",""Q17"":""1"",""Q18"":""0"",""Q19"":""1"",""Q20"":""0"",""Q21"":""0"",""Q22"":""0""}","[0,1,2,3,4,5,6,7,8,9,10,11,12,13,14,15,16,17,18,19,20,21]","[""Q01"",""Q02"",""Q03"",""Q04"",""Q05"",""Q06"",""Q06"",""Q07"",""Q08"",""Q09"",""Q10"",""Q11"",""Q12"",""Q13"",""Q14"",""Q15"",""Q16"",""Q17"",""Q18"",""Q19"",""Q19"",""Q20"",""Q21"",""Q22""]","[4439.9000000059605,6327.600000023842,8118.300000011921,10304.5,15156.40000000596,17176.40000000596,19135.5,20887.30000001192,23663.5,31678.30000001192,34689.90000000596,37496.5,39640.5,42220.70000001788,44230.60000002384,48091.30000001192,50739,53593,59103.10000002384,60735.20000001788,64544.30000001192,66617.60000002384,69385.70000001788,70552.40000000596]","[]","[0.20000001788139343,4439.9000000059605,6327.600000023842,8118.300000011921,10304.5,15156.40000000596,17176.40000000596,19135.5,20887.30000001192,23663.5,31678.30000001192,34689.90000000596,37496.5,39640.5,42220.70000001788,44230.60000002384,46475.5,48091.30000001192,50739,53593,59103.10000002384,60735.20000001788,64544.30000001192,66617.60000002384,69385.70000001788,70552.40000000596,72327.60000002384]","0.45454545454545453","0.5238095238095238","0","drsp","","","","","","","","","","","","","","","","","","","","","","","","","","","","","","",""
"7954.199999988079","","","","survey-template","4","86281","0.0-2.0-2.0","200","1","2025-07-23 08:51:29","1f75c3e559b7213887762d5229550c2b","175.176.13.53","Mozilla/5.0 (Windows NT 10.0; Win64; x64) AppleWebKit/537.36 (KHTML, like Gecko) Chrome/138.0.0.0 Safari/537.36","WebKit","Chrome","138.0.0.0","Windows","10.0","https://app.prolific.com/","en-US,en;q=0.9","65f0831414fd6e9e51e08708","683db9eb0562dbf637994deb","6880a20c7933ae4c0e1ed910","2","1","65f0831414fd6e9e51e08708","2","1","2025-07-23T08:53:03.231Z","","{""Q01"":""1"",""Q02"":""5"",""Q03"":""0""}","[0,1,2]","[""Q01"",""Q02"",""Q03""]","[2850.0999999940395,4604,6420.0999999940395]","[]","[2850.0999999940395,4604,6420.0999999940395,7953.4000000059605]","0.6666666666666666","0.5","0","stress","","","","","","","","","","","","","","","","","","","","","","","","","","","","","","",""
"24711","","","","instructions","5","110994","0.0-3.0-0.0","200","1","2025-07-23 08:51:29","1f75c3e559b7213887762d5229550c2b","175.176.13.53","Mozilla/5.0 (Windows NT 10.0; Win64; x64) AppleWebKit/537.36 (KHTML, like Gecko) Chrome/138.0.0.0 Safari/537.36","WebKit","Chrome","138.0.0.0","Windows","10.0","https://app.prolific.com/","en-US,en;q=0.9","65f0831414fd6e9e51e08708","683db9eb0562dbf637994deb","6880a20c7933ae4c0e1ed910","2","1","65f0831414fd6e9e51e08708","2","1","","","","","","","","","","","","","[{""page_index"":0,""viewing_time"":24711}]","","","","","","","","","","","","","","","","","","","","","","","","","","","","","",""
"5458","","<p>Before you start with this game please answer the following three questions yourself. </p>
  <p>Through this game, we measure several aspects of your cognitive performance, such as reaction times, multi-tasking capabilities </p>
  <p>and the ability to assess the situation you are in.</p>
  <p></p>
  <p><b>How good do you usually are in such tasks?</b></p>","96","html-slider-response","6","116454","0.0-4.0-0.0","200","1","2025-07-23 08:51:29","1f75c3e559b7213887762d5229550c2b","175.176.13.53","Mozilla/5.0 (Windows NT 10.0; Win64; x64) AppleWebKit/537.36 (KHTML, like Gecko) Chrome/138.0.0.0 Safari/537.36","WebKit","Chrome","138.0.0.0","Windows","10.0","https://app.prolific.com/","en-US,en;q=0.9","65f0831414fd6e9e51e08708","683db9eb0562dbf637994deb","6880a20c7933ae4c0e1ed910","2","1","65f0831414fd6e9e51e08708","2","1","2025-07-23T08:53:33.405Z","","","","","","","","","","","PreSkillQ","","50","","","","","","","","","","","","","","","","","","","","","","","","","","","","",""
"3939","","<div style=""width:500px;"">
  <p>How well do you think you will perform in this task compared to other participants?</p>
  </div>","91","html-slider-response","7","120395","0.0-4.0-1.0","200","1","2025-07-23 08:51:29","1f75c3e559b7213887762d5229550c2b","175.176.13.53","Mozilla/5.0 (Windows NT 10.0; Win64; x64) AppleWebKit/537.36 (KHTML, like Gecko) Chrome/138.0.0.0 Safari/537.36","WebKit","Chrome","138.0.0.0","Windows","10.0","https://app.prolific.com/","en-US,en;q=0.9","65f0831414fd6e9e51e08708","683db9eb0562dbf637994deb","6880a20c7933ae4c0e1ed910","2","1","65f0831414fd6e9e51e08708","2","1","2025-07-23T08:53:37.345Z","","","","","","","","","","","PrePerfQ","","50","","","","","","","","","","","","","","","","","","","","","","","","","","","","",""
"3311","","<div style=""width:500px;"">
  <p>What best describes how you currently feel?</p>
  </div>","96","html-slider-response","8","123707","0.0-4.0-2.0","200","1","2025-07-23 08:51:29","1f75c3e559b7213887762d5229550c2b","175.176.13.53","Mozilla/5.0 (Windows NT 10.0; Win64; x64) AppleWebKit/537.36 (KHTML, like Gecko) Chrome/138.0.0.0 Safari/537.36","WebKit","Chrome","138.0.0.0","Windows","10.0","https://app.prolific.com/","en-US,en;q=0.9","65f0831414fd6e9e51e08708","683db9eb0562dbf637994deb","6880a20c7933ae4c0e1ed910","2","1","65f0831414fd6e9e51e08708","2","1","2025-07-23T08:53:40.657Z","","","","","","","","","","","PreMotivationQ","","50","","","","","","","","","","","","","","","","","","","","","","","","","","","","",""
"","","","","ctl-task-cpt","9","147866","0.0-5.0-0.0","200","1","2025-07-23 08:51:29","1f75c3e559b7213887762d5229550c2b","175.176.13.53","Mozilla/5.0 (Windows NT 10.0; Win64; x64) AppleWebKit/537.36 (KHTML, like Gecko) Chrome/138.0.0.0 Safari/537.36","WebKit","Chrome","138.0.0.0","Windows","10.0","https://app.prolific.com/","en-US,en;q=0.9","65f0831414fd6e9e51e08708","683db9eb0562dbf637994deb","6880a20c7933ae4c0e1ed910","2","1","65f0831414fd6e9e51e08708","2","1","2025-07-23T08:54:04.816Z","","","","","","","","","","","","","","win-only","2","g1:SE,g2:NW","1","1","0","130648.2","1339.4","6341.4","21153","1","4","8","6","2","-8","-8","0","0","0","1625.8","3000","-3000","[""left"",""up""]","{""num_key_presses"":3,""num_perfect"":3,""num_errors"":0,""num_randdir"":0,""num_randdir_good_moves"":0,""num_whilered"":0,""num_whileblue"":0,""num_blue"":1,""num_good_moves"":3}","[295.22232142857143,295.12857142857143,0.1,295.22232142857143,295.12857142857143,101.9,295.22232142857143,295.12857142857143,206.7,295.22232142857143,295.12857142857143,306.9,295.22232142857143,295.12857142857143,412.1,295.22232142857143,295.12857142857143,513,295.22232142857143,295.12857142857143,617,295.22232142857143,295.12857142857143,721.5,256.22232142857143,254.12857142857143,826.9,175.22232142857143,184.12857142857143,926.9,112.22232142857143,116.12857142857143,1027.2,102.22232142857143,105.12857142857143,1131.2,81.22232142857143,85.12857142857143,1232.9,70.22232142857143,78.12857142857143,1333.3,66.22232142857143,72.12857142857143,1433.4,66.22232142857143,72.12857142857143,1537,66.22232142857143,72.12857142857143,1641.7,66.22232142857143,72.12857142857143,1747.1,66.22232142857143,72.12857142857143,1847.2,66.22232142857143,72.12857142857143,1951.3,66.22232142857143,72.12857142857143,2051.8,66.22232142857143,72.12857142857143,2157.8,66.22232142857143,72.12857142857143,2263,66.22232142857143,72.12857142857143,2363.4,236.22232142857143,113.12857142857143,2466.5,293.22232142857143,205.12857142857143,2571.7,301.22232142857143,257.12857142857143,2671.7,301.22232142857143,258.12857142857143,2779.1,301.22232142857143,258.12857142857143,2882.7,301.22232142857143,258.12857142857143,2987.1,301.22232142857143,258.12857142857143,3092.4,351.22232142857143,275.12857142857143,3197.9,356.22232142857143,289.12857142857143,3301.9,357.22232142857143,291.12857142857143,3402,357.22232142857143,297.12857142857143,3506.8,357.22232142857143,298.12857142857143,3606.8,357.22232142857143,298.12857142857143,3712.2,357.22232142857143,298.12857142857143,3816.6,357.22232142857143,298.12857142857143,3921.8,357.22232142857143,298.12857142857143,4029.4,357.22232142857143,298.12857142857143,4135.1,357.22232142857143,298.12857142857143,4237.6,357.22232142857143,298.12857142857143,4342,349.22232142857143,320.12857142857143,4449.5,350.22232142857143,317.12857142857143,4551.1,351.22232142857143,314.12857142857143,4651.9,351.22232142857143,314.12857142857143,4757,351.22232142857143,314.12857142857143,4861.1,351.22232142857143,314.12857142857143,4966.7]","[1552.1,1552.1,1000,0,552.1,""smooth"",""up"",""up"",""good_move"",8262.9,6710.1,2480.9,5259.4,522.6,""smooth"",""up"",""up"",""good_move"",11571.7,3307.8,1687.1,8263.9,1620.7,""smooth"",""up"",""up"",""good_move""]","",""
"5171","","<div style=""width:500px;"">
  <p>What determined the result of this run?</p>
  </div>","18","html-slider-response","10","153040","0.0-5.0-1.0","200","1","2025-07-23 08:51:29","1f75c3e559b7213887762d5229550c2b","175.176.13.53","Mozilla/5.0 (Windows NT 10.0; Win64; x64) AppleWebKit/537.36 (KHTML, like Gecko) Chrome/138.0.0.0 Safari/537.36","WebKit","Chrome","138.0.0.0","Windows","10.0","https://app.prolific.com/","en-US,en;q=0.9","65f0831414fd6e9e51e08708","683db9eb0562dbf637994deb","6880a20c7933ae4c0e1ed910","2","1","65f0831414fd6e9e51e08708","2","1","2025-07-23T08:54:09.990Z","","","","","","","","","","","AttribQ","","50","","","","","","","","","","","","","","","","","","","","","","","","","","","","",""
"5396","","<div style=""width:500px;"">
  <p>How much control did you have over the ball?</p>
  </div>","20","html-slider-response","11","158438","0.0-5.0-2.0","200","1","2025-07-23 08:51:29","1f75c3e559b7213887762d5229550c2b","175.176.13.53","Mozilla/5.0 (Windows NT 10.0; Win64; x64) AppleWebKit/537.36 (KHTML, like Gecko) Chrome/138.0.0.0 Safari/537.36","WebKit","Chrome","138.0.0.0","Windows","10.0","https://app.prolific.com/","en-US,en;q=0.9","65f0831414fd6e9e51e08708","683db9eb0562dbf637994deb","6880a20c7933ae4c0e1ed910","2","1","65f0831414fd6e9e51e08708","2","1","2025-07-23T08:54:15.388Z","","","","","","","","","","","ControlQ","","50","","","","","","","","","","","","","","","","","","","","","","","","","","","","",""
"2503","","<div style=""width:500px;"">
  <p>How would you describe your current emotional state?</p>
  </div>","89","html-slider-response","12","160942","0.0-5.0-3.0","200","1","2025-07-23 08:51:29","1f75c3e559b7213887762d5229550c2b","175.176.13.53","Mozilla/5.0 (Windows NT 10.0; Win64; x64) AppleWebKit/537.36 (KHTML, like Gecko) Chrome/138.0.0.0 Safari/537.36","WebKit","Chrome","138.0.0.0","Windows","10.0","https://app.prolific.com/","en-US,en;q=0.9","65f0831414fd6e9e51e08708","683db9eb0562dbf637994deb","6880a20c7933ae4c0e1ed910","2","1","65f0831414fd6e9e51e08708","2","1","2025-07-23T08:54:17.893Z","","","","","","","","","","","StressQ","","50","","","","","","","","","","","","","","","","","","","","","","","","","","","","",""
"3105","","<div style=""width:500px;"">
  <p>What best describes how you currently feel?</p>
  </div>","69","html-slider-response","13","164049","0.0-5.0-4.0","200","1","2025-07-23 08:51:29","1f75c3e559b7213887762d5229550c2b","175.176.13.53","Mozilla/5.0 (Windows NT 10.0; Win64; x64) AppleWebKit/537.36 (KHTML, like Gecko) Chrome/138.0.0.0 Safari/537.36","WebKit","Chrome","138.0.0.0","Windows","10.0","https://app.prolific.com/","en-US,en;q=0.9","65f0831414fd6e9e51e08708","683db9eb0562dbf637994deb","6880a20c7933ae4c0e1ed910","2","1","65f0831414fd6e9e51e08708","2","1","2025-07-23T08:54:20.999Z","","","","","","","","","","","MotivationQ","","50","","","","","","","","","","","","","","","","","","","","","","","","","","","","",""
"","","","","ctl-task-cpt","14","187414","0.0-5.0-0.1","200","1","2025-07-23 08:51:29","1f75c3e559b7213887762d5229550c2b","175.176.13.53","Mozilla/5.0 (Windows NT 10.0; Win64; x64) AppleWebKit/537.36 (KHTML, like Gecko) Chrome/138.0.0.0 Safari/537.36","WebKit","Chrome","138.0.0.0","Windows","10.0","https://app.prolific.com/","en-US,en;q=0.9","65f0831414fd6e9e51e08708","683db9eb0562dbf637994deb","6880a20c7933ae4c0e1ed910","2","1","65f0831414fd6e9e51e08708","2","1","2025-07-23T08:54:44.364Z","","","","","","","","","","","","","","win-only","0","g1:NW,g2:SE","0.9","2","0","170987.9","1340.7","6343","20346.5","1","4","4","6","1","1","1","1","0","0.007575757575757576","2646.1","3000","1120","[""left"",""up""]","{""num_key_presses"":4,""num_perfect"":4,""num_errors"":0,""num_randdir"":0,""num_randdir_good_moves"":0,""num_whilered"":0,""num_whileblue"":0,""num_blue"":1,""num_good_moves"":4}","[295.22232142857143,287.12857142857143,0.3,295.22232142857143,287.12857142857143,101,295.22232142857143,287.12857142857143,201.5,295.22232142857143,287.12857142857143,301.5,295.22232142857143,287.12857142857143,405.5,295.22232142857143,287.12857142857143,510.5,295.22232142857143,287.12857142857143,616.4,295.22232142857143,287.12857142857143,716.4,295.22232142857143,287.12857142857143,816.4,295.22232142857143,287.12857142857143,921.7,308.22232142857143,290.12857142857143,1025.7,417.22232142857143,388.12857142857143,1130.3,456.22232142857143,462.12857142857143,1230.6,480.22232142857143,502.12857142857143,1334.9,438.22232142857143,457.12857142857143,1437.4,320.22232142857143,334.12857142857143,1539.8,178.22232142857143,194.12857142857143,1640.9,53.222321428571426,111.12857142857143,1744.8,56.222321428571426,110.12857142857143,1850.5,58.222321428571426,108.12857142857143,1954.6,58.222321428571426,108.12857142857143,2056,58.222321428571426,108.12857142857143,2159.9,58.222321428571426,108.12857142857143,2264.6,58.222321428571426,95.12857142857143,2365.1,57.222321428571426,89.12857142857143,2467.3,57.222321428571426,89.12857142857143,2567.5,57.222321428571426,89.12857142857143,2668.2,57.222321428571426,89.12857142857143,2771.8,57.222321428571426,89.12857142857143,2875.7,57.222321428571426,89.12857142857143,2980.6,57.222321428571426,89.12857142857143,3085.6,57.222321428571426,89.12857142857143,3185.8,57.222321428571426,89.12857142857143,3291.2,57.222321428571426,89.12857142857143,3396.5,57.222321428571426,89.12857142857143,3501.5,57.222321428571426,89.12857142857143,3606.5,57.222321428571426,89.12857142857143,3710.8,57.222321428571426,89.12857142857143,3811.2,57.222321428571426,89.12857142857143,3915.5,57.222321428571426,89.12857142857143,4023.9,57.222321428571426,89.12857142857143,4126.7,57.222321428571426,89.12857142857143,4231.4,57.222321428571426,89.12857142857143,4336,57.222321428571426,89.12857142857143,4441.5,57.222321428571426,89.12857142857143,4545.5,57.222321428571426,89.12857142857143,4646.5,57.222321428571426,89.12857142857143,4750.9,57.222321428571426,89.12857142857143,4851.5,57.222321428571426,89.12857142857143,4956.1]","[4945.9,4945.9,2377.2,2003.9,564.8,""smooth"",""up"",""up"",""good_move"",7358.6,2412,1846.3,4946.6,565.7,""smooth"",""left"",""left"",""good_move"",11100.4,3741.3,3306.5,7359.2,434.9,""smooth"",""left"",""left"",""good_move"",13907.6,2806.6,2468.2,11101,338.4,""smooth"",""up"",""up"",""good_move""]","",""
"4050","","<div style=""width:500px;"">
  <p>What determined the result of this run?</p>
  </div>","95","html-slider-response","15","191465","0.0-5.0-1.1","200","1","2025-07-23 08:51:29","1f75c3e559b7213887762d5229550c2b","175.176.13.53","Mozilla/5.0 (Windows NT 10.0; Win64; x64) AppleWebKit/537.36 (KHTML, like Gecko) Chrome/138.0.0.0 Safari/537.36","WebKit","Chrome","138.0.0.0","Windows","10.0","https://app.prolific.com/","en-US,en;q=0.9","65f0831414fd6e9e51e08708","683db9eb0562dbf637994deb","6880a20c7933ae4c0e1ed910","2","1","65f0831414fd6e9e51e08708","2","1","2025-07-23T08:54:48.415Z","","","","","","","","","","","AttribQ","","50","","","","","","","","","","","","","","","","","","","","","","","","","","","","",""
"2647","","<div style=""width:500px;"">
  <p>How much control did you have over the ball?</p>
  </div>","89","html-slider-response","16","194113","0.0-5.0-2.1","200","1","2025-07-23 08:51:29","1f75c3e559b7213887762d5229550c2b","175.176.13.53","Mozilla/5.0 (Windows NT 10.0; Win64; x64) AppleWebKit/537.36 (KHTML, like Gecko) Chrome/138.0.0.0 Safari/537.36","WebKit","Chrome","138.0.0.0","Windows","10.0","https://app.prolific.com/","en-US,en;q=0.9","65f0831414fd6e9e51e08708","683db9eb0562dbf637994deb","6880a20c7933ae4c0e1ed910","2","1","65f0831414fd6e9e51e08708","2","1","2025-07-23T08:54:51.063Z","","","","","","","","","","","ControlQ","","50","","","","","","","","","","","","","","","","","","","","","","","","","","","","",""
"2391","","<div style=""width:500px;"">
  <p>How would you describe your current emotional state?</p>
  </div>","14","html-slider-response","17","196505","0.0-5.0-3.1","200","1","2025-07-23 08:51:29","1f75c3e559b7213887762d5229550c2b","175.176.13.53","Mozilla/5.0 (Windows NT 10.0; Win64; x64) AppleWebKit/537.36 (KHTML, like Gecko) Chrome/138.0.0.0 Safari/537.36","WebKit","Chrome","138.0.0.0","Windows","10.0","https://app.prolific.com/","en-US,en;q=0.9","65f0831414fd6e9e51e08708","683db9eb0562dbf637994deb","6880a20c7933ae4c0e1ed910","2","1","65f0831414fd6e9e51e08708","2","1","2025-07-23T08:54:53.455Z","","","","","","","","","","","StressQ","","50","","","","","","","","","","","","","","","","","","","","","","","","","","","","",""
"2504","","<div style=""width:500px;"">
  <p>What best describes how you currently feel?</p>
  </div>","89","html-slider-response","18","199011","0.0-5.0-4.1","200","1","2025-07-23 08:51:29","1f75c3e559b7213887762d5229550c2b","175.176.13.53","Mozilla/5.0 (Windows NT 10.0; Win64; x64) AppleWebKit/537.36 (KHTML, like Gecko) Chrome/138.0.0.0 Safari/537.36","WebKit","Chrome","138.0.0.0","Windows","10.0","https://app.prolific.com/","en-US,en;q=0.9","65f0831414fd6e9e51e08708","683db9eb0562dbf637994deb","6880a20c7933ae4c0e1ed910","2","1","65f0831414fd6e9e51e08708","2","1","2025-07-23T08:54:55.961Z","","","","","","","","","","","MotivationQ","","50","","","","","","","","","","","","","","","","","","","","","","","","","","","","",""
"","","","","ctl-task-cpt","19","229595","0.0-5.0-0.2","200","1","2025-07-23 08:51:29","1f75c3e559b7213887762d5229550c2b","175.176.13.53","Mozilla/5.0 (Windows NT 10.0; Win64; x64) AppleWebKit/537.36 (KHTML, like Gecko) Chrome/138.0.0.0 Safari/537.36","WebKit","Chrome","138.0.0.0","Windows","10.0","https://app.prolific.com/","en-US,en;q=0.9","65f0831414fd6e9e51e08708","683db9eb0562dbf637994deb","6880a20c7933ae4c0e1ed910","2","1","65f0831414fd6e9e51e08708","2","1","2025-07-23T08:55:26.545Z","","","","","","","","","","","","","","win-only","3","g1:SW,g2:NE","0.8","3","0","205952.6","2562","7565.9","27564.2","1","4","8","6","2","8","8","9","1","0.06818181818181818","1500.1","3000","465","[""up"",""right""]","{""num_key_presses"":6,""num_perfect"":6,""num_errors"":0,""num_randdir"":0,""num_randdir_good_moves"":0,""num_whilered"":0,""num_whileblue"":0,""num_blue"":1,""num_good_moves"":6}","[293.22232142857143,297.12857142857143,0.3,293.22232142857143,297.12857142857143,104.2,293.22232142857143,297.12857142857143,205.5,293.22232142857143,297.12857142857143,309,293.22232142857143,297.12857142857143,409.8,293.22232142857143,297.12857142857143,511,293.22232142857143,297.12857142857143,614.3,287.22232142857143,305.12857142857143,720.1,289.22232142857143,308.12857142857143,828.3,515.2223214285714,197.12857142857143,928.9,540.2223214285714,142.12857142857143,1029.3,546.2223214285714,102.12857142857143,1129.8,543.2223214285714,82.12857142857143,1235.3,543.2223214285714,84.12857142857143,1341.4,543.2223214285714,84.12857142857143,1442.4,543.2223214285714,84.12857142857143,1545.2,543.2223214285714,84.12857142857143,1649.7,543.2223214285714,84.12857142857143,1750.4,543.2223214285714,84.12857142857143,1854.3,543.2223214285714,84.12857142857143,1955.1,543.2223214285714,84.12857142857143,2060.6,543.2223214285714,84.12857142857143,2162.6,543.2223214285714,84.12857142857143,2263.7,543.2223214285714,84.12857142857143,2365.2,543.2223214285714,84.12857142857143,2469,543.2223214285714,84.12857142857143,2569.9,543.2223214285714,84.12857142857143,2675.8,543.2223214285714,84.12857142857143,2776.6,543.2223214285714,84.12857142857143,2877.6,543.2223214285714,84.12857142857143,2979.6,543.2223214285714,84.12857142857143,3084.3,543.2223214285714,84.12857142857143,3189.4,543.2223214285714,84.12857142857143,3294,543.2223214285714,84.12857142857143,3397.9,543.2223214285714,84.12857142857143,3500.7,543.2223214285714,84.12857142857143,3603.8,543.2223214285714,84.12857142857143,3712.2,543.2223214285714,84.12857142857143,3813.7,543.2223214285714,84.12857142857143,3913.8,543.2223214285714,84.12857142857143,4014,543.2223214285714,84.12857142857143,4114.4,543.2223214285714,84.12857142857143,4218.5,543.2223214285714,84.12857142857143,4318.7,543.2223214285714,84.12857142857143,4418.9,543.2223214285714,84.12857142857143,4524.2,543.2223214285714,84.12857142857143,4624.3,543.2223214285714,84.12857142857143,4727.2,543.2223214285714,84.12857142857143,4829.3,543.2223214285714,84.12857142857143,4934.4]","[1470,1470,1000,0,470,""smooth"",""up"",""up"",""good_move"",4155.1,2684.6,2268.1,1470.5,416.5,""smooth"",""right"",""right"",""good_move"",7512.9,3356.2,2933.7,4156.7,422.5,""smooth"",""right"",""right"",""good_move"",13864.3,6351.1,2387.8,11020.1,456.5,""smooth"",""right"",""right"",""good_move"",16609.7,2745,2303.3,13864.7,441.7,""smooth"",""up"",""up"",""good_move"",19896.8,3286.3,2815,16610.5,471.3,""smooth"",""up"",""up"",""good_move""]","",""
"2979","","<div style=""width:500px;"">
  <p>What determined the result of this run?</p>
  </div>","98","html-slider-response","20","232577","0.0-5.0-1.2","200","1","2025-07-23 08:51:29","1f75c3e559b7213887762d5229550c2b","175.176.13.53","Mozilla/5.0 (Windows NT 10.0; Win64; x64) AppleWebKit/537.36 (KHTML, like Gecko) Chrome/138.0.0.0 Safari/537.36","WebKit","Chrome","138.0.0.0","Windows","10.0","https://app.prolific.com/","en-US,en;q=0.9","65f0831414fd6e9e51e08708","683db9eb0562dbf637994deb","6880a20c7933ae4c0e1ed910","2","1","65f0831414fd6e9e51e08708","2","1","2025-07-23T08:55:29.527Z","","","","","","","","","","","AttribQ","","50","","","","","","","","","","","","","","","","","","","","","","","","","","","","",""
"2187","","<div style=""width:500px;"">
  <p>How much control did you have over the ball?</p>
  </div>","46","html-slider-response","21","234766","0.0-5.0-2.2","200","1","2025-07-23 08:51:29","1f75c3e559b7213887762d5229550c2b","175.176.13.53","Mozilla/5.0 (Windows NT 10.0; Win64; x64) AppleWebKit/537.36 (KHTML, like Gecko) Chrome/138.0.0.0 Safari/537.36","WebKit","Chrome","138.0.0.0","Windows","10.0","https://app.prolific.com/","en-US,en;q=0.9","65f0831414fd6e9e51e08708","683db9eb0562dbf637994deb","6880a20c7933ae4c0e1ed910","2","1","65f0831414fd6e9e51e08708","2","1","2025-07-23T08:55:31.716Z","","","","","","","","","","","ControlQ","","50","","","","","","","","","","","","","","","","","","","","","","","","","","","","",""
"4750","","<div style=""width:500px;"">
  <p>How would you describe your current emotional state?</p>
  </div>","17","html-slider-response","22","239518","0.0-5.0-3.2","200","1","2025-07-23 08:51:29","1f75c3e559b7213887762d5229550c2b","175.176.13.53","Mozilla/5.0 (Windows NT 10.0; Win64; x64) AppleWebKit/537.36 (KHTML, like Gecko) Chrome/138.0.0.0 Safari/537.36","WebKit","Chrome","138.0.0.0","Windows","10.0","https://app.prolific.com/","en-US,en;q=0.9","65f0831414fd6e9e51e08708","683db9eb0562dbf637994deb","6880a20c7933ae4c0e1ed910","2","1","65f0831414fd6e9e51e08708","2","1","2025-07-23T08:55:36.468Z","","","","","","","","","","","StressQ","","50","","","","","","","","","","","","","","","","","","","","","","","","","","","","",""
"2697","","<div style=""width:500px;"">
  <p>What best describes how you currently feel?</p>
  </div>","97","html-slider-response","23","242216","0.0-5.0-4.2","200","1","2025-07-23 08:51:29","1f75c3e559b7213887762d5229550c2b","175.176.13.53","Mozilla/5.0 (Windows NT 10.0; Win64; x64) AppleWebKit/537.36 (KHTML, like Gecko) Chrome/138.0.0.0 Safari/537.36","WebKit","Chrome","138.0.0.0","Windows","10.0","https://app.prolific.com/","en-US,en;q=0.9","65f0831414fd6e9e51e08708","683db9eb0562dbf637994deb","6880a20c7933ae4c0e1ed910","2","1","65f0831414fd6e9e51e08708","2","1","2025-07-23T08:55:39.167Z","","","","","","","","","","","MotivationQ","","50","","","","","","","","","","","","","","","","","","","","","","","","","","","","",""
"","","","","ctl-task-cpt","24","287160","0.0-5.0-0.3","200","1","2025-07-23 08:51:29","1f75c3e559b7213887762d5229550c2b","175.176.13.53","Mozilla/5.0 (Windows NT 10.0; Win64; x64) AppleWebKit/537.36 (KHTML, like Gecko) Chrome/138.0.0.0 Safari/537.36","WebKit","Chrome","138.0.0.0","Windows","10.0","https://app.prolific.com/","en-US,en;q=0.9","65f0831414fd6e9e51e08708","683db9eb0562dbf637994deb","6880a20c7933ae4c0e1ed910","2","1","65f0831414fd6e9e51e08708","2","1","2025-07-23T08:56:24.110Z","","","","","","","","","","","","","","win-only","0","g1:NW,g2:SE","0.7","4","0","249157.8","1104.2","6107","41922.9","1","4","4","6","2","-4","-4","5","9","0.03787878787878788","1562.7","3000","-2500","[""down"",""right""]","{""num_key_presses"":7,""num_perfect"":5,""num_errors"":0,""num_randdir"":2,""num_randdir_good_moves"":1,""num_whilered"":0,""num_whileblue"":0,""num_blue"":4,""num_good_moves"":6}","[299.22232142857143,299.12857142857143,0.2,299.22232142857143,299.12857142857143,103.5,299.22232142857143,299.12857142857143,205.1,299.22232142857143,299.12857142857143,307.7,299.22232142857143,299.12857142857143,407.9,299.22232142857143,299.12857142857143,513.4,299.22232142857143,299.12857142857143,617.9,299.22232142857143,299.12857142857143,725.3,315.22232142857143,307.12857142857143,828.9,437.22232142857143,428.12857142857143,929.1,452.22232142857143,489.12857142857143,1029.2,502.22232142857143,528.1285714285714,1132,546.2223214285714,550.1285714285714,1244.3,549.2223214285714,549.1285714285714,1348,549.2223214285714,545.1285714285714,1448.3,549.2223214285714,545.1285714285714,1553.2,549.2223214285714,545.1285714285714,1661.5,549.2223214285714,545.1285714285714,1762.2,549.2223214285714,545.1285714285714,1864.2,549.2223214285714,545.1285714285714,1968.2,549.2223214285714,545.1285714285714,2077.8,549.2223214285714,545.1285714285714,2179.7,549.2223214285714,545.1285714285714,2281.5,549.2223214285714,545.1285714285714,2382.1,549.2223214285714,545.1285714285714,2483.2,549.2223214285714,545.1285714285714,2587.1,549.2223214285714,545.1285714285714,2688.7,549.2223214285714,545.1285714285714,2792.4,549.2223214285714,545.1285714285714,2894.7,549.2223214285714,545.1285714285714,2997.6,549.2223214285714,545.1285714285714,3098,549.2223214285714,545.1285714285714,3201.9,549.2223214285714,545.1285714285714,3302.4,549.2223214285714,545.1285714285714,3403.3,549.2223214285714,545.1285714285714,3508.2,549.2223214285714,545.1285714285714,3608.7,549.2223214285714,545.1285714285714,3710.3,549.2223214285714,545.1285714285714,3812.7,549.2223214285714,545.1285714285714,3917.6,549.2223214285714,545.1285714285714,4026.1,549.2223214285714,545.1285714285714,4133.2,549.2223214285714,545.1285714285714,4237.6,549.2223214285714,545.1285714285714,4341.8,549.2223214285714,545.1285714285714,4441.9,549.2223214285714,545.1285714285714,4547.2,549.2223214285714,545.1285714285714,4648.2,549.2223214285714,545.1285714285714,4752,549.2223214285714,545.1285714285714,4858.5,549.2223214285714,545.1285714285714,4959]","[1485.7,1485.7,1000,0,485.7,""smooth"",""right"",""right"",""good_move"",7946.8,6460.5,2738.2,4749.2,459.4,""oops"",""right"",""left"",""bad_move"",10798.3,2851.1,2300.3,7947.3,550.8,""oops"",""right"",""right"",""good_move"",13084.5,2285.9,1809.4,10798.7,476.4,""smooth"",""right"",""right"",""good_move"",15715.5,2630.4,2161.8,13085.1,468.6,""smooth"",""right"",""right"",""good_move"",23067.5,7351.8,3084.2,19534.5,448.8,""smooth"",""down"",""down"",""good_move"",25873.2,2804.9,2396.2,23068.3,408.7,""smooth"",""down"",""down"",""good_move""]","",""
"3129","","<div style=""width:500px;"">
  <p>What determined the result of this run?</p>
  </div>","95","html-slider-response","25","290290","0.0-5.0-1.3","200","1","2025-07-23 08:51:29","1f75c3e559b7213887762d5229550c2b","175.176.13.53","Mozilla/5.0 (Windows NT 10.0; Win64; x64) AppleWebKit/537.36 (KHTML, like Gecko) Chrome/138.0.0.0 Safari/537.36","WebKit","Chrome","138.0.0.0","Windows","10.0","https://app.prolific.com/","en-US,en;q=0.9","65f0831414fd6e9e51e08708","683db9eb0562dbf637994deb","6880a20c7933ae4c0e1ed910","2","1","65f0831414fd6e9e51e08708","2","1","2025-07-23T08:56:27.240Z","","","","","","","","","","","AttribQ","","50","","","","","","","","","","","","","","","","","","","","","","","","","","","","",""
"7238","","<div style=""width:500px;"">
  <p>How much control did you have over the ball?</p>
  </div>","48","html-slider-response","26","297529","0.0-5.0-2.3","200","1","2025-07-23 08:51:29","1f75c3e559b7213887762d5229550c2b","175.176.13.53","Mozilla/5.0 (Windows NT 10.0; Win64; x64) AppleWebKit/537.36 (KHTML, like Gecko) Chrome/138.0.0.0 Safari/537.36","WebKit","Chrome","138.0.0.0","Windows","10.0","https://app.prolific.com/","en-US,en;q=0.9","65f0831414fd6e9e51e08708","683db9eb0562dbf637994deb","6880a20c7933ae4c0e1ed910","2","1","65f0831414fd6e9e51e08708","2","1","2025-07-23T08:56:34.479Z","","","","","","","","","","","ControlQ","","50","","","","","","","","","","","","","","","","","","","","","","","","","","","","",""
"2534","","<div style=""width:500px;"">
  <p>How would you describe your current emotional state?</p>
  </div>","83","html-slider-response","27","300065","0.0-5.0-3.3","200","1","2025-07-23 08:51:29","1f75c3e559b7213887762d5229550c2b","175.176.13.53","Mozilla/5.0 (Windows NT 10.0; Win64; x64) AppleWebKit/537.36 (KHTML, like Gecko) Chrome/138.0.0.0 Safari/537.36","WebKit","Chrome","138.0.0.0","Windows","10.0","https://app.prolific.com/","en-US,en;q=0.9","65f0831414fd6e9e51e08708","683db9eb0562dbf637994deb","6880a20c7933ae4c0e1ed910","2","1","65f0831414fd6e9e51e08708","2","1","2025-07-23T08:56:37.016Z","","","","","","","","","","","StressQ","","50","","","","","","","","","","","","","","","","","","","","","","","","","","","","",""
"2758","","<div style=""width:500px;"">
  <p>What best describes how you currently feel?</p>
  </div>","76","html-slider-response","28","302825","0.0-5.0-4.3","200","1","2025-07-23 08:51:29","1f75c3e559b7213887762d5229550c2b","175.176.13.53","Mozilla/5.0 (Windows NT 10.0; Win64; x64) AppleWebKit/537.36 (KHTML, like Gecko) Chrome/138.0.0.0 Safari/537.36","WebKit","Chrome","138.0.0.0","Windows","10.0","https://app.prolific.com/","en-US,en;q=0.9","65f0831414fd6e9e51e08708","683db9eb0562dbf637994deb","6880a20c7933ae4c0e1ed910","2","1","65f0831414fd6e9e51e08708","2","1","2025-07-23T08:56:39.775Z","","","","","","","","","","","MotivationQ","","50","","","","","","","","","","","","","","","","","","","","","","","","","","","","",""
"","","","","ctl-task-cpt","29","331612","0.0-5.0-0.4","200","1","2025-07-23 08:51:29","1f75c3e559b7213887762d5229550c2b","175.176.13.53","Mozilla/5.0 (Windows NT 10.0; Win64; x64) AppleWebKit/537.36 (KHTML, like Gecko) Chrome/138.0.0.0 Safari/537.36","WebKit","Chrome","138.0.0.0","Windows","10.0","https://app.prolific.com/","en-US,en;q=0.9","65f0831414fd6e9e51e08708","683db9eb0562dbf637994deb","6880a20c7933ae4c0e1ed910","2","1","65f0831414fd6e9e51e08708","2","1","2025-07-23T08:57:08.562Z","","","","","","","","","","","","","","win-only","1","g1:NE,g2:SW","0.6","5","0","309766.7","1360.2","6361.6","25779.3","1","4","4","6","1","1","1","6","5","0.045454545454545456","1478.7","3000","755","[""up"",""right""]","{""num_key_presses"":6,""num_perfect"":3,""num_errors"":0,""num_randdir"":3,""num_randdir_good_moves"":2,""num_whilered"":0,""num_whileblue"":0,""num_blue"":1,""num_good_moves"":5}","[295.22232142857143,299.12857142857143,0.3,295.22232142857143,299.12857142857143,101.2,295.22232142857143,299.12857142857143,204.5,295.22232142857143,299.12857142857143,306.6,295.22232142857143,299.12857142857143,410.3,295.22232142857143,299.12857142857143,511.1,295.22232142857143,299.12857142857143,617.1,295.22232142857143,299.12857142857143,721.6,295.22232142857143,299.12857142857143,825.8,408.22232142857143,163.12857142857143,926.3,500.22232142857143,89.12857142857143,1032.8,522.2223214285714,61.128571428571426,1137.3,538.2223214285714,48.128571428571426,1241.8,540.2223214285714,47.128571428571426,1345.6,540.2223214285714,47.128571428571426,1449.4,540.2223214285714,47.128571428571426,1549.9,540.2223214285714,47.128571428571426,1651.2,540.2223214285714,47.128571428571426,1751.8,540.2223214285714,47.128571428571426,1855.9,540.2223214285714,47.128571428571426,1956.1,540.2223214285714,47.128571428571426,2060.5,540.2223214285714,47.128571428571426,2161.3,540.2223214285714,47.128571428571426,2266.9,540.2223214285714,47.128571428571426,2371.5,540.2223214285714,47.128571428571426,2477.6,540.2223214285714,47.128571428571426,2581.1,540.2223214285714,47.128571428571426,2685.2,540.2223214285714,47.128571428571426,2785.9,540.2223214285714,47.128571428571426,2891.4,540.2223214285714,47.128571428571426,2996.8,540.2223214285714,47.128571428571426,3100.4,540.2223214285714,47.128571428571426,3205.9,540.2223214285714,47.128571428571426,3310.5,540.2223214285714,47.128571428571426,3410.7,540.2223214285714,47.128571428571426,3516.3,540.2223214285714,47.128571428571426,3616.4,540.2223214285714,47.128571428571426,3721.1,540.2223214285714,47.128571428571426,3832.9,540.2223214285714,47.128571428571426,3940.9,540.2223214285714,47.128571428571426,4041.5,540.2223214285714,47.128571428571426,4151.8,540.2223214285714,47.128571428571426,4255.7,540.2223214285714,47.128571428571426,4356.3,540.2223214285714,47.128571428571426,4460.8,540.2223214285714,47.128571428571426,4561,540.2223214285714,47.128571428571426,4663.6,540.2223214285714,47.128571428571426,4766.6,540.2223214285714,47.128571428571426,4866.9,540.2223214285714,47.128571428571426,4972.1]","[1463.1,1463.1,1000,0,463.1,""smooth"",""up"",""up"",""good_move"",8003.4,6539.7,2550.1,4866,587.3,""oops"",""right"",""right"",""good_move"",10555.8,2552,2050.7,8003.8,501.3,""smooth"",""up"",""up"",""good_move"",13137.4,2581.3,2195.8,10556.1,385.5,""oops"",""right"",""left"",""bad_move"",16142.3,3004.4,2569.1,13137.9,435.3,""oops"",""right"",""right"",""good_move"",19309.2,3166.7,2743.3,16142.5,423.4,""smooth"",""right"",""right"",""good_move""]","",""
"6342","","<div style=""width:500px;"">
  <p>What determined the result of this run?</p>
  </div>","77","html-slider-response","30","337956","0.0-5.0-1.4","200","1","2025-07-23 08:51:29","1f75c3e559b7213887762d5229550c2b","175.176.13.53","Mozilla/5.0 (Windows NT 10.0; Win64; x64) AppleWebKit/537.36 (KHTML, like Gecko) Chrome/138.0.0.0 Safari/537.36","WebKit","Chrome","138.0.0.0","Windows","10.0","https://app.prolific.com/","en-US,en;q=0.9","65f0831414fd6e9e51e08708","683db9eb0562dbf637994deb","6880a20c7933ae4c0e1ed910","2","1","65f0831414fd6e9e51e08708","2","1","2025-07-23T08:57:14.906Z","","","","","","","","","","","AttribQ","","50","","","","","","","","","","","","","","","","","","","","","","","","","","","","",""
"2554","","<div style=""width:500px;"">
  <p>How much control did you have over the ball?</p>
  </div>","79","html-slider-response","31","340511","0.0-5.0-2.4","200","1","2025-07-23 08:51:29","1f75c3e559b7213887762d5229550c2b","175.176.13.53","Mozilla/5.0 (Windows NT 10.0; Win64; x64) AppleWebKit/537.36 (KHTML, like Gecko) Chrome/138.0.0.0 Safari/537.36","WebKit","Chrome","138.0.0.0","Windows","10.0","https://app.prolific.com/","en-US,en;q=0.9","65f0831414fd6e9e51e08708","683db9eb0562dbf637994deb","6880a20c7933ae4c0e1ed910","2","1","65f0831414fd6e9e51e08708","2","1","2025-07-23T08:57:17.462Z","","","","","","","","","","","ControlQ","","50","","","","","","","","","","","","","","","","","","","","","","","","","","","","",""
"2789","","<div style=""width:500px;"">
  <p>How would you describe your current emotional state?</p>
  </div>","19","html-slider-response","32","343302","0.0-5.0-3.4","200","1","2025-07-23 08:51:29","1f75c3e559b7213887762d5229550c2b","175.176.13.53","Mozilla/5.0 (Windows NT 10.0; Win64; x64) AppleWebKit/537.36 (KHTML, like Gecko) Chrome/138.0.0.0 Safari/537.36","WebKit","Chrome","138.0.0.0","Windows","10.0","https://app.prolific.com/","en-US,en;q=0.9","65f0831414fd6e9e51e08708","683db9eb0562dbf637994deb","6880a20c7933ae4c0e1ed910","2","1","65f0831414fd6e9e51e08708","2","1","2025-07-23T08:57:20.252Z","","","","","","","","","","","StressQ","","50","","","","","","","","","","","","","","","","","","","","","","","","","","","","",""
"2093","","<div style=""width:500px;"">
  <p>What best describes how you currently feel?</p>
  </div>","50","html-slider-response","33","345397","0.0-5.0-4.4","200","1","2025-07-23 08:51:29","1f75c3e559b7213887762d5229550c2b","175.176.13.53","Mozilla/5.0 (Windows NT 10.0; Win64; x64) AppleWebKit/537.36 (KHTML, like Gecko) Chrome/138.0.0.0 Safari/537.36","WebKit","Chrome","138.0.0.0","Windows","10.0","https://app.prolific.com/","en-US,en;q=0.9","65f0831414fd6e9e51e08708","683db9eb0562dbf637994deb","6880a20c7933ae4c0e1ed910","2","1","65f0831414fd6e9e51e08708","2","1","2025-07-23T08:57:22.347Z","","","","","","","","","","","MotivationQ","","50","","","","","","","","","","","","","","","","","","","","","","","","","","","","",""
"","","","","ctl-task-cpt","34","375911","0.0-5.0-0.5","200","1","2025-07-23 08:51:29","1f75c3e559b7213887762d5229550c2b","175.176.13.53","Mozilla/5.0 (Windows NT 10.0; Win64; x64) AppleWebKit/537.36 (KHTML, like Gecko) Chrome/138.0.0.0 Safari/537.36","WebKit","Chrome","138.0.0.0","Windows","10.0","https://app.prolific.com/","en-US,en;q=0.9","65f0831414fd6e9e51e08708","683db9eb0562dbf637994deb","6880a20c7933ae4c0e1ed910","2","1","65f0831414fd6e9e51e08708","2","1","2025-07-23T08:57:52.861Z","","","","","","","","","","","","","","win-only","0","g1:NW,g2:SE","0.5","6","0","352337.3","2064.3","7071.4","27506.7","1","4","8","6","1","1","1","7","6","0.05303030303030303","2739","3000","820","[""left"",""up""]","{""num_key_presses"":6,""num_perfect"":2,""num_errors"":0,""num_randdir"":4,""num_randdir_good_moves"":3,""num_whilered"":0,""num_whileblue"":0,""num_blue"":1,""num_good_moves"":5}","[292.22232142857143,296.12857142857143,0.5,292.22232142857143,296.12857142857143,102.4,292.22232142857143,296.12857142857143,202.8,292.22232142857143,296.12857142857143,306.5,292.22232142857143,296.12857142857143,407.6,292.22232142857143,296.12857142857143,511.7,292.22232142857143,296.12857142857143,616.1,292.22232142857143,296.12857142857143,719.3,292.22232142857143,296.12857142857143,822.1,292.22232142857143,296.12857142857143,922.7,292.22232142857143,296.12857142857143,1022.8,292.22232142857143,296.12857142857143,1128.2,292.22232142857143,296.12857142857143,1232.1,292.22232142857143,296.12857142857143,1335.4,292.22232142857143,296.12857142857143,1440.3,292.22232142857143,296.12857142857143,1540.5,292.22232142857143,296.12857142857143,1641.6,292.22232142857143,296.12857142857143,1741.8,292.22232142857143,296.12857142857143,1842.4,292.22232142857143,296.12857142857143,1946.8,292.22232142857143,296.12857142857143,2058.2,292.22232142857143,296.12857142857143,2162.4,125.22232142857143,111.12857142857143,2273.4,89.22232142857143,57.128571428571426,2375.4,63.222321428571426,30.128571428571426,2476.7,62.222321428571426,32.128571428571426,2576.7,63.222321428571426,32.128571428571426,2678.3,63.222321428571426,32.128571428571426,2782.8,63.222321428571426,32.128571428571426,2889.3,63.222321428571426,32.128571428571426,2992.1,63.222321428571426,32.128571428571426,3092.8,63.222321428571426,32.128571428571426,3206,63.222321428571426,32.128571428571426,3308.6,63.222321428571426,32.128571428571426,3409.1,63.222321428571426,32.128571428571426,3511.3,63.222321428571426,32.128571428571426,3611.8,63.222321428571426,32.128571428571426,3712.8,63.222321428571426,32.128571428571426,3816.4,63.222321428571426,32.128571428571426,3921.7,63.222321428571426,32.128571428571426,4022.9,63.222321428571426,32.128571428571426,4127.1,63.222321428571426,32.128571428571426,4227.2,63.222321428571426,32.128571428571426,4337.2,63.222321428571426,32.128571428571426,4442.6,63.222321428571426,32.128571428571426,4546.4,63.222321428571426,32.128571428571426,4648.4,63.222321428571426,32.128571428571426,4748.6,63.222321428571426,32.128571428571426,4859.7,63.222321428571426,32.128571428571426,4959.8]","[1464.7,1464.7,1000,0,464.7,""oops"",""up"",""right"",""bad_move"",4365.6,2900.4,2393.9,1465.2,506.5,""oops"",""left"",""up"",""good_move"",10486.1,6119.9,2537.1,7500.3,448.7,""smooth"",""left"",""left"",""good_move"",13868.6,3382.1,2932.9,10486.5,449.2,""oops"",""left"",""left"",""good_move"",17227.3,3358.4,2910.7,13868.9,447.7,""oops"",""left"",""up"",""good_move"",20334.5,3106.9,2649.1,17227.6,457.8,""smooth"",""left"",""left"",""good_move""]","",""
"2436","","<div style=""width:500px;"">
  <p>What determined the result of this run?</p>
  </div>","83","html-slider-response","35","378348","0.0-5.0-1.5","200","1","2025-07-23 08:51:29","1f75c3e559b7213887762d5229550c2b","175.176.13.53","Mozilla/5.0 (Windows NT 10.0; Win64; x64) AppleWebKit/537.36 (KHTML, like Gecko) Chrome/138.0.0.0 Safari/537.36","WebKit","Chrome","138.0.0.0","Windows","10.0","https://app.prolific.com/","en-US,en;q=0.9","65f0831414fd6e9e51e08708","683db9eb0562dbf637994deb","6880a20c7933ae4c0e1ed910","2","1","65f0831414fd6e9e51e08708","2","1","2025-07-23T08:57:55.298Z","","","","","","","","","","","AttribQ","","50","","","","","","","","","","","","","","","","","","","","","","","","","","","","",""
"3321","","<div style=""width:500px;"">
  <p>How much control did you have over the ball?</p>
  </div>","89","html-slider-response","36","381671","0.0-5.0-2.5","200","1","2025-07-23 08:51:29","1f75c3e559b7213887762d5229550c2b","175.176.13.53","Mozilla/5.0 (Windows NT 10.0; Win64; x64) AppleWebKit/537.36 (KHTML, like Gecko) Chrome/138.0.0.0 Safari/537.36","WebKit","Chrome","138.0.0.0","Windows","10.0","https://app.prolific.com/","en-US,en;q=0.9","65f0831414fd6e9e51e08708","683db9eb0562dbf637994deb","6880a20c7933ae4c0e1ed910","2","1","65f0831414fd6e9e51e08708","2","1","2025-07-23T08:57:58.621Z","","","","","","","","","","","ControlQ","","50","","","","","","","","","","","","","","","","","","","","","","","","","","","","",""
"3443","","<div style=""width:500px;"">
  <p>How would you describe your current emotional state?</p>
  </div>","40","html-slider-response","37","385116","0.0-5.0-3.5","200","1","2025-07-23 08:51:29","1f75c3e559b7213887762d5229550c2b","175.176.13.53","Mozilla/5.0 (Windows NT 10.0; Win64; x64) AppleWebKit/537.36 (KHTML, like Gecko) Chrome/138.0.0.0 Safari/537.36","WebKit","Chrome","138.0.0.0","Windows","10.0","https://app.prolific.com/","en-US,en;q=0.9","65f0831414fd6e9e51e08708","683db9eb0562dbf637994deb","6880a20c7933ae4c0e1ed910","2","1","65f0831414fd6e9e51e08708","2","1","2025-07-23T08:58:02.066Z","","","","","","","","","","","StressQ","","50","","","","","","","","","","","","","","","","","","","","","","","","","","","","",""
"2493","","<div style=""width:500px;"">
  <p>What best describes how you currently feel?</p>
  </div>","73","html-slider-response","38","387611","0.0-5.0-4.5","200","1","2025-07-23 08:51:29","1f75c3e559b7213887762d5229550c2b","175.176.13.53","Mozilla/5.0 (Windows NT 10.0; Win64; x64) AppleWebKit/537.36 (KHTML, like Gecko) Chrome/138.0.0.0 Safari/537.36","WebKit","Chrome","138.0.0.0","Windows","10.0","https://app.prolific.com/","en-US,en;q=0.9","65f0831414fd6e9e51e08708","683db9eb0562dbf637994deb","6880a20c7933ae4c0e1ed910","2","1","65f0831414fd6e9e51e08708","2","1","2025-07-23T08:58:04.561Z","","","","","","","","","","","MotivationQ","","50","","","","","","","","","","","","","","","","","","","","","","","","","","","","",""
"","","","","ctl-task-cpt","39","414438","0.0-5.0-0.6","200","1","2025-07-23 08:51:29","1f75c3e559b7213887762d5229550c2b","175.176.13.53","Mozilla/5.0 (Windows NT 10.0; Win64; x64) AppleWebKit/537.36 (KHTML, like Gecko) Chrome/138.0.0.0 Safari/537.36","WebKit","Chrome","138.0.0.0","Windows","10.0","https://app.prolific.com/","en-US,en;q=0.9","65f0831414fd6e9e51e08708","683db9eb0562dbf637994deb","6880a20c7933ae4c0e1ed910","2","1","65f0831414fd6e9e51e08708","2","1","2025-07-23T08:58:31.388Z","","","","","","","","","","","","","","win-only","2","g1:SE,g2:NW","0.4","7","0","394550.9","1390","6390.7","23819.1","1","4","8","6","1","1","1","8","7","0.06060606060606061","2483.9","3000","865","[""down"",""right""]","{""num_key_presses"":6,""num_perfect"":3,""num_errors"":0,""num_randdir"":3,""num_randdir_good_moves"":2,""num_whilered"":0,""num_whileblue"":0,""num_blue"":0,""num_good_moves"":5}","[295.22232142857143,299.12857142857143,0.4,295.22232142857143,299.12857142857143,110.4,295.22232142857143,299.12857142857143,210.9,295.22232142857143,299.12857142857143,313.1,295.22232142857143,299.12857142857143,416,295.22232142857143,299.12857142857143,516.4,295.22232142857143,299.12857142857143,632.2,295.22232142857143,299.12857142857143,733.9,295.22232142857143,299.12857142857143,836,295.22232142857143,299.12857142857143,937.2,295.22232142857143,299.12857142857143,1041.1,295.22232142857143,299.12857142857143,1145.6,295.22232142857143,299.12857142857143,1246.8,295.22232142857143,299.12857142857143,1348.2,295.22232142857143,299.12857142857143,1451.6,295.22232142857143,299.12857142857143,1555.4,295.22232142857143,299.12857142857143,1655.7,332.22232142857143,306.12857142857143,1756.2,579.2223214285714,458.12857142857143,1860.6,634.2223214285714,564.1285714285714,1960.9,631.2223214285714,568.1285714285714,2061.3,590.2223214285714,553.1285714285714,2167.2,573.2223214285714,547.1285714285714,2267.3,573.2223214285714,547.1285714285714,2371.8,573.2223214285714,547.1285714285714,2480.3,573.2223214285714,547.1285714285714,2582.2,573.2223214285714,547.1285714285714,2687.7,573.2223214285714,547.1285714285714,2787.7,573.2223214285714,547.1285714285714,2891.1,573.2223214285714,547.1285714285714,2997.3,573.2223214285714,547.1285714285714,3100.4,573.2223214285714,547.1285714285714,3201.6,573.2223214285714,547.1285714285714,3307.1,573.2223214285714,547.1285714285714,3410.8,573.2223214285714,547.1285714285714,3518.3,573.2223214285714,547.1285714285714,3634.3,573.2223214285714,547.1285714285714,3736.5,573.2223214285714,547.1285714285714,3837,573.2223214285714,547.1285714285714,3944.4,573.2223214285714,547.1285714285714,4049.3,573.2223214285714,547.1285714285714,4150.9,573.2223214285714,547.1285714285714,4258.5,573.2223214285714,547.1285714285714,4361,573.2223214285714,547.1285714285714,4461.2,573.2223214285714,547.1285714285714,4566.2,573.2223214285714,547.1285714285714,4678.1,573.2223214285714,547.1285714285714,4779.3,573.2223214285714,547.1285714285714,4881,573.2223214285714,547.1285714285714,4981.5]","[1479.4,1479.4,1000,0,479.4,""oops"",""right"",""right"",""good_move"",4611.9,3131.7,2661.6,1480.2,470.1,""oops"",""right"",""left"",""bad_move"",6982.3,2369.8,1898.9,4612.5,470.9,""smooth"",""right"",""right"",""good_move"",10231,3248.2,2819.5,6982.8,428.7,""oops"",""right"",""right"",""good_move"",13352.8,3121.5,2654.8,10231.3,466.7,""smooth"",""down"",""down"",""good_move"",17298.4,3945.1,3460.4,13353.3,484.7,""smooth"",""down"",""down"",""good_move""]","",""
"2308","","<div style=""width:500px;"">
  <p>What determined the result of this run?</p>
  </div>","91","html-slider-response","40","416748","0.0-5.0-1.6","200","1","2025-07-23 08:51:29","1f75c3e559b7213887762d5229550c2b","175.176.13.53","Mozilla/5.0 (Windows NT 10.0; Win64; x64) AppleWebKit/537.36 (KHTML, like Gecko) Chrome/138.0.0.0 Safari/537.36","WebKit","Chrome","138.0.0.0","Windows","10.0","https://app.prolific.com/","en-US,en;q=0.9","65f0831414fd6e9e51e08708","683db9eb0562dbf637994deb","6880a20c7933ae4c0e1ed910","2","1","65f0831414fd6e9e51e08708","2","1","2025-07-23T08:58:33.698Z","","","","","","","","","","","AttribQ","","50","","","","","","","","","","","","","","","","","","","","","","","","","","","","",""
"3459","","<div style=""width:500px;"">
  <p>How much control did you have over the ball?</p>
  </div>","85","html-slider-response","41","420209","0.0-5.0-2.6","200","1","2025-07-23 08:51:29","1f75c3e559b7213887762d5229550c2b","175.176.13.53","Mozilla/5.0 (Windows NT 10.0; Win64; x64) AppleWebKit/537.36 (KHTML, like Gecko) Chrome/138.0.0.0 Safari/537.36","WebKit","Chrome","138.0.0.0","Windows","10.0","https://app.prolific.com/","en-US,en;q=0.9","65f0831414fd6e9e51e08708","683db9eb0562dbf637994deb","6880a20c7933ae4c0e1ed910","2","1","65f0831414fd6e9e51e08708","2","1","2025-07-23T08:58:37.160Z","","","","","","","","","","","ControlQ","","50","","","","","","","","","","","","","","","","","","","","","","","","","","","","",""
"3414","","<div style=""width:500px;"">
  <p>How would you describe your current emotional state?</p>
  </div>","21","html-slider-response","42","423626","0.0-5.0-3.6","200","1","2025-07-23 08:51:29","1f75c3e559b7213887762d5229550c2b","175.176.13.53","Mozilla/5.0 (Windows NT 10.0; Win64; x64) AppleWebKit/537.36 (KHTML, like Gecko) Chrome/138.0.0.0 Safari/537.36","WebKit","Chrome","138.0.0.0","Windows","10.0","https://app.prolific.com/","en-US,en;q=0.9","65f0831414fd6e9e51e08708","683db9eb0562dbf637994deb","6880a20c7933ae4c0e1ed910","2","1","65f0831414fd6e9e51e08708","2","1","2025-07-23T08:58:40.576Z","","","","","","","","","","","StressQ","","50","","","","","","","","","","","","","","","","","","","","","","","","","","","","",""
"3779","","<div style=""width:500px;"">
  <p>What best describes how you currently feel?</p>
  </div>","85","html-slider-response","43","427407","0.0-5.0-4.6","200","1","2025-07-23 08:51:29","1f75c3e559b7213887762d5229550c2b","175.176.13.53","Mozilla/5.0 (Windows NT 10.0; Win64; x64) AppleWebKit/537.36 (KHTML, like Gecko) Chrome/138.0.0.0 Safari/537.36","WebKit","Chrome","138.0.0.0","Windows","10.0","https://app.prolific.com/","en-US,en;q=0.9","65f0831414fd6e9e51e08708","683db9eb0562dbf637994deb","6880a20c7933ae4c0e1ed910","2","1","65f0831414fd6e9e51e08708","2","1","2025-07-23T08:58:44.357Z","","","","","","","","","","","MotivationQ","","50","","","","","","","","","","","","","","","","","","","","","","","","","","","","",""
"","","","","ctl-task-cpt","44","472313","0.0-5.0-0.7","200","1","2025-07-23 08:51:29","1f75c3e559b7213887762d5229550c2b","175.176.13.53","Mozilla/5.0 (Windows NT 10.0; Win64; x64) AppleWebKit/537.36 (KHTML, like Gecko) Chrome/138.0.0.0 Safari/537.36","WebKit","Chrome","138.0.0.0","Windows","10.0","https://app.prolific.com/","en-US,en;q=0.9","65f0831414fd6e9e51e08708","683db9eb0562dbf637994deb","6880a20c7933ae4c0e1ed910","2","1","65f0831414fd6e9e51e08708","2","1","2025-07-23T08:59:29.263Z","","","","","","","","","","","","","","win-only","0","g1:NW,g2:SE","0.3","8","0","434348.6","1172.9","6176.4","41892.5","1","4","4","6","1","-1","-2","6","8","0.045454545454545456","1539.2","3000","-2090","[""left"",""up""]","{""num_key_presses"":9,""num_perfect"":3,""num_errors"":1,""num_randdir"":5,""num_randdir_good_moves"":2,""num_whilered"":0,""num_whileblue"":1,""num_blue"":3,""num_good_moves"":5}","[296.22232142857143,296.12857142857143,0.9,296.22232142857143,296.12857142857143,115.1,296.22232142857143,296.12857142857143,220.7,296.22232142857143,296.12857142857143,330.3,296.22232142857143,296.12857142857143,432.4,296.22232142857143,296.12857142857143,532.7,296.22232142857143,296.12857142857143,634.2,296.22232142857143,296.12857142857143,734.5,296.22232142857143,296.12857142857143,844.5,259.22232142857143,258.12857142857143,947.2,193.22232142857143,207.12857142857143,1048.2,77.22232142857143,125.12857142857143,1164.9,37.222321428571426,93.12857142857143,1265.4,37.222321428571426,92.12857142857143,1365.9,37.222321428571426,92.12857142857143,1475.6,37.222321428571426,92.12857142857143,1576.3,37.222321428571426,92.12857142857143,1680.6,37.222321428571426,92.12857142857143,1799.9,37.222321428571426,92.12857142857143,1904.3,37.222321428571426,92.12857142857143,2014.9,37.222321428571426,92.12857142857143,2119.3,37.222321428571426,92.12857142857143,2225,37.222321428571426,92.12857142857143,2330.9,37.222321428571426,92.12857142857143,2433.4,37.222321428571426,92.12857142857143,2542.8,37.222321428571426,92.12857142857143,2651.6,37.222321428571426,92.12857142857143,2756.2,37.222321428571426,92.12857142857143,2860.5,37.222321428571426,92.12857142857143,2962.6,37.222321428571426,92.12857142857143,3063.2,37.222321428571426,92.12857142857143,3169.2,37.222321428571426,92.12857142857143,3279.7,37.222321428571426,92.12857142857143,3391.8,37.222321428571426,92.12857142857143,3499.4,37.222321428571426,92.12857142857143,3605,37.222321428571426,92.12857142857143,3706.1,37.222321428571426,92.12857142857143,3815.8,37.222321428571426,92.12857142857143,3918.7,37.222321428571426,92.12857142857143,4020.8,37.222321428571426,92.12857142857143,4121.2,37.222321428571426,92.12857142857143,4232.9,37.222321428571426,92.12857142857143,4333.5,37.222321428571426,92.12857142857143,4434.3,37.222321428571426,92.12857142857143,4538.7,37.222321428571426,92.12857142857143,4642.5,37.222321428571426,92.12857142857143,4744.8,37.222321428571426,92.12857142857143,4850.4,37.222321428571426,92.12857142857143,4959.5]","[1490.4,1490.4,1000,0,490.4,""smooth"",""up"",""up"",""good_move"",8236.3,6744.8,2532.6,5218.9,484.9,""oops"",""up"",""down"",""bad_move"",11651.2,3414.6,2911.1,8236.6,503.5,""oops"",""left"",""down"",""bad_move"",14916.7,3264.7,2843.4,11652,421.3,""oops"",""left"",""up"",""good_move"",17994.2,3076.7,2677.7,14917.6,399,""while_blue"",""left"",""down"",""bad_move"",20650,2655,2102.7,17995,552.3,""smooth"",""left"",""left"",""good_move"",27713.9,7063.4,2818.8,24291.7,603.4,""smooth"",""left"",""left"",""good_move"",30849.2,3135,2518,27714.2,617,""oops"",""up"",""right"",""bad_move"",33079.4,2229.4,1792.1,30850,437.3,""oops"",""up"",""left"",""good_move""]","",""
"4389","","<div style=""width:500px;"">
  <p>What determined the result of this run?</p>
  </div>","15","html-slider-response","45","476705","0.0-5.0-1.7","200","1","2025-07-23 08:51:29","1f75c3e559b7213887762d5229550c2b","175.176.13.53","Mozilla/5.0 (Windows NT 10.0; Win64; x64) AppleWebKit/537.36 (KHTML, like Gecko) Chrome/138.0.0.0 Safari/537.36","WebKit","Chrome","138.0.0.0","Windows","10.0","https://app.prolific.com/","en-US,en;q=0.9","65f0831414fd6e9e51e08708","683db9eb0562dbf637994deb","6880a20c7933ae4c0e1ed910","2","1","65f0831414fd6e9e51e08708","2","1","2025-07-23T08:59:33.655Z","","","","","","","","","","","AttribQ","","50","","","","","","","","","","","","","","","","","","","","","","","","","","","","",""
"2196","","<div style=""width:500px;"">
  <p>How much control did you have over the ball?</p>
  </div>","67","html-slider-response","46","478903","0.0-5.0-2.7","200","1","2025-07-23 08:51:29","1f75c3e559b7213887762d5229550c2b","175.176.13.53","Mozilla/5.0 (Windows NT 10.0; Win64; x64) AppleWebKit/537.36 (KHTML, like Gecko) Chrome/138.0.0.0 Safari/537.36","WebKit","Chrome","138.0.0.0","Windows","10.0","https://app.prolific.com/","en-US,en;q=0.9","65f0831414fd6e9e51e08708","683db9eb0562dbf637994deb","6880a20c7933ae4c0e1ed910","2","1","65f0831414fd6e9e51e08708","2","1","2025-07-23T08:59:35.853Z","","","","","","","","","","","ControlQ","","50","","","","","","","","","","","","","","","","","","","","","","","","","","","","",""
"3156","","<div style=""width:500px;"">
  <p>How would you describe your current emotional state?</p>
  </div>","59","html-slider-response","47","482061","0.0-5.0-3.7","200","1","2025-07-23 08:51:29","1f75c3e559b7213887762d5229550c2b","175.176.13.53","Mozilla/5.0 (Windows NT 10.0; Win64; x64) AppleWebKit/537.36 (KHTML, like Gecko) Chrome/138.0.0.0 Safari/537.36","WebKit","Chrome","138.0.0.0","Windows","10.0","https://app.prolific.com/","en-US,en;q=0.9","65f0831414fd6e9e51e08708","683db9eb0562dbf637994deb","6880a20c7933ae4c0e1ed910","2","1","65f0831414fd6e9e51e08708","2","1","2025-07-23T08:59:39.011Z","","","","","","","","","","","StressQ","","50","","","","","","","","","","","","","","","","","","","","","","","","","","","","",""
"3249","","<div style=""width:500px;"">
  <p>What best describes how you currently feel?</p>
  </div>","69","html-slider-response","48","485311","0.0-5.0-4.7","200","1","2025-07-23 08:51:29","1f75c3e559b7213887762d5229550c2b","175.176.13.53","Mozilla/5.0 (Windows NT 10.0; Win64; x64) AppleWebKit/537.36 (KHTML, like Gecko) Chrome/138.0.0.0 Safari/537.36","WebKit","Chrome","138.0.0.0","Windows","10.0","https://app.prolific.com/","en-US,en;q=0.9","65f0831414fd6e9e51e08708","683db9eb0562dbf637994deb","6880a20c7933ae4c0e1ed910","2","1","65f0831414fd6e9e51e08708","2","1","2025-07-23T08:59:42.261Z","","","","","","","","","","","MotivationQ","","50","","","","","","","","","","","","","","","","","","","","","","","","","","","","",""
"","","","","ctl-task-cpt","49","538173","0.0-5.0-0.8","200","1","2025-07-23 08:51:29","1f75c3e559b7213887762d5229550c2b","175.176.13.53","Mozilla/5.0 (Windows NT 10.0; Win64; x64) AppleWebKit/537.36 (KHTML, like Gecko) Chrome/138.0.0.0 Safari/537.36","WebKit","Chrome","138.0.0.0","Windows","10.0","https://app.prolific.com/","en-US,en;q=0.9","65f0831414fd6e9e51e08708","683db9eb0562dbf637994deb","6880a20c7933ae4c0e1ed910","2","1","65f0831414fd6e9e51e08708","2","1","2025-07-23T09:00:35.123Z","","","","","","","","","","","","","","win-only","1","g1:NE,g2:SW","0.2","9","0","492252.6","2339.1","7356","49831.1","1","4","8","6","2","-8","-11","0","6","0","2319.9","3000","-2125","[""down"",""left""]","{""num_key_presses"":12,""num_perfect"":1,""num_errors"":3,""num_randdir"":8,""num_randdir_good_moves"":4,""num_whilered"":0,""num_whileblue"":2,""num_blue"":4,""num_good_moves"":6}","[290.22232142857143,300.12857142857143,0.6,290.22232142857143,300.12857142857143,109.9,290.22232142857143,300.12857142857143,212,290.22232142857143,300.12857142857143,312.2,290.22232142857143,300.12857142857143,412.3,290.22232142857143,300.12857142857143,512.5,290.22232142857143,300.12857142857143,616.2,290.22232142857143,300.12857142857143,722.3,290.22232142857143,300.12857142857143,832.4,290.22232142857143,300.12857142857143,933.2,290.22232142857143,300.12857142857143,1034.9,290.22232142857143,300.12857142857143,1136.5,290.22232142857143,300.12857142857143,1236.8,290.22232142857143,300.12857142857143,1337.1,290.22232142857143,300.12857142857143,1442.6,290.22232142857143,300.12857142857143,1544.1,55.222321428571426,512.1285714285714,1667.9,45.222321428571426,549.1285714285714,1776.7,45.222321428571426,550.1285714285714,1878.1,53.222321428571426,546.1285714285714,1995.2,53.222321428571426,546.1285714285714,2097.3,53.222321428571426,543.1285714285714,2211.6,53.222321428571426,543.1285714285714,2315.9,53.222321428571426,543.1285714285714,2418.8,53.222321428571426,543.1285714285714,2529.2,53.222321428571426,543.1285714285714,2646.2,53.222321428571426,543.1285714285714,2747,53.222321428571426,543.1285714285714,2853.6,53.222321428571426,543.1285714285714,2958.1,53.222321428571426,543.1285714285714,3068.6,53.222321428571426,543.1285714285714,3179.6,53.222321428571426,543.1285714285714,3283.5,53.222321428571426,543.1285714285714,3384.4,53.222321428571426,543.1285714285714,3490.3,53.222321428571426,543.1285714285714,3593,53.222321428571426,543.1285714285714,3698,53.222321428571426,543.1285714285714,3815.6,53.222321428571426,543.1285714285714,3917.7,53.222321428571426,543.1285714285714,4018.6,53.222321428571426,543.1285714285714,4133.6,53.222321428571426,543.1285714285714,4244,53.222321428571426,543.1285714285714,4350.6,53.222321428571426,543.1285714285714,4452.1,53.222321428571426,543.1285714285714,4552.3,53.222321428571426,543.1285714285714,4657.5,53.222321428571426,543.1285714285714,4761.2,53.222321428571426,543.1285714285714,4864.8,53.222321428571426,543.1285714285714,4982.8]","[1528.5,1528.5,1000,0,528.5,""oops"",""down"",""left"",""good_move"",4706,3176.6,2738.4,1529.4,438.2,""oops"",""down"",""up"",""bad_move"",7121.3,2414.7,1881,4706.6,533.7,""oops"",""left"",""down"",""good_move"",10087.4,2965.4,2541,7122.1,424.3,""oops"",""left"",""up"",""bad_move"",12909,2821.3,2426.3,10087.7,395,""smooth"",""down"",""down"",""good_move"",16099.5,3189.9,2736.6,12909.6,453.3,""oops"",""down"",""up"",""bad_move"",19668.4,3568.3,3075.6,16100.1,492.7,""while_blue"",""left"",""left"",""good_move"",22162.9,2493.8,2018.9,19669.2,474.9,""oops"",""left"",""up"",""bad_move"",24647.6,2484.4,1960,22163.2,524.4,""oops"",""down"",""left"",""good_move"",27878.5,3230.2,2749.2,24648.4,480.9,""oops"",""down"",""left"",""good_move"",29812.6,1933.3,1592.4,27879.3,340.9,""while_blue"",""down"",""right"",""bad_move"",31466.2,1652.9,2600.8,29813.3,-947.9,""error"",""-"",""-"",""no_move""]","",""
"7876","","<div style=""width:500px;"">
  <p>What determined the result of this run?</p>
  </div>","2","html-slider-response","50","546051","0.0-5.0-1.8","200","1","2025-07-23 08:51:29","1f75c3e559b7213887762d5229550c2b","175.176.13.53","Mozilla/5.0 (Windows NT 10.0; Win64; x64) AppleWebKit/537.36 (KHTML, like Gecko) Chrome/138.0.0.0 Safari/537.36","WebKit","Chrome","138.0.0.0","Windows","10.0","https://app.prolific.com/","en-US,en;q=0.9","65f0831414fd6e9e51e08708","683db9eb0562dbf637994deb","6880a20c7933ae4c0e1ed910","2","1","65f0831414fd6e9e51e08708","2","1","2025-07-23T09:00:43.001Z","","","","","","","","","","","AttribQ","","50","","","","","","","","","","","","","","","","","","","","","","","","","","","","",""
"3778","","<div style=""width:500px;"">
  <p>How much control did you have over the ball?</p>
  </div>","79","html-slider-response","51","549831","0.0-5.0-2.8","200","1","2025-07-23 08:51:29","1f75c3e559b7213887762d5229550c2b","175.176.13.53","Mozilla/5.0 (Windows NT 10.0; Win64; x64) AppleWebKit/537.36 (KHTML, like Gecko) Chrome/138.0.0.0 Safari/537.36","WebKit","Chrome","138.0.0.0","Windows","10.0","https://app.prolific.com/","en-US,en;q=0.9","65f0831414fd6e9e51e08708","683db9eb0562dbf637994deb","6880a20c7933ae4c0e1ed910","2","1","65f0831414fd6e9e51e08708","2","1","2025-07-23T09:00:46.781Z","","","","","","","","","","","ControlQ","","50","","","","","","","","","","","","","","","","","","","","","","","","","","","","",""
"4191","","<div style=""width:500px;"">
  <p>How would you describe your current emotional state?</p>
  </div>","58","html-slider-response","52","554023","0.0-5.0-3.8","200","1","2025-07-23 08:51:29","1f75c3e559b7213887762d5229550c2b","175.176.13.53","Mozilla/5.0 (Windows NT 10.0; Win64; x64) AppleWebKit/537.36 (KHTML, like Gecko) Chrome/138.0.0.0 Safari/537.36","WebKit","Chrome","138.0.0.0","Windows","10.0","https://app.prolific.com/","en-US,en;q=0.9","65f0831414fd6e9e51e08708","683db9eb0562dbf637994deb","6880a20c7933ae4c0e1ed910","2","1","65f0831414fd6e9e51e08708","2","1","2025-07-23T09:00:50.973Z","","","","","","","","","","","StressQ","","50","","","","","","","","","","","","","","","","","","","","","","","","","","","","",""
"2753","","<div style=""width:500px;"">
  <p>What best describes how you currently feel?</p>
  </div>","64","html-slider-response","53","556778","0.0-5.0-4.8","200","1","2025-07-23 08:51:29","1f75c3e559b7213887762d5229550c2b","175.176.13.53","Mozilla/5.0 (Windows NT 10.0; Win64; x64) AppleWebKit/537.36 (KHTML, like Gecko) Chrome/138.0.0.0 Safari/537.36","WebKit","Chrome","138.0.0.0","Windows","10.0","https://app.prolific.com/","en-US,en;q=0.9","65f0831414fd6e9e51e08708","683db9eb0562dbf637994deb","6880a20c7933ae4c0e1ed910","2","1","65f0831414fd6e9e51e08708","2","1","2025-07-23T09:00:53.728Z","","","","","","","","","","","MotivationQ","","50","","","","","","","","","","","","","","","","","","","","","","","","","","","","",""
"","","","","ctl-task-cpt","54","590229","0.0-5.0-0.9","200","1","2025-07-23 08:51:29","1f75c3e559b7213887762d5229550c2b","175.176.13.53","Mozilla/5.0 (Windows NT 10.0; Win64; x64) AppleWebKit/537.36 (KHTML, like Gecko) Chrome/138.0.0.0 Safari/537.36","WebKit","Chrome","138.0.0.0","Windows","10.0","https://app.prolific.com/","en-US,en;q=0.9","65f0831414fd6e9e51e08708","683db9eb0562dbf637994deb","6880a20c7933ae4c0e1ed910","2","1","65f0831414fd6e9e51e08708","2","1","2025-07-23T09:01:27.179Z","","","","","","","","","","","","","","win-only","1","g1:NE,g2:SW","0.4","10","0","563719.9","10386.1","15393.1","30437.1","1","4","4","6","1","1","1","1","0","0.007575757575757576","1606.8","3000","1665","[""up"",""right""]","{""num_key_presses"":4,""num_perfect"":3,""num_errors"":0,""num_randdir"":1,""num_randdir_good_moves"":1,""num_whilered"":0,""num_whileblue"":0,""num_blue"":1,""num_good_moves"":4}","[297.22232142857143,296.12857142857143,0.7,297.22232142857143,296.12857142857143,108.6,297.22232142857143,296.12857142857143,211.2,297.22232142857143,296.12857142857143,317.3,297.22232142857143,296.12857142857143,421.1,297.22232142857143,296.12857142857143,539.3,297.22232142857143,296.12857142857143,639.7,297.22232142857143,296.12857142857143,742.8,311.22232142857143,284.12857142857143,846.5,439.22232142857143,177.12857142857143,961.5,487.22232142857143,125.12857142857143,1077.6,501.22232142857143,104.12857142857143,1177.7,524.2223214285714,80.12857142857143,1277.7,540.2223214285714,69.12857142857143,1379,540.2223214285714,75.12857142857143,1482,540.2223214285714,75.12857142857143,1582.1,540.2223214285714,75.12857142857143,1684.7,540.2223214285714,75.12857142857143,1784.7,540.2223214285714,75.12857142857143,1887.8,540.2223214285714,75.12857142857143,2001,540.2223214285714,75.12857142857143,2101.9,540.2223214285714,75.12857142857143,2202.9,540.2223214285714,75.12857142857143,2326.5,540.2223214285714,75.12857142857143,2445.5,540.2223214285714,75.12857142857143,2547.8,540.2223214285714,75.12857142857143,2663.4,540.2223214285714,75.12857142857143,2767.9,540.2223214285714,75.12857142857143,2871.3,540.2223214285714,75.12857142857143,2987.2,540.2223214285714,75.12857142857143,3102.1,540.2223214285714,75.12857142857143,3205.6,540.2223214285714,75.12857142857143,3323.9,540.2223214285714,75.12857142857143,3433.5,540.2223214285714,75.12857142857143,3534.3,540.2223214285714,75.12857142857143,3636.4,540.2223214285714,75.12857142857143,3739.6,540.2223214285714,75.12857142857143,3841.4,540.2223214285714,75.12857142857143,3943.5,540.2223214285714,75.12857142857143,4051.3,540.2223214285714,75.12857142857143,4163.5,540.2223214285714,75.12857142857143,4265,540.2223214285714,75.12857142857143,4366.2,540.2223214285714,75.12857142857143,4470.5,540.2223214285714,75.12857142857143,4575.2,540.2223214285714,75.12857142857143,4694,540.2223214285714,75.12857142857143,4812.4,540.2223214285714,75.12857142857143,4915.8]","[1554.2,1554.2,1000,0,554.2,""oops"",""up"",""up"",""good_move"",4722.5,3167.6,2660.6,1555.1,506.9,""smooth"",""right"",""right"",""good_move"",8046.1,3322.7,2810.6,4723.4,512.1,""smooth"",""right"",""right"",""good_move"",14904.5,6857.3,2396.2,11956,552.3,""smooth"",""up"",""up"",""good_move""]","",""
"2764","","<div style=""width:500px;"">
  <p>What determined the result of this run?</p>
  </div>","84","html-slider-response","55","592996","0.0-5.0-1.9","200","1","2025-07-23 08:51:29","1f75c3e559b7213887762d5229550c2b","175.176.13.53","Mozilla/5.0 (Windows NT 10.0; Win64; x64) AppleWebKit/537.36 (KHTML, like Gecko) Chrome/138.0.0.0 Safari/537.36","WebKit","Chrome","138.0.0.0","Windows","10.0","https://app.prolific.com/","en-US,en;q=0.9","65f0831414fd6e9e51e08708","683db9eb0562dbf637994deb","6880a20c7933ae4c0e1ed910","2","1","65f0831414fd6e9e51e08708","2","1","2025-07-23T09:01:29.946Z","","","","","","","","","","","AttribQ","","50","","","","","","","","","","","","","","","","","","","","","","","","","","","","",""
"4352","","<div style=""width:500px;"">
  <p>How much control did you have over the ball?</p>
  </div>","75","html-slider-response","56","597351","0.0-5.0-2.9","200","1","2025-07-23 08:51:29","1f75c3e559b7213887762d5229550c2b","175.176.13.53","Mozilla/5.0 (Windows NT 10.0; Win64; x64) AppleWebKit/537.36 (KHTML, like Gecko) Chrome/138.0.0.0 Safari/537.36","WebKit","Chrome","138.0.0.0","Windows","10.0","https://app.prolific.com/","en-US,en;q=0.9","65f0831414fd6e9e51e08708","683db9eb0562dbf637994deb","6880a20c7933ae4c0e1ed910","2","1","65f0831414fd6e9e51e08708","2","1","2025-07-23T09:01:34.301Z","","","","","","","","","","","ControlQ","","50","","","","","","","","","","","","","","","","","","","","","","","","","","","","",""
"2818","","<div style=""width:500px;"">
  <p>How would you describe your current emotional state?</p>
  </div>","79","html-slider-response","57","600171","0.0-5.0-3.9","200","1","2025-07-23 08:51:29","1f75c3e559b7213887762d5229550c2b","175.176.13.53","Mozilla/5.0 (Windows NT 10.0; Win64; x64) AppleWebKit/537.36 (KHTML, like Gecko) Chrome/138.0.0.0 Safari/537.36","WebKit","Chrome","138.0.0.0","Windows","10.0","https://app.prolific.com/","en-US,en;q=0.9","65f0831414fd6e9e51e08708","683db9eb0562dbf637994deb","6880a20c7933ae4c0e1ed910","2","1","65f0831414fd6e9e51e08708","2","1","2025-07-23T09:01:37.121Z","","","","","","","","","","","StressQ","","50","","","","","","","","","","","","","","","","","","","","","","","","","","","","",""
"3281","","<div style=""width:500px;"">
  <p>What best describes how you currently feel?</p>
  </div>","69","html-slider-response","58","603454","0.0-5.0-4.9","200","1","2025-07-23 08:51:29","1f75c3e559b7213887762d5229550c2b","175.176.13.53","Mozilla/5.0 (Windows NT 10.0; Win64; x64) AppleWebKit/537.36 (KHTML, like Gecko) Chrome/138.0.0.0 Safari/537.36","WebKit","Chrome","138.0.0.0","Windows","10.0","https://app.prolific.com/","en-US,en;q=0.9","65f0831414fd6e9e51e08708","683db9eb0562dbf637994deb","6880a20c7933ae4c0e1ed910","2","1","65f0831414fd6e9e51e08708","2","1","2025-07-23T09:01:40.404Z","","","","","","","","","","","MotivationQ","","50","","","","","","","","","","","","","","","","","","","","","","","","","","","","",""
"","","","","ctl-task-cpt","59","655115","0.0-5.0-0.10","200","1","2025-07-23 08:51:29","1f75c3e559b7213887762d5229550c2b","175.176.13.53","Mozilla/5.0 (Windows NT 10.0; Win64; x64) AppleWebKit/537.36 (KHTML, like Gecko) Chrome/138.0.0.0 Safari/537.36","WebKit","Chrome","138.0.0.0","Windows","10.0","https://app.prolific.com/","en-US,en;q=0.9","65f0831414fd6e9e51e08708","683db9eb0562dbf637994deb","6880a20c7933ae4c0e1ed910","2","1","65f0831414fd6e9e51e08708","2","1","2025-07-23T09:02:32.065Z","","","","","","","","","","","","","","win-only","2","g1:SE,g2:NW","0.5","11","0","610396.5","8121.2","13133.7","48631.4","1","4","8","6","1","1","1","2","1","0.015151515151515152","2065.2","3000","1265","[""down"",""right""]","{""num_key_presses"":10,""num_perfect"":5,""num_errors"":0,""num_randdir"":5,""num_randdir_good_moves"":2,""num_whilered"":0,""num_whileblue"":0,""num_blue"":1,""num_good_moves"":7}","[297.22232142857143,295.12857142857143,0.6,297.22232142857143,295.12857142857143,101.1,297.22232142857143,295.12857142857143,215.1,297.22232142857143,295.12857142857143,321.3,297.22232142857143,295.12857142857143,421.3,297.22232142857143,295.12857142857143,529.7,297.22232142857143,295.12857142857143,631.8,297.22232142857143,295.12857142857143,732.2,334.22232142857143,305.12857142857143,838.6,388.22232142857143,369.12857142857143,952.7,426.22232142857143,421.12857142857143,1057,448.22232142857143,446.12857142857143,1168.6,459.22232142857143,480.12857142857143,1277.5,459.22232142857143,480.12857142857143,1394.4,459.22232142857143,480.12857142857143,1497.8,459.22232142857143,480.12857142857143,1602.7,517.2223214285714,517.1285714285714,1714.1,518.2223214285714,530.1285714285714,1827.5,520.2223214285714,534.1285714285714,1934.4,520.2223214285714,534.1285714285714,2040.5,520.2223214285714,534.1285714285714,2144,520.2223214285714,534.1285714285714,2253.4,520.2223214285714,534.1285714285714,2361,520.2223214285714,534.1285714285714,2466.6,520.2223214285714,534.1285714285714,2571.8,520.2223214285714,534.1285714285714,2685.5,520.2223214285714,534.1285714285714,2803.8,520.2223214285714,534.1285714285714,2913,520.2223214285714,534.1285714285714,3023.4,520.2223214285714,534.1285714285714,3137,520.2223214285714,534.1285714285714,3239.6,520.2223214285714,534.1285714285714,3344.5,520.2223214285714,534.1285714285714,3449.8,520.2223214285714,534.1285714285714,3556.6,520.2223214285714,534.1285714285714,3667.7,520.2223214285714,534.1285714285714,3773.9,520.2223214285714,534.1285714285714,3881.2,520.2223214285714,534.1285714285714,3985.7,520.2223214285714,534.1285714285714,4096.9,520.2223214285714,534.1285714285714,4202.3,520.2223214285714,534.1285714285714,4311.9,520.2223214285714,534.1285714285714,4419.2,520.2223214285714,534.1285714285714,4522.6,520.2223214285714,534.1285714285714,4626.7,520.2223214285714,534.1285714285714,4744.7,520.2223214285714,534.1285714285714,4853.7,520.2223214285714,534.1285714285714,4961.6]","[1479.8,1479.8,1000,0,479.8,""oops"",""right"",""down"",""good_move"",4376.2,2895.9,2406.2,1480.3,489.7,""oops"",""down"",""right"",""good_move"",7464.7,3087.9,2561.8,4376.8,526.1,""oops"",""right"",""up"",""bad_move"",11823.6,4358.4,2578.9,7465.2,1779.5,""smooth"",""down"",""down"",""good_move"",14717.2,2893.2,2378.3,11824,514.9,""oops"",""right"",""up"",""bad_move"",19325.7,4608.2,3244.1,14717.5,1364.1,""smooth"",""down"",""down"",""good_move"",22476.2,3150.3,2706.1,19325.9,444.2,""oops"",""down"",""up"",""bad_move"",25267.1,2790.1,2259.5,22477,530.6,""smooth"",""right"",""right"",""good_move"",28371.2,3103.3,2577,25267.9,526.3,""smooth"",""down"",""down"",""good_move"",35333,6961,2578.3,32201.3,553.4,""smooth"",""down"",""down"",""good_move""]","",""
"3665","","<div style=""width:500px;"">
  <p>What determined the result of this run?</p>
  </div>","77","html-slider-response","60","658781","0.0-5.0-1.10","200","1","2025-07-23 08:51:29","1f75c3e559b7213887762d5229550c2b","175.176.13.53","Mozilla/5.0 (Windows NT 10.0; Win64; x64) AppleWebKit/537.36 (KHTML, like Gecko) Chrome/138.0.0.0 Safari/537.36","WebKit","Chrome","138.0.0.0","Windows","10.0","https://app.prolific.com/","en-US,en;q=0.9","65f0831414fd6e9e51e08708","683db9eb0562dbf637994deb","6880a20c7933ae4c0e1ed910","2","1","65f0831414fd6e9e51e08708","2","1","2025-07-23T09:02:35.731Z","","","","","","","","","","","AttribQ","","50","","","","","","","","","","","","","","","","","","","","","","","","","","","","",""
"2779","","<div style=""width:500px;"">
  <p>How much control did you have over the ball?</p>
  </div>","82","html-slider-response","61","661561","0.0-5.0-2.10","200","1","2025-07-23 08:51:29","1f75c3e559b7213887762d5229550c2b","175.176.13.53","Mozilla/5.0 (Windows NT 10.0; Win64; x64) AppleWebKit/537.36 (KHTML, like Gecko) Chrome/138.0.0.0 Safari/537.36","WebKit","Chrome","138.0.0.0","Windows","10.0","https://app.prolific.com/","en-US,en;q=0.9","65f0831414fd6e9e51e08708","683db9eb0562dbf637994deb","6880a20c7933ae4c0e1ed910","2","1","65f0831414fd6e9e51e08708","2","1","2025-07-23T09:02:38.512Z","","","","","","","","","","","ControlQ","","50","","","","","","","","","","","","","","","","","","","","","","","","","","","","",""
"4730","","<div style=""width:500px;"">
  <p>How would you describe your current emotional state?</p>
  </div>","27","html-slider-response","62","666293","0.0-5.0-3.10","200","1","2025-07-23 08:51:29","1f75c3e559b7213887762d5229550c2b","175.176.13.53","Mozilla/5.0 (Windows NT 10.0; Win64; x64) AppleWebKit/537.36 (KHTML, like Gecko) Chrome/138.0.0.0 Safari/537.36","WebKit","Chrome","138.0.0.0","Windows","10.0","https://app.prolific.com/","en-US,en;q=0.9","65f0831414fd6e9e51e08708","683db9eb0562dbf637994deb","6880a20c7933ae4c0e1ed910","2","1","65f0831414fd6e9e51e08708","2","1","2025-07-23T09:02:43.243Z","","","","","","","","","","","StressQ","","50","","","","","","","","","","","","","","","","","","","","","","","","","","","","",""
"2665","","<div style=""width:500px;"">
  <p>What best describes how you currently feel?</p>
  </div>","70","html-slider-response","63","668960","0.0-5.0-4.10","200","1","2025-07-23 08:51:29","1f75c3e559b7213887762d5229550c2b","175.176.13.53","Mozilla/5.0 (Windows NT 10.0; Win64; x64) AppleWebKit/537.36 (KHTML, like Gecko) Chrome/138.0.0.0 Safari/537.36","WebKit","Chrome","138.0.0.0","Windows","10.0","https://app.prolific.com/","en-US,en;q=0.9","65f0831414fd6e9e51e08708","683db9eb0562dbf637994deb","6880a20c7933ae4c0e1ed910","2","1","65f0831414fd6e9e51e08708","2","1","2025-07-23T09:02:45.910Z","","","","","","","","","","","MotivationQ","","50","","","","","","","","","","","","","","","","","","","","","","","","","","","","",""
"","","","","ctl-task-cpt","64","711566","0.0-5.0-0.11","200","1","2025-07-23 08:51:29","1f75c3e559b7213887762d5229550c2b","175.176.13.53","Mozilla/5.0 (Windows NT 10.0; Win64; x64) AppleWebKit/537.36 (KHTML, like Gecko) Chrome/138.0.0.0 Safari/537.36","WebKit","Chrome","138.0.0.0","Windows","10.0","https://app.prolific.com/","en-US,en;q=0.9","65f0831414fd6e9e51e08708","683db9eb0562dbf637994deb","6880a20c7933ae4c0e1ed910","2","1","65f0831414fd6e9e51e08708","2","1","2025-07-23T09:03:28.516Z","","","","","","","","","","","","","","win-only","1","g1:NE,g2:SW","0.6","12","0","675901.8","10518.2","15523.7","39583.1","1","4","4","6","1","1","1","3","2","0.022727272727272728","2043.2","3000","1190","[""up"",""right""]","{""num_key_presses"":6,""num_perfect"":4,""num_errors"":0,""num_randdir"":2,""num_randdir_good_moves"":1,""num_whilered"":0,""num_whileblue"":0,""num_blue"":2,""num_good_moves"":5}","[297.22232142857143,297.12857142857143,0.4,297.22232142857143,297.12857142857143,100.9,297.22232142857143,297.12857142857143,216.1,297.22232142857143,297.12857142857143,318.8,297.22232142857143,297.12857142857143,418.8,297.22232142857143,297.12857142857143,519.3,297.22232142857143,297.12857142857143,623,297.22232142857143,297.12857142857143,752.3,297.22232142857143,297.12857142857143,853.2,297.22232142857143,297.12857142857143,953.6,297.22232142857143,297.12857142857143,1058.8,297.22232142857143,297.12857142857143,1164.9,297.22232142857143,297.12857142857143,1275.9,297.22232142857143,297.12857142857143,1387,297.22232142857143,297.12857142857143,1502,574.2223214285714,62.128571428571426,1603,593.2223214285714,30.128571428571426,1704.2,591.2223214285714,28.128571428571426,1818.8,588.2223214285714,36.128571428571426,1923.4,588.2223214285714,36.128571428571426,2025.7,588.2223214285714,36.128571428571426,2130.8,588.2223214285714,36.128571428571426,2234.4,588.2223214285714,36.128571428571426,2335.2,588.2223214285714,36.128571428571426,2440,588.2223214285714,36.128571428571426,2542.2,588.2223214285714,36.128571428571426,2645.9,588.2223214285714,36.128571428571426,2767.4,588.2223214285714,36.128571428571426,2869.8,588.2223214285714,36.128571428571426,2972.6,588.2223214285714,36.128571428571426,3083.1,588.2223214285714,36.128571428571426,3189.6,588.2223214285714,36.128571428571426,3292.9,588.2223214285714,36.128571428571426,3405.4,588.2223214285714,36.128571428571426,3508.4,588.2223214285714,36.128571428571426,3608.6,588.2223214285714,36.128571428571426,3709.6,588.2223214285714,36.128571428571426,3822.4,588.2223214285714,36.128571428571426,3924.7,588.2223214285714,36.128571428571426,4030.4,588.2223214285714,36.128571428571426,4131.1,588.2223214285714,36.128571428571426,4233.1,588.2223214285714,36.128571428571426,4339.4,588.2223214285714,36.128571428571426,4443.3,588.2223214285714,36.128571428571426,4571.6,588.2223214285714,36.128571428571426,4674.6,588.2223214285714,36.128571428571426,4780.4,588.2223214285714,36.128571428571426,4897.1,588.2223214285714,36.128571428571426,4998.5]","[1594.7,1594.8,1000,0,594.8,""oops"",""up"",""up"",""good_move"",4569.9,2974.5,2419.4,1595.5,555.1,""smooth"",""up"",""up"",""good_move"",10579.8,6009.1,2144.4,7817.6,617.8,""smooth"",""right"",""right"",""good_move"",17893,7312.5,2901.7,14414.3,577,""oops"",""right"",""down"",""bad_move"",20786.9,2893.2,2373.5,17893.7,519.7,""smooth"",""up"",""up"",""good_move"",23903.4,3115.9,2660.9,20787.5,455,""smooth"",""right"",""right"",""good_move""]","",""
"3027","","<div style=""width:500px;"">
  <p>What determined the result of this run?</p>
  </div>","78","html-slider-response","65","714594","0.0-5.0-1.11","200","1","2025-07-23 08:51:29","1f75c3e559b7213887762d5229550c2b","175.176.13.53","Mozilla/5.0 (Windows NT 10.0; Win64; x64) AppleWebKit/537.36 (KHTML, like Gecko) Chrome/138.0.0.0 Safari/537.36","WebKit","Chrome","138.0.0.0","Windows","10.0","https://app.prolific.com/","en-US,en;q=0.9","65f0831414fd6e9e51e08708","683db9eb0562dbf637994deb","6880a20c7933ae4c0e1ed910","2","1","65f0831414fd6e9e51e08708","2","1","2025-07-23T09:03:31.544Z","","","","","","","","","","","AttribQ","","50","","","","","","","","","","","","","","","","","","","","","","","","","","","","",""
"4444","","<div style=""width:500px;"">
  <p>How much control did you have over the ball?</p>
  </div>","74","html-slider-response","66","719041","0.0-5.0-2.11","200","1","2025-07-23 08:51:29","1f75c3e559b7213887762d5229550c2b","175.176.13.53","Mozilla/5.0 (Windows NT 10.0; Win64; x64) AppleWebKit/537.36 (KHTML, like Gecko) Chrome/138.0.0.0 Safari/537.36","WebKit","Chrome","138.0.0.0","Windows","10.0","https://app.prolific.com/","en-US,en;q=0.9","65f0831414fd6e9e51e08708","683db9eb0562dbf637994deb","6880a20c7933ae4c0e1ed910","2","1","65f0831414fd6e9e51e08708","2","1","2025-07-23T09:03:35.991Z","","","","","","","","","","","ControlQ","","50","","","","","","","","","","","","","","","","","","","","","","","","","","","","",""
"3054","","<div style=""width:500px;"">
  <p>How would you describe your current emotional state?</p>
  </div>","26","html-slider-response","67","722097","0.0-5.0-3.11","200","1","2025-07-23 08:51:29","1f75c3e559b7213887762d5229550c2b","175.176.13.53","Mozilla/5.0 (Windows NT 10.0; Win64; x64) AppleWebKit/537.36 (KHTML, like Gecko) Chrome/138.0.0.0 Safari/537.36","WebKit","Chrome","138.0.0.0","Windows","10.0","https://app.prolific.com/","en-US,en;q=0.9","65f0831414fd6e9e51e08708","683db9eb0562dbf637994deb","6880a20c7933ae4c0e1ed910","2","1","65f0831414fd6e9e51e08708","2","1","2025-07-23T09:03:39.047Z","","","","","","","","","","","StressQ","","50","","","","","","","","","","","","","","","","","","","","","","","","","","","","",""
"2691","","<div style=""width:500px;"">
  <p>What best describes how you currently feel?</p>
  </div>","72","html-slider-response","68","724791","0.0-5.0-4.11","200","1","2025-07-23 08:51:29","1f75c3e559b7213887762d5229550c2b","175.176.13.53","Mozilla/5.0 (Windows NT 10.0; Win64; x64) AppleWebKit/537.36 (KHTML, like Gecko) Chrome/138.0.0.0 Safari/537.36","WebKit","Chrome","138.0.0.0","Windows","10.0","https://app.prolific.com/","en-US,en;q=0.9","65f0831414fd6e9e51e08708","683db9eb0562dbf637994deb","6880a20c7933ae4c0e1ed910","2","1","65f0831414fd6e9e51e08708","2","1","2025-07-23T09:03:41.741Z","","","","","","","","","","","MotivationQ","","50","","","","","","","","","","","","","","","","","","","","","","","","","","","","",""
"","","","","ctl-task-cpt","69","749270","0.0-5.0-0.12","200","1","2025-07-23 08:51:29","1f75c3e559b7213887762d5229550c2b","175.176.13.53","Mozilla/5.0 (Windows NT 10.0; Win64; x64) AppleWebKit/537.36 (KHTML, like Gecko) Chrome/138.0.0.0 Safari/537.36","WebKit","Chrome","138.0.0.0","Windows","10.0","https://app.prolific.com/","en-US,en;q=0.9","65f0831414fd6e9e51e08708","683db9eb0562dbf637994deb","6880a20c7933ae4c0e1ed910","2","1","65f0831414fd6e9e51e08708","2","1","2025-07-23T09:04:06.221Z","","","","","","","","","","","","","","win-only","1","g1:NE,g2:SW","0.7","13","0","731733.1","1441.5","6452.5","21452.8","1","4","4","6","1","-1","-1","2","3","0.015151515151515152","1634.5","3000","-1470","[""up"",""right""]","{""num_key_presses"":2,""num_perfect"":1,""num_errors"":0,""num_randdir"":1,""num_randdir_good_moves"":1,""num_whilered"":0,""num_whileblue"":0,""num_blue"":1,""num_good_moves"":2}","[292.22232142857143,293.12857142857143,0.6,292.22232142857143,293.12857142857143,112.1,292.22232142857143,293.12857142857143,219.3,292.22232142857143,293.12857142857143,325.5,292.22232142857143,293.12857142857143,437.3,292.22232142857143,293.12857142857143,538,292.22232142857143,293.12857142857143,639.7,292.22232142857143,293.12857142857143,756,292.22232142857143,293.12857142857143,874.8,388.22232142857143,174.12857142857143,994.1,441.22232142857143,119.12857142857143,1096.8,463.22232142857143,93.12857142857143,1208.1,529.2223214285714,60.128571428571426,1316,546.2223214285714,48.128571428571426,1422.4,546.2223214285714,48.128571428571426,1526.2,546.2223214285714,48.128571428571426,1650.2,546.2223214285714,48.128571428571426,1755.1,546.2223214285714,48.128571428571426,1860.3,546.2223214285714,48.128571428571426,1963.9,546.2223214285714,48.128571428571426,2068.1,546.2223214285714,48.128571428571426,2175.4,546.2223214285714,48.128571428571426,2276.6,546.2223214285714,48.128571428571426,2383,546.2223214285714,48.128571428571426,2491.6,546.2223214285714,48.128571428571426,2593.3,546.2223214285714,48.128571428571426,2698.2,546.2223214285714,48.128571428571426,2809.5,546.2223214285714,48.128571428571426,2914,546.2223214285714,48.128571428571426,3019.2,546.2223214285714,48.128571428571426,3129.9,546.2223214285714,48.128571428571426,3234.6,546.2223214285714,48.128571428571426,3338.5,546.2223214285714,48.128571428571426,3446.1,546.2223214285714,48.128571428571426,3555.6,546.2223214285714,48.128571428571426,3662.1,546.2223214285714,48.128571428571426,3775.2,546.2223214285714,48.128571428571426,3878.5,546.2223214285714,48.128571428571426,3984.7,546.2223214285714,48.128571428571426,4091.6,546.2223214285714,48.128571428571426,4192.3,546.2223214285714,48.128571428571426,4297,546.2223214285714,48.128571428571426,4398.3,546.2223214285714,48.128571428571426,4502.1,546.2223214285714,48.128571428571426,4602.2,546.2223214285714,48.128571428571426,4707.4,546.2223214285714,48.128571428571426,4810.7,546.2223214285714,48.128571428571426,4912.4]","[3050.9,3050.9,1000,0,2050.9,""oops"",""up"",""right"",""good_move"",9819.6,6768,3245.9,6017.1,556.6,""smooth"",""right"",""right"",""good_move""]","",""
"3899","","<div style=""width:500px;"">
  <p>What determined the result of this run?</p>
  </div>","91","html-slider-response","70","753171","0.0-5.0-1.12","200","1","2025-07-23 08:51:29","1f75c3e559b7213887762d5229550c2b","175.176.13.53","Mozilla/5.0 (Windows NT 10.0; Win64; x64) AppleWebKit/537.36 (KHTML, like Gecko) Chrome/138.0.0.0 Safari/537.36","WebKit","Chrome","138.0.0.0","Windows","10.0","https://app.prolific.com/","en-US,en;q=0.9","65f0831414fd6e9e51e08708","683db9eb0562dbf637994deb","6880a20c7933ae4c0e1ed910","2","1","65f0831414fd6e9e51e08708","2","1","2025-07-23T09:04:10.122Z","","","","","","","","","","","AttribQ","","50","","","","","","","","","","","","","","","","","","","","","","","","","","","","",""
"3174","","<div style=""width:500px;"">
  <p>How much control did you have over the ball?</p>
  </div>","27","html-slider-response","71","756347","0.0-5.0-2.12","200","1","2025-07-23 08:51:29","1f75c3e559b7213887762d5229550c2b","175.176.13.53","Mozilla/5.0 (Windows NT 10.0; Win64; x64) AppleWebKit/537.36 (KHTML, like Gecko) Chrome/138.0.0.0 Safari/537.36","WebKit","Chrome","138.0.0.0","Windows","10.0","https://app.prolific.com/","en-US,en;q=0.9","65f0831414fd6e9e51e08708","683db9eb0562dbf637994deb","6880a20c7933ae4c0e1ed910","2","1","65f0831414fd6e9e51e08708","2","1","2025-07-23T09:04:13.297Z","","","","","","","","","","","ControlQ","","50","","","","","","","","","","","","","","","","","","","","","","","","","","","","",""
"3005","","<div style=""width:500px;"">
  <p>How would you describe your current emotional state?</p>
  </div>","58","html-slider-response","72","759354","0.0-5.0-3.12","200","1","2025-07-23 08:51:29","1f75c3e559b7213887762d5229550c2b","175.176.13.53","Mozilla/5.0 (Windows NT 10.0; Win64; x64) AppleWebKit/537.36 (KHTML, like Gecko) Chrome/138.0.0.0 Safari/537.36","WebKit","Chrome","138.0.0.0","Windows","10.0","https://app.prolific.com/","en-US,en;q=0.9","65f0831414fd6e9e51e08708","683db9eb0562dbf637994deb","6880a20c7933ae4c0e1ed910","2","1","65f0831414fd6e9e51e08708","2","1","2025-07-23T09:04:16.304Z","","","","","","","","","","","StressQ","","50","","","","","","","","","","","","","","","","","","","","","","","","","","","","",""
"2608","","<div style=""width:500px;"">
  <p>What best describes how you currently feel?</p>
  </div>","68","html-slider-response","73","761964","0.0-5.0-4.12","200","1","2025-07-23 08:51:29","1f75c3e559b7213887762d5229550c2b","175.176.13.53","Mozilla/5.0 (Windows NT 10.0; Win64; x64) AppleWebKit/537.36 (KHTML, like Gecko) Chrome/138.0.0.0 Safari/537.36","WebKit","Chrome","138.0.0.0","Windows","10.0","https://app.prolific.com/","en-US,en;q=0.9","65f0831414fd6e9e51e08708","683db9eb0562dbf637994deb","6880a20c7933ae4c0e1ed910","2","1","65f0831414fd6e9e51e08708","2","1","2025-07-23T09:04:18.914Z","","","","","","","","","","","MotivationQ","","50","","","","","","","","","","","","","","","","","","","","","","","","","","","","",""
"","","","","ctl-task-cpt","74","792795","0.0-5.0-0.13","200","1","2025-07-23 08:51:29","1f75c3e559b7213887762d5229550c2b","175.176.13.53","Mozilla/5.0 (Windows NT 10.0; Win64; x64) AppleWebKit/537.36 (KHTML, like Gecko) Chrome/138.0.0.0 Safari/537.36","WebKit","Chrome","138.0.0.0","Windows","10.0","https://app.prolific.com/","en-US,en;q=0.9","65f0831414fd6e9e51e08708","683db9eb0562dbf637994deb","6880a20c7933ae4c0e1ed910","2","1","65f0831414fd6e9e51e08708","2","1","2025-07-23T09:04:49.745Z","","","","","","","","","","","","","","win-only","0","g1:NW,g2:SE","0.8","14","0","768905.5","10662.8","15672.1","27803.8","1","4","8","6","1","1","1","3","2","0.022727272727272728","1270.6","3000","2340","[""left"",""up""]","{""num_key_presses"":4,""num_perfect"":4,""num_errors"":0,""num_randdir"":0,""num_randdir_good_moves"":0,""num_whilered"":0,""num_whileblue"":0,""num_blue"":0,""num_good_moves"":4}","[293.22232142857143,295.12857142857143,0.3,293.22232142857143,295.12857142857143,101.6,293.22232142857143,295.12857142857143,204.9,293.22232142857143,295.12857142857143,311.4,293.22232142857143,295.12857142857143,417.2,293.22232142857143,295.12857142857143,518.5,293.22232142857143,295.12857142857143,620.9,226.22232142857143,218.12857142857143,729.2,112.22232142857143,106.12857142857143,848.9,63.222321428571426,73.12857142857143,950,56.222321428571426,54.128571428571426,1050.5,56.222321428571426,54.128571428571426,1157.2,56.222321428571426,54.128571428571426,1259,56.222321428571426,54.128571428571426,1363.6,56.222321428571426,54.128571428571426,1478.3,56.222321428571426,54.128571428571426,1580.4,56.222321428571426,54.128571428571426,1681.6,56.222321428571426,54.128571428571426,1787,56.222321428571426,54.128571428571426,1894.1,56.222321428571426,54.128571428571426,2003.1,56.222321428571426,54.128571428571426,2105.4,56.222321428571426,54.128571428571426,2211,56.222321428571426,54.128571428571426,2321.2,56.222321428571426,54.128571428571426,2429.2,56.222321428571426,54.128571428571426,2531.4,56.222321428571426,54.128571428571426,2637.8,56.222321428571426,54.128571428571426,2743.4,56.222321428571426,54.128571428571426,2845.5,56.222321428571426,54.128571428571426,2946.2,56.222321428571426,54.128571428571426,3051.7,56.222321428571426,54.128571428571426,3154,56.222321428571426,54.128571428571426,3262.8,56.222321428571426,54.128571428571426,3368.2,56.222321428571426,54.128571428571426,3470.9,56.222321428571426,54.128571428571426,3584.1,56.222321428571426,54.128571428571426,3694.1,56.222321428571426,54.128571428571426,3798.1,56.222321428571426,54.128571428571426,3903.9,56.222321428571426,54.128571428571426,4006.4,56.222321428571426,54.128571428571426,4106.6,56.222321428571426,54.128571428571426,4216.8,56.222321428571426,54.128571428571426,4329.1,56.222321428571426,54.128571428571426,4436.5,56.222321428571426,54.128571428571426,4541.6,56.222321428571426,54.128571428571426,4643,56.222321428571426,54.128571428571426,4749.4,56.222321428571426,54.128571428571426,4853.1,56.222321428571426,54.128571428571426,4953.9]","[1658.3,1658.3,1000,0,658.3,""smooth"",""up"",""up"",""good_move"",5305.4,3646.4,2131.5,1659.1,1514.8,""smooth"",""up"",""up"",""good_move"",9074.6,3768.9,2808.4,5305.8,960.5,""smooth"",""left"",""left"",""good_move"",11944.5,2869.2,2352.1,9075.3,517.1,""smooth"",""left"",""left"",""good_move""]","",""
"3638","","<div style=""width:500px;"">
  <p>What determined the result of this run?</p>
  </div>","81","html-slider-response","75","796435","0.0-5.0-1.13","200","1","2025-07-23 08:51:29","1f75c3e559b7213887762d5229550c2b","175.176.13.53","Mozilla/5.0 (Windows NT 10.0; Win64; x64) AppleWebKit/537.36 (KHTML, like Gecko) Chrome/138.0.0.0 Safari/537.36","WebKit","Chrome","138.0.0.0","Windows","10.0","https://app.prolific.com/","en-US,en;q=0.9","65f0831414fd6e9e51e08708","683db9eb0562dbf637994deb","6880a20c7933ae4c0e1ed910","2","1","65f0831414fd6e9e51e08708","2","1","2025-07-23T09:04:53.385Z","","","","","","","","","","","AttribQ","","50","","","","","","","","","","","","","","","","","","","","","","","","","","","","",""
"5874","","<div style=""width:500px;"">
  <p>How much control did you have over the ball?</p>
  </div>","68","html-slider-response","76","802312","0.0-5.0-2.13","200","1","2025-07-23 08:51:29","1f75c3e559b7213887762d5229550c2b","175.176.13.53","Mozilla/5.0 (Windows NT 10.0; Win64; x64) AppleWebKit/537.36 (KHTML, like Gecko) Chrome/138.0.0.0 Safari/537.36","WebKit","Chrome","138.0.0.0","Windows","10.0","https://app.prolific.com/","en-US,en;q=0.9","65f0831414fd6e9e51e08708","683db9eb0562dbf637994deb","6880a20c7933ae4c0e1ed910","2","1","65f0831414fd6e9e51e08708","2","1","2025-07-23T09:04:59.262Z","","","","","","","","","","","ControlQ","","50","","","","","","","","","","","","","","","","","","","","","","","","","","","","",""
"3217","","<div style=""width:500px;"">
  <p>How would you describe your current emotional state?</p>
  </div>","42","html-slider-response","77","805531","0.0-5.0-3.13","200","1","2025-07-23 08:51:29","1f75c3e559b7213887762d5229550c2b","175.176.13.53","Mozilla/5.0 (Windows NT 10.0; Win64; x64) AppleWebKit/537.36 (KHTML, like Gecko) Chrome/138.0.0.0 Safari/537.36","WebKit","Chrome","138.0.0.0","Windows","10.0","https://app.prolific.com/","en-US,en;q=0.9","65f0831414fd6e9e51e08708","683db9eb0562dbf637994deb","6880a20c7933ae4c0e1ed910","2","1","65f0831414fd6e9e51e08708","2","1","2025-07-23T09:05:02.481Z","","","","","","","","","","","StressQ","","50","","","","","","","","","","","","","","","","","","","","","","","","","","","","",""
"2776","","<div style=""width:500px;"">
  <p>What best describes how you currently feel?</p>
  </div>","63","html-slider-response","78","808308","0.0-5.0-4.13","200","1","2025-07-23 08:51:29","1f75c3e559b7213887762d5229550c2b","175.176.13.53","Mozilla/5.0 (Windows NT 10.0; Win64; x64) AppleWebKit/537.36 (KHTML, like Gecko) Chrome/138.0.0.0 Safari/537.36","WebKit","Chrome","138.0.0.0","Windows","10.0","https://app.prolific.com/","en-US,en;q=0.9","65f0831414fd6e9e51e08708","683db9eb0562dbf637994deb","6880a20c7933ae4c0e1ed910","2","1","65f0831414fd6e9e51e08708","2","1","2025-07-23T09:05:05.259Z","","","","","","","","","","","MotivationQ","","50","","","","","","","","","","","","","","","","","","","","","","","","","","","","",""
