"rt","response_timestamp","stimulus","response","trial_type","trial_index","time_elapsed","internal_node_id","run_id","condition","recorded_at","source_code_version","ip","user_agent","device","browser","browser_version","platform","platform_version","referer","accept_language","PROLIFIC_PID","STUDY_ID","SESSION_ID","WEEK","BATCH","prolific_id","week","batch","realtime","success","responses","item_order","radio_event_ids","radio_event_times","key_event_times","mouse_event_times","straightlining","zigzagging","honeypot","eventType","view_history","slider_start","which_type","canvas_config","goals_layout","control_level","trial_number","tutorial_trial_number","trial_start_time","phase1_start_time","phase2_start_time","phase3_start_time","goal_1_value","goal_1_distance","goal_2_value","goal_2_distance","goal_selected","outcome","outcome_total","participant_final_score","participant_initial_score","participant_final_score_prop","goal_choice_rt","allocated_time","allocated_time_remaining","goal_direction","counts","mouse_movements","key_presses","question_order","question_id"
"8504","1752679294159","<p style='font-size:40px;line-height:1.25'><strong>Welcome to the experiment!</strong></p><p style='font-size:1.1em;line-height:1.25'>Thank you for participanting in our experiment again! You will be asked to play the Dysfunctional Ball Game again. We will briefly recap the rules before we start.</p><p style='font-size:1.1em;line-height:1.25'>Press <strong>Next</strong> to continue.</p>","0","custom-html-button-response","0","8507","0.0-0.0","117","1","2025-07-16 15:21:22","1f75c3e559b7213887762d5229550c2b","24.179.6.210","Mozilla/5.0 (Windows NT 10.0; Win64; x64) AppleWebKit/537.36 (KHTML, like Gecko) Chrome/138.0.0.0 Safari/537.36","WebKit","Chrome","138.0.0.0","Windows","10.0","https://app.prolific.com/","en-US,en;q=0.9","66f4c82536b5c8271f53564c","686e379bc37a29ffa5cdc956","6877c35d39cd42d81293ab6d","1","1","66f4c82536b5c8271f53564c","1","1","2025-07-16T15:21:34.160Z","","","","","","","","","","","","","","","","","","","","","","","","","","","","","","","","","","","","","","","","","",""
"7528","","","","fullscreen","1","17044","0.0-1.0","117","1","2025-07-16 15:21:22","1f75c3e559b7213887762d5229550c2b","24.179.6.210","Mozilla/5.0 (Windows NT 10.0; Win64; x64) AppleWebKit/537.36 (KHTML, like Gecko) Chrome/138.0.0.0 Safari/537.36","WebKit","Chrome","138.0.0.0","Windows","10.0","https://app.prolific.com/","en-US,en;q=0.9","66f4c82536b5c8271f53564c","686e379bc37a29ffa5cdc956","6877c35d39cd42d81293ab6d","1","1","66f4c82536b5c8271f53564c","1","1","","true","","","","","","","","","","","","","","","","","","","","","","","","","","","","","","","","","","","","","","","","",""
"36587","1752679339286","<p style='font-size:1.1em;line-height:1.25'>In the following, we will ask you a few questions relating to your feelings in the last 24 hours.<br></p><p style='font-size:1.1em;line-height:1.25'>Press the <strong>Next</strong> button to continue.</p>","0","custom-html-button-response","2","53633","0.0-2.0-0.0","117","1","2025-07-16 15:21:22","1f75c3e559b7213887762d5229550c2b","24.179.6.210","Mozilla/5.0 (Windows NT 10.0; Win64; x64) AppleWebKit/537.36 (KHTML, like Gecko) Chrome/138.0.0.0 Safari/537.36","WebKit","Chrome","138.0.0.0","Windows","10.0","https://app.prolific.com/","en-US,en;q=0.9","66f4c82536b5c8271f53564c","686e379bc37a29ffa5cdc956","6877c35d39cd42d81293ab6d","1","1","66f4c82536b5c8271f53564c","1","1","2025-07-16T15:22:19.286Z","","","","","","","","","","","","","","","","","","","","","","","","","","","","","","","","","","","","","","","","","",""
"85057.80000001192","","","","survey-template","3","138694","0.0-2.0-1.0","117","1","2025-07-16 15:21:22","1f75c3e559b7213887762d5229550c2b","24.179.6.210","Mozilla/5.0 (Windows NT 10.0; Win64; x64) AppleWebKit/537.36 (KHTML, like Gecko) Chrome/138.0.0.0 Safari/537.36","WebKit","Chrome","138.0.0.0","Windows","10.0","https://app.prolific.com/","en-US,en;q=0.9","66f4c82536b5c8271f53564c","686e379bc37a29ffa5cdc956","6877c35d39cd42d81293ab6d","1","1","66f4c82536b5c8271f53564c","1","1","2025-07-16T15:23:44.347Z","","{""Q01"":""4"",""Q02"":""5"",""Q03"":""4"",""Q04"":""5"",""Q05"":""0"",""Q06"":""0"",""Q07"":""5"",""Q08"":""5"",""Q09"":""3"",""Q10"":""3"",""Q11"":""3"",""Q12"":""0"",""Q13"":""5"",""Q14"":""0"",""Q15"":""1"",""Q16"":""5"",""Q17"":""5"",""Q18"":""0"",""Q19"":""0"",""Q20"":""5"",""Q21"":""5"",""Q22"":""5""}","[0,1,2,3,4,5,6,7,8,9,10,11,12,13,14,15,16,17,18,19,20,21]","[""Q01"",""Q02"",""Q03"",""Q04"",""Q05"",""Q05"",""Q06"",""Q07"",""Q08"",""Q09"",""Q10"",""Q11"",""Q12"",""Q13"",""Q14"",""Q15"",""Q16"",""Q17"",""Q18"",""Q18"",""Q19"",""Q20"",""Q21"",""Q20"",""Q21"",""Q22""]","[6480.899999976158,8895.899999976158,10931.600000023842,13245.600000023842,14643.600000023842,15614.600000023842,20121.899999976158,23417.80000001192,24165.69999998808,29055.19999998808,30793.5,31963.100000023842,33523.39999997616,35667.10000002384,40407.60000002384,45707.60000002384,47037.10000002384,54192.89999997616,56623.60000002384,57275.80000001192,64396.69999998808,69287.19999998808,75150,80592.89999997616,81763.39999997616,84243.30000001192]","[]","[0.19999998807907104,4789,6480.899999976158,7912.199999988079,8895.899999976158,10931.600000023842,11969.800000011921,13245.600000023842,14643.600000023842,15614.600000023842,16493.100000023842,18472.69999998808,19331.899999976158,20121.899999976158,21243.5,22683.399999976158,23417.80000001192,24165.69999998808,27093.80000001192,28406.69999998808,28525.69999998808,29055.19999998808,29927.69999998808,30793.5,31963.100000023842,33523.39999997616,35011.89999997616,35667.10000002384,40407.60000002384,43893.30000001192,44752,45707.60000002384,47037.10000002384,51753.5,52868.10000002384,54192.89999997616,55748.30000001192,56623.60000002384,57275.80000001192,64396.69999998808,67146.80000001192,67866.10000002384,69287.19999998808,75150,79858.19999998808,80592.89999997616,81763.39999997616,83537.19999998808,84243.30000001192,85054.39999997616]","0.45454545454545453","0.47619047619047616","0","drsp","","","","","","","","","","","","","","","","","","","","","","","","","","","","","","",""
"19374.30000001192","","","","survey-template","4","158070","0.0-2.0-2.0","117","1","2025-07-16 15:21:22","1f75c3e559b7213887762d5229550c2b","24.179.6.210","Mozilla/5.0 (Windows NT 10.0; Win64; x64) AppleWebKit/537.36 (KHTML, like Gecko) Chrome/138.0.0.0 Safari/537.36","WebKit","Chrome","138.0.0.0","Windows","10.0","https://app.prolific.com/","en-US,en;q=0.9","66f4c82536b5c8271f53564c","686e379bc37a29ffa5cdc956","6877c35d39cd42d81293ab6d","1","1","66f4c82536b5c8271f53564c","1","1","2025-07-16T15:24:03.723Z","","{""Q01"":""5"",""Q02"":""5"",""Q03"":""5""}","[0,1,2]","[""Q01"",""Q02"",""Q03""]","[11860.5,15546.800000011921,18245.200000047684]","[]","[1045.300000011921,11860.5,15546.800000011921,18245.200000047684,19373.600000023842]","0.6666666666666666","1","0","stress","","","","","","","","","","","","","","","","","","","","","","","","","","","","","","",""
"134696","","","","instructions","5","292767","0.0-3.0-0.0","117","1","2025-07-16 15:21:22","1f75c3e559b7213887762d5229550c2b","24.179.6.210","Mozilla/5.0 (Windows NT 10.0; Win64; x64) AppleWebKit/537.36 (KHTML, like Gecko) Chrome/138.0.0.0 Safari/537.36","WebKit","Chrome","138.0.0.0","Windows","10.0","https://app.prolific.com/","en-US,en;q=0.9","66f4c82536b5c8271f53564c","686e379bc37a29ffa5cdc956","6877c35d39cd42d81293ab6d","1","1","66f4c82536b5c8271f53564c","1","1","","","","","","","","","","","","","[{""page_index"":0,""viewing_time"":134696}]","","","","","","","","","","","","","","","","","","","","","","","","","","","","","",""
"25992","","<p>Before you start with this game please answer the following three questions yourself. </p>
  <p>Through this game, we measure several aspects of your cognitive performance, such as reaction times, multi-tasking capabilities </p>
  <p>and the ability to assess the situation you are in.</p>
  <p></p>
  <p><b>How good do you usually are in such tasks?</b></p>","17","html-slider-response","6","318760","0.0-4.0-0.0","117","1","2025-07-16 15:21:22","1f75c3e559b7213887762d5229550c2b","24.179.6.210","Mozilla/5.0 (Windows NT 10.0; Win64; x64) AppleWebKit/537.36 (KHTML, like Gecko) Chrome/138.0.0.0 Safari/537.36","WebKit","Chrome","138.0.0.0","Windows","10.0","https://app.prolific.com/","en-US,en;q=0.9","66f4c82536b5c8271f53564c","686e379bc37a29ffa5cdc956","6877c35d39cd42d81293ab6d","1","1","66f4c82536b5c8271f53564c","1","1","2025-07-16T15:26:44.413Z","","","","","","","","","","","PreSkillQ","","50","","","","","","","","","","","","","","","","","","","","","","","","","","","","",""
"51340","","<div style=""width:500px;"">
  <p>How well do you think you will perform in this task compared to other participants?</p>
  </div>","0","html-slider-response","7","370102","0.0-4.0-1.0","117","1","2025-07-16 15:21:22","1f75c3e559b7213887762d5229550c2b","24.179.6.210","Mozilla/5.0 (Windows NT 10.0; Win64; x64) AppleWebKit/537.36 (KHTML, like Gecko) Chrome/138.0.0.0 Safari/537.36","WebKit","Chrome","138.0.0.0","Windows","10.0","https://app.prolific.com/","en-US,en;q=0.9","66f4c82536b5c8271f53564c","686e379bc37a29ffa5cdc956","6877c35d39cd42d81293ab6d","1","1","66f4c82536b5c8271f53564c","1","1","2025-07-16T15:27:35.755Z","","","","","","","","","","","PrePerfQ","","50","","","","","","","","","","","","","","","","","","","","","","","","","","","","",""
"4353","","<div style=""width:500px;"">
  <p>What best describes how you currently feel?</p>
  </div>","23","html-slider-response","8","374455","0.0-4.0-2.0","117","1","2025-07-16 15:21:22","1f75c3e559b7213887762d5229550c2b","24.179.6.210","Mozilla/5.0 (Windows NT 10.0; Win64; x64) AppleWebKit/537.36 (KHTML, like Gecko) Chrome/138.0.0.0 Safari/537.36","WebKit","Chrome","138.0.0.0","Windows","10.0","https://app.prolific.com/","en-US,en;q=0.9","66f4c82536b5c8271f53564c","686e379bc37a29ffa5cdc956","6877c35d39cd42d81293ab6d","1","1","66f4c82536b5c8271f53564c","1","1","2025-07-16T15:27:40.108Z","","","","","","","","","","","PreMotivationQ","","50","","","","","","","","","","","","","","","","","","","","","","","","","","","","",""
"","","","","ctl-task-cpt","9","400851","0.0-5.0-0.0","117","1","2025-07-16 15:21:22","1f75c3e559b7213887762d5229550c2b","24.179.6.210","Mozilla/5.0 (Windows NT 10.0; Win64; x64) AppleWebKit/537.36 (KHTML, like Gecko) Chrome/138.0.0.0 Safari/537.36","WebKit","Chrome","138.0.0.0","Windows","10.0","https://app.prolific.com/","en-US,en;q=0.9","66f4c82536b5c8271f53564c","686e379bc37a29ffa5cdc956","6877c35d39cd42d81293ab6d","1","1","66f4c82536b5c8271f53564c","1","1","2025-07-16T15:28:06.504Z","","","","","","","","","","","","","","win-only","2","g1:SE,g2:NW","1","1","0","378854","1941.2","6942.9","23387.1","1","4","8","6","1","1","0","0","0","0","1351.2","3000","1540","[""down"",""right""]","{""num_key_presses"":5,""num_perfect"":4,""num_errors"":1,""num_randdir"":0,""num_randdir_good_moves"":0,""num_whilered"":0,""num_whileblue"":0,""num_blue"":1,""num_good_moves"":4}","[456.8571428571429,461.7633928571429,0.3,456.8571428571429,461.7633928571429,103.1,456.8571428571429,461.7633928571429,204.8,456.8571428571429,461.7633928571429,305.5,456.8571428571429,461.7633928571429,411.7,456.8571428571429,461.7633928571429,514.3,456.8571428571429,461.7633928571429,619.4,624.8571428571429,606.7633928571429,719.5,862.8571428571429,787.7633928571429,825.2,843.8571428571429,779.7633928571429,930.3,839.8571428571429,777.7633928571429,1038.6,839.8571428571429,777.7633928571429,1140.6,839.8571428571429,777.7633928571429,1246.1,839.8571428571429,777.7633928571429,1362.5,839.8571428571429,777.7633928571429,1465,839.8571428571429,777.7633928571429,1571.8,839.8571428571429,777.7633928571429,1674.2,839.8571428571429,777.7633928571429,1777.7,839.8571428571429,777.7633928571429,1878.1,839.8571428571429,777.7633928571429,1979.3,839.8571428571429,777.7633928571429,2088.8,839.8571428571429,777.7633928571429,2194.4,839.8571428571429,777.7633928571429,2304,839.8571428571429,777.7633928571429,2412.3,839.8571428571429,777.7633928571429,2513.2,839.8571428571429,777.7633928571429,2613.5,839.8571428571429,777.7633928571429,2721.5,839.8571428571429,777.7633928571429,2827.6,839.8571428571429,777.7633928571429,2929.8,839.8571428571429,777.7633928571429,3040.4,839.8571428571429,777.7633928571429,3145.7,839.8571428571429,777.7633928571429,3252.8,839.8571428571429,777.7633928571429,3354.6,839.8571428571429,777.7633928571429,3455.4,839.8571428571429,777.7633928571429,3562.7,839.8571428571429,777.7633928571429,3670.6,839.8571428571429,777.7633928571429,3770.9,839.8571428571429,777.7633928571429,3871.2,839.8571428571429,777.7633928571429,3979.2,839.8571428571429,777.7633928571429,4087.5,839.8571428571429,777.7633928571429,4194.2,839.8571428571429,777.7633928571429,4297.5,839.8571428571429,777.7633928571429,4406.6,839.8571428571429,777.7633928571429,4513.2,839.8571428571429,777.7633928571429,4623.5,839.8571428571429,777.7633928571429,4729.7,839.8571428571429,777.7633928571429,4831.1,839.8571428571429,777.7633928571429,4931.3]","[243.4,243.4,1000,0.1,-756.7,""error"",""-"",""-"",""no_move"",4301.1,4057.4,2667.4,1252.9,380.8,""smooth"",""right"",""right"",""good_move"",7837.9,3536.3,2378.2,4301.6,1158.1,""smooth"",""right"",""right"",""good_move"",10237.9,2399.8,2086.7,7838.1,313.1,""smooth"",""down"",""down"",""good_move"",16314.2,6076,2314.5,13694.3,305.4,""smooth"",""down"",""down"",""good_move""]","",""
"3630","","<div style=""width:500px;"">
  <p>What determined the result of this run?</p>
  </div>","100","html-slider-response","10","404482","0.0-5.0-1.0","117","1","2025-07-16 15:21:22","1f75c3e559b7213887762d5229550c2b","24.179.6.210","Mozilla/5.0 (Windows NT 10.0; Win64; x64) AppleWebKit/537.36 (KHTML, like Gecko) Chrome/138.0.0.0 Safari/537.36","WebKit","Chrome","138.0.0.0","Windows","10.0","https://app.prolific.com/","en-US,en;q=0.9","66f4c82536b5c8271f53564c","686e379bc37a29ffa5cdc956","6877c35d39cd42d81293ab6d","1","1","66f4c82536b5c8271f53564c","1","1","2025-07-16T15:28:10.135Z","","","","","","","","","","","AttribQ","","50","","","","","","","","","","","","","","","","","","","","","","","","","","","","",""
"4362","","<div style=""width:500px;"">
  <p>How much control did you have over the ball?</p>
  </div>","100","html-slider-response","11","408846","0.0-5.0-2.0","117","1","2025-07-16 15:21:22","1f75c3e559b7213887762d5229550c2b","24.179.6.210","Mozilla/5.0 (Windows NT 10.0; Win64; x64) AppleWebKit/537.36 (KHTML, like Gecko) Chrome/138.0.0.0 Safari/537.36","WebKit","Chrome","138.0.0.0","Windows","10.0","https://app.prolific.com/","en-US,en;q=0.9","66f4c82536b5c8271f53564c","686e379bc37a29ffa5cdc956","6877c35d39cd42d81293ab6d","1","1","66f4c82536b5c8271f53564c","1","1","2025-07-16T15:28:14.499Z","","","","","","","","","","","ControlQ","","50","","","","","","","","","","","","","","","","","","","","","","","","","","","","",""
"4633","","<div style=""width:500px;"">
  <p>How would you describe your current emotional state?</p>
  </div>","90","html-slider-response","12","413480","0.0-5.0-3.0","117","1","2025-07-16 15:21:22","1f75c3e559b7213887762d5229550c2b","24.179.6.210","Mozilla/5.0 (Windows NT 10.0; Win64; x64) AppleWebKit/537.36 (KHTML, like Gecko) Chrome/138.0.0.0 Safari/537.36","WebKit","Chrome","138.0.0.0","Windows","10.0","https://app.prolific.com/","en-US,en;q=0.9","66f4c82536b5c8271f53564c","686e379bc37a29ffa5cdc956","6877c35d39cd42d81293ab6d","1","1","66f4c82536b5c8271f53564c","1","1","2025-07-16T15:28:19.133Z","","","","","","","","","","","StressQ","","50","","","","","","","","","","","","","","","","","","","","","","","","","","","","",""
"7585","","<div style=""width:500px;"">
  <p>What best describes how you currently feel?</p>
  </div>","29","html-slider-response","13","421066","0.0-5.0-4.0","117","1","2025-07-16 15:21:22","1f75c3e559b7213887762d5229550c2b","24.179.6.210","Mozilla/5.0 (Windows NT 10.0; Win64; x64) AppleWebKit/537.36 (KHTML, like Gecko) Chrome/138.0.0.0 Safari/537.36","WebKit","Chrome","138.0.0.0","Windows","10.0","https://app.prolific.com/","en-US,en;q=0.9","66f4c82536b5c8271f53564c","686e379bc37a29ffa5cdc956","6877c35d39cd42d81293ab6d","1","1","66f4c82536b5c8271f53564c","1","1","2025-07-16T15:28:26.719Z","","","","","","","","","","","MotivationQ","","50","","","","","","","","","","","","","","","","","","","","","","","","","","","","",""
"","","","","ctl-task-cpt","14","462885","0.0-5.0-0.1","117","1","2025-07-16 15:21:22","1f75c3e559b7213887762d5229550c2b","24.179.6.210","Mozilla/5.0 (Windows NT 10.0; Win64; x64) AppleWebKit/537.36 (KHTML, like Gecko) Chrome/138.0.0.0 Safari/537.36","WebKit","Chrome","138.0.0.0","Windows","10.0","https://app.prolific.com/","en-US,en;q=0.9","66f4c82536b5c8271f53564c","686e379bc37a29ffa5cdc956","6877c35d39cd42d81293ab6d","1","1","66f4c82536b5c8271f53564c","1","1","2025-07-16T15:29:08.538Z","","","","","","","","","","","","","","win-only","3","g1:SW,g2:NE","0.9","2","0","425463.3","1948","6953.2","38816","1","4","4","6","2","4","2","2","0","0.015151515151515152","1191.3","3000","970","[""up"",""right""]","{""num_key_presses"":11,""num_perfect"":8,""num_errors"":2,""num_randdir"":1,""num_randdir_good_moves"":0,""num_whilered"":0,""num_whileblue"":1,""num_blue"":1,""num_good_moves"":8}","[466.8571428571429,462.7633928571429,0.2,466.8571428571429,462.7633928571429,104.2,466.8571428571429,462.7633928571429,205.3,466.8571428571429,462.7633928571429,312.1,466.8571428571429,462.7633928571429,412.7,466.8571428571429,462.7633928571429,513,466.8571428571429,462.7633928571429,613.7,717.8571428571429,259.7633928571429,721.9,734.8571428571429,239.76339285714286,821.9,734.8571428571429,239.76339285714286,927.9,859.8571428571429,113.76339285714286,1029.9,888.8571428571429,111.76339285714286,1133,888.8571428571429,111.76339285714286,1233.2,888.8571428571429,111.76339285714286,1345.1,888.8571428571429,111.76339285714286,1445.1,888.8571428571429,111.76339285714286,1546.5,888.8571428571429,111.76339285714286,1647.1,888.8571428571429,111.76339285714286,1747.5,888.8571428571429,111.76339285714286,1855.3,888.8571428571429,111.76339285714286,1955.7,888.8571428571429,111.76339285714286,2062.3,888.8571428571429,111.76339285714286,2163.1,888.8571428571429,111.76339285714286,2270.9,888.8571428571429,111.76339285714286,2378.9,888.8571428571429,111.76339285714286,2479.1,888.8571428571429,111.76339285714286,2579.5,888.8571428571429,111.76339285714286,2679.7,888.8571428571429,111.76339285714286,2788,888.8571428571429,111.76339285714286,2888.3,888.8571428571429,111.76339285714286,2996.4,888.8571428571429,111.76339285714286,3102.5,888.8571428571429,111.76339285714286,3203.4,888.8571428571429,111.76339285714286,3304.7,888.8571428571429,111.76339285714286,3411.6,888.8571428571429,111.76339285714286,3512.7,888.8571428571429,111.76339285714286,3613,888.8571428571429,111.76339285714286,3720.8,888.8571428571429,111.76339285714286,3829.7,888.8571428571429,111.76339285714286,3938.1,888.8571428571429,111.76339285714286,4045.9,888.8571428571429,111.76339285714286,4153.2,888.8571428571429,111.76339285714286,4259,888.8571428571429,111.76339285714286,4363.4,888.8571428571429,111.76339285714286,4469.2,888.8571428571429,111.76339285714286,4570.2,888.8571428571429,111.76339285714286,4678.4,888.8571428571429,111.76339285714286,4779.4,888.8571428571429,111.76339285714286,4879.6,888.8571428571429,111.76339285714286,4979.6]","[281.5,281.5,1000,0,-718.5,""error"",""-"",""-"",""no_move"",4313.7,4032.1,2600.6,1283,430.1,""smooth"",""up"",""up"",""good_move"",7190.3,2876.4,2498.5,4314,377.9,""smooth"",""right"",""right"",""good_move"",10003.1,2812.6,2506.5,7190.6,306.1,""smooth"",""right"",""right"",""good_move"",13096.4,3093,2801,10003.4,292,""smooth"",""right"",""right"",""good_move"",16484.4,3387.9,3087.6,13096.5,300.3,""oops"",""up"",""down"",""bad_move"",19242.4,2757.8,2487.1,16484.6,270.7,""smooth"",""up"",""up"",""good_move"",22177.4,2934.3,2657.3,19243.1,277,""while_blue"",""up"",""down"",""bad_move"",25051,2873.5,2530.4,22177.5,343.1,""smooth"",""up"",""up"",""good_move"",28831.4,3780.3,3465.1,25051.1,315.2,""smooth"",""up"",""up"",""good_move"",31759.7,2928.2,2602.3,28831.5,325.9,""smooth"",""up"",""up"",""good_move""]","",""
"4274","","<div style=""width:500px;"">
  <p>What determined the result of this run?</p>
  </div>","100","html-slider-response","15","467160","0.0-5.0-1.1","117","1","2025-07-16 15:21:22","1f75c3e559b7213887762d5229550c2b","24.179.6.210","Mozilla/5.0 (Windows NT 10.0; Win64; x64) AppleWebKit/537.36 (KHTML, like Gecko) Chrome/138.0.0.0 Safari/537.36","WebKit","Chrome","138.0.0.0","Windows","10.0","https://app.prolific.com/","en-US,en;q=0.9","66f4c82536b5c8271f53564c","686e379bc37a29ffa5cdc956","6877c35d39cd42d81293ab6d","1","1","66f4c82536b5c8271f53564c","1","1","2025-07-16T15:29:12.813Z","","","","","","","","","","","AttribQ","","50","","","","","","","","","","","","","","","","","","","","","","","","","","","","",""
"5274","","<div style=""width:500px;"">
  <p>How much control did you have over the ball?</p>
  </div>","97","html-slider-response","16","472435","0.0-5.0-2.1","117","1","2025-07-16 15:21:22","1f75c3e559b7213887762d5229550c2b","24.179.6.210","Mozilla/5.0 (Windows NT 10.0; Win64; x64) AppleWebKit/537.36 (KHTML, like Gecko) Chrome/138.0.0.0 Safari/537.36","WebKit","Chrome","138.0.0.0","Windows","10.0","https://app.prolific.com/","en-US,en;q=0.9","66f4c82536b5c8271f53564c","686e379bc37a29ffa5cdc956","6877c35d39cd42d81293ab6d","1","1","66f4c82536b5c8271f53564c","1","1","2025-07-16T15:29:18.088Z","","","","","","","","","","","ControlQ","","50","","","","","","","","","","","","","","","","","","","","","","","","","","","","",""
"5383","","<div style=""width:500px;"">
  <p>How would you describe your current emotional state?</p>
  </div>","79","html-slider-response","17","477819","0.0-5.0-3.1","117","1","2025-07-16 15:21:22","1f75c3e559b7213887762d5229550c2b","24.179.6.210","Mozilla/5.0 (Windows NT 10.0; Win64; x64) AppleWebKit/537.36 (KHTML, like Gecko) Chrome/138.0.0.0 Safari/537.36","WebKit","Chrome","138.0.0.0","Windows","10.0","https://app.prolific.com/","en-US,en;q=0.9","66f4c82536b5c8271f53564c","686e379bc37a29ffa5cdc956","6877c35d39cd42d81293ab6d","1","1","66f4c82536b5c8271f53564c","1","1","2025-07-16T15:29:23.472Z","","","","","","","","","","","StressQ","","50","","","","","","","","","","","","","","","","","","","","","","","","","","","","",""
"4881","","<div style=""width:500px;"">
  <p>What best describes how you currently feel?</p>
  </div>","19","html-slider-response","18","482701","0.0-5.0-4.1","117","1","2025-07-16 15:21:22","1f75c3e559b7213887762d5229550c2b","24.179.6.210","Mozilla/5.0 (Windows NT 10.0; Win64; x64) AppleWebKit/537.36 (KHTML, like Gecko) Chrome/138.0.0.0 Safari/537.36","WebKit","Chrome","138.0.0.0","Windows","10.0","https://app.prolific.com/","en-US,en;q=0.9","66f4c82536b5c8271f53564c","686e379bc37a29ffa5cdc956","6877c35d39cd42d81293ab6d","1","1","66f4c82536b5c8271f53564c","1","1","2025-07-16T15:29:28.354Z","","","","","","","","","","","MotivationQ","","50","","","","","","","","","","","","","","","","","","","","","","","","","","","","",""
"","","","","ctl-task-cpt","19","517994","0.0-5.0-0.2","117","1","2025-07-16 15:21:22","1f75c3e559b7213887762d5229550c2b","24.179.6.210","Mozilla/5.0 (Windows NT 10.0; Win64; x64) AppleWebKit/537.36 (KHTML, like Gecko) Chrome/138.0.0.0 Safari/537.36","WebKit","Chrome","138.0.0.0","Windows","10.0","https://app.prolific.com/","en-US,en;q=0.9","66f4c82536b5c8271f53564c","686e379bc37a29ffa5cdc956","6877c35d39cd42d81293ab6d","1","1","66f4c82536b5c8271f53564c","1","1","2025-07-16T15:30:03.647Z","","","","","","","","","","","","","","win-only","3","g1:SW,g2:NE","0.8","3","0","487099.5","1234.4","6240.1","32287.2","1","4","4","6","2","4","4","6","2","0.045454545454545456","1241.5","3000","1540","[""up"",""right""]","{""num_key_presses"":6,""num_perfect"":5,""num_errors"":0,""num_randdir"":1,""num_randdir_good_moves"":1,""num_whilered"":0,""num_whileblue"":0,""num_blue"":3,""num_good_moves"":6}","[459.8571428571429,448.7633928571429,0.3,459.8571428571429,448.7633928571429,106.3,459.8571428571429,448.7633928571429,212.4,459.8571428571429,448.7633928571429,313.2,459.8571428571429,448.7633928571429,417.8,459.8571428571429,448.7633928571429,523.2,459.8571428571429,448.7633928571429,628.6,475.8571428571429,421.7633928571429,728.9,756.8571428571429,40.76339285714286,829.3,777.8571428571429,37.76339285714286,931.2,786.8571428571429,35.76339285714286,1038.4,808.8571428571429,74.76339285714286,1139.5,808.8571428571429,74.76339285714286,1240,808.8571428571429,74.76339285714286,1342,808.8571428571429,74.76339285714286,1445.7,808.8571428571429,74.76339285714286,1553,808.8571428571429,74.76339285714286,1656.9,808.8571428571429,74.76339285714286,1757.2,808.8571428571429,74.76339285714286,1864.3,808.8571428571429,74.76339285714286,1965.1,808.8571428571429,74.76339285714286,2073.1,808.8571428571429,74.76339285714286,2173.1,808.8571428571429,74.76339285714286,2273.6,808.8571428571429,74.76339285714286,2376.5,808.8571428571429,74.76339285714286,2476.9,808.8571428571429,74.76339285714286,2583.8,808.8571428571429,74.76339285714286,2688.3,808.8571428571429,74.76339285714286,2788.8,808.8571428571429,74.76339285714286,2888.9,808.8571428571429,74.76339285714286,2990.1,808.8571428571429,74.76339285714286,3092.6,808.8571428571429,74.76339285714286,3200.9,808.8571428571429,74.76339285714286,3306.6,808.8571428571429,74.76339285714286,3407.1,808.8571428571429,74.76339285714286,3515.2,808.8571428571429,74.76339285714286,3616.2,808.8571428571429,74.76339285714286,3723.7,808.8571428571429,74.76339285714286,3831.3,808.8571428571429,74.76339285714286,3931.9,808.8571428571429,74.76339285714286,4032.5,808.8571428571429,74.76339285714286,4137.7,808.8571428571429,74.76339285714286,4238,808.8571428571429,74.76339285714286,4338.2,808.8571428571429,74.76339285714286,4439.8,808.8571428571429,74.76339285714286,4539.9,808.8571428571429,74.76339285714286,4644.3,808.8571428571429,74.76339285714286,4744.8,808.8571428571429,74.76339285714286,4846.9,808.8571428571429,74.76339285714286,4955.6]","[4598.7,4598.6,2248.5,2010.9,339.4,""smooth"",""up"",""up"",""good_move"",7263,2664,2331.9,4599,332.1,""smooth"",""up"",""up"",""good_move"",10181.6,2918.5,2423.9,7263.1,494.6,""smooth"",""right"",""right"",""good_move"",13335,3153,2831,10182,322,""smooth"",""up"",""up"",""good_move"",16035.9,2700.8,2240.3,13335.1,460.5,""oops"",""right"",""right"",""good_move"",25928.2,9891.8,2826,22817.7,284.5,""smooth"",""right"",""right"",""good_move""]","",""
"5671","","<div style=""width:500px;"">
  <p>What determined the result of this run?</p>
  </div>","100","html-slider-response","20","523667","0.0-5.0-1.2","117","1","2025-07-16 15:21:22","1f75c3e559b7213887762d5229550c2b","24.179.6.210","Mozilla/5.0 (Windows NT 10.0; Win64; x64) AppleWebKit/537.36 (KHTML, like Gecko) Chrome/138.0.0.0 Safari/537.36","WebKit","Chrome","138.0.0.0","Windows","10.0","https://app.prolific.com/","en-US,en;q=0.9","66f4c82536b5c8271f53564c","686e379bc37a29ffa5cdc956","6877c35d39cd42d81293ab6d","1","1","66f4c82536b5c8271f53564c","1","1","2025-07-16T15:30:09.320Z","","","","","","","","","","","AttribQ","","50","","","","","","","","","","","","","","","","","","","","","","","","","","","","",""
"3459","","<div style=""width:500px;"">
  <p>How much control did you have over the ball?</p>
  </div>","98","html-slider-response","21","527127","0.0-5.0-2.2","117","1","2025-07-16 15:21:22","1f75c3e559b7213887762d5229550c2b","24.179.6.210","Mozilla/5.0 (Windows NT 10.0; Win64; x64) AppleWebKit/537.36 (KHTML, like Gecko) Chrome/138.0.0.0 Safari/537.36","WebKit","Chrome","138.0.0.0","Windows","10.0","https://app.prolific.com/","en-US,en;q=0.9","66f4c82536b5c8271f53564c","686e379bc37a29ffa5cdc956","6877c35d39cd42d81293ab6d","1","1","66f4c82536b5c8271f53564c","1","1","2025-07-16T15:30:12.780Z","","","","","","","","","","","ControlQ","","50","","","","","","","","","","","","","","","","","","","","","","","","","","","","",""
"2568","","<div style=""width:500px;"">
  <p>How would you describe your current emotional state?</p>
  </div>","79","html-slider-response","22","529695","0.0-5.0-3.2","117","1","2025-07-16 15:21:22","1f75c3e559b7213887762d5229550c2b","24.179.6.210","Mozilla/5.0 (Windows NT 10.0; Win64; x64) AppleWebKit/537.36 (KHTML, like Gecko) Chrome/138.0.0.0 Safari/537.36","WebKit","Chrome","138.0.0.0","Windows","10.0","https://app.prolific.com/","en-US,en;q=0.9","66f4c82536b5c8271f53564c","686e379bc37a29ffa5cdc956","6877c35d39cd42d81293ab6d","1","1","66f4c82536b5c8271f53564c","1","1","2025-07-16T15:30:15.349Z","","","","","","","","","","","StressQ","","50","","","","","","","","","","","","","","","","","","","","","","","","","","","","",""
"11400","","<div style=""width:500px;"">
  <p>What best describes how you currently feel?</p>
  </div>","19","html-slider-response","23","541096","0.0-5.0-4.2","117","1","2025-07-16 15:21:22","1f75c3e559b7213887762d5229550c2b","24.179.6.210","Mozilla/5.0 (Windows NT 10.0; Win64; x64) AppleWebKit/537.36 (KHTML, like Gecko) Chrome/138.0.0.0 Safari/537.36","WebKit","Chrome","138.0.0.0","Windows","10.0","https://app.prolific.com/","en-US,en;q=0.9","66f4c82536b5c8271f53564c","686e379bc37a29ffa5cdc956","6877c35d39cd42d81293ab6d","1","1","66f4c82536b5c8271f53564c","1","1","2025-07-16T15:30:26.750Z","","","","","","","","","","","MotivationQ","","50","","","","","","","","","","","","","","","","","","","","","","","","","","","","",""
"","","","","ctl-task-cpt","24","597409","0.0-5.0-0.3","117","1","2025-07-16 15:21:22","1f75c3e559b7213887762d5229550c2b","24.179.6.210","Mozilla/5.0 (Windows NT 10.0; Win64; x64) AppleWebKit/537.36 (KHTML, like Gecko) Chrome/138.0.0.0 Safari/537.36","WebKit","Chrome","138.0.0.0","Windows","10.0","https://app.prolific.com/","en-US,en;q=0.9","66f4c82536b5c8271f53564c","686e379bc37a29ffa5cdc956","6877c35d39cd42d81293ab6d","1","1","66f4c82536b5c8271f53564c","1","1","2025-07-16T15:31:23.062Z","","","","","","","","","","","","","","win-only","3","g1:SW,g2:NE","0.7","4","0","545494.7","3687","8687.3","53309.6","1","4","8","6","2","-8","-10","0","6","0","1150","3000","-2210","[""up"",""right""]","{""num_key_presses"":11,""num_perfect"":6,""num_errors"":2,""num_randdir"":3,""num_randdir_good_moves"":0,""num_whilered"":0,""num_whileblue"":1,""num_blue"":4,""num_good_moves"":7}","[457.8571428571429,464.7633928571429,0.2,457.8571428571429,464.7633928571429,105.8,457.8571428571429,464.7633928571429,207.7,457.8571428571429,464.7633928571429,307.7,457.8571428571429,464.7633928571429,408.6,457.8571428571429,464.7633928571429,511.5,664.8571428571429,217.76339285714286,614.5,927.8571428571429,-11.236607142857139,721.5,915.8571428571429,10.763392857142861,822.3,887.8571428571429,58.76339285714286,925.2,863.8571428571429,96.76339285714286,1030.2,863.8571428571429,96.76339285714286,1135.6,863.8571428571429,96.76339285714286,1239.5,863.8571428571429,96.76339285714286,1346.8,863.8571428571429,96.76339285714286,1447,863.8571428571429,96.76339285714286,1553.3,863.8571428571429,96.76339285714286,1662.5,863.8571428571429,96.76339285714286,1767.8,863.8571428571429,96.76339285714286,1869.5,863.8571428571429,96.76339285714286,1975.4,863.8571428571429,96.76339285714286,2082.7,863.8571428571429,96.76339285714286,2183,863.8571428571429,96.76339285714286,2283.7,863.8571428571429,96.76339285714286,2392.4,863.8571428571429,96.76339285714286,2500.3,863.8571428571429,96.76339285714286,2600.4,863.8571428571429,96.76339285714286,2701.2,863.8571428571429,96.76339285714286,2808,863.8571428571429,96.76339285714286,2913.3,863.8571428571429,96.76339285714286,3015.3,863.8571428571429,96.76339285714286,3119.8,863.8571428571429,96.76339285714286,3220.1,863.8571428571429,96.76339285714286,3324.4,863.8571428571429,96.76339285714286,3429.2,863.8571428571429,96.76339285714286,3536.3,863.8571428571429,96.76339285714286,3638.8,863.8571428571429,96.76339285714286,3740.9,863.8571428571429,96.76339285714286,3842.1,863.8571428571429,96.76339285714286,3951.1,863.8571428571429,96.76339285714286,4054.8,863.8571428571429,96.76339285714286,4157.4,863.8571428571429,96.76339285714286,4258.9,863.8571428571429,96.76339285714286,4365.2,863.8571428571429,96.76339285714286,4465.5,863.8571428571429,96.76339285714286,4566,863.8571428571429,96.76339285714286,4668.2,863.8571428571429,96.76339285714286,4768.3,863.8571428571429,96.76339285714286,4868.7,863.8571428571429,96.76339285714286,4974.9]","[714.2,714.2,1000,0,-285.8,""error"",""-"",""-"",""no_move"",8360.1,7645.6,3134.3,4901.2,324.6,""oops"",""up"",""left"",""bad_move"",10895.9,2535.5,1968.9,8360.5,566.6,""smooth"",""up"",""up"",""good_move"",13922,3025.9,2593.5,10896.1,432.4,""smooth"",""right"",""right"",""good_move"",16936.5,3014.3,2540.9,13922.3,473.3,""smooth"",""right"",""right"",""good_move"",20087.9,3151.2,2830.7,16936.7,320.5,""smooth"",""right"",""right"",""good_move"",22569.3,2481.1,2203.3,20088.2,277.8,""while_blue"",""right"",""right"",""good_move"",25445.9,2876.4,2466.4,22569.5,410,""smooth"",""up"",""up"",""good_move"",35744.9,10298.8,2387.2,33003.3,354.4,""oops"",""up"",""down"",""bad_move"",38647.7,2902.7,2360.3,35745,542.4,""smooth"",""up"",""up"",""good_move"",41828.8,3180.9,2355.1,38647.9,825.8,""oops"",""up"",""left"",""bad_move""]","",""
"12708","","<div style=""width:500px;"">
  <p>What determined the result of this run?</p>
  </div>","68","html-slider-response","25","610118","0.0-5.0-1.3","117","1","2025-07-16 15:21:22","1f75c3e559b7213887762d5229550c2b","24.179.6.210","Mozilla/5.0 (Windows NT 10.0; Win64; x64) AppleWebKit/537.36 (KHTML, like Gecko) Chrome/138.0.0.0 Safari/537.36","WebKit","Chrome","138.0.0.0","Windows","10.0","https://app.prolific.com/","en-US,en;q=0.9","66f4c82536b5c8271f53564c","686e379bc37a29ffa5cdc956","6877c35d39cd42d81293ab6d","1","1","66f4c82536b5c8271f53564c","1","1","2025-07-16T15:31:35.771Z","","","","","","","","","","","AttribQ","","50","","","","","","","","","","","","","","","","","","","","","","","","","","","","",""
"3564","","<div style=""width:500px;"">
  <p>How much control did you have over the ball?</p>
  </div>","72","html-slider-response","26","613683","0.0-5.0-2.3","117","1","2025-07-16 15:21:22","1f75c3e559b7213887762d5229550c2b","24.179.6.210","Mozilla/5.0 (Windows NT 10.0; Win64; x64) AppleWebKit/537.36 (KHTML, like Gecko) Chrome/138.0.0.0 Safari/537.36","WebKit","Chrome","138.0.0.0","Windows","10.0","https://app.prolific.com/","en-US,en;q=0.9","66f4c82536b5c8271f53564c","686e379bc37a29ffa5cdc956","6877c35d39cd42d81293ab6d","1","1","66f4c82536b5c8271f53564c","1","1","2025-07-16T15:31:39.336Z","","","","","","","","","","","ControlQ","","50","","","","","","","","","","","","","","","","","","","","","","","","","","","","",""
"4339","","<div style=""width:500px;"">
  <p>How would you describe your current emotional state?</p>
  </div>","91","html-slider-response","27","618023","0.0-5.0-3.3","117","1","2025-07-16 15:21:22","1f75c3e559b7213887762d5229550c2b","24.179.6.210","Mozilla/5.0 (Windows NT 10.0; Win64; x64) AppleWebKit/537.36 (KHTML, like Gecko) Chrome/138.0.0.0 Safari/537.36","WebKit","Chrome","138.0.0.0","Windows","10.0","https://app.prolific.com/","en-US,en;q=0.9","66f4c82536b5c8271f53564c","686e379bc37a29ffa5cdc956","6877c35d39cd42d81293ab6d","1","1","66f4c82536b5c8271f53564c","1","1","2025-07-16T15:31:43.676Z","","","","","","","","","","","StressQ","","50","","","","","","","","","","","","","","","","","","","","","","","","","","","","",""
"3062","","<div style=""width:500px;"">
  <p>What best describes how you currently feel?</p>
  </div>","15","html-slider-response","28","621086","0.0-5.0-4.3","117","1","2025-07-16 15:21:22","1f75c3e559b7213887762d5229550c2b","24.179.6.210","Mozilla/5.0 (Windows NT 10.0; Win64; x64) AppleWebKit/537.36 (KHTML, like Gecko) Chrome/138.0.0.0 Safari/537.36","WebKit","Chrome","138.0.0.0","Windows","10.0","https://app.prolific.com/","en-US,en;q=0.9","66f4c82536b5c8271f53564c","686e379bc37a29ffa5cdc956","6877c35d39cd42d81293ab6d","1","1","66f4c82536b5c8271f53564c","1","1","2025-07-16T15:31:46.739Z","","","","","","","","","","","MotivationQ","","50","","","","","","","","","","","","","","","","","","","","","","","","","","","","",""
"","","","","ctl-task-cpt","29","649452","0.0-5.0-0.4","117","1","2025-07-16 15:21:22","1f75c3e559b7213887762d5229550c2b","24.179.6.210","Mozilla/5.0 (Windows NT 10.0; Win64; x64) AppleWebKit/537.36 (KHTML, like Gecko) Chrome/138.0.0.0 Safari/537.36","WebKit","Chrome","138.0.0.0","Windows","10.0","https://app.prolific.com/","en-US,en;q=0.9","66f4c82536b5c8271f53564c","686e379bc37a29ffa5cdc956","6877c35d39cd42d81293ab6d","1","1","66f4c82536b5c8271f53564c","1","1","2025-07-16T15:32:15.105Z","","","","","","","","","","","","","","win-only","1","g1:NE,g2:SW","0.6","5","0","625484","1815.4","6829.8","25341.3","1","4","8","6","2","8","7","7","0","0.05303030303030303","1218.3","3000","1525","[""down"",""left""]","{""num_key_presses"":7,""num_perfect"":2,""num_errors"":1,""num_randdir"":4,""num_randdir_good_moves"":4,""num_whilered"":0,""num_whileblue"":0,""num_blue"":0,""num_good_moves"":6}","[462.8571428571429,467.7633928571429,0.1,462.8571428571429,467.7633928571429,105.7,462.8571428571429,467.7633928571429,213.3,462.8571428571429,467.7633928571429,320.6,462.8571428571429,467.7633928571429,423.7,462.8571428571429,467.7633928571429,529.7,462.8571428571429,467.7633928571429,633.6,195.85714285714286,780.7633928571429,739.1,108.85714285714286,913.7633928571429,839.2,108.85714285714286,913.7633928571429,939.3,105.85714285714286,900.7633928571429,1039.4,95.85714285714286,875.7633928571429,1140.2,95.85714285714286,875.7633928571429,1245.4,95.85714285714286,875.7633928571429,1348.7,95.85714285714286,875.7633928571429,1456.4,95.85714285714286,875.7633928571429,1564.2,95.85714285714286,875.7633928571429,1664.3,95.85714285714286,875.7633928571429,1772.6,95.85714285714286,875.7633928571429,1872.6,95.85714285714286,875.7633928571429,1972.6,95.85714285714286,875.7633928571429,2080.6,95.85714285714286,875.7633928571429,2189.5,95.85714285714286,875.7633928571429,2289.5,95.85714285714286,875.7633928571429,2389.5,95.85714285714286,875.7633928571429,2490.1,95.85714285714286,875.7633928571429,2595.9,95.85714285714286,875.7633928571429,2696,95.85714285714286,875.7633928571429,2797.9,95.85714285714286,875.7633928571429,2898.9,95.85714285714286,875.7633928571429,3000.9,95.85714285714286,875.7633928571429,3104.3,95.85714285714286,875.7633928571429,3206.5,95.85714285714286,875.7633928571429,3311.6,95.85714285714286,875.7633928571429,3419.7,95.85714285714286,875.7633928571429,3523.1,95.85714285714286,875.7633928571429,3625.2,95.85714285714286,875.7633928571429,3733.1,95.85714285714286,875.7633928571429,3839.6,95.85714285714286,875.7633928571429,3940,95.85714285714286,875.7633928571429,4045.4,95.85714285714286,875.7633928571429,4146.4,95.85714285714286,875.7633928571429,4252.5,95.85714285714286,875.7633928571429,4353.8,95.85714285714286,875.7633928571429,4455.7,95.85714285714286,875.7633928571429,4562.2,95.85714285714286,875.7633928571429,4664.1,95.85714285714286,875.7633928571429,4764.3,95.85714285714286,875.7633928571429,4865.2,95.85714285714286,875.7633928571429,4970.7]","[390.2,390.2,1000,0,-609.8,""error"",""-"",""-"",""no_move"",4019.3,3628.6,2263,1392.8,363.5,""smooth"",""down"",""down"",""good_move"",6568.5,2548.5,2169.2,4020,379.3,""smooth"",""left"",""left"",""good_move"",9881.6,3311.8,2956.9,6569.8,354.9,""oops"",""left"",""left"",""good_move"",12600.1,2718.1,2343.2,9882,374.9,""oops"",""left"",""left"",""good_move"",15986.7,3386.1,3003.9,12600.6,382.2,""oops"",""down"",""down"",""good_move"",18372.9,2385.8,2029.6,15987.1,356.2,""oops"",""down"",""down"",""good_move""]","",""
"56788","","<div style=""width:500px;"">
  <p>What determined the result of this run?</p>
  </div>","75","html-slider-response","30","706241","0.0-5.0-1.4","117","1","2025-07-16 15:21:22","1f75c3e559b7213887762d5229550c2b","24.179.6.210","Mozilla/5.0 (Windows NT 10.0; Win64; x64) AppleWebKit/537.36 (KHTML, like Gecko) Chrome/138.0.0.0 Safari/537.36","WebKit","Chrome","138.0.0.0","Windows","10.0","https://app.prolific.com/","en-US,en;q=0.9","66f4c82536b5c8271f53564c","686e379bc37a29ffa5cdc956","6877c35d39cd42d81293ab6d","1","1","66f4c82536b5c8271f53564c","1","1","2025-07-16T15:33:11.894Z","","","","","","","","","","","AttribQ","","50","","","","","","","","","","","","","","","","","","","","","","","","","","","","",""
"6902","","<div style=""width:500px;"">
  <p>How much control did you have over the ball?</p>
  </div>","87","html-slider-response","31","713144","0.0-5.0-2.4","117","1","2025-07-16 15:21:22","1f75c3e559b7213887762d5229550c2b","24.179.6.210","Mozilla/5.0 (Windows NT 10.0; Win64; x64) AppleWebKit/537.36 (KHTML, like Gecko) Chrome/138.0.0.0 Safari/537.36","WebKit","Chrome","138.0.0.0","Windows","10.0","https://app.prolific.com/","en-US,en;q=0.9","66f4c82536b5c8271f53564c","686e379bc37a29ffa5cdc956","6877c35d39cd42d81293ab6d","1","1","66f4c82536b5c8271f53564c","1","1","2025-07-16T15:33:18.798Z","","","","","","","","","","","ControlQ","","50","","","","","","","","","","","","","","","","","","","","","","","","","","","","",""
"3774","","<div style=""width:500px;"">
  <p>How would you describe your current emotional state?</p>
  </div>","84","html-slider-response","32","716920","0.0-5.0-3.4","117","1","2025-07-16 15:21:22","1f75c3e559b7213887762d5229550c2b","24.179.6.210","Mozilla/5.0 (Windows NT 10.0; Win64; x64) AppleWebKit/537.36 (KHTML, like Gecko) Chrome/138.0.0.0 Safari/537.36","WebKit","Chrome","138.0.0.0","Windows","10.0","https://app.prolific.com/","en-US,en;q=0.9","66f4c82536b5c8271f53564c","686e379bc37a29ffa5cdc956","6877c35d39cd42d81293ab6d","1","1","66f4c82536b5c8271f53564c","1","1","2025-07-16T15:33:22.573Z","","","","","","","","","","","StressQ","","50","","","","","","","","","","","","","","","","","","","","","","","","","","","","",""
"4375","","<div style=""width:500px;"">
  <p>What best describes how you currently feel?</p>
  </div>","19","html-slider-response","33","721296","0.0-5.0-4.4","117","1","2025-07-16 15:21:22","1f75c3e559b7213887762d5229550c2b","24.179.6.210","Mozilla/5.0 (Windows NT 10.0; Win64; x64) AppleWebKit/537.36 (KHTML, like Gecko) Chrome/138.0.0.0 Safari/537.36","WebKit","Chrome","138.0.0.0","Windows","10.0","https://app.prolific.com/","en-US,en;q=0.9","66f4c82536b5c8271f53564c","686e379bc37a29ffa5cdc956","6877c35d39cd42d81293ab6d","1","1","66f4c82536b5c8271f53564c","1","1","2025-07-16T15:33:26.949Z","","","","","","","","","","","MotivationQ","","50","","","","","","","","","","","","","","","","","","","","","","","","","","","","",""
"","","","","ctl-task-cpt","34","772664","0.0-5.0-0.5","117","1","2025-07-16 15:21:22","1f75c3e559b7213887762d5229550c2b","24.179.6.210","Mozilla/5.0 (Windows NT 10.0; Win64; x64) AppleWebKit/537.36 (KHTML, like Gecko) Chrome/138.0.0.0 Safari/537.36","WebKit","Chrome","138.0.0.0","Windows","10.0","https://app.prolific.com/","en-US,en;q=0.9","66f4c82536b5c8271f53564c","686e379bc37a29ffa5cdc956","6877c35d39cd42d81293ab6d","1","1","66f4c82536b5c8271f53564c","1","1","2025-07-16T15:34:18.317Z","","","","","","","","","","","","","","win-only","3","g1:SW,g2:NE","0.5","6","0","725698.2","1031.8","6035.8","48347","1","4","4","6","2","-4","-4","3","7","0.022727272727272728","1048.1","3000","-2625","[""up"",""right""]","{""num_key_presses"":7,""num_perfect"":3,""num_errors"":0,""num_randdir"":4,""num_randdir_good_moves"":1,""num_whilered"":0,""num_whileblue"":0,""num_blue"":5,""num_good_moves"":4}","[468.8571428571429,454.7633928571429,0.1,468.8571428571429,454.7633928571429,100.1,468.8571428571429,454.7633928571429,203.9,468.8571428571429,454.7633928571429,312.6,468.8571428571429,454.7633928571429,413.6,522.8571428571429,414.7633928571429,513.7,739.8571428571429,262.7633928571429,614.6,725.8571428571429,200.76339285714286,718.6,761.8571428571429,141.76339285714286,819.6,847.8571428571429,95.76339285714286,919.7,847.8571428571429,95.76339285714286,1023.7,847.8571428571429,95.76339285714286,1130.9,847.8571428571429,95.76339285714286,1234,847.8571428571429,95.76339285714286,1347.6,847.8571428571429,95.76339285714286,1447.6,847.8571428571429,95.76339285714286,1549.3,847.8571428571429,95.76339285714286,1649.8,847.8571428571429,95.76339285714286,1749.9,847.8571428571429,95.76339285714286,1854.2,847.8571428571429,95.76339285714286,1963.6,847.8571428571429,95.76339285714286,2064.3,847.8571428571429,95.76339285714286,2169.9,847.8571428571429,95.76339285714286,2273.5,847.8571428571429,95.76339285714286,2374.1,847.8571428571429,95.76339285714286,2479.8,847.8571428571429,95.76339285714286,2581.7,847.8571428571429,95.76339285714286,2684.4,847.8571428571429,95.76339285714286,2797.6,847.8571428571429,95.76339285714286,2899.3,847.8571428571429,95.76339285714286,3004.5,847.8571428571429,95.76339285714286,3112.7,847.8571428571429,95.76339285714286,3214.4,847.8571428571429,95.76339285714286,3319,847.8571428571429,95.76339285714286,3419.3,847.8571428571429,95.76339285714286,3529.8,847.8571428571429,95.76339285714286,3634,847.8571428571429,95.76339285714286,3734.1,847.8571428571429,95.76339285714286,3834.2,847.8571428571429,95.76339285714286,3948,847.8571428571429,95.76339285714286,4049.5,847.8571428571429,95.76339285714286,4153.7,847.8571428571429,95.76339285714286,4254.3,847.8571428571429,95.76339285714286,4354.6,847.8571428571429,95.76339285714286,4454.8,847.8571428571429,95.76339285714286,4563.8,847.8571428571429,95.76339285714286,4664.6,847.8571428571429,95.76339285714286,4764.9,847.8571428571429,95.76339285714286,4869,847.8571428571429,95.76339285714286,4969]","[4427.8,4427.8,2019.1,2056.5,352.2,""smooth"",""up"",""up"",""good_move"",10945.1,6517.1,2162.4,8093.3,689.4,""smooth"",""right"",""right"",""good_move"",14458,3512.4,2786.1,10945.6,726.3,""oops"",""right"",""left"",""bad_move"",29499.4,15040.9,3030.4,26060.8,408.2,""smooth"",""right"",""right"",""good_move"",33097.2,3597.6,3158.6,29499.6,439,""oops"",""right"",""left"",""bad_move"",35847.8,2750.2,2386.7,33097.6,363.5,""oops"",""right"",""up"",""good_move"",39005.2,3157,2845.2,35848.2,311.8,""oops"",""right"",""down"",""bad_move""]","",""
"3773","","<div style=""width:500px;"">
  <p>What determined the result of this run?</p>
  </div>","17","html-slider-response","35","776438","0.0-5.0-1.5","117","1","2025-07-16 15:21:22","1f75c3e559b7213887762d5229550c2b","24.179.6.210","Mozilla/5.0 (Windows NT 10.0; Win64; x64) AppleWebKit/537.36 (KHTML, like Gecko) Chrome/138.0.0.0 Safari/537.36","WebKit","Chrome","138.0.0.0","Windows","10.0","https://app.prolific.com/","en-US,en;q=0.9","66f4c82536b5c8271f53564c","686e379bc37a29ffa5cdc956","6877c35d39cd42d81293ab6d","1","1","66f4c82536b5c8271f53564c","1","1","2025-07-16T15:34:22.092Z","","","","","","","","","","","AttribQ","","50","","","","","","","","","","","","","","","","","","","","","","","","","","","","",""
"3452","","<div style=""width:500px;"">
  <p>How much control did you have over the ball?</p>
  </div>","27","html-slider-response","36","779892","0.0-5.0-2.5","117","1","2025-07-16 15:21:22","1f75c3e559b7213887762d5229550c2b","24.179.6.210","Mozilla/5.0 (Windows NT 10.0; Win64; x64) AppleWebKit/537.36 (KHTML, like Gecko) Chrome/138.0.0.0 Safari/537.36","WebKit","Chrome","138.0.0.0","Windows","10.0","https://app.prolific.com/","en-US,en;q=0.9","66f4c82536b5c8271f53564c","686e379bc37a29ffa5cdc956","6877c35d39cd42d81293ab6d","1","1","66f4c82536b5c8271f53564c","1","1","2025-07-16T15:34:25.545Z","","","","","","","","","","","ControlQ","","50","","","","","","","","","","","","","","","","","","","","","","","","","","","","",""
"4587","","<div style=""width:500px;"">
  <p>How would you describe your current emotional state?</p>
  </div>","84","html-slider-response","37","784481","0.0-5.0-3.5","117","1","2025-07-16 15:21:22","1f75c3e559b7213887762d5229550c2b","24.179.6.210","Mozilla/5.0 (Windows NT 10.0; Win64; x64) AppleWebKit/537.36 (KHTML, like Gecko) Chrome/138.0.0.0 Safari/537.36","WebKit","Chrome","138.0.0.0","Windows","10.0","https://app.prolific.com/","en-US,en;q=0.9","66f4c82536b5c8271f53564c","686e379bc37a29ffa5cdc956","6877c35d39cd42d81293ab6d","1","1","66f4c82536b5c8271f53564c","1","1","2025-07-16T15:34:30.135Z","","","","","","","","","","","StressQ","","50","","","","","","","","","","","","","","","","","","","","","","","","","","","","",""
"5550","","<div style=""width:500px;"">
  <p>What best describes how you currently feel?</p>
  </div>","20","html-slider-response","38","790033","0.0-5.0-4.5","117","1","2025-07-16 15:21:22","1f75c3e559b7213887762d5229550c2b","24.179.6.210","Mozilla/5.0 (Windows NT 10.0; Win64; x64) AppleWebKit/537.36 (KHTML, like Gecko) Chrome/138.0.0.0 Safari/537.36","WebKit","Chrome","138.0.0.0","Windows","10.0","https://app.prolific.com/","en-US,en;q=0.9","66f4c82536b5c8271f53564c","686e379bc37a29ffa5cdc956","6877c35d39cd42d81293ab6d","1","1","66f4c82536b5c8271f53564c","1","1","2025-07-16T15:34:35.686Z","","","","","","","","","","","MotivationQ","","50","","","","","","","","","","","","","","","","","","","","","","","","","","","","",""
"","","","","ctl-task-cpt","39","830398","0.0-5.0-0.6","117","1","2025-07-16 15:21:22","1f75c3e559b7213887762d5229550c2b","24.179.6.210","Mozilla/5.0 (Windows NT 10.0; Win64; x64) AppleWebKit/537.36 (KHTML, like Gecko) Chrome/138.0.0.0 Safari/537.36","WebKit","Chrome","138.0.0.0","Windows","10.0","https://app.prolific.com/","en-US,en;q=0.9","66f4c82536b5c8271f53564c","686e379bc37a29ffa5cdc956","6877c35d39cd42d81293ab6d","1","1","66f4c82536b5c8271f53564c","1","1","2025-07-16T15:35:16.051Z","","","","","","","","","","","","","","win-only","2","g1:SE,g2:NW","0.4","7","0","794432.2","1779.2","6781.4","37345.9","1","4","4","6","2","-4","-4","0","3","0","1498.6","3000","-2890","[""left"",""up""]","{""num_key_presses"":9,""num_perfect"":3,""num_errors"":0,""num_randdir"":6,""num_randdir_good_moves"":2,""num_whilered"":0,""num_whileblue"":0,""num_blue"":1,""num_good_moves"":5}","[466.8571428571429,470.7633928571429,0.2,466.8571428571429,470.7633928571429,101.3,466.8571428571429,470.7633928571429,201.4,466.8571428571429,470.7633928571429,302.5,466.8571428571429,470.7633928571429,406,466.8571428571429,470.7633928571429,507.4,466.8571428571429,470.7633928571429,608.1,424.8571428571429,492.7633928571429,716.5,424.8571428571429,492.7633928571429,821.9,424.8571428571429,492.7633928571429,922,213.85714285714286,237.76339285714286,1026.2,204.85714285714286,219.76339285714286,1127.2,178.85714285714286,189.76339285714286,1234,127.85714285714286,112.76339285714286,1337.9,120.85714285714286,97.76339285714286,1449.2,120.85714285714286,97.76339285714286,1550.5,120.85714285714286,97.76339285714286,1652.6,120.85714285714286,97.76339285714286,1756.9,120.85714285714286,97.76339285714286,1866.6,120.85714285714286,97.76339285714286,1972.3,120.85714285714286,97.76339285714286,2072.3,120.85714285714286,97.76339285714286,2176.3,120.85714285714286,97.76339285714286,2277.1,120.85714285714286,97.76339285714286,2382.5,120.85714285714286,97.76339285714286,2486.7,120.85714285714286,97.76339285714286,2586.8,120.85714285714286,97.76339285714286,2687.1,120.85714285714286,97.76339285714286,2799.5,120.85714285714286,97.76339285714286,2902.6,120.85714285714286,97.76339285714286,3007.8,120.85714285714286,97.76339285714286,3116.1,120.85714285714286,97.76339285714286,3216.1,120.85714285714286,97.76339285714286,3322.1,120.85714285714286,97.76339285714286,3422.1,120.85714285714286,97.76339285714286,3532.4,120.85714285714286,97.76339285714286,3637.7,120.85714285714286,97.76339285714286,3750.2,120.85714285714286,97.76339285714286,3852.6,120.85714285714286,97.76339285714286,3957.3,120.85714285714286,97.76339285714286,4062.4,120.85714285714286,97.76339285714286,4166.6,120.85714285714286,97.76339285714286,4272.2,120.85714285714286,97.76339285714286,4372.4,120.85714285714286,97.76339285714286,4476.6,120.85714285714286,97.76339285714286,4582.3,120.85714285714286,97.76339285714286,4683.4,120.85714285714286,97.76339285714286,4786.7,120.85714285714286,97.76339285714286,4891.1,120.85714285714286,97.76339285714286,4999.4]","[1611.8,1611.8,1000,0,611.8,""smooth"",""left"",""left"",""good_move"",3946.1,2333.7,1950.5,1612.4,383.2,""oops"",""left"",""down"",""bad_move"",7195.8,3249.4,2839.7,3946.4,409.7,""oops"",""left"",""left"",""good_move"",10128.9,2932.9,2536.7,7196,396.2,""smooth"",""up"",""up"",""good_move"",12795.8,2666.6,2299.2,10129.2,367.4,""oops"",""up"",""down"",""bad_move"",18669.6,5873.7,2083,16297.2,289.4,""oops"",""up"",""down"",""bad_move"",21164.1,2494.3,2091.8,18669.8,402.5,""oops"",""up"",""right"",""bad_move"",24260.9,3096.4,2751.6,21164.5,344.8,""oops"",""up"",""left"",""good_move"",27530.7,3269.5,2948.3,24261.3,321.1,""smooth"",""up"",""up"",""good_move""]","",""
"4483","","<div style=""width:500px;"">
  <p>What determined the result of this run?</p>
  </div>","19","html-slider-response","40","834882","0.0-5.0-1.6","117","1","2025-07-16 15:21:22","1f75c3e559b7213887762d5229550c2b","24.179.6.210","Mozilla/5.0 (Windows NT 10.0; Win64; x64) AppleWebKit/537.36 (KHTML, like Gecko) Chrome/138.0.0.0 Safari/537.36","WebKit","Chrome","138.0.0.0","Windows","10.0","https://app.prolific.com/","en-US,en;q=0.9","66f4c82536b5c8271f53564c","686e379bc37a29ffa5cdc956","6877c35d39cd42d81293ab6d","1","1","66f4c82536b5c8271f53564c","1","1","2025-07-16T15:35:20.535Z","","","","","","","","","","","AttribQ","","50","","","","","","","","","","","","","","","","","","","","","","","","","","","","",""
"6897","","<div style=""width:500px;"">
  <p>How much control did you have over the ball?</p>
  </div>","16","html-slider-response","41","841782","0.0-5.0-2.6","117","1","2025-07-16 15:21:22","1f75c3e559b7213887762d5229550c2b","24.179.6.210","Mozilla/5.0 (Windows NT 10.0; Win64; x64) AppleWebKit/537.36 (KHTML, like Gecko) Chrome/138.0.0.0 Safari/537.36","WebKit","Chrome","138.0.0.0","Windows","10.0","https://app.prolific.com/","en-US,en;q=0.9","66f4c82536b5c8271f53564c","686e379bc37a29ffa5cdc956","6877c35d39cd42d81293ab6d","1","1","66f4c82536b5c8271f53564c","1","1","2025-07-16T15:35:27.435Z","","","","","","","","","","","ControlQ","","50","","","","","","","","","","","","","","","","","","","","","","","","","","","","",""
"3954","","<div style=""width:500px;"">
  <p>How would you describe your current emotional state?</p>
  </div>","85","html-slider-response","42","845738","0.0-5.0-3.6","117","1","2025-07-16 15:21:22","1f75c3e559b7213887762d5229550c2b","24.179.6.210","Mozilla/5.0 (Windows NT 10.0; Win64; x64) AppleWebKit/537.36 (KHTML, like Gecko) Chrome/138.0.0.0 Safari/537.36","WebKit","Chrome","138.0.0.0","Windows","10.0","https://app.prolific.com/","en-US,en;q=0.9","66f4c82536b5c8271f53564c","686e379bc37a29ffa5cdc956","6877c35d39cd42d81293ab6d","1","1","66f4c82536b5c8271f53564c","1","1","2025-07-16T15:35:31.391Z","","","","","","","","","","","StressQ","","50","","","","","","","","","","","","","","","","","","","","","","","","","","","","",""
"6785","","<div style=""width:500px;"">
  <p>What best describes how you currently feel?</p>
  </div>","18","html-slider-response","43","852524","0.0-5.0-4.6","117","1","2025-07-16 15:21:22","1f75c3e559b7213887762d5229550c2b","24.179.6.210","Mozilla/5.0 (Windows NT 10.0; Win64; x64) AppleWebKit/537.36 (KHTML, like Gecko) Chrome/138.0.0.0 Safari/537.36","WebKit","Chrome","138.0.0.0","Windows","10.0","https://app.prolific.com/","en-US,en;q=0.9","66f4c82536b5c8271f53564c","686e379bc37a29ffa5cdc956","6877c35d39cd42d81293ab6d","1","1","66f4c82536b5c8271f53564c","1","1","2025-07-16T15:35:38.177Z","","","","","","","","","","","MotivationQ","","50","","","","","","","","","","","","","","","","","","","","","","","","","","","","",""
"","","","","ctl-task-cpt","44","900932","0.0-5.0-0.7","117","1","2025-07-16 15:21:22","1f75c3e559b7213887762d5229550c2b","24.179.6.210","Mozilla/5.0 (Windows NT 10.0; Win64; x64) AppleWebKit/537.36 (KHTML, like Gecko) Chrome/138.0.0.0 Safari/537.36","WebKit","Chrome","138.0.0.0","Windows","10.0","https://app.prolific.com/","en-US,en;q=0.9","66f4c82536b5c8271f53564c","686e379bc37a29ffa5cdc956","6877c35d39cd42d81293ab6d","1","1","66f4c82536b5c8271f53564c","1","1","2025-07-16T15:36:26.585Z","","","","","","","","","","","","","","win-only","2","g1:SE,g2:NW","0.3","8","0","856924.3","1373.2","6376.8","45387.5","1","4","8","6","2","-8","-8","0","0","0","1464.2","3000","-2350","[""left"",""up""]","{""num_key_presses"":8,""num_perfect"":3,""num_errors"":0,""num_randdir"":5,""num_randdir_good_moves"":1,""num_whilered"":0,""num_whileblue"":0,""num_blue"":4,""num_good_moves"":3}","[460.8571428571429,461.7633928571429,0.2,460.8571428571429,461.7633928571429,111.4,460.8571428571429,461.7633928571429,211.7,460.8571428571429,461.7633928571429,311.6,460.8571428571429,461.7633928571429,412.8,460.8571428571429,461.7633928571429,512.8,455.8571428571429,405.7633928571429,612.8,505.8571428571429,214.76339285714286,713.3,505.8571428571429,214.76339285714286,816,468.8571428571429,179.76339285714286,916,297.8571428571429,96.76339285714286,1017.2,217.85714285714286,106.76339285714286,1117.7,160.85714285714286,127.76339285714286,1222.4,115.85714285714286,101.76339285714286,1322.8,108.85714285714286,89.76339285714286,1428.3,108.85714285714286,89.76339285714286,1532.3,108.85714285714286,89.76339285714286,1632.2,108.85714285714286,89.76339285714286,1733.3,108.85714285714286,89.76339285714286,1849,108.85714285714286,89.76339285714286,1952.9,108.85714285714286,89.76339285714286,2058.5,108.85714285714286,89.76339285714286,2163.1,108.85714285714286,89.76339285714286,2268.6,108.85714285714286,89.76339285714286,2382,108.85714285714286,89.76339285714286,2482,108.85714285714286,89.76339285714286,2587.1,108.85714285714286,89.76339285714286,2695.9,108.85714285714286,89.76339285714286,2797.8,108.85714285714286,89.76339285714286,2903.2,108.85714285714286,89.76339285714286,3003.7,108.85714285714286,89.76339285714286,3103.7,108.85714285714286,89.76339285714286,3203.7,108.85714285714286,89.76339285714286,3315.3,108.85714285714286,89.76339285714286,3417.7,108.85714285714286,89.76339285714286,3517.7,108.85714285714286,89.76339285714286,3622.1,108.85714285714286,89.76339285714286,3722.5,108.85714285714286,89.76339285714286,3831.6,108.85714285714286,89.76339285714286,3931.9,108.85714285714286,89.76339285714286,4032.1,108.85714285714286,89.76339285714286,4133.5,108.85714285714286,89.76339285714286,4249.3,108.85714285714286,89.76339285714286,4353.3,108.85714285714286,89.76339285714286,4465.4,108.85714285714286,89.76339285714286,4568.6,108.85714285714286,89.76339285714286,4673.4,108.85714285714286,89.76339285714286,4782.3,108.85714285714286,89.76339285714286,4882.7,108.85714285714286,89.76339285714286,4988.3]","[1462,1462,1000,0,462,""oops"",""up"",""left"",""good_move"",4476.8,3014.4,2644.7,1462.4,369.7,""oops"",""up"",""right"",""bad_move"",10920.5,6443.4,2179.1,8378.7,362.7,""oops"",""up"",""right"",""bad_move"",13269,2348.3,1880.2,10920.7,468.1,""oops"",""up"",""down"",""bad_move"",15612.2,2342.9,2034.4,13269.3,308.5,""oops"",""up"",""right"",""bad_move"",22276.6,6664.3,2753.7,19179.7,343.2,""smooth"",""right"",""down"",""bad_move"",28826.4,6549.6,1949,26330,547.5,""smooth"",""left"",""left"",""good_move"",36234.6,7407.9,2844.9,32723.4,666.3,""smooth"",""left"",""left"",""good_move""]","",""
"4512","","<div style=""width:500px;"">
  <p>What determined the result of this run?</p>
  </div>","0","html-slider-response","45","905446","0.0-5.0-1.7","117","1","2025-07-16 15:21:22","1f75c3e559b7213887762d5229550c2b","24.179.6.210","Mozilla/5.0 (Windows NT 10.0; Win64; x64) AppleWebKit/537.36 (KHTML, like Gecko) Chrome/138.0.0.0 Safari/537.36","WebKit","Chrome","138.0.0.0","Windows","10.0","https://app.prolific.com/","en-US,en;q=0.9","66f4c82536b5c8271f53564c","686e379bc37a29ffa5cdc956","6877c35d39cd42d81293ab6d","1","1","66f4c82536b5c8271f53564c","1","1","2025-07-16T15:36:31.099Z","","","","","","","","","","","AttribQ","","50","","","","","","","","","","","","","","","","","","","","","","","","","","","","",""
"20034","","<div style=""width:500px;"">
  <p>How much control did you have over the ball?</p>
  </div>","10","html-slider-response","46","925483","0.0-5.0-2.7","117","1","2025-07-16 15:21:22","1f75c3e559b7213887762d5229550c2b","24.179.6.210","Mozilla/5.0 (Windows NT 10.0; Win64; x64) AppleWebKit/537.36 (KHTML, like Gecko) Chrome/138.0.0.0 Safari/537.36","WebKit","Chrome","138.0.0.0","Windows","10.0","https://app.prolific.com/","en-US,en;q=0.9","66f4c82536b5c8271f53564c","686e379bc37a29ffa5cdc956","6877c35d39cd42d81293ab6d","1","1","66f4c82536b5c8271f53564c","1","1","2025-07-16T15:36:51.137Z","","","","","","","","","","","ControlQ","","50","","","","","","","","","","","","","","","","","","","","","","","","","","","","",""
"9620","","<div style=""width:500px;"">
  <p>How would you describe your current emotional state?</p>
  </div>","83","html-slider-response","47","935109","0.0-5.0-3.7","117","1","2025-07-16 15:21:22","1f75c3e559b7213887762d5229550c2b","24.179.6.210","Mozilla/5.0 (Windows NT 10.0; Win64; x64) AppleWebKit/537.36 (KHTML, like Gecko) Chrome/138.0.0.0 Safari/537.36","WebKit","Chrome","138.0.0.0","Windows","10.0","https://app.prolific.com/","en-US,en;q=0.9","66f4c82536b5c8271f53564c","686e379bc37a29ffa5cdc956","6877c35d39cd42d81293ab6d","1","1","66f4c82536b5c8271f53564c","1","1","2025-07-16T15:37:00.763Z","","","","","","","","","","","StressQ","","50","","","","","","","","","","","","","","","","","","","","","","","","","","","","",""
"99770","","<div style=""width:500px;"">
  <p>What best describes how you currently feel?</p>
  </div>","11","html-slider-response","48","1034882","0.0-5.0-4.7","117","1","2025-07-16 15:21:22","1f75c3e559b7213887762d5229550c2b","24.179.6.210","Mozilla/5.0 (Windows NT 10.0; Win64; x64) AppleWebKit/537.36 (KHTML, like Gecko) Chrome/138.0.0.0 Safari/537.36","WebKit","Chrome","138.0.0.0","Windows","10.0","https://app.prolific.com/","en-US,en;q=0.9","66f4c82536b5c8271f53564c","686e379bc37a29ffa5cdc956","6877c35d39cd42d81293ab6d","1","1","66f4c82536b5c8271f53564c","1","1","2025-07-16T15:38:40.535Z","","","","","","","","","","","MotivationQ","","50","","","","","","","","","","","","","","","","","","","","","","","","","","","","",""
"","","","","ctl-task-cpt","49","1103446","0.0-5.0-0.8","117","1","2025-07-16 15:21:22","1f75c3e559b7213887762d5229550c2b","24.179.6.210","Mozilla/5.0 (Windows NT 10.0; Win64; x64) AppleWebKit/537.36 (KHTML, like Gecko) Chrome/138.0.0.0 Safari/537.36","WebKit","Chrome","138.0.0.0","Windows","10.0","https://app.prolific.com/","en-US,en;q=0.9","66f4c82536b5c8271f53564c","686e379bc37a29ffa5cdc956","6877c35d39cd42d81293ab6d","1","1","66f4c82536b5c8271f53564c","1","1","2025-07-16T15:39:49.099Z","","","","","","","","","","","","","","win-only","1","g1:NE,g2:SW","0.2","9","0","1039282.6","1120.8","6122.8","65539.3","1","4","8","6","2","-8","-9","0","0","0","1587.6","3000","-2540","[""down"",""left""]","{""num_key_presses"":10,""num_perfect"":2,""num_errors"":1,""num_randdir"":7,""num_randdir_good_moves"":3,""num_whilered"":0,""num_whileblue"":0,""num_blue"":8,""num_good_moves"":5}","[463.8571428571429,458.7633928571429,0.1,463.8571428571429,458.7633928571429,100.3,463.8571428571429,458.7633928571429,204.3,463.8571428571429,458.7633928571429,308.9,463.8571428571429,458.7633928571429,412.2,463.8571428571429,458.7633928571429,518.9,363.8571428571429,551.7633928571429,624.8,363.8571428571429,551.7633928571429,730,363.8571428571429,551.7633928571429,834.1,179.85714285714286,766.7633928571429,941.5,155.85714285714286,785.7633928571429,1041.8,155.85714285714286,785.7633928571429,1145.3,155.85714285714286,785.7633928571429,1251.9,155.85714285714286,785.7633928571429,1354.8,155.85714285714286,785.7633928571429,1461,129.85714285714286,795.7633928571429,1561,129.85714285714286,795.7633928571429,1673.8,129.85714285714286,795.7633928571429,1773.9,129.85714285714286,795.7633928571429,1874.6,129.85714285714286,795.7633928571429,1974.9,129.85714285714286,795.7633928571429,2075.9,129.85714285714286,795.7633928571429,2181.7,129.85714285714286,795.7633928571429,2289.5,129.85714285714286,795.7633928571429,2389.8,129.85714285714286,795.7633928571429,2495.9,129.85714285714286,795.7633928571429,2599.9,129.85714285714286,795.7633928571429,2704.4,129.85714285714286,795.7633928571429,2806.6,129.85714285714286,795.7633928571429,2909.4,129.85714285714286,795.7633928571429,3011.4,129.85714285714286,795.7633928571429,3119.4,129.85714285714286,795.7633928571429,3228,129.85714285714286,795.7633928571429,3333.9,129.85714285714286,795.7633928571429,3438.4,129.85714285714286,795.7633928571429,3540.7,129.85714285714286,795.7633928571429,3643,129.85714285714286,795.7633928571429,3747,129.85714285714286,795.7633928571429,3847,129.85714285714286,795.7633928571429,3947.9,129.85714285714286,795.7633928571429,4048.9,129.85714285714286,795.7633928571429,4155.2,129.85714285714286,795.7633928571429,4255.9,129.85714285714286,795.7633928571429,4356.9,129.85714285714286,795.7633928571429,4457.3,129.85714285714286,795.7633928571429,4562.4,129.85714285714286,795.7633928571429,4666.9,129.85714285714286,795.7633928571429,4767.6,129.85714285714286,795.7633928571429,4867.9,129.85714285714286,795.7633928571429,4973.9]","[1369.1,1369.1,1000,0,369.1,""smooth"",""left"",""left"",""good_move"",5206,3836.6,2169.7,4818.2,-1781.9,""error"",""-"",""-"",""no_move"",15643.7,10437.5,1612,13660.9,370.8,""oops"",""left"",""down"",""good_move"",21896.6,6252.6,2460.8,19068.2,367.6,""oops"",""left"",""left"",""good_move"",25184,3287,2732.4,21897,554.6,""oops"",""left"",""up"",""bad_move"",28512.5,3328.3,2866,25184.2,462.3,""oops"",""down"",""up"",""bad_move"",39077.8,10564.9,3148.8,35558.2,371,""smooth"",""down"",""down"",""good_move"",42049,2970.2,2242.1,39078.8,728.1,""oops"",""down"",""up"",""bad_move"",44957.2,2908,2515.4,42049.2,392.6,""oops"",""up"",""down"",""good_move"",55080.1,10122.8,2127,52618.4,334.7,""oops"",""up"",""up"",""bad_move""]","",""
"14716","","<div style=""width:500px;"">
  <p>What determined the result of this run?</p>
  </div>","14","html-slider-response","50","1118163","0.0-5.0-1.8","117","1","2025-07-16 15:21:22","1f75c3e559b7213887762d5229550c2b","24.179.6.210","Mozilla/5.0 (Windows NT 10.0; Win64; x64) AppleWebKit/537.36 (KHTML, like Gecko) Chrome/138.0.0.0 Safari/537.36","WebKit","Chrome","138.0.0.0","Windows","10.0","https://app.prolific.com/","en-US,en;q=0.9","66f4c82536b5c8271f53564c","686e379bc37a29ffa5cdc956","6877c35d39cd42d81293ab6d","1","1","66f4c82536b5c8271f53564c","1","1","2025-07-16T15:40:03.816Z","","","","","","","","","","","AttribQ","","50","","","","","","","","","","","","","","","","","","","","","","","","","","","","",""
"5041","","<div style=""width:500px;"">
  <p>How much control did you have over the ball?</p>
  </div>","21","html-slider-response","51","1123205","0.0-5.0-2.8","117","1","2025-07-16 15:21:22","1f75c3e559b7213887762d5229550c2b","24.179.6.210","Mozilla/5.0 (Windows NT 10.0; Win64; x64) AppleWebKit/537.36 (KHTML, like Gecko) Chrome/138.0.0.0 Safari/537.36","WebKit","Chrome","138.0.0.0","Windows","10.0","https://app.prolific.com/","en-US,en;q=0.9","66f4c82536b5c8271f53564c","686e379bc37a29ffa5cdc956","6877c35d39cd42d81293ab6d","1","1","66f4c82536b5c8271f53564c","1","1","2025-07-16T15:40:08.858Z","","","","","","","","","","","ControlQ","","50","","","","","","","","","","","","","","","","","","","","","","","","","","","","",""
"4063","","<div style=""width:500px;"">
  <p>How would you describe your current emotional state?</p>
  </div>","89","html-slider-response","52","1127270","0.0-5.0-3.8","117","1","2025-07-16 15:21:22","1f75c3e559b7213887762d5229550c2b","24.179.6.210","Mozilla/5.0 (Windows NT 10.0; Win64; x64) AppleWebKit/537.36 (KHTML, like Gecko) Chrome/138.0.0.0 Safari/537.36","WebKit","Chrome","138.0.0.0","Windows","10.0","https://app.prolific.com/","en-US,en;q=0.9","66f4c82536b5c8271f53564c","686e379bc37a29ffa5cdc956","6877c35d39cd42d81293ab6d","1","1","66f4c82536b5c8271f53564c","1","1","2025-07-16T15:40:12.923Z","","","","","","","","","","","StressQ","","50","","","","","","","","","","","","","","","","","","","","","","","","","","","","",""
"4934","","<div style=""width:500px;"">
  <p>What best describes how you currently feel?</p>
  </div>","19","html-slider-response","53","1132205","0.0-5.0-4.8","117","1","2025-07-16 15:21:22","1f75c3e559b7213887762d5229550c2b","24.179.6.210","Mozilla/5.0 (Windows NT 10.0; Win64; x64) AppleWebKit/537.36 (KHTML, like Gecko) Chrome/138.0.0.0 Safari/537.36","WebKit","Chrome","138.0.0.0","Windows","10.0","https://app.prolific.com/","en-US,en;q=0.9","66f4c82536b5c8271f53564c","686e379bc37a29ffa5cdc956","6877c35d39cd42d81293ab6d","1","1","66f4c82536b5c8271f53564c","1","1","2025-07-16T15:40:17.859Z","","","","","","","","","","","MotivationQ","","50","","","","","","","","","","","","","","","","","","","","","","","","","","","","",""
"","","","","ctl-task-cpt","54","1202766","0.0-5.0-0.9","117","1","2025-07-16 15:21:22","1f75c3e559b7213887762d5229550c2b","24.179.6.210","Mozilla/5.0 (Windows NT 10.0; Win64; x64) AppleWebKit/537.36 (KHTML, like Gecko) Chrome/138.0.0.0 Safari/537.36","WebKit","Chrome","138.0.0.0","Windows","10.0","https://app.prolific.com/","en-US,en;q=0.9","66f4c82536b5c8271f53564c","686e379bc37a29ffa5cdc956","6877c35d39cd42d81293ab6d","1","1","66f4c82536b5c8271f53564c","1","1","2025-07-16T15:41:28.419Z","","","","","","","","","","","","","","win-only","1","g1:NE,g2:SW","0.4","10","0","1136604.7","1099.2","6100.2","67528.2","1","4","4","6","2","-4","-4","0","0","0","1249.4","3000","-960","[""down"",""left""]","{""num_key_presses"":15,""num_perfect"":7,""num_errors"":0,""num_randdir"":8,""num_randdir_good_moves"":3,""num_whilered"":0,""num_whileblue"":0,""num_blue"":5,""num_good_moves"":10}","[455.8571428571429,459.7633928571429,0.2,455.8571428571429,459.7633928571429,108.5,455.8571428571429,459.7633928571429,213.6,455.8571428571429,459.7633928571429,315.6,455.8571428571429,459.7633928571429,424.8,455.8571428571429,459.7633928571429,535.4,226.85714285714286,624.7633928571429,650.8,52.85714285714286,776.7633928571429,760.4,52.85714285714286,776.7633928571429,866.6,52.85714285714286,776.7633928571429,970.7,52.85714285714286,776.7633928571429,1072.2,52.85714285714286,776.7633928571429,1182.1,52.85714285714286,776.7633928571429,1294.8,52.85714285714286,776.7633928571429,1394.8,52.85714285714286,776.7633928571429,1509.1,52.85714285714286,776.7633928571429,1616.7,52.85714285714286,776.7633928571429,1725.8,52.85714285714286,776.7633928571429,1836.8,52.85714285714286,776.7633928571429,1942.5,52.85714285714286,776.7633928571429,2044.2,52.85714285714286,776.7633928571429,2145.4,52.85714285714286,776.7633928571429,2245.5,52.85714285714286,776.7633928571429,2350.1,52.85714285714286,776.7633928571429,2454.2,52.85714285714286,776.7633928571429,2554.6,52.85714285714286,776.7633928571429,2655.8,52.85714285714286,776.7633928571429,2757.6,52.85714285714286,776.7633928571429,2886.5,52.85714285714286,776.7633928571429,2988.9,52.85714285714286,776.7633928571429,3094.6,52.85714285714286,776.7633928571429,3205.5,52.85714285714286,776.7633928571429,3328.1,52.85714285714286,776.7633928571429,3431.4,52.85714285714286,776.7633928571429,3534.1,52.85714285714286,776.7633928571429,3655.9,52.85714285714286,776.7633928571429,3778.4,52.85714285714286,776.7633928571429,3903,52.85714285714286,776.7633928571429,4027.9,52.85714285714286,776.7633928571429,4137.6,52.85714285714286,776.7633928571429,4248.1,52.85714285714286,776.7633928571429,4358.5,52.85714285714286,776.7633928571429,4458.8,52.85714285714286,776.7633928571429,4581.5,52.85714285714286,776.7633928571429,4686.3,52.85714285714286,776.7633928571429,4807.8,52.85714285714286,776.7633928571429,4909.6]","[1652.1,1652.1,1000,0,652.1,""smooth"",""left"",""left"",""good_move"",4080.4,2428,2013.1,1652.4,414.9,""oops"",""down"",""down"",""good_move"",6987.5,2906.8,2460.1,4080.7,446.7,""oops"",""down"",""up"",""bad_move"",9952,2963.9,2097.5,6988.1,866.4,""oops"",""left"",""up"",""bad_move"",13282,3329.9,2840.8,9952.1,489.1,""oops"",""up"",""left"",""good_move"",16256.4,2974.1,2468.8,13282.3,505.3,""smooth"",""left"",""left"",""good_move"",25299.3,9042.7,2255.3,22720.2,323.8,""smooth"",""down"",""down"",""good_move"",27758,2458.4,2102.3,25299.6,356.1,""oops"",""down"",""right"",""bad_move"",30176.6,2418.2,2093.9,27758.4,324.3,""smooth"",""down"",""down"",""good_move"",33381.4,3204.6,2830.9,30176.8,373.7,""oops"",""down"",""right"",""bad_move"",40429.5,7047.9,2812.8,37259.4,357.3,""oops"",""down"",""left"",""good_move"",46473.4,6043.7,2441.3,43675.6,356.5,""smooth"",""down"",""down"",""good_move"",49063.4,2589.7,2259.1,46473.7,330.6,""smooth"",""down"",""down"",""good_move"",52412.4,3348.7,3034.3,49063.7,314.4,""oops"",""left"",""right"",""bad_move"",58519.4,6106.6,2598.3,55497.7,423.4,""smooth"",""left"",""left"",""good_move""]","",""
"5020","","<div style=""width:500px;"">
  <p>What determined the result of this run?</p>
  </div>","40","html-slider-response","55","1207787","0.0-5.0-1.9","117","1","2025-07-16 15:21:22","1f75c3e559b7213887762d5229550c2b","24.179.6.210","Mozilla/5.0 (Windows NT 10.0; Win64; x64) AppleWebKit/537.36 (KHTML, like Gecko) Chrome/138.0.0.0 Safari/537.36","WebKit","Chrome","138.0.0.0","Windows","10.0","https://app.prolific.com/","en-US,en;q=0.9","66f4c82536b5c8271f53564c","686e379bc37a29ffa5cdc956","6877c35d39cd42d81293ab6d","1","1","66f4c82536b5c8271f53564c","1","1","2025-07-16T15:41:33.440Z","","","","","","","","","","","AttribQ","","50","","","","","","","","","","","","","","","","","","","","","","","","","","","","",""
"3430","","<div style=""width:500px;"">
  <p>How much control did you have over the ball?</p>
  </div>","43","html-slider-response","56","1211219","0.0-5.0-2.9","117","1","2025-07-16 15:21:22","1f75c3e559b7213887762d5229550c2b","24.179.6.210","Mozilla/5.0 (Windows NT 10.0; Win64; x64) AppleWebKit/537.36 (KHTML, like Gecko) Chrome/138.0.0.0 Safari/537.36","WebKit","Chrome","138.0.0.0","Windows","10.0","https://app.prolific.com/","en-US,en;q=0.9","66f4c82536b5c8271f53564c","686e379bc37a29ffa5cdc956","6877c35d39cd42d81293ab6d","1","1","66f4c82536b5c8271f53564c","1","1","2025-07-16T15:41:36.873Z","","","","","","","","","","","ControlQ","","50","","","","","","","","","","","","","","","","","","","","","","","","","","","","",""
"3349","","<div style=""width:500px;"">
  <p>How would you describe your current emotional state?</p>
  </div>","91","html-slider-response","57","1214570","0.0-5.0-3.9","117","1","2025-07-16 15:21:22","1f75c3e559b7213887762d5229550c2b","24.179.6.210","Mozilla/5.0 (Windows NT 10.0; Win64; x64) AppleWebKit/537.36 (KHTML, like Gecko) Chrome/138.0.0.0 Safari/537.36","WebKit","Chrome","138.0.0.0","Windows","10.0","https://app.prolific.com/","en-US,en;q=0.9","66f4c82536b5c8271f53564c","686e379bc37a29ffa5cdc956","6877c35d39cd42d81293ab6d","1","1","66f4c82536b5c8271f53564c","1","1","2025-07-16T15:41:40.223Z","","","","","","","","","","","StressQ","","50","","","","","","","","","","","","","","","","","","","","","","","","","","","","",""
"3373","","<div style=""width:500px;"">
  <p>What best describes how you currently feel?</p>
  </div>","24","html-slider-response","58","1217946","0.0-5.0-4.9","117","1","2025-07-16 15:21:22","1f75c3e559b7213887762d5229550c2b","24.179.6.210","Mozilla/5.0 (Windows NT 10.0; Win64; x64) AppleWebKit/537.36 (KHTML, like Gecko) Chrome/138.0.0.0 Safari/537.36","WebKit","Chrome","138.0.0.0","Windows","10.0","https://app.prolific.com/","en-US,en;q=0.9","66f4c82536b5c8271f53564c","686e379bc37a29ffa5cdc956","6877c35d39cd42d81293ab6d","1","1","66f4c82536b5c8271f53564c","1","1","2025-07-16T15:41:43.599Z","","","","","","","","","","","MotivationQ","","50","","","","","","","","","","","","","","","","","","","","","","","","","","","","",""
"","","","","ctl-task-cpt","59","1255101","0.0-5.0-0.10","117","1","2025-07-16 15:21:22","1f75c3e559b7213887762d5229550c2b","24.179.6.210","Mozilla/5.0 (Windows NT 10.0; Win64; x64) AppleWebKit/537.36 (KHTML, like Gecko) Chrome/138.0.0.0 Safari/537.36","WebKit","Chrome","138.0.0.0","Windows","10.0","https://app.prolific.com/","en-US,en;q=0.9","66f4c82536b5c8271f53564c","686e379bc37a29ffa5cdc956","6877c35d39cd42d81293ab6d","1","1","66f4c82536b5c8271f53564c","1","1","2025-07-16T15:42:20.755Z","","","","","","","","","","","","","","win-only","2","g1:SE,g2:NW","0.5","11","0","1222346.3","1308.7","6340.4","34129.3","1","4","4","6","1","1","1","1","0","0.007575757575757576","1486","3000","1950","[""down"",""right""]","{""num_key_presses"":6,""num_perfect"":3,""num_errors"":0,""num_randdir"":3,""num_randdir_good_moves"":2,""num_whilered"":0,""num_whileblue"":0,""num_blue"":2,""num_good_moves"":5}","[465.8571428571429,448.7633928571429,0.2,465.8571428571429,448.7633928571429,109,465.8571428571429,448.7633928571429,228.3,465.8571428571429,448.7633928571429,346.8,465.8571428571429,448.7633928571429,465.7,465.8571428571429,448.7633928571429,580.1,401.8571428571429,362.7633928571429,710.4,401.8571428571429,362.7633928571429,811.7,800.8571428571429,695.7633928571429,918,805.8571428571429,700.7633928571429,1045.5,811.8571428571429,708.7633928571429,1149.3,860.8571428571429,775.7633928571429,1259.4,859.8571428571429,805.7633928571429,1390.4,859.8571428571429,805.7633928571429,1515.3,859.8571428571429,805.7633928571429,1639.6,859.8571428571429,805.7633928571429,1755.1,859.8571428571429,805.7633928571429,1874.1,859.8571428571429,805.7633928571429,1984.9,859.8571428571429,805.7633928571429,2095.2,859.8571428571429,805.7633928571429,2211.9,859.8571428571429,805.7633928571429,2319.3,859.8571428571429,805.7633928571429,2431.7,859.8571428571429,805.7633928571429,2543.3,859.8571428571429,805.7633928571429,2654.6,859.8571428571429,805.7633928571429,2769.8,859.8571428571429,805.7633928571429,2883.9,859.8571428571429,805.7633928571429,3000.2,859.8571428571429,805.7633928571429,3121,859.8571428571429,805.7633928571429,3236.3,859.8571428571429,805.7633928571429,3351.4,859.8571428571429,805.7633928571429,3465.9,859.8571428571429,805.7633928571429,3578.9,859.8571428571429,805.7633928571429,3695.3,859.8571428571429,805.7633928571429,3808.5,859.8571428571429,805.7633928571429,3927.4,859.8571428571429,805.7633928571429,4043.9,859.8571428571429,805.7633928571429,4169.2,859.8571428571429,805.7633928571429,4288,859.8571428571429,805.7633928571429,4401.1,859.8571428571429,805.7633928571429,4513.4,859.8571428571429,805.7633928571429,4629.3,859.8571428571429,805.7633928571429,4740.5,859.8571428571429,805.7633928571429,4853.8,859.8571428571429,805.7633928571429,4965.4]","[5501.5,5501.5,3095.6,2053,352.9,""smooth"",""right"",""right"",""good_move"",8652,3150.2,2649.7,5501.9,500.4,""smooth"",""right"",""right"",""good_move"",11556.4,2904.2,2511.5,8652.2,392.7,""oops"",""down"",""up"",""bad_move"",17897.1,6340.2,2143.1,11556.9,4197.1,""oops"",""down"",""down"",""good_move"",24993.6,7096.4,2641.9,22014.4,337.3,""smooth"",""down"",""down"",""good_move"",27576.1,2582.2,2198.2,24993.9,384,""oops"",""down"",""down"",""good_move""]","",""
"8438","","<div style=""width:500px;"">
  <p>What determined the result of this run?</p>
  </div>","67","html-slider-response","60","1263541","0.0-5.0-1.10","117","1","2025-07-16 15:21:22","1f75c3e559b7213887762d5229550c2b","24.179.6.210","Mozilla/5.0 (Windows NT 10.0; Win64; x64) AppleWebKit/537.36 (KHTML, like Gecko) Chrome/138.0.0.0 Safari/537.36","WebKit","Chrome","138.0.0.0","Windows","10.0","https://app.prolific.com/","en-US,en;q=0.9","66f4c82536b5c8271f53564c","686e379bc37a29ffa5cdc956","6877c35d39cd42d81293ab6d","1","1","66f4c82536b5c8271f53564c","1","1","2025-07-16T15:42:29.194Z","","","","","","","","","","","AttribQ","","50","","","","","","","","","","","","","","","","","","","","","","","","","","","","",""
"5993","","<div style=""width:500px;"">
  <p>How much control did you have over the ball?</p>
  </div>","21","html-slider-response","61","1269535","0.0-5.0-2.10","117","1","2025-07-16 15:21:22","1f75c3e559b7213887762d5229550c2b","24.179.6.210","Mozilla/5.0 (Windows NT 10.0; Win64; x64) AppleWebKit/537.36 (KHTML, like Gecko) Chrome/138.0.0.0 Safari/537.36","WebKit","Chrome","138.0.0.0","Windows","10.0","https://app.prolific.com/","en-US,en;q=0.9","66f4c82536b5c8271f53564c","686e379bc37a29ffa5cdc956","6877c35d39cd42d81293ab6d","1","1","66f4c82536b5c8271f53564c","1","1","2025-07-16T15:42:35.188Z","","","","","","","","","","","ControlQ","","50","","","","","","","","","","","","","","","","","","","","","","","","","","","","",""
"2589","","<div style=""width:500px;"">
  <p>How would you describe your current emotional state?</p>
  </div>","20","html-slider-response","62","1272126","0.0-5.0-3.10","117","1","2025-07-16 15:21:22","1f75c3e559b7213887762d5229550c2b","24.179.6.210","Mozilla/5.0 (Windows NT 10.0; Win64; x64) AppleWebKit/537.36 (KHTML, like Gecko) Chrome/138.0.0.0 Safari/537.36","WebKit","Chrome","138.0.0.0","Windows","10.0","https://app.prolific.com/","en-US,en;q=0.9","66f4c82536b5c8271f53564c","686e379bc37a29ffa5cdc956","6877c35d39cd42d81293ab6d","1","1","66f4c82536b5c8271f53564c","1","1","2025-07-16T15:42:37.779Z","","","","","","","","","","","StressQ","","50","","","","","","","","","","","","","","","","","","","","","","","","","","","","",""
"4241","","<div style=""width:500px;"">
  <p>What best describes how you currently feel?</p>
  </div>","21","html-slider-response","63","1276369","0.0-5.0-4.10","117","1","2025-07-16 15:21:22","1f75c3e559b7213887762d5229550c2b","24.179.6.210","Mozilla/5.0 (Windows NT 10.0; Win64; x64) AppleWebKit/537.36 (KHTML, like Gecko) Chrome/138.0.0.0 Safari/537.36","WebKit","Chrome","138.0.0.0","Windows","10.0","https://app.prolific.com/","en-US,en;q=0.9","66f4c82536b5c8271f53564c","686e379bc37a29ffa5cdc956","6877c35d39cd42d81293ab6d","1","1","66f4c82536b5c8271f53564c","1","1","2025-07-16T15:42:42.023Z","","","","","","","","","","","MotivationQ","","50","","","","","","","","","","","","","","","","","","","","","","","","","","","","",""
"","","","","ctl-task-cpt","64","1308438","0.0-5.0-0.11","117","1","2025-07-16 15:21:22","1f75c3e559b7213887762d5229550c2b","24.179.6.210","Mozilla/5.0 (Windows NT 10.0; Win64; x64) AppleWebKit/537.36 (KHTML, like Gecko) Chrome/138.0.0.0 Safari/537.36","WebKit","Chrome","138.0.0.0","Windows","10.0","https://app.prolific.com/","en-US,en;q=0.9","66f4c82536b5c8271f53564c","686e379bc37a29ffa5cdc956","6877c35d39cd42d81293ab6d","1","1","66f4c82536b5c8271f53564c","1","1","2025-07-16T15:43:14.092Z","","","","","","","","","","","","","","win-only","1","g1:NE,g2:SW","0.6","12","0","1280768.4","2322.5","7325.8","29050.2","1","4","8","6","2","8","8","9","1","0.06818181818181818","1332","3000","1985","[""down"",""left""]","{""num_key_presses"":6,""num_perfect"":5,""num_errors"":0,""num_randdir"":1,""num_randdir_good_moves"":1,""num_whilered"":0,""num_whileblue"":0,""num_blue"":2,""num_good_moves"":6}","[473.8571428571429,455.7633928571429,0.2,473.8571428571429,455.7633928571429,126.6,473.8571428571429,455.7633928571429,249.3,473.8571428571429,455.7633928571429,366.6,473.8571428571429,455.7633928571429,484.1,473.8571428571429,455.7633928571429,605.6,473.8571428571429,455.7633928571429,733.6,295.8571428571429,649.7633928571429,862.7,295.8571428571429,649.7633928571429,976.9,143.85714285714286,788.7633928571429,1104.7,42.85714285714286,852.7633928571429,1231.9,40.85714285714286,852.7633928571429,1338.8,40.85714285714286,852.7633928571429,1453.2,40.85714285714286,852.7633928571429,1571.3,40.85714285714286,852.7633928571429,1699.4,40.85714285714286,852.7633928571429,1819.2,40.85714285714286,852.7633928571429,1937.3,40.85714285714286,852.7633928571429,2077.7,40.85714285714286,852.7633928571429,2179.8,40.85714285714286,852.7633928571429,2285.4,40.85714285714286,852.7633928571429,2392.7,40.85714285714286,852.7633928571429,2496.2,40.85714285714286,852.7633928571429,2597.6,40.85714285714286,852.7633928571429,2703.4,40.85714285714286,852.7633928571429,2811.4,40.85714285714286,852.7633928571429,2912.2,40.85714285714286,852.7633928571429,3014.1,40.85714285714286,852.7633928571429,3115.5,40.85714285714286,852.7633928571429,3217.6,40.85714285714286,852.7633928571429,3318.3,40.85714285714286,852.7633928571429,3419.8,40.85714285714286,852.7633928571429,3522.2,40.85714285714286,852.7633928571429,3626.8,40.85714285714286,852.7633928571429,3733.7,40.85714285714286,852.7633928571429,3837.4,40.85714285714286,852.7633928571429,3938.1,40.85714285714286,852.7633928571429,4038.9,40.85714285714286,852.7633928571429,4146.4,40.85714285714286,852.7633928571429,4254.3,40.85714285714286,852.7633928571429,4358.1,40.85714285714286,852.7633928571429,4462.1,40.85714285714286,852.7633928571429,4569.6,40.85714285714286,852.7633928571429,4674.4,40.85714285714286,852.7633928571429,4782.8,40.85714285714286,852.7633928571429,4888.8,40.85714285714286,852.7633928571429,4994.8]","[1474.1,1474.1,1000,0,474.1,""smooth"",""left"",""left"",""good_move"",6695.4,5221,2173.7,4165.1,356.6,""smooth"",""left"",""left"",""good_move"",10315.8,3620.2,3130.4,6695.6,489.8,""smooth"",""left"",""left"",""good_move"",15936.8,5620.8,2191.6,13414.5,330.7,""oops"",""down"",""down"",""good_move"",18924.3,2986.7,2618.6,15937.6,368.1,""smooth"",""down"",""down"",""good_move"",21475.3,2550.8,2222.2,18924.5,328.6,""smooth"",""down"",""down"",""good_move""]","",""
"56000","","<div style=""width:500px;"">
  <p>What determined the result of this run?</p>
  </div>","27","html-slider-response","65","1364440","0.0-5.0-1.11","117","1","2025-07-16 15:21:22","1f75c3e559b7213887762d5229550c2b","24.179.6.210","Mozilla/5.0 (Windows NT 10.0; Win64; x64) AppleWebKit/537.36 (KHTML, like Gecko) Chrome/138.0.0.0 Safari/537.36","WebKit","Chrome","138.0.0.0","Windows","10.0","https://app.prolific.com/","en-US,en;q=0.9","66f4c82536b5c8271f53564c","686e379bc37a29ffa5cdc956","6877c35d39cd42d81293ab6d","1","1","66f4c82536b5c8271f53564c","1","1","2025-07-16T15:44:10.093Z","","","","","","","","","","","AttribQ","","50","","","","","","","","","","","","","","","","","","","","","","","","","","","","",""
"10230","","<div style=""width:500px;"">
  <p>How much control did you have over the ball?</p>
  </div>","66","html-slider-response","66","1374673","0.0-5.0-2.11","117","1","2025-07-16 15:21:22","1f75c3e559b7213887762d5229550c2b","24.179.6.210","Mozilla/5.0 (Windows NT 10.0; Win64; x64) AppleWebKit/537.36 (KHTML, like Gecko) Chrome/138.0.0.0 Safari/537.36","WebKit","Chrome","138.0.0.0","Windows","10.0","https://app.prolific.com/","en-US,en;q=0.9","66f4c82536b5c8271f53564c","686e379bc37a29ffa5cdc956","6877c35d39cd42d81293ab6d","1","1","66f4c82536b5c8271f53564c","1","1","2025-07-16T15:44:20.326Z","","","","","","","","","","","ControlQ","","50","","","","","","","","","","","","","","","","","","","","","","","","","","","","",""
"8628","","<div style=""width:500px;"">
  <p>How would you describe your current emotional state?</p>
  </div>","93","html-slider-response","67","1383303","0.0-5.0-3.11","117","1","2025-07-16 15:21:22","1f75c3e559b7213887762d5229550c2b","24.179.6.210","Mozilla/5.0 (Windows NT 10.0; Win64; x64) AppleWebKit/537.36 (KHTML, like Gecko) Chrome/138.0.0.0 Safari/537.36","WebKit","Chrome","138.0.0.0","Windows","10.0","https://app.prolific.com/","en-US,en;q=0.9","66f4c82536b5c8271f53564c","686e379bc37a29ffa5cdc956","6877c35d39cd42d81293ab6d","1","1","66f4c82536b5c8271f53564c","1","1","2025-07-16T15:44:28.956Z","","","","","","","","","","","StressQ","","50","","","","","","","","","","","","","","","","","","","","","","","","","","","","",""
"2905","","<div style=""width:500px;"">
  <p>What best describes how you currently feel?</p>
  </div>","21","html-slider-response","68","1386209","0.0-5.0-4.11","117","1","2025-07-16 15:21:22","1f75c3e559b7213887762d5229550c2b","24.179.6.210","Mozilla/5.0 (Windows NT 10.0; Win64; x64) AppleWebKit/537.36 (KHTML, like Gecko) Chrome/138.0.0.0 Safari/537.36","WebKit","Chrome","138.0.0.0","Windows","10.0","https://app.prolific.com/","en-US,en;q=0.9","66f4c82536b5c8271f53564c","686e379bc37a29ffa5cdc956","6877c35d39cd42d81293ab6d","1","1","66f4c82536b5c8271f53564c","1","1","2025-07-16T15:44:31.862Z","","","","","","","","","","","MotivationQ","","50","","","","","","","","","","","","","","","","","","","","","","","","","","","","",""
"","","","","ctl-task-cpt","69","1420874","0.0-5.0-0.12","117","1","2025-07-16 15:21:22","1f75c3e559b7213887762d5229550c2b","24.179.6.210","Mozilla/5.0 (Windows NT 10.0; Win64; x64) AppleWebKit/537.36 (KHTML, like Gecko) Chrome/138.0.0.0 Safari/537.36","WebKit","Chrome","138.0.0.0","Windows","10.0","https://app.prolific.com/","en-US,en;q=0.9","66f4c82536b5c8271f53564c","686e379bc37a29ffa5cdc956","6877c35d39cd42d81293ab6d","1","1","66f4c82536b5c8271f53564c","1","1","2025-07-16T15:45:06.527Z","","","","","","","","","","","","","","win-only","0","g1:NW,g2:SE","0.7","13","0","1390607.4","3537.5","8538.8","31640.9","1","4","8","6","2","8","7","16","9","0.12121212121212122","1367.8","3000","2185","[""down"",""right""]","{""num_key_presses"":7,""num_perfect"":6,""num_errors"":1,""num_randdir"":0,""num_randdir_good_moves"":0,""num_whilered"":0,""num_whileblue"":0,""num_blue"":1,""num_good_moves"":6}","[455.8571428571429,462.7633928571429,0.3,455.8571428571429,462.7633928571429,110,455.8571428571429,462.7633928571429,216.2,455.8571428571429,462.7633928571429,323.1,455.8571428571429,462.7633928571429,424.5,455.8571428571429,462.7633928571429,524.7,455.8571428571429,462.7633928571429,631.3,625.8571428571429,632.7633928571429,731.9,953.8571428571429,935.7633928571429,833.1,953.8571428571429,935.7633928571429,933.5,953.8571428571429,935.7633928571429,1036.4,953.8571428571429,935.7633928571429,1145,912.8571428571429,893.7633928571429,1247.3,901.8571428571429,884.7633928571429,1354.5,901.8571428571429,884.7633928571429,1461.6,901.8571428571429,884.7633928571429,1563.5,901.8571428571429,884.7633928571429,1667,901.8571428571429,884.7633928571429,1768.3,901.8571428571429,884.7633928571429,1876,901.8571428571429,884.7633928571429,1979.8,901.8571428571429,884.7633928571429,2082.7,901.8571428571429,884.7633928571429,2184,901.8571428571429,884.7633928571429,2294,901.8571428571429,884.7633928571429,2405.9,901.8571428571429,884.7633928571429,2519.5,901.8571428571429,884.7633928571429,2620.3,901.8571428571429,884.7633928571429,2728.7,901.8571428571429,884.7633928571429,2834.2,901.8571428571429,884.7633928571429,2934.7,901.8571428571429,884.7633928571429,3036.3,901.8571428571429,884.7633928571429,3138.7,901.8571428571429,884.7633928571429,3239.5,901.8571428571429,884.7633928571429,3347.6,901.8571428571429,884.7633928571429,3457.1,901.8571428571429,884.7633928571429,3561.1,901.8571428571429,884.7633928571429,3663.6,901.8571428571429,884.7633928571429,3770.9,901.8571428571429,884.7633928571429,3872.8,901.8571428571429,884.7633928571429,3975.9,901.8571428571429,884.7633928571429,4078.3,901.8571428571429,884.7633928571429,4179.2,901.8571428571429,884.7633928571429,4288.4,901.8571428571429,884.7633928571429,4393.8,901.8571428571429,884.7633928571429,4496.8,901.8571428571429,884.7633928571429,4598.4,901.8571428571429,884.7633928571429,4705.6,901.8571428571429,884.7633928571429,4812.6,901.8571428571429,884.7633928571429,4914.7]","[555,555,1000,0,-445,""error"",""-"",""-"",""no_move"",4969.2,4414,3101.9,1566.5,300.8,""smooth"",""right"",""right"",""good_move"",8370.6,3401,2985,4969.6,416,""smooth"",""right"",""right"",""good_move"",11298.7,2928,2361.4,8370.8,566.6,""smooth"",""right"",""right"",""good_move"",16972.8,5673.8,2087.4,14544,341.5,""smooth"",""down"",""down"",""good_move"",19875.9,2902.8,2544.6,16973.1,358.2,""smooth"",""down"",""down"",""good_move"",22920.6,3044.5,2749.9,19876.1,294.6,""smooth"",""down"",""down"",""good_move""]","",""
"18805","","<div style=""width:500px;"">
  <p>What determined the result of this run?</p>
  </div>","74","html-slider-response","70","1439681","0.0-5.0-1.12","117","1","2025-07-16 15:21:22","1f75c3e559b7213887762d5229550c2b","24.179.6.210","Mozilla/5.0 (Windows NT 10.0; Win64; x64) AppleWebKit/537.36 (KHTML, like Gecko) Chrome/138.0.0.0 Safari/537.36","WebKit","Chrome","138.0.0.0","Windows","10.0","https://app.prolific.com/","en-US,en;q=0.9","66f4c82536b5c8271f53564c","686e379bc37a29ffa5cdc956","6877c35d39cd42d81293ab6d","1","1","66f4c82536b5c8271f53564c","1","1","2025-07-16T15:45:25.334Z","","","","","","","","","","","AttribQ","","50","","","","","","","","","","","","","","","","","","","","","","","","","","","","",""
"8001","","<div style=""width:500px;"">
  <p>How much control did you have over the ball?</p>
  </div>","70","html-slider-response","71","1447684","0.0-5.0-2.12","117","1","2025-07-16 15:21:22","1f75c3e559b7213887762d5229550c2b","24.179.6.210","Mozilla/5.0 (Windows NT 10.0; Win64; x64) AppleWebKit/537.36 (KHTML, like Gecko) Chrome/138.0.0.0 Safari/537.36","WebKit","Chrome","138.0.0.0","Windows","10.0","https://app.prolific.com/","en-US,en;q=0.9","66f4c82536b5c8271f53564c","686e379bc37a29ffa5cdc956","6877c35d39cd42d81293ab6d","1","1","66f4c82536b5c8271f53564c","1","1","2025-07-16T15:45:33.337Z","","","","","","","","","","","ControlQ","","50","","","","","","","","","","","","","","","","","","","","","","","","","","","","",""
"5399","","<div style=""width:500px;"">
  <p>How would you describe your current emotional state?</p>
  </div>","91","html-slider-response","72","1453085","0.0-5.0-3.12","117","1","2025-07-16 15:21:22","1f75c3e559b7213887762d5229550c2b","24.179.6.210","Mozilla/5.0 (Windows NT 10.0; Win64; x64) AppleWebKit/537.36 (KHTML, like Gecko) Chrome/138.0.0.0 Safari/537.36","WebKit","Chrome","138.0.0.0","Windows","10.0","https://app.prolific.com/","en-US,en;q=0.9","66f4c82536b5c8271f53564c","686e379bc37a29ffa5cdc956","6877c35d39cd42d81293ab6d","1","1","66f4c82536b5c8271f53564c","1","1","2025-07-16T15:45:38.738Z","","","","","","","","","","","StressQ","","50","","","","","","","","","","","","","","","","","","","","","","","","","","","","",""
"6668","","<div style=""width:500px;"">
  <p>What best describes how you currently feel?</p>
  </div>","13","html-slider-response","73","1459756","0.0-5.0-4.12","117","1","2025-07-16 15:21:22","1f75c3e559b7213887762d5229550c2b","24.179.6.210","Mozilla/5.0 (Windows NT 10.0; Win64; x64) AppleWebKit/537.36 (KHTML, like Gecko) Chrome/138.0.0.0 Safari/537.36","WebKit","Chrome","138.0.0.0","Windows","10.0","https://app.prolific.com/","en-US,en;q=0.9","66f4c82536b5c8271f53564c","686e379bc37a29ffa5cdc956","6877c35d39cd42d81293ab6d","1","1","66f4c82536b5c8271f53564c","1","1","2025-07-16T15:45:45.409Z","","","","","","","","","","","MotivationQ","","50","","","","","","","","","","","","","","","","","","","","","","","","","","","","",""
"","","","","ctl-task-cpt","74","1488106","0.0-5.0-0.13","117","1","2025-07-16 15:21:22","1f75c3e559b7213887762d5229550c2b","24.179.6.210","Mozilla/5.0 (Windows NT 10.0; Win64; x64) AppleWebKit/537.36 (KHTML, like Gecko) Chrome/138.0.0.0 Safari/537.36","WebKit","Chrome","138.0.0.0","Windows","10.0","https://app.prolific.com/","en-US,en;q=0.9","66f4c82536b5c8271f53564c","686e379bc37a29ffa5cdc956","6877c35d39cd42d81293ab6d","1","1","66f4c82536b5c8271f53564c","1","1","2025-07-16T15:46:13.759Z","","","","","","","","","","","","","","win-only","3","g1:SW,g2:NE","0.8","14","0","1464156.2","1849","6876.3","25330.6","1","4","4","6","2","4","3","19","16","0.14393939393939395","1037.3","3000","2520","[""up"",""right""]","{""num_key_presses"":6,""num_perfect"":5,""num_errors"":1,""num_randdir"":0,""num_randdir_good_moves"":0,""num_whilered"":0,""num_whileblue"":1,""num_blue"":2,""num_good_moves"":6}","[458.8571428571429,470.7633928571429,0.2,458.8571428571429,470.7633928571429,130.5,458.8571428571429,470.7633928571429,256.2,458.8571428571429,470.7633928571429,391.3,458.8571428571429,470.7633928571429,521.5,784.8571428571429,137.76339285714286,651.1,855.8571428571429,42.76339285714286,779.4,855.8571428571429,42.76339285714286,896.9,855.8571428571429,42.76339285714286,1024.9,855.8571428571429,42.76339285714286,1133.2,855.8571428571429,42.76339285714286,1251.5,855.8571428571429,42.76339285714286,1367.4,855.8571428571429,42.76339285714286,1481.6,855.8571428571429,42.76339285714286,1601.5,855.8571428571429,42.76339285714286,1714.6,855.8571428571429,42.76339285714286,1817.3,855.8571428571429,42.76339285714286,1923.2,855.8571428571429,42.76339285714286,2031.7,855.8571428571429,42.76339285714286,2143.6,855.8571428571429,42.76339285714286,2250.9,855.8571428571429,42.76339285714286,2358.7,855.8571428571429,42.76339285714286,2461.1,855.8571428571429,42.76339285714286,2568.5,855.8571428571429,42.76339285714286,2678.4,855.8571428571429,42.76339285714286,2787.9,855.8571428571429,42.76339285714286,2897.6,855.8571428571429,42.76339285714286,3011.5,855.8571428571429,42.76339285714286,3117.3,855.8571428571429,42.76339285714286,3227.5,855.8571428571429,42.76339285714286,3338.6,855.8571428571429,42.76339285714286,3445.8,855.8571428571429,42.76339285714286,3555.7,855.8571428571429,42.76339285714286,3663.2,855.8571428571429,42.76339285714286,3767.9,855.8571428571429,42.76339285714286,3875.7,855.8571428571429,42.76339285714286,3978.7,855.8571428571429,42.76339285714286,4088.5,855.8571428571429,42.76339285714286,4199.4,855.8571428571429,42.76339285714286,4311.5,855.8571428571429,42.76339285714286,4423,855.8571428571429,42.76339285714286,4530.6,855.8571428571429,42.76339285714286,4635.9,855.8571428571429,42.76339285714286,4742,855.8571428571429,42.76339285714286,4849.9,855.8571428571429,42.76339285714286,4955.9]","[4953.9,4953.9,2545.2,2025.4,383.3,""smooth"",""right"",""right"",""good_move"",7616.1,2661.8,2231.9,4954.4,429.9,""smooth"",""right"",""right"",""good_move"",10554.8,2938.5,2497.3,7616.3,441.2,""smooth"",""right"",""right"",""good_move"",12881.9,2326.8,1890,10555.1,436.8,""while_blue"",""up"",""up"",""good_move"",15872.1,2989.5,2596.2,12882.6,393.3,""smooth"",""up"",""up"",""good_move"",18228.9,2356.7,2019.8,15872.2,336.9,""smooth"",""up"",""up"",""good_move""]","",""
"5329","","<div style=""width:500px;"">
  <p>What determined the result of this run?</p>
  </div>","19","html-slider-response","75","1493435","0.0-5.0-1.13","117","1","2025-07-16 15:21:22","1f75c3e559b7213887762d5229550c2b","24.179.6.210","Mozilla/5.0 (Windows NT 10.0; Win64; x64) AppleWebKit/537.36 (KHTML, like Gecko) Chrome/138.0.0.0 Safari/537.36","WebKit","Chrome","138.0.0.0","Windows","10.0","https://app.prolific.com/","en-US,en;q=0.9","66f4c82536b5c8271f53564c","686e379bc37a29ffa5cdc956","6877c35d39cd42d81293ab6d","1","1","66f4c82536b5c8271f53564c","1","1","2025-07-16T15:46:19.089Z","","","","","","","","","","","AttribQ","","50","","","","","","","","","","","","","","","","","","","","","","","","","","","","",""
"4566","","<div style=""width:500px;"">
  <p>How much control did you have over the ball?</p>
  </div>","24","html-slider-response","76","1498003","0.0-5.0-2.13","117","1","2025-07-16 15:21:22","1f75c3e559b7213887762d5229550c2b","24.179.6.210","Mozilla/5.0 (Windows NT 10.0; Win64; x64) AppleWebKit/537.36 (KHTML, like Gecko) Chrome/138.0.0.0 Safari/537.36","WebKit","Chrome","138.0.0.0","Windows","10.0","https://app.prolific.com/","en-US,en;q=0.9","66f4c82536b5c8271f53564c","686e379bc37a29ffa5cdc956","6877c35d39cd42d81293ab6d","1","1","66f4c82536b5c8271f53564c","1","1","2025-07-16T15:46:23.656Z","","","","","","","","","","","ControlQ","","50","","","","","","","","","","","","","","","","","","","","","","","","","","","","",""
"4314","","<div style=""width:500px;"">
