"rt","response_timestamp","stimulus","response","trial_type","trial_index","time_elapsed","internal_node_id","run_id","condition","recorded_at","source_code_version","ip","user_agent","device","browser","browser_version","platform","platform_version","referer","accept_language","PROLIFIC_PID","STUDY_ID","SESSION_ID","WEEK","BATCH","prolific_id","week","batch","realtime","success","responses","item_order","radio_event_ids","radio_event_times","key_event_times","mouse_event_times","straightlining","zigzagging","honeypot","eventType","view_history","slider_start","which_type","canvas_config","goals_layout","control_level","trial_number","tutorial_trial_number","trial_start_time","phase1_start_time","phase2_start_time","phase3_start_time","goal_1_value","goal_1_distance","goal_2_value","goal_2_distance","goal_selected","outcome","outcome_total","participant_final_score","participant_initial_score","participant_final_score_prop","goal_choice_rt","allocated_time","allocated_time_remaining","goal_direction","counts","mouse_movements","key_presses","question_order","question_id"
"13121","1752654440538","<p style='font-size:40px;line-height:1.25'><strong>Welcome to the experiment!</strong></p><p style='font-size:1.1em;line-height:1.25'>Thank you for participanting in our experiment again! You will be asked to play the Dysfunctional Ball Game again. We will briefly recap the rules before we start.</p><p style='font-size:1.1em;line-height:1.25'>Press <strong>Next</strong> to continue.</p>","0","custom-html-button-response","0","13126","0.0-0.0","60","1","2025-07-16 08:27:03","1f75c3e559b7213887762d5229550c2b","102.66.141.24","Mozilla/5.0 (Windows NT 10.0; Win64; x64) AppleWebKit/537.36 (KHTML, like Gecko) Chrome/138.0.0.0 Safari/537.36","WebKit","Chrome","138.0.0.0","Windows","10.0","https://app.prolific.com/","en-US,en;q=0.9","60f41ae35227aa02240ba0d9","686e379bc37a29ffa5cdc956","68776180ebdb0ee0ab9e5fe0","1","1","60f41ae35227aa02240ba0d9","1","1","2025-07-16T08:27:20.540Z","","","","","","","","","","","","","","","","","","","","","","","","","","","","","","","","","","","","","","","","","",""
"8858","","","","fullscreen","1","23010","0.0-1.0","60","1","2025-07-16 08:27:03","1f75c3e559b7213887762d5229550c2b","102.66.141.24","Mozilla/5.0 (Windows NT 10.0; Win64; x64) AppleWebKit/537.36 (KHTML, like Gecko) Chrome/138.0.0.0 Safari/537.36","WebKit","Chrome","138.0.0.0","Windows","10.0","https://app.prolific.com/","en-US,en;q=0.9","60f41ae35227aa02240ba0d9","686e379bc37a29ffa5cdc956","68776180ebdb0ee0ab9e5fe0","1","1","60f41ae35227aa02240ba0d9","1","1","","true","","","","","","","","","","","","","","","","","","","","","","","","","","","","","","","","","","","","","","","","",""
"1788","1752654452225","<p style='font-size:1.1em;line-height:1.25'>In the following, we will ask you a few questions relating to your feelings in the last 24 hours.<br></p><p style='font-size:1.1em;line-height:1.25'>Press the <strong>Next</strong> button to continue.</p>","0","custom-html-button-response","2","24811","0.0-2.0-0.0","60","1","2025-07-16 08:27:03","1f75c3e559b7213887762d5229550c2b","102.66.141.24","Mozilla/5.0 (Windows NT 10.0; Win64; x64) AppleWebKit/537.36 (KHTML, like Gecko) Chrome/138.0.0.0 Safari/537.36","WebKit","Chrome","138.0.0.0","Windows","10.0","https://app.prolific.com/","en-US,en;q=0.9","60f41ae35227aa02240ba0d9","686e379bc37a29ffa5cdc956","68776180ebdb0ee0ab9e5fe0","1","1","60f41ae35227aa02240ba0d9","1","1","2025-07-16T08:27:32.225Z","","","","","","","","","","","","","","","","","","","","","","","","","","","","","","","","","","","","","","","","","",""
"75661.20000000298","","","","survey-template","3","100485","0.0-2.0-1.0","60","1","2025-07-16 08:27:03","1f75c3e559b7213887762d5229550c2b","102.66.141.24","Mozilla/5.0 (Windows NT 10.0; Win64; x64) AppleWebKit/537.36 (KHTML, like Gecko) Chrome/138.0.0.0 Safari/537.36","WebKit","Chrome","138.0.0.0","Windows","10.0","https://app.prolific.com/","en-US,en;q=0.9","60f41ae35227aa02240ba0d9","686e379bc37a29ffa5cdc956","68776180ebdb0ee0ab9e5fe0","1","1","60f41ae35227aa02240ba0d9","1","1","2025-07-16T08:28:47.899Z","","{""Q01"":""0"",""Q02"":""0"",""Q03"":""0"",""Q04"":""0"",""Q05"":""0"",""Q06"":""0"",""Q07"":""0"",""Q08"":""0"",""Q09"":""0"",""Q10"":""0"",""Q11"":""0"",""Q12"":""1"",""Q13"":""5"",""Q14"":""0"",""Q15"":""0"",""Q16"":""0"",""Q17"":""0"",""Q18"":""0"",""Q19"":""0"",""Q20"":""0"",""Q21"":""0"",""Q22"":""0""}","[0,1,2,3,4,5,6,7,8,9,10,11,12,13,14,15,16,17,18,19,20,21]","[""Q01"",""Q02"",""Q03"",""Q04"",""Q05"",""Q06"",""Q07"",""Q08"",""Q09"",""Q10"",""Q11"",""Q12"",""Q12"",""Q13"",""Q14"",""Q15"",""Q16"",""Q17"",""Q18"",""Q19"",""Q20"",""Q21"",""Q22""]","[6709.70000000298,8872.5,12693.90000000596,14010.10000000894,15537.5,17746.90000000596,19977.90000000596,22512.40000000596,23862.40000000596,25579.40000000596,32763,35321.90000000596,36993.60000000894,39861.60000000894,42457.90000000596,46279.90000000596,50859.10000000894,53345.60000000894,55563.80000001192,56896.20000000298,65030.30000001192,69119.60000000894,72745.40000000596]","[]","[0.20000000298023224,6709.70000000298,8872.5,11626.90000000596,12693.90000000596,14010.10000000894,15537.5,17746.90000000596,19977.90000000596,22512.40000000596,23862.40000000596,25579.40000000596,32763,35321.90000000596,36993.60000000894,39861.60000000894,42457.90000000596,45377.10000000894,46279.90000000596,50859.10000000894,53345.60000000894,55563.80000001192,56896.20000000298,63633.20000000298,65030.30000001192,67184,69119.60000000894,72745.40000000596,75461.5]","0.9090909090909091","0.09523809523809523","0","drsp","","","","","","","","","","","","","","","","","","","","","","","","","","","","","","",""
"18775.29999999702","","","","survey-template","4","119266","0.0-2.0-2.0","60","1","2025-07-16 08:27:03","1f75c3e559b7213887762d5229550c2b","102.66.141.24","Mozilla/5.0 (Windows NT 10.0; Win64; x64) AppleWebKit/537.36 (KHTML, like Gecko) Chrome/138.0.0.0 Safari/537.36","WebKit","Chrome","138.0.0.0","Windows","10.0","https://app.prolific.com/","en-US,en;q=0.9","60f41ae35227aa02240ba0d9","686e379bc37a29ffa5cdc956","68776180ebdb0ee0ab9e5fe0","1","1","60f41ae35227aa02240ba0d9","1","1","2025-07-16T08:29:06.680Z","","{""Q01"":""0"",""Q02"":""3"",""Q03"":""0""}","[0,1,2]","[""Q01"",""Q02"",""Q03""]","[3478.2000000029802,12858.5,17389.10000000894]","[]","[3478.2000000029802,12858.5,17389.10000000894,18774.29999999702]","0.6666666666666666","0","0","stress","","","","","","","","","","","","","","","","","","","","","","","","","","","","","","",""
"7332","","","","instructions","5","126600","0.0-3.0-0.0","60","1","2025-07-16 08:27:03","1f75c3e559b7213887762d5229550c2b","102.66.141.24","Mozilla/5.0 (Windows NT 10.0; Win64; x64) AppleWebKit/537.36 (KHTML, like Gecko) Chrome/138.0.0.0 Safari/537.36","WebKit","Chrome","138.0.0.0","Windows","10.0","https://app.prolific.com/","en-US,en;q=0.9","60f41ae35227aa02240ba0d9","686e379bc37a29ffa5cdc956","68776180ebdb0ee0ab9e5fe0","1","1","60f41ae35227aa02240ba0d9","1","1","","","","","","","","","","","","","[{""page_index"":0,""viewing_time"":7332}]","","","","","","","","","","","","","","","","","","","","","","","","","","","","","",""
"14181","","<p>Before you start with this game please answer the following three questions yourself. </p>
  <p>Through this game, we measure several aspects of your cognitive performance, such as reaction times, multi-tasking capabilities </p>
  <p>and the ability to assess the situation you are in.</p>
  <p></p>
  <p><b>How good do you usually are in such tasks?</b></p>","69","html-slider-response","6","140799","0.0-4.0-0.0","60","1","2025-07-16 08:27:03","1f75c3e559b7213887762d5229550c2b","102.66.141.24","Mozilla/5.0 (Windows NT 10.0; Win64; x64) AppleWebKit/537.36 (KHTML, like Gecko) Chrome/138.0.0.0 Safari/537.36","WebKit","Chrome","138.0.0.0","Windows","10.0","https://app.prolific.com/","en-US,en;q=0.9","60f41ae35227aa02240ba0d9","686e379bc37a29ffa5cdc956","68776180ebdb0ee0ab9e5fe0","1","1","60f41ae35227aa02240ba0d9","1","1","2025-07-16T08:29:28.213Z","","","","","","","","","","","PreSkillQ","","50","","","","","","","","","","","","","","","","","","","","","","","","","","","","",""
"6167","","<div style=""width:500px;"">
  <p>How well do you think you will perform in this task compared to other participants?</p>
  </div>","75","html-slider-response","7","146971","0.0-4.0-1.0","60","1","2025-07-16 08:27:03","1f75c3e559b7213887762d5229550c2b","102.66.141.24","Mozilla/5.0 (Windows NT 10.0; Win64; x64) AppleWebKit/537.36 (KHTML, like Gecko) Chrome/138.0.0.0 Safari/537.36","WebKit","Chrome","138.0.0.0","Windows","10.0","https://app.prolific.com/","en-US,en;q=0.9","60f41ae35227aa02240ba0d9","686e379bc37a29ffa5cdc956","68776180ebdb0ee0ab9e5fe0","1","1","60f41ae35227aa02240ba0d9","1","1","2025-07-16T08:29:34.385Z","","","","","","","","","","","PrePerfQ","","50","","","","","","","","","","","","","","","","","","","","","","","","","","","","",""
"5343","","<div style=""width:500px;"">
  <p>What best describes how you currently feel?</p>
  </div>","78","html-slider-response","8","152320","0.0-4.0-2.0","60","1","2025-07-16 08:27:03","1f75c3e559b7213887762d5229550c2b","102.66.141.24","Mozilla/5.0 (Windows NT 10.0; Win64; x64) AppleWebKit/537.36 (KHTML, like Gecko) Chrome/138.0.0.0 Safari/537.36","WebKit","Chrome","138.0.0.0","Windows","10.0","https://app.prolific.com/","en-US,en;q=0.9","60f41ae35227aa02240ba0d9","686e379bc37a29ffa5cdc956","68776180ebdb0ee0ab9e5fe0","1","1","60f41ae35227aa02240ba0d9","1","1","2025-07-16T08:29:39.734Z","","","","","","","","","","","PreMotivationQ","","50","","","","","","","","","","","","","","","","","","","","","","","","","","","","",""
"","","","","ctl-task-cpt","9","202974","0.0-5.0-0.0","60","1","2025-07-16 08:27:03","1f75c3e559b7213887762d5229550c2b","102.66.141.24","Mozilla/5.0 (Windows NT 10.0; Win64; x64) AppleWebKit/537.36 (KHTML, like Gecko) Chrome/138.0.0.0 Safari/537.36","WebKit","Chrome","138.0.0.0","Windows","10.0","https://app.prolific.com/","en-US,en;q=0.9","60f41ae35227aa02240ba0d9","686e379bc37a29ffa5cdc956","68776180ebdb0ee0ab9e5fe0","1","1","60f41ae35227aa02240ba0d9","1","1","2025-07-16T08:30:30.388Z","","","","","","","","","","","","","","win-only","0","g1:NW,g2:SE","1","1","0","156465.6","23612.3","28632.7","47615.5","1","4","4","6","2","4","4","4","0","0.030303030303030304","2135.6","3000","365","[""down"",""right""]","{""num_key_presses"":6,""num_perfect"":6,""num_errors"":0,""num_randdir"":0,""num_randdir_good_moves"":0,""num_whilered"":0,""num_whileblue"":0,""num_blue"":0,""num_good_moves"":6}","[414.0714133126395,416.57142761775424,1.9,414.0714133126395,416.57142761775424,110.2,414.0714133126395,416.57142761775424,215.3,414.0714133126395,416.57142761775424,315.3,414.0714133126395,416.57142761775424,420.4,414.0714133126395,416.57142761775424,525.6,414.0714133126395,416.57142761775424,629.9,414.0714133126395,416.57142761775424,735.2,407.8214133126395,411.57142761775424,849.8,426.5714133126395,426.57142761775424,949.8,696.5714133126395,541.5714276177542,1049.9,745.3214133126395,572.8214276177542,1149.9,745.3214133126395,572.8214276177542,1250.7,745.3214133126395,572.8214276177542,1366.7,741.5714133126395,584.0714276177542,1469.9,752.8214133126395,681.5714276177542,1571.2,772.8214133126395,699.0714276177542,1692.1,775.3214133126395,721.5714276177542,1804.7,765.3214133126395,742.8214276177542,1906.5,765.3214133126395,742.8214276177542,2009.9,765.3214133126395,742.8214276177542,2111,765.3214133126395,742.8214276177542,2215.5,765.3214133126395,742.8214276177542,2319.6,765.3214133126395,742.8214276177542,2424.5,765.3214133126395,742.8214276177542,2528.8,765.3214133126395,742.8214276177542,2630.8,765.3214133126395,742.8214276177542,2736.6,765.3214133126395,742.8214276177542,2840.2,765.3214133126395,742.8214276177542,2945.2,765.3214133126395,742.8214276177542,3057.2,765.3214133126395,742.8214276177542,3174.5,765.3214133126395,742.8214276177542,3294.9,765.3214133126395,742.8214276177542,3399.8,765.3214133126395,742.8214276177542,3504.1,765.3214133126395,742.8214276177542,3629.7,765.3214133126395,742.8214276177542,3733.8,765.3214133126395,742.8214276177542,3833.9,765.3214133126395,742.8214276177542,3935.4,765.3214133126395,742.8214276177542,4047.7,765.3214133126395,742.8214276177542,4150,765.3214133126395,742.8214276177542,4256,765.3214133126395,742.8214276177542,4361.6,765.3214133126395,742.8214276177542,4469.5,687.8214133126395,676.5714276177542,4573.7,614.0714133126395,642.8214276177542,4686.6,522.8214133126395,776.5714276177542,4796,525.3214133126395,785.3214276177542,4901.5]","[1728.7,1728.7,1000,0,728.7,""smooth"",""down"",""down"",""good_move"",4644,2914.1,2453.9,1730,460.1,""smooth"",""down"",""down"",""good_move"",8245.1,3598.6,3188.6,4646.5,410,""smooth"",""down"",""down"",""good_move"",11895.7,3649.7,3013.6,8246,636.1,""smooth"",""right"",""right"",""good_move"",15932.1,4033.7,3452.5,11898.5,581.1,""smooth"",""right"",""right"",""good_move"",18861,2927.8,2514,15933.3,413.7,""smooth"",""right"",""right"",""good_move""]","",""
"5266","","<div style=""width:500px;"">
  <p>What determined the result of this run?</p>
  </div>","82","html-slider-response","10","208256","0.0-5.0-1.0","60","1","2025-07-16 08:27:03","1f75c3e559b7213887762d5229550c2b","102.66.141.24","Mozilla/5.0 (Windows NT 10.0; Win64; x64) AppleWebKit/537.36 (KHTML, like Gecko) Chrome/138.0.0.0 Safari/537.36","WebKit","Chrome","138.0.0.0","Windows","10.0","https://app.prolific.com/","en-US,en;q=0.9","60f41ae35227aa02240ba0d9","686e379bc37a29ffa5cdc956","68776180ebdb0ee0ab9e5fe0","1","1","60f41ae35227aa02240ba0d9","1","1","2025-07-16T08:30:35.670Z","","","","","","","","","","","AttribQ","","50","","","","","","","","","","","","","","","","","","","","","","","","","","","","",""
"4811","","<div style=""width:500px;"">
  <p>How much control did you have over the ball?</p>
  </div>","76","html-slider-response","11","213070","0.0-5.0-2.0","60","1","2025-07-16 08:27:03","1f75c3e559b7213887762d5229550c2b","102.66.141.24","Mozilla/5.0 (Windows NT 10.0; Win64; x64) AppleWebKit/537.36 (KHTML, like Gecko) Chrome/138.0.0.0 Safari/537.36","WebKit","Chrome","138.0.0.0","Windows","10.0","https://app.prolific.com/","en-US,en;q=0.9","60f41ae35227aa02240ba0d9","686e379bc37a29ffa5cdc956","68776180ebdb0ee0ab9e5fe0","1","1","60f41ae35227aa02240ba0d9","1","1","2025-07-16T08:30:40.484Z","","","","","","","","","","","ControlQ","","50","","","","","","","","","","","","","","","","","","","","","","","","","","","","",""
"5634","","<div style=""width:500px;"">
  <p>How would you describe your current emotional state?</p>
  </div>","15","html-slider-response","12","218705","0.0-5.0-3.0","60","1","2025-07-16 08:27:03","1f75c3e559b7213887762d5229550c2b","102.66.141.24","Mozilla/5.0 (Windows NT 10.0; Win64; x64) AppleWebKit/537.36 (KHTML, like Gecko) Chrome/138.0.0.0 Safari/537.36","WebKit","Chrome","138.0.0.0","Windows","10.0","https://app.prolific.com/","en-US,en;q=0.9","60f41ae35227aa02240ba0d9","686e379bc37a29ffa5cdc956","68776180ebdb0ee0ab9e5fe0","1","1","60f41ae35227aa02240ba0d9","1","1","2025-07-16T08:30:46.119Z","","","","","","","","","","","StressQ","","50","","","","","","","","","","","","","","","","","","","","","","","","","","","","",""
"3937","","<div style=""width:500px;"">
  <p>What best describes how you currently feel?</p>
  </div>","88","html-slider-response","13","222644","0.0-5.0-4.0","60","1","2025-07-16 08:27:03","1f75c3e559b7213887762d5229550c2b","102.66.141.24","Mozilla/5.0 (Windows NT 10.0; Win64; x64) AppleWebKit/537.36 (KHTML, like Gecko) Chrome/138.0.0.0 Safari/537.36","WebKit","Chrome","138.0.0.0","Windows","10.0","https://app.prolific.com/","en-US,en;q=0.9","60f41ae35227aa02240ba0d9","686e379bc37a29ffa5cdc956","68776180ebdb0ee0ab9e5fe0","1","1","60f41ae35227aa02240ba0d9","1","1","2025-07-16T08:30:50.058Z","","","","","","","","","","","MotivationQ","","50","","","","","","","","","","","","","","","","","","","","","","","","","","","","",""
"","","","","ctl-task-cpt","14","264382","0.0-5.0-0.1","60","1","2025-07-16 08:27:03","1f75c3e559b7213887762d5229550c2b","102.66.141.24","Mozilla/5.0 (Windows NT 10.0; Win64; x64) AppleWebKit/537.36 (KHTML, like Gecko) Chrome/138.0.0.0 Safari/537.36","WebKit","Chrome","138.0.0.0","Windows","10.0","https://app.prolific.com/","en-US,en;q=0.9","60f41ae35227aa02240ba0d9","686e379bc37a29ffa5cdc956","68776180ebdb0ee0ab9e5fe0","1","1","60f41ae35227aa02240ba0d9","1","1","2025-07-16T08:31:31.797Z","","","","","","","","","","","","","","win-only","1","g1:NE,g2:SW","0.9","2","0","226777.4","16964","21968.6","38695.8","1","4","8","6","2","8","8","12","4","0.09090909090909091","1799","3000","1245","[""down"",""left""]","{""num_key_presses"":6,""num_perfect"":6,""num_errors"":0,""num_randdir"":0,""num_randdir_good_moves"":0,""num_whilered"":0,""num_whileblue"":0,""num_blue"":0,""num_good_moves"":6}","[411.5714133126395,416.57142761775424,0.8,411.5714133126395,416.57142761775424,117.5,411.5714133126395,416.57142761775424,222.5,411.5714133126395,416.57142761775424,327.1,411.5714133126395,416.57142761775424,447.4,411.5714133126395,416.57142761775424,559.8,411.5714133126395,416.57142761775424,660.6,259.0714133126395,547.8214276177542,787.7,137.8214133126395,645.3214276177542,891.6,137.8214133126395,645.3214276177542,998.4,137.8214133126395,645.3214276177542,1103.7,36.57141331263951,735.3214276177542,1204.2,36.57141331263951,751.5714276177542,1304.5,41.57141331263951,761.5714276177542,1408.3,70.3214133126395,757.8214276177542,1533.1,72.8214133126395,757.8214276177542,1634.2,72.8214133126395,757.8214276177542,1737.7,72.8214133126395,757.8214276177542,1856.5,72.8214133126395,757.8214276177542,1965.8,72.8214133126395,757.8214276177542,2083.4,72.8214133126395,757.8214276177542,2183.5,72.8214133126395,757.8214276177542,2285.6,72.8214133126395,757.8214276177542,2389.6,72.8214133126395,757.8214276177542,2492,72.8214133126395,757.8214276177542,2592.1,72.8214133126395,757.8214276177542,2715.1,72.8214133126395,757.8214276177542,2817.2,72.8214133126395,757.8214276177542,2930.5,72.8214133126395,757.8214276177542,3043.6,165.3214133126395,725.3214276177542,3148.7,304.0714133126395,701.5714276177542,3255,304.0714133126395,706.5714276177542,3357.4,302.8214133126395,716.5714276177542,3464.7,266.5714133126395,741.5714276177542,3569.7,221.5714133126395,756.5714276177542,3672.7,204.0714133126395,759.0714276177542,3772.9,201.5714133126395,759.0714276177542,3872.9,204.0714133126395,761.5714276177542,3973.1,211.5714133126395,762.8214276177542,4074.3,216.5714133126395,766.5714276177542,4190.7,216.5714133126395,766.5714276177542,4301.1,216.5714133126395,766.5714276177542,4405.7,216.5714133126395,766.5714276177542,4507.5,216.5714133126395,766.5714276177542,4613.8,216.5714133126395,766.5714276177542,4717.4,216.5714133126395,766.5714276177542,4825.2,131.5714133126395,769.0714276177542,4934.1]","[2139.3,2139.3,1000,0,1139.3,""smooth"",""down"",""down"",""good_move"",4438.8,2298.5,1948.9,2140.5,349.4,""smooth"",""down"",""down"",""good_move"",7903.6,3448.8,3124.2,4454.8,324.6,""smooth"",""down"",""down"",""good_move"",11075.9,3171.3,2738.2,7904.6,433.1,""smooth"",""left"",""left"",""good_move"",13559.6,2482,2039.2,11077.6,442.8,""smooth"",""left"",""left"",""good_move"",16580.4,3019.8,2664.2,13560.6,355.6,""smooth"",""left"",""left"",""good_move""]","",""
"5068","","<div style=""width:500px;"">
  <p>What determined the result of this run?</p>
  </div>","80","html-slider-response","15","269453","0.0-5.0-1.1","60","1","2025-07-16 08:27:03","1f75c3e559b7213887762d5229550c2b","102.66.141.24","Mozilla/5.0 (Windows NT 10.0; Win64; x64) AppleWebKit/537.36 (KHTML, like Gecko) Chrome/138.0.0.0 Safari/537.36","WebKit","Chrome","138.0.0.0","Windows","10.0","https://app.prolific.com/","en-US,en;q=0.9","60f41ae35227aa02240ba0d9","686e379bc37a29ffa5cdc956","68776180ebdb0ee0ab9e5fe0","1","1","60f41ae35227aa02240ba0d9","1","1","2025-07-16T08:31:36.867Z","","","","","","","","","","","AttribQ","","50","","","","","","","","","","","","","","","","","","","","","","","","","","","","",""
"5814","","<div style=""width:500px;"">
  <p>How much control did you have over the ball?</p>
  </div>","80","html-slider-response","16","275270","0.0-5.0-2.1","60","1","2025-07-16 08:27:03","1f75c3e559b7213887762d5229550c2b","102.66.141.24","Mozilla/5.0 (Windows NT 10.0; Win64; x64) AppleWebKit/537.36 (KHTML, like Gecko) Chrome/138.0.0.0 Safari/537.36","WebKit","Chrome","138.0.0.0","Windows","10.0","https://app.prolific.com/","en-US,en;q=0.9","60f41ae35227aa02240ba0d9","686e379bc37a29ffa5cdc956","68776180ebdb0ee0ab9e5fe0","1","1","60f41ae35227aa02240ba0d9","1","1","2025-07-16T08:31:42.684Z","","","","","","","","","","","ControlQ","","50","","","","","","","","","","","","","","","","","","","","","","","","","","","","",""
"7530","","<div style=""width:500px;"">
  <p>How would you describe your current emotional state?</p>
  </div>","6","html-slider-response","17","282803","0.0-5.0-3.1","60","1","2025-07-16 08:27:03","1f75c3e559b7213887762d5229550c2b","102.66.141.24","Mozilla/5.0 (Windows NT 10.0; Win64; x64) AppleWebKit/537.36 (KHTML, like Gecko) Chrome/138.0.0.0 Safari/537.36","WebKit","Chrome","138.0.0.0","Windows","10.0","https://app.prolific.com/","en-US,en;q=0.9","60f41ae35227aa02240ba0d9","686e379bc37a29ffa5cdc956","68776180ebdb0ee0ab9e5fe0","1","1","60f41ae35227aa02240ba0d9","1","1","2025-07-16T08:31:50.217Z","","","","","","","","","","","StressQ","","50","","","","","","","","","","","","","","","","","","","","","","","","","","","","",""
"4696","","<div style=""width:500px;"">
  <p>What best describes how you currently feel?</p>
  </div>","80","html-slider-response","18","287501","0.0-5.0-4.1","60","1","2025-07-16 08:27:03","1f75c3e559b7213887762d5229550c2b","102.66.141.24","Mozilla/5.0 (Windows NT 10.0; Win64; x64) AppleWebKit/537.36 (KHTML, like Gecko) Chrome/138.0.0.0 Safari/537.36","WebKit","Chrome","138.0.0.0","Windows","10.0","https://app.prolific.com/","en-US,en;q=0.9","60f41ae35227aa02240ba0d9","686e379bc37a29ffa5cdc956","68776180ebdb0ee0ab9e5fe0","1","1","60f41ae35227aa02240ba0d9","1","1","2025-07-16T08:31:54.915Z","","","","","","","","","","","MotivationQ","","50","","","","","","","","","","","","","","","","","","","","","","","","","","","","",""
"","","","","ctl-task-cpt","19","339642","0.0-5.0-0.2","60","1","2025-07-16 08:27:03","1f75c3e559b7213887762d5229550c2b","102.66.141.24","Mozilla/5.0 (Windows NT 10.0; Win64; x64) AppleWebKit/537.36 (KHTML, like Gecko) Chrome/138.0.0.0 Safari/537.36","WebKit","Chrome","138.0.0.0","Windows","10.0","https://app.prolific.com/","en-US,en;q=0.9","60f41ae35227aa02240ba0d9","686e379bc37a29ffa5cdc956","68776180ebdb0ee0ab9e5fe0","1","1","60f41ae35227aa02240ba0d9","1","1","2025-07-16T08:32:47.056Z","","","","","","","","","","","","","","win-only","0","g1:NW,g2:SE","0.8","3","0","291616.5","3352.5","8400","49087.2","1","4","8","6","2","8","6","18","12","0.13636363636363635","1575.9","3000","1395","[""down"",""right""]","{""num_key_presses"":11,""num_perfect"":7,""num_errors"":2,""num_randdir"":2,""num_randdir_good_moves"":1,""num_whilered"":0,""num_whileblue"":1,""num_blue"":3,""num_good_moves"":8}","[416.5714133126395,414.07142761775424,0.9,416.5714133126395,414.07142761775424,138.8,416.5714133126395,414.07142761775424,260.5,416.5714133126395,414.07142761775424,364.2,416.5714133126395,414.07142761775424,477.1,416.5714133126395,414.07142761775424,579.8,476.5714133126395,462.82142761775424,692.9,694.0714133126395,630.3214276177542,796.2,706.5714133126395,641.5714276177542,899.6,706.5714133126395,641.5714276177542,999.7,705.3214133126395,665.3214276177542,1116.2,735.3214133126395,731.5714276177542,1219.8,739.0714133126395,735.3214276177542,1321.6,739.0714133126395,735.3214276177542,1425.4,739.0714133126395,735.3214276177542,1530.4,739.0714133126395,735.3214276177542,1630.4,739.0714133126395,735.3214276177542,1764.8,739.0714133126395,735.3214276177542,1871.9,739.0714133126395,735.3214276177542,2000.7,739.0714133126395,735.3214276177542,2105.6,739.0714133126395,735.3214276177542,2211.9,739.0714133126395,735.3214276177542,2314.8,739.0714133126395,735.3214276177542,2419.9,739.0714133126395,735.3214276177542,2536,739.0714133126395,735.3214276177542,2646.4,739.0714133126395,735.3214276177542,2749.9,739.0714133126395,735.3214276177542,2850.2,739.0714133126395,735.3214276177542,2950.2,739.0714133126395,735.3214276177542,3077,739.0714133126395,735.3214276177542,3179,739.0714133126395,735.3214276177542,3291.2,739.0714133126395,735.3214276177542,3400.8,739.0714133126395,735.3214276177542,3506,739.0714133126395,735.3214276177542,3606.1,739.0714133126395,735.3214276177542,3711.5,739.0714133126395,735.3214276177542,3813.9,739.0714133126395,735.3214276177542,3923.7,739.0714133126395,735.3214276177542,4034.1,739.0714133126395,735.3214276177542,4160.1,739.0714133126395,735.3214276177542,4260.3,739.0714133126395,735.3214276177542,4360.6,739.0714133126395,735.3214276177542,4478,739.0714133126395,735.3214276177542,4609.7,739.0714133126395,735.3214276177542,4711.7,739.0714133126395,735.3214276177542,4814.2,739.0714133126395,735.3214276177542,4914.9]","[515.9,515.9,1000,0,-484.1,""error"",""-"",""-"",""no_move"",4536.5,4019.7,2633.4,1529.7,373.4,""oops"",""down"",""left"",""bad_move"",7781.9,3244.1,2774.3,4537.8,469.8,""smooth"",""down"",""down"",""good_move"",11339.2,3556,3160.4,7783.2,395.6,""smooth"",""down"",""down"",""good_move"",14404.2,3062.5,2655.3,11341.7,407.2,""smooth"",""down"",""down"",""good_move"",17248.3,2843.2,2367.2,14405.1,476,""while_blue"",""right"",""up"",""bad_move"",20391.9,3142.6,2708.3,17249.3,434.3,""smooth"",""down"",""down"",""good_move"",30148.2,9755.2,2997,26724,427.2,""smooth"",""right"",""right"",""good_move"",34516.7,4367.6,3807.8,30149.1,559.8,""smooth"",""right"",""right"",""good_move"",36932.9,2415.1,1865.5,34517.9,549.5,""oops"",""right"",""right"",""good_move"",40464.5,3530.5,3010.7,36934.1,519.8,""smooth"",""right"",""right"",""good_move""]","",""
"6367","","<div style=""width:500px;"">
  <p>What determined the result of this run?</p>
  </div>","78","html-slider-response","20","346012","0.0-5.0-1.2","60","1","2025-07-16 08:27:03","1f75c3e559b7213887762d5229550c2b","102.66.141.24","Mozilla/5.0 (Windows NT 10.0; Win64; x64) AppleWebKit/537.36 (KHTML, like Gecko) Chrome/138.0.0.0 Safari/537.36","WebKit","Chrome","138.0.0.0","Windows","10.0","https://app.prolific.com/","en-US,en;q=0.9","60f41ae35227aa02240ba0d9","686e379bc37a29ffa5cdc956","68776180ebdb0ee0ab9e5fe0","1","1","60f41ae35227aa02240ba0d9","1","1","2025-07-16T08:32:53.426Z","","","","","","","","","","","AttribQ","","50","","","","","","","","","","","","","","","","","","","","","","","","","","","","",""
"7924","","<div style=""width:500px;"">
  <p>How much control did you have over the ball?</p>
  </div>","46","html-slider-response","21","353938","0.0-5.0-2.2","60","1","2025-07-16 08:27:03","1f75c3e559b7213887762d5229550c2b","102.66.141.24","Mozilla/5.0 (Windows NT 10.0; Win64; x64) AppleWebKit/537.36 (KHTML, like Gecko) Chrome/138.0.0.0 Safari/537.36","WebKit","Chrome","138.0.0.0","Windows","10.0","https://app.prolific.com/","en-US,en;q=0.9","60f41ae35227aa02240ba0d9","686e379bc37a29ffa5cdc956","68776180ebdb0ee0ab9e5fe0","1","1","60f41ae35227aa02240ba0d9","1","1","2025-07-16T08:33:01.353Z","","","","","","","","","","","ControlQ","","50","","","","","","","","","","","","","","","","","","","","","","","","","","","","",""
"7612","","<div style=""width:500px;"">
  <p>How would you describe your current emotional state?</p>
  </div>","20","html-slider-response","22","361555","0.0-5.0-3.2","60","1","2025-07-16 08:27:03","1f75c3e559b7213887762d5229550c2b","102.66.141.24","Mozilla/5.0 (Windows NT 10.0; Win64; x64) AppleWebKit/537.36 (KHTML, like Gecko) Chrome/138.0.0.0 Safari/537.36","WebKit","Chrome","138.0.0.0","Windows","10.0","https://app.prolific.com/","en-US,en;q=0.9","60f41ae35227aa02240ba0d9","686e379bc37a29ffa5cdc956","68776180ebdb0ee0ab9e5fe0","1","1","60f41ae35227aa02240ba0d9","1","1","2025-07-16T08:33:08.969Z","","","","","","","","","","","StressQ","","50","","","","","","","","","","","","","","","","","","","","","","","","","","","","",""
"7191","","<div style=""width:500px;"">
  <p>What best describes how you currently feel?</p>
  </div>","72","html-slider-response","23","368749","0.0-5.0-4.2","60","1","2025-07-16 08:27:03","1f75c3e559b7213887762d5229550c2b","102.66.141.24","Mozilla/5.0 (Windows NT 10.0; Win64; x64) AppleWebKit/537.36 (KHTML, like Gecko) Chrome/138.0.0.0 Safari/537.36","WebKit","Chrome","138.0.0.0","Windows","10.0","https://app.prolific.com/","en-US,en;q=0.9","60f41ae35227aa02240ba0d9","686e379bc37a29ffa5cdc956","68776180ebdb0ee0ab9e5fe0","1","1","60f41ae35227aa02240ba0d9","1","1","2025-07-16T08:33:16.163Z","","","","","","","","","","","MotivationQ","","50","","","","","","","","","","","","","","","","","","","","","","","","","","","","",""
"","","","","ctl-task-cpt","24","410199","0.0-5.0-0.3","60","1","2025-07-16 08:27:03","1f75c3e559b7213887762d5229550c2b","102.66.141.24","Mozilla/5.0 (Windows NT 10.0; Win64; x64) AppleWebKit/537.36 (KHTML, like Gecko) Chrome/138.0.0.0 Safari/537.36","WebKit","Chrome","138.0.0.0","Windows","10.0","https://app.prolific.com/","en-US,en;q=0.9","60f41ae35227aa02240ba0d9","686e379bc37a29ffa5cdc956","68776180ebdb0ee0ab9e5fe0","1","1","60f41ae35227aa02240ba0d9","1","1","2025-07-16T08:33:57.614Z","","","","","","","","","","","","","","win-only","3","g1:SW,g2:NE","0.7","4","0","372862.9","6777.1","11816.2","38387","1","4","4","6","2","4","3","21","18","0.1590909090909091","3145","3000","1655","[""up"",""right""]","{""num_key_presses"":8,""num_perfect"":5,""num_errors"":1,""num_randdir"":2,""num_randdir_good_moves"":2,""num_whilered"":0,""num_whileblue"":1,""num_blue"":2,""num_good_moves"":7}","[410.3214133126395,424.07142761775424,0.8,410.3214133126395,424.07142761775424,105.8,410.3214133126395,424.07142761775424,236.8,410.3214133126395,424.07142761775424,337.2,410.3214133126395,424.07142761775424,439.6,410.3214133126395,424.07142761775424,541.8,410.3214133126395,424.07142761775424,679.8,410.3214133126395,424.07142761775424,781,410.3214133126395,424.07142761775424,885.4,410.3214133126395,424.07142761775424,1003.2,410.3214133126395,424.07142761775424,1105.2,410.3214133126395,424.07142761775424,1208.4,410.3214133126395,424.07142761775424,1336.5,372.8214133126395,451.57142761775424,1439.6,371.5714133126395,215.32142761775424,1548.3,591.5714133126395,-95.92857238224575,1669.6,887.8214133126395,-63.42857238224575,1832.8,910.3214133126395,-58.42857238224575,1933.9,874.0714133126395,21.571427617754253,2090.9,1161.5714133126396,46.57142761775425,2195.3,1061.5714133126396,50.32142761775425,2333.3,901.5714133126395,71.57142761775425,2465,851.5714133126395,42.82142761775425,2569.5,806.5714133126395,45.32142761775425,2673,776.5714133126395,60.32142761775425,2785.3,776.5714133126395,64.07142761775425,2887.2,776.5714133126395,64.07142761775425,3010.9,776.5714133126395,64.07142761775425,3160.5,776.5714133126395,64.07142761775425,3291.2,776.5714133126395,64.07142761775425,3407.7,776.5714133126395,64.07142761775425,3525.9,776.5714133126395,64.07142761775425,3638.8,776.5714133126395,64.07142761775425,3783.2,776.5714133126395,64.07142761775425,3884,776.5714133126395,64.07142761775425,3984.5,776.5714133126395,64.07142761775425,4088.4,776.5714133126395,64.07142761775425,4196.2,776.5714133126395,64.07142761775425,4300.3,776.5714133126395,64.07142761775425,4406.8,776.5714133126395,64.07142761775425,4508.7,686.5714133126395,166.57142761775424,4660.2,674.0714133126395,179.07142761775424,4763,705.3214133126395,126.57142761775425,4866.7,725.3214133126395,109.07142761775425,4967.8]","[1583.3,1583.3,1000,0,583.3,""smooth"",""up"",""up"",""good_move"",5157.4,3573,3107.5,1584.4,465.5,""smooth"",""up"",""up"",""good_move"",7783.3,2624.8,2083.7,5158.5,541.1,""smooth"",""up"",""up"",""good_move"",10491.9,2704.8,2335.3,7787.1,370.6,""smooth"",""right"",""right"",""good_move"",14515,4020.6,3611,10494.4,409.6,""while_blue"",""right"",""down"",""bad_move"",17631.1,3114.2,2713.6,14517,400.6,""smooth"",""right"",""right"",""good_move"",23276.7,5645,2135.2,20556.4,585.1,""oops"",""right"",""up"",""good_move"",26361.8,3084.5,2369,23277.4,715.4,""oops"",""right"",""right"",""good_move""]","",""
"7613","","<div style=""width:500px;"">
  <p>What determined the result of this run?</p>
  </div>","78","html-slider-response","25","417815","0.0-5.0-1.3","60","1","2025-07-16 08:27:03","1f75c3e559b7213887762d5229550c2b","102.66.141.24","Mozilla/5.0 (Windows NT 10.0; Win64; x64) AppleWebKit/537.36 (KHTML, like Gecko) Chrome/138.0.0.0 Safari/537.36","WebKit","Chrome","138.0.0.0","Windows","10.0","https://app.prolific.com/","en-US,en;q=0.9","60f41ae35227aa02240ba0d9","686e379bc37a29ffa5cdc956","68776180ebdb0ee0ab9e5fe0","1","1","60f41ae35227aa02240ba0d9","1","1","2025-07-16T08:34:05.229Z","","","","","","","","","","","AttribQ","","50","","","","","","","","","","","","","","","","","","","","","","","","","","","","",""
"7292","","<div style=""width:500px;"">
  <p>How much control did you have over the ball?</p>
  </div>","62","html-slider-response","26","425110","0.0-5.0-2.3","60","1","2025-07-16 08:27:03","1f75c3e559b7213887762d5229550c2b","102.66.141.24","Mozilla/5.0 (Windows NT 10.0; Win64; x64) AppleWebKit/537.36 (KHTML, like Gecko) Chrome/138.0.0.0 Safari/537.36","WebKit","Chrome","138.0.0.0","Windows","10.0","https://app.prolific.com/","en-US,en;q=0.9","60f41ae35227aa02240ba0d9","686e379bc37a29ffa5cdc956","68776180ebdb0ee0ab9e5fe0","1","1","60f41ae35227aa02240ba0d9","1","1","2025-07-16T08:34:12.525Z","","","","","","","","","","","ControlQ","","50","","","","","","","","","","","","","","","","","","","","","","","","","","","","",""
"7221","","<div style=""width:500px;"">
  <p>How would you describe your current emotional state?</p>
  </div>","18","html-slider-response","27","432334","0.0-5.0-3.3","60","1","2025-07-16 08:27:03","1f75c3e559b7213887762d5229550c2b","102.66.141.24","Mozilla/5.0 (Windows NT 10.0; Win64; x64) AppleWebKit/537.36 (KHTML, like Gecko) Chrome/138.0.0.0 Safari/537.36","WebKit","Chrome","138.0.0.0","Windows","10.0","https://app.prolific.com/","en-US,en;q=0.9","60f41ae35227aa02240ba0d9","686e379bc37a29ffa5cdc956","68776180ebdb0ee0ab9e5fe0","1","1","60f41ae35227aa02240ba0d9","1","1","2025-07-16T08:34:19.749Z","","","","","","","","","","","StressQ","","50","","","","","","","","","","","","","","","","","","","","","","","","","","","","",""
"7263","","<div style=""width:500px;"">
  <p>What best describes how you currently feel?</p>
  </div>","70","html-slider-response","28","439599","0.0-5.0-4.3","60","1","2025-07-16 08:27:03","1f75c3e559b7213887762d5229550c2b","102.66.141.24","Mozilla/5.0 (Windows NT 10.0; Win64; x64) AppleWebKit/537.36 (KHTML, like Gecko) Chrome/138.0.0.0 Safari/537.36","WebKit","Chrome","138.0.0.0","Windows","10.0","https://app.prolific.com/","en-US,en;q=0.9","60f41ae35227aa02240ba0d9","686e379bc37a29ffa5cdc956","68776180ebdb0ee0ab9e5fe0","1","1","60f41ae35227aa02240ba0d9","1","1","2025-07-16T08:34:27.013Z","","","","","","","","","","","MotivationQ","","50","","","","","","","","","","","","","","","","","","","","","","","","","","","","",""
"","","","","ctl-task-cpt","29","497979","0.0-5.0-0.4","60","1","2025-07-16 08:27:03","1f75c3e559b7213887762d5229550c2b","102.66.141.24","Mozilla/5.0 (Windows NT 10.0; Win64; x64) AppleWebKit/537.36 (KHTML, like Gecko) Chrome/138.0.0.0 Safari/537.36","WebKit","Chrome","138.0.0.0","Windows","10.0","https://app.prolific.com/","en-US,en;q=0.9","60f41ae35227aa02240ba0d9","686e379bc37a29ffa5cdc956","68776180ebdb0ee0ab9e5fe0","1","1","60f41ae35227aa02240ba0d9","1","1","2025-07-16T08:35:25.393Z","","","","","","","","","","","","","","win-only","0","g1:NW,g2:SE","0.6","5","0","443712.5","22283.3","27380.8","55333.1","1","4","8","6","2","8","8","29","21","0.2196969696969697","1781.1","3000","1935","[""down"",""right""]","{""num_key_presses"":6,""num_perfect"":4,""num_errors"":0,""num_randdir"":2,""num_randdir_good_moves"":2,""num_whilered"":0,""num_whileblue"":0,""num_blue"":3,""num_good_moves"":6}","[418.571420942034,408.07142857142856,12.3,418.571420942034,408.07142857142856,107.4,418.571420942034,408.07142857142856,307.6,418.571420942034,408.07142857142856,424.9,418.571420942034,408.07142857142856,566.4,418.571420942034,408.07142857142856,712.6,691.071420942034,549.3214285714286,867.1,723.571420942034,579.3214285714286,1092,723.571420942034,636.8214285714286,1230.7,744.821420942034,736.8214285714286,1333.5,744.821420942034,744.3214285714286,1535,744.821420942034,744.3214285714286,1657.9,744.821420942034,744.3214285714286,1786.2,744.821420942034,744.3214285714286,1911.3,744.821420942034,744.3214285714286,2012,744.821420942034,744.3214285714286,2116.1,744.821420942034,744.3214285714286,2216.5,744.821420942034,744.3214285714286,2317.7,744.821420942034,744.3214285714286,2581.9,744.821420942034,744.3214285714286,2719.5,744.821420942034,744.3214285714286,2825.9,744.821420942034,744.3214285714286,2986.3,744.821420942034,744.3214285714286,3163.3,744.821420942034,744.3214285714286,3382.5,744.821420942034,744.3214285714286,3543.8,744.821420942034,744.3214285714286,3683.1,744.821420942034,744.3214285714286,3788.7,744.821420942034,744.3214285714286,3895,744.821420942034,744.3214285714286,4006.3,744.821420942034,744.3214285714286,4113.1,744.821420942034,744.3214285714286,4247.7,744.821420942034,744.3214285714286,4382.6,744.821420942034,744.3214285714286,4511.8,744.821420942034,744.3214285714286,4613.5,744.821420942034,744.3214285714286,4713.6,744.821420942034,744.3214285714286,4833.9,744.821420942034,744.3214285714286,4948.6]","[4907.4,4907.4,2342.7,2029.8,534.9,""smooth"",""down"",""down"",""good_move"",15161.2,10252.5,2475.3,12207.9,478,""smooth"",""down"",""down"",""good_move"",18659.3,3497.5,2975.6,15161.8,521.9,""smooth"",""down"",""down"",""good_move"",21879.6,3218.4,2420.6,18661.2,797.8,""oops"",""right"",""right"",""good_move"",24420,2537.1,1846.2,21882.9,690.9,""smooth"",""right"",""right"",""good_move"",27620.9,3199.9,2550.4,24421,649.5,""oops"",""right"",""right"",""good_move""]","",""
"6540","","<div style=""width:500px;"">
  <p>What determined the result of this run?</p>
  </div>","83","html-slider-response","30","504521","0.0-5.0-1.4","60","1","2025-07-16 08:27:03","1f75c3e559b7213887762d5229550c2b","102.66.141.24","Mozilla/5.0 (Windows NT 10.0; Win64; x64) AppleWebKit/537.36 (KHTML, like Gecko) Chrome/138.0.0.0 Safari/537.36","WebKit","Chrome","138.0.0.0","Windows","10.0","https://app.prolific.com/","en-US,en;q=0.9","60f41ae35227aa02240ba0d9","686e379bc37a29ffa5cdc956","68776180ebdb0ee0ab9e5fe0","1","1","60f41ae35227aa02240ba0d9","1","1","2025-07-16T08:35:31.936Z","","","","","","","","","","","AttribQ","","50","","","","","","","","","","","","","","","","","","","","","","","","","","","","",""
"8109","","<div style=""width:500px;"">
  <p>How much control did you have over the ball?</p>
  </div>","66","html-slider-response","31","512632","0.0-5.0-2.4","60","1","2025-07-16 08:27:03","1f75c3e559b7213887762d5229550c2b","102.66.141.24","Mozilla/5.0 (Windows NT 10.0; Win64; x64) AppleWebKit/537.36 (KHTML, like Gecko) Chrome/138.0.0.0 Safari/537.36","WebKit","Chrome","138.0.0.0","Windows","10.0","https://app.prolific.com/","en-US,en;q=0.9","60f41ae35227aa02240ba0d9","686e379bc37a29ffa5cdc956","68776180ebdb0ee0ab9e5fe0","1","1","60f41ae35227aa02240ba0d9","1","1","2025-07-16T08:35:40.046Z","","","","","","","","","","","ControlQ","","50","","","","","","","","","","","","","","","","","","","","","","","","","","","","",""
"8258","","<div style=""width:500px;"">
  <p>How would you describe your current emotional state?</p>
  </div>","29","html-slider-response","32","520894","0.0-5.0-3.4","60","1","2025-07-16 08:27:03","1f75c3e559b7213887762d5229550c2b","102.66.141.24","Mozilla/5.0 (Windows NT 10.0; Win64; x64) AppleWebKit/537.36 (KHTML, like Gecko) Chrome/138.0.0.0 Safari/537.36","WebKit","Chrome","138.0.0.0","Windows","10.0","https://app.prolific.com/","en-US,en;q=0.9","60f41ae35227aa02240ba0d9","686e379bc37a29ffa5cdc956","68776180ebdb0ee0ab9e5fe0","1","1","60f41ae35227aa02240ba0d9","1","1","2025-07-16T08:35:48.308Z","","","","","","","","","","","StressQ","","50","","","","","","","","","","","","","","","","","","","","","","","","","","","","",""
"8767","","<div style=""width:500px;"">
  <p>What best describes how you currently feel?</p>
  </div>","75","html-slider-response","33","529663","0.0-5.0-4.4","60","1","2025-07-16 08:27:03","1f75c3e559b7213887762d5229550c2b","102.66.141.24","Mozilla/5.0 (Windows NT 10.0; Win64; x64) AppleWebKit/537.36 (KHTML, like Gecko) Chrome/138.0.0.0 Safari/537.36","WebKit","Chrome","138.0.0.0","Windows","10.0","https://app.prolific.com/","en-US,en;q=0.9","60f41ae35227aa02240ba0d9","686e379bc37a29ffa5cdc956","68776180ebdb0ee0ab9e5fe0","1","1","60f41ae35227aa02240ba0d9","1","1","2025-07-16T08:35:57.078Z","","","","","","","","","","","MotivationQ","","50","","","","","","","","","","","","","","","","","","","","","","","","","","","","",""
"","","","","ctl-task-cpt","34","598538","0.0-5.0-0.5","60","1","2025-07-16 08:27:03","1f75c3e559b7213887762d5229550c2b","102.66.141.24","Mozilla/5.0 (Windows NT 10.0; Win64; x64) AppleWebKit/537.36 (KHTML, like Gecko) Chrome/138.0.0.0 Safari/537.36","WebKit","Chrome","138.0.0.0","Windows","10.0","https://app.prolific.com/","en-US,en;q=0.9","60f41ae35227aa02240ba0d9","686e379bc37a29ffa5cdc956","68776180ebdb0ee0ab9e5fe0","1","1","60f41ae35227aa02240ba0d9","1","1","2025-07-16T08:37:05.954Z","","","","","","","","","","","","","","win-only","0","g1:NW,g2:SE","0.5","6","0","533778.3","27212","32216","65837.1","1","4","4","6","2","4","4","33","29","0.25","1878.6","3000","2065","[""down"",""right""]","{""num_key_presses"":8,""num_perfect"":3,""num_errors"":0,""num_randdir"":5,""num_randdir_good_moves"":4,""num_whilered"":0,""num_whileblue"":0,""num_blue"":3,""num_good_moves"":7}","[335.0892857142857,334.33928523744856,2.9,335.0892857142857,334.33928523744856,260.9,335.0892857142857,334.33928523744856,366.7,335.0892857142857,334.33928523744856,549.6,335.0892857142857,334.33928523744856,676.1,335.0892857142857,334.33928523744856,796.9,335.0892857142857,334.33928523744856,935.6,697.5892857142857,511.83928523744856,1189.4,682.5892857142857,540.5892852374485,1290.2,660.0892857142857,583.0892852374485,1393.3,615.0892857142857,591.8392852374485,1644.9,615.0892857142857,591.8392852374485,1748.3,615.0892857142857,591.8392852374485,1889.1,615.0892857142857,591.8392852374485,2150.5,615.0892857142857,591.8392852374485,2260.6,615.0892857142857,591.8392852374485,2378.2,615.0892857142857,591.8392852374485,2552.7,615.0892857142857,591.8392852374485,2654.4,615.0892857142857,591.8392852374485,2858.5,615.0892857142857,591.8392852374485,3180.3,615.0892857142857,591.8392852374485,3282.4,615.0892857142857,591.8392852374485,3393.1,615.0892857142857,591.8392852374485,3541.8,615.0892857142857,591.8392852374485,3667.9,615.0892857142857,591.8392852374485,3819.3,615.0892857142857,591.8392852374485,3976.2,615.0892857142857,591.8392852374485,4076.4,615.0892857142857,591.8392852374485,4234.6,615.0892857142857,591.8392852374485,4336.7,615.0892857142857,591.8392852374485,4467.4,615.0892857142857,591.8392852374485,4572.8,615.0892857142857,591.8392852374485,4680.2,615.0892857142857,591.8392852374485,4791.7,615.0892857142857,591.8392852374485,4895.5]","[7248.8,7248.8,1757.3,4946.4,545.1,""oops"",""down"",""down"",""good_move"",10247,2996.8,2400.7,7250.2,596.1,""smooth"",""down"",""down"",""good_move"",13594.2,3344.9,2780.7,10249.4,564.2,""smooth"",""down"",""down"",""good_move"",16404.5,2804.5,2253.3,13600,551.3,""oops"",""right"",""up"",""bad_move"",20551.4,4143.5,2621,16407.9,1522.5,""oops"",""right"",""down"",""good_move"",23649.4,3096.8,2470.8,20552.7,626,""oops"",""right"",""right"",""good_move"",26801.9,3149.3,2551.5,23652.6,597.8,""oops"",""right"",""right"",""good_move"",33265.2,6460.8,2422.1,30244.6,598.5,""smooth"",""right"",""right"",""good_move""]","",""
"5681","","<div style=""width:500px;"">
  <p>What determined the result of this run?</p>
  </div>","74","html-slider-response","35","604224","0.0-5.0-1.5","60","1","2025-07-16 08:27:03","1f75c3e559b7213887762d5229550c2b","102.66.141.24","Mozilla/5.0 (Windows NT 10.0; Win64; x64) AppleWebKit/537.36 (KHTML, like Gecko) Chrome/138.0.0.0 Safari/537.36","WebKit","Chrome","138.0.0.0","Windows","10.0","https://app.prolific.com/","en-US,en;q=0.9","60f41ae35227aa02240ba0d9","686e379bc37a29ffa5cdc956","68776180ebdb0ee0ab9e5fe0","1","1","60f41ae35227aa02240ba0d9","1","1","2025-07-16T08:37:11.638Z","","","","","","","","","","","AttribQ","","50","","","","","","","","","","","","","","","","","","","","","","","","","","","","",""
"7760","","<div style=""width:500px;"">
  <p>How much control did you have over the ball?</p>
  </div>","72","html-slider-response","36","611988","0.0-5.0-2.5","60","1","2025-07-16 08:27:03","1f75c3e559b7213887762d5229550c2b","102.66.141.24","Mozilla/5.0 (Windows NT 10.0; Win64; x64) AppleWebKit/537.36 (KHTML, like Gecko) Chrome/138.0.0.0 Safari/537.36","WebKit","Chrome","138.0.0.0","Windows","10.0","https://app.prolific.com/","en-US,en;q=0.9","60f41ae35227aa02240ba0d9","686e379bc37a29ffa5cdc956","68776180ebdb0ee0ab9e5fe0","1","1","60f41ae35227aa02240ba0d9","1","1","2025-07-16T08:37:19.402Z","","","","","","","","","","","ControlQ","","50","","","","","","","","","","","","","","","","","","","","","","","","","","","","",""
"7800","","<div style=""width:500px;"">
  <p>How would you describe your current emotional state?</p>
  </div>","20","html-slider-response","37","619792","0.0-5.0-3.5","60","1","2025-07-16 08:27:03","1f75c3e559b7213887762d5229550c2b","102.66.141.24","Mozilla/5.0 (Windows NT 10.0; Win64; x64) AppleWebKit/537.36 (KHTML, like Gecko) Chrome/138.0.0.0 Safari/537.36","WebKit","Chrome","138.0.0.0","Windows","10.0","https://app.prolific.com/","en-US,en;q=0.9","60f41ae35227aa02240ba0d9","686e379bc37a29ffa5cdc956","68776180ebdb0ee0ab9e5fe0","1","1","60f41ae35227aa02240ba0d9","1","1","2025-07-16T08:37:27.206Z","","","","","","","","","","","StressQ","","50","","","","","","","","","","","","","","","","","","","","","","","","","","","","",""
"7984","","<div style=""width:500px;"">
  <p>What best describes how you currently feel?</p>
  </div>","77","html-slider-response","38","627780","0.0-5.0-4.5","60","1","2025-07-16 08:27:03","1f75c3e559b7213887762d5229550c2b","102.66.141.24","Mozilla/5.0 (Windows NT 10.0; Win64; x64) AppleWebKit/537.36 (KHTML, like Gecko) Chrome/138.0.0.0 Safari/537.36","WebKit","Chrome","138.0.0.0","Windows","10.0","https://app.prolific.com/","en-US,en;q=0.9","60f41ae35227aa02240ba0d9","686e379bc37a29ffa5cdc956","68776180ebdb0ee0ab9e5fe0","1","1","60f41ae35227aa02240ba0d9","1","1","2025-07-16T08:37:35.194Z","","","","","","","","","","","MotivationQ","","50","","","","","","","","","","","","","","","","","","","","","","","","","","","","",""
"","","","","ctl-task-cpt","39","783425","0.0-5.0-0.6","60","1","2025-07-16 08:27:03","1f75c3e559b7213887762d5229550c2b","102.66.141.24","Mozilla/5.0 (Windows NT 10.0; Win64; x64) AppleWebKit/537.36 (KHTML, like Gecko) Chrome/138.0.0.0 Safari/537.36","WebKit","Chrome","138.0.0.0","Windows","10.0","https://app.prolific.com/","en-US,en;q=0.9","60f41ae35227aa02240ba0d9","686e379bc37a29ffa5cdc956","68776180ebdb0ee0ab9e5fe0","1","1","60f41ae35227aa02240ba0d9","1","1","2025-07-16T08:40:10.840Z","","","","","","","","","","","","","","win-only","0","g1:NW,g2:SE","0.4","7","0","631908","22363.8","27451.4","152587.8","1","4","4","6","2","4","4","37","33","0.2803030303030303","1725.6","3000","955","[""down"",""right""]","{""num_key_presses"":24,""num_perfect"":9,""num_errors"":0,""num_randdir"":15,""num_randdir_good_moves"":6,""num_whilered"":0,""num_whileblue"":0,""num_blue"":5,""num_good_moves"":15}","[337.5892857142857,331.83928523744856,1.9,337.5892857142857,331.83928523744856,104.3,337.5892857142857,331.83928523744856,297,337.5892857142857,331.83928523744856,405.2,337.5892857142857,331.83928523744856,712.7,337.5892857142857,331.83928523744856,834,643.8392857142857,539.3392852374485,1101.7,621.3392857142857,561.8392852374485,1212.5,613.8392857142857,585.5892852374485,1370.4,613.8392857142857,589.3392852374485,1476.8,613.8392857142857,589.3392852374485,1637.4,613.8392857142857,589.3392852374485,1751,613.8392857142857,589.3392852374485,2101.1,613.8392857142857,589.3392852374485,2205.7,613.8392857142857,589.3392852374485,2309.2,613.8392857142857,589.3392852374485,2648.3,613.8392857142857,589.3392852374485,2963,613.8392857142857,589.3392852374485,3069,613.8392857142857,589.3392852374485,3235.6,613.8392857142857,589.3392852374485,3345.5,613.8392857142857,589.3392852374485,3607.6,613.8392857142857,589.3392852374485,3719.7,613.8392857142857,589.3392852374485,3897.4,613.8392857142857,589.3392852374485,3999.6,613.8392857142857,589.3392852374485,4182.5,613.8392857142857,589.3392852374485,4292.7,613.8392857142857,589.3392852374485,4481.1,613.8392857142857,589.3392852374485,4591,613.8392857142857,589.3392852374485,4838.9,613.8392857142857,589.3392852374485,4943.5]","[5342.6,5342.6,2693.1,2057.1,592.4,""smooth"",""down"",""down"",""good_move"",11947.8,6604.1,2018.7,9254.8,674.3,""smooth"",""down"",""down"",""good_move"",20074.6,8126.2,3085.1,16456.9,532.6,""oops"",""down"",""up"",""bad_move"",25102.9,5027.1,3080.9,20075.8,1946.2,""smooth"",""down"",""down"",""good_move"",28164.9,3060.5,2366.3,25104.4,694.2,""smooth"",""down"",""down"",""good_move"",31059.9,2892.6,2295.1,28167.4,597.4,""oops"",""right"",""left"",""bad_move"",36650.9,5589.2,1751.4,31061.7,3837.8,""oops"",""right"",""left"",""bad_move"",42278.1,5626.2,1892.6,36652,3733.5,""oops"",""right"",""left"",""bad_move"",47945.4,5665.8,2922.7,42279.6,2743.1,""oops"",""right"",""right"",""good_move"",51132.9,3186.5,2512.4,47946.4,674.1,""oops"",""right"",""up"",""bad_move"",56715.6,5581.5,3054.3,51134.1,2527.2,""oops"",""right"",""up"",""bad_move"",63582.3,6865.8,2482.3,56716.5,4383.5,""oops"",""right"",""up"",""bad_move"",71827.9,8241.7,2530.8,63586.2,5710.9,""smooth"",""down"",""down"",""good_move"",75007.1,3176.3,2647.3,71830.8,529,""smooth"",""down"",""down"",""good_move"",77777.6,2768.1,1805.7,75009.6,962.3,""oops"",""down"",""down"",""good_move"",84461.9,6681.9,2632.6,81350.6,478.7,""oops"",""right"",""up"",""bad_move"",92713.6,8250.2,2889.9,84463.5,5360.2,""smooth"",""down"",""down"",""good_move"",95562.1,2847.6,2162.8,92714.6,684.8,""oops"",""right"",""right"",""good_move"",98495,2929.6,2250.6,95565.4,679,""oops"",""right"",""left"",""bad_move"",106984.5,8484.5,2829.6,98500,5654.9,""smooth"",""right"",""right"",""good_move"",110316,3330.5,2683.1,106985.5,647.4,""oops"",""right"",""right"",""good_move"",113927.3,3609.5,2239.5,110317.8,1370.1,""smooth"",""right"",""right"",""good_move"",120597.3,6652.6,2710.1,117204.2,683,""oops"",""right"",""right"",""good_move"",124038.1,3440,2593.4,120598.2,846.6,""oops"",""right"",""right"",""good_move""]","",""
"5877","","<div style=""width:500px;"">
  <p>What determined the result of this run?</p>
  </div>","78","html-slider-response","40","789305","0.0-5.0-1.6","60","1","2025-07-16 08:27:03","1f75c3e559b7213887762d5229550c2b","102.66.141.24","Mozilla/5.0 (Windows NT 10.0; Win64; x64) AppleWebKit/537.36 (KHTML, like Gecko) Chrome/138.0.0.0 Safari/537.36","WebKit","Chrome","138.0.0.0","Windows","10.0","https://app.prolific.com/","en-US,en;q=0.9","60f41ae35227aa02240ba0d9","686e379bc37a29ffa5cdc956","68776180ebdb0ee0ab9e5fe0","1","1","60f41ae35227aa02240ba0d9","1","1","2025-07-16T08:40:16.719Z","","","","","","","","","","","AttribQ","","50","","","","","","","","","","","","","","","","","","","","","","","","","","","","",""
"10066","","<div style=""width:500px;"">
  <p>How much control did you have over the ball?</p>
  </div>","26","html-slider-response","41","799377","0.0-5.0-2.6","60","1","2025-07-16 08:27:03","1f75c3e559b7213887762d5229550c2b","102.66.141.24","Mozilla/5.0 (Windows NT 10.0; Win64; x64) AppleWebKit/537.36 (KHTML, like Gecko) Chrome/138.0.0.0 Safari/537.36","WebKit","Chrome","138.0.0.0","Windows","10.0","https://app.prolific.com/","en-US,en;q=0.9","60f41ae35227aa02240ba0d9","686e379bc37a29ffa5cdc956","68776180ebdb0ee0ab9e5fe0","1","1","60f41ae35227aa02240ba0d9","1","1","2025-07-16T08:40:26.792Z","","","","","","","","","","","ControlQ","","50","","","","","","","","","","","","","","","","","","","","","","","","","","","","",""
"11149","","<div style=""width:500px;"">
  <p>How would you describe your current emotional state?</p>
  </div>","44","html-slider-response","42","810529","0.0-5.0-3.6","60","1","2025-07-16 08:27:03","1f75c3e559b7213887762d5229550c2b","102.66.141.24","Mozilla/5.0 (Windows NT 10.0; Win64; x64) AppleWebKit/537.36 (KHTML, like Gecko) Chrome/138.0.0.0 Safari/537.36","WebKit","Chrome","138.0.0.0","Windows","10.0","https://app.prolific.com/","en-US,en;q=0.9","60f41ae35227aa02240ba0d9","686e379bc37a29ffa5cdc956","68776180ebdb0ee0ab9e5fe0","1","1","60f41ae35227aa02240ba0d9","1","1","2025-07-16T08:40:37.944Z","","","","","","","","","","","StressQ","","50","","","","","","","","","","","","","","","","","","","","","","","","","","","","",""
"8290","","<div style=""width:500px;"">
  <p>What best describes how you currently feel?</p>
  </div>","76","html-slider-response","43","818823","0.0-5.0-4.6","60","1","2025-07-16 08:27:03","1f75c3e559b7213887762d5229550c2b","102.66.141.24","Mozilla/5.0 (Windows NT 10.0; Win64; x64) AppleWebKit/537.36 (KHTML, like Gecko) Chrome/138.0.0.0 Safari/537.36","WebKit","Chrome","138.0.0.0","Windows","10.0","https://app.prolific.com/","en-US,en;q=0.9","60f41ae35227aa02240ba0d9","686e379bc37a29ffa5cdc956","68776180ebdb0ee0ab9e5fe0","1","1","60f41ae35227aa02240ba0d9","1","1","2025-07-16T08:40:46.237Z","","","","","","","","","","","MotivationQ","","50","","","","","","","","","","","","","","","","","","","","","","","","","","","","",""
"","","","","ctl-task-cpt","44","918110","0.0-5.0-0.7","60","1","2025-07-16 08:27:03","1f75c3e559b7213887762d5229550c2b","102.66.141.24","Mozilla/5.0 (Windows NT 10.0; Win64; x64) AppleWebKit/537.36 (KHTML, like Gecko) Chrome/138.0.0.0 Safari/537.36","WebKit","Chrome","138.0.0.0","Windows","10.0","https://app.prolific.com/","en-US,en;q=0.9","60f41ae35227aa02240ba0d9","686e379bc37a29ffa5cdc956","68776180ebdb0ee0ab9e5fe0","1","1","60f41ae35227aa02240ba0d9","1","1","2025-07-16T08:42:25.524Z","","","","","","","","","","","","","","win-only","3","g1:SW,g2:NE","0.3","8","0","822938.2","22890.2","27896","96271.5","1","4","8","6","2","8","8","45","37","0.3409090909090909","1728.9","3000","1435","[""up"",""right""]","{""num_key_presses"":14,""num_perfect"":5,""num_errors"":0,""num_randdir"":9,""num_randdir_good_moves"":5,""num_whilered"":0,""num_whileblue"":0,""num_blue"":3,""num_good_moves"":10}","[333.8392857142857,331.83928523744856,1.4,333.8392857142857,331.83928523744856,102.5,333.8392857142857,331.83928523744856,352.6,333.8392857142857,331.83928523744856,486.7,333.8392857142857,331.83928523744856,594.6,305.0892857142857,298.08928523744856,878.6,668.8392857142857,26.839285237448557,1151.5,673.8392857142857,30.589285237448557,1252.5,610.0892857142857,69.33928523744856,1435.2,608.8392857142857,65.58928523744856,1713.4,608.8392857142857,65.58928523744856,1821.9,608.8392857142857,65.58928523744856,2032.3,608.8392857142857,65.58928523744856,2221.7,608.8392857142857,65.58928523744856,2324.1,608.8392857142857,65.58928523744856,2506.6,608.8392857142857,65.58928523744856,2606.9,608.8392857142857,65.58928523744856,2753.2,608.8392857142857,65.58928523744856,3026.6,608.8392857142857,65.58928523744856,3139.5,608.8392857142857,65.58928523744856,3385.4,608.8392857142857,65.58928523744856,3488.9,608.8392857142857,65.58928523744856,3670.5,608.8392857142857,65.58928523744856,3772.8,608.8392857142857,65.58928523744856,3940.3,608.8392857142857,65.58928523744856,4119.1,608.8392857142857,65.58928523744856,4339.9,608.8392857142857,65.58928523744856,4442,608.8392857142857,65.58928523744856,4658.3,608.8392857142857,65.58928523744856,4768.7,608.8392857142857,65.58928523744856,4936.6]","[1773,1773,1000,0,773,""oops"",""up"",""up"",""good_move"",6537.6,4762.7,2353.5,1775,2409.2,""oops"",""up"",""left"",""bad_move"",11375.8,4837.1,1838.6,6538.8,2998.5,""smooth"",""up"",""up"",""good_move"",16347.9,4970.1,2379.6,11377.8,2590.5,""oops"",""up"",""left"",""bad_move"",21052.1,4703.9,2489.1,16348.2,2214.8,""oops"",""right"",""down"",""bad_move"",25180.7,4124.7,3382.9,21056.1,741.7,""smooth"",""right"",""right"",""good_move"",35703.5,10520,2596.1,32481.1,626.3,""oops"",""right"",""up"",""good_move"",40442.2,4738.1,2410.1,35704.1,2328,""oops"",""right"",""left"",""bad_move"",45592.1,5148.4,3130.7,40443.7,2017.7,""smooth"",""right"",""right"",""good_move"",48694,3100.9,2357.2,45593.2,743.6,""oops"",""right"",""up"",""good_move"",57924.5,9228.2,3429.4,53904.1,591,""oops"",""right"",""right"",""good_move"",61234.7,3309.4,2670.6,57925.3,638.8,""oops"",""right"",""right"",""good_move"",64402.1,3164.4,2333.3,61237.7,831.1,""smooth"",""right"",""right"",""good_move"",67903.7,3499.6,2872.2,64404.1,627.4,""smooth"",""right"",""right"",""good_move""]","",""
"7097","","<div style=""width:500px;"">
  <p>What determined the result of this run?</p>
  </div>","71","html-slider-response","45","925210","0.0-5.0-1.7","60","1","2025-07-16 08:27:03","1f75c3e559b7213887762d5229550c2b","102.66.141.24","Mozilla/5.0 (Windows NT 10.0; Win64; x64) AppleWebKit/537.36 (KHTML, like Gecko) Chrome/138.0.0.0 Safari/537.36","WebKit","Chrome","138.0.0.0","Windows","10.0","https://app.prolific.com/","en-US,en;q=0.9","60f41ae35227aa02240ba0d9","686e379bc37a29ffa5cdc956","68776180ebdb0ee0ab9e5fe0","1","1","60f41ae35227aa02240ba0d9","1","1","2025-07-16T08:42:32.624Z","","","","","","","","","","","AttribQ","","50","","","","","","","","","","","","","","","","","","","","","","","","","","","","",""
"9228","","<div style=""width:500px;"">
  <p>How much control did you have over the ball?</p>
  </div>","44","html-slider-response","46","934441","0.0-5.0-2.7","60","1","2025-07-16 08:27:03","1f75c3e559b7213887762d5229550c2b","102.66.141.24","Mozilla/5.0 (Windows NT 10.0; Win64; x64) AppleWebKit/537.36 (KHTML, like Gecko) Chrome/138.0.0.0 Safari/537.36","WebKit","Chrome","138.0.0.0","Windows","10.0","https://app.prolific.com/","en-US,en;q=0.9","60f41ae35227aa02240ba0d9","686e379bc37a29ffa5cdc956","68776180ebdb0ee0ab9e5fe0","1","1","60f41ae35227aa02240ba0d9","1","1","2025-07-16T08:42:41.855Z","","","","","","","","","","","ControlQ","","50","","","","","","","","","","","","","","","","","","","","","","","","","","","","",""
"7539","","<div style=""width:500px;"">
  <p>How would you describe your current emotional state?</p>
  </div>","43","html-slider-response","47","941984","0.0-5.0-3.7","60","1","2025-07-16 08:27:03","1f75c3e559b7213887762d5229550c2b","102.66.141.24","Mozilla/5.0 (Windows NT 10.0; Win64; x64) AppleWebKit/537.36 (KHTML, like Gecko) Chrome/138.0.0.0 Safari/537.36","WebKit","Chrome","138.0.0.0","Windows","10.0","https://app.prolific.com/","en-US,en;q=0.9","60f41ae35227aa02240ba0d9","686e379bc37a29ffa5cdc956","68776180ebdb0ee0ab9e5fe0","1","1","60f41ae35227aa02240ba0d9","1","1","2025-07-16T08:42:49.398Z","","","","","","","","","","","StressQ","","50","","","","","","","","","","","","","","","","","","","","","","","","","","","","",""
"7304","","<div style=""width:500px;"">
  <p>What best describes how you currently feel?</p>
  </div>","66","html-slider-response","48","949291","0.0-5.0-4.7","60","1","2025-07-16 08:27:03","1f75c3e559b7213887762d5229550c2b","102.66.141.24","Mozilla/5.0 (Windows NT 10.0; Win64; x64) AppleWebKit/537.36 (KHTML, like Gecko) Chrome/138.0.0.0 Safari/537.36","WebKit","Chrome","138.0.0.0","Windows","10.0","https://app.prolific.com/","en-US,en;q=0.9","60f41ae35227aa02240ba0d9","686e379bc37a29ffa5cdc956","68776180ebdb0ee0ab9e5fe0","1","1","60f41ae35227aa02240ba0d9","1","1","2025-07-16T08:42:56.705Z","","","","","","","","","","","MotivationQ","","50","","","","","","","","","","","","","","","","","","","","","","","","","","","","",""
"","","","","ctl-task-cpt","49","1164974","0.0-5.0-0.8","60","1","2025-07-16 08:27:03","1f75c3e559b7213887762d5229550c2b","102.66.141.24","Mozilla/5.0 (Windows NT 10.0; Win64; x64) AppleWebKit/537.36 (KHTML, like Gecko) Chrome/138.0.0.0 Safari/537.36","WebKit","Chrome","138.0.0.0","Windows","10.0","https://app.prolific.com/","en-US,en;q=0.9","60f41ae35227aa02240ba0d9","686e379bc37a29ffa5cdc956","68776180ebdb0ee0ab9e5fe0","1","1","60f41ae35227aa02240ba0d9","1","1","2025-07-16T08:46:32.388Z","","","","","","","","","","","","","","win-only","3","g1:SW,g2:NE","0.2","9","0","953411.7","34426.1","39636","212609.7","1","4","8","6","2","-8","-9","36","45","0.2727272727272727","1650.1","3000","-585","[""up"",""right""]","{""num_key_presses"":29,""num_perfect"":6,""num_errors"":1,""num_randdir"":22,""num_randdir_good_moves"":8,""num_whilered"":0,""num_whileblue"":1,""num_blue"":11,""num_good_moves"":14}","[335.0892857142857,339.33928523744856,1.2,335.0892857142857,339.33928523744856,298.4,393.8392857142857,246.83928523744856,779.3,630.0892857142857,10.589285237448557,897,612.5892857142857,79.33928523744856,1277.4,612.5892857142857,79.33928523744856,1385.8,612.5892857142857,79.33928523744856,1660.6,612.5892857142857,79.33928523744856,1775.8,612.5892857142857,79.33928523744856,2046,612.5892857142857,79.33928523744856,2464.4,612.5892857142857,79.33928523744856,2812.4,612.5892857142857,79.33928523744856,2917.6,612.5892857142857,79.33928523744856,3246.2,451.3392857142857,301.83928523744856,3366.4,411.3392857142857,400.58928523744856,3632.2,411.3392857142857,400.58928523744856,3738.5,411.3392857142857,400.58928523744856,4022.2,411.3392857142857,400.58928523744856,4371.3,411.3392857142857,400.58928523744856,4733.8,411.3392857142857,400.58928523744856,4836]","[4491.3,4491.3,1693.4,2271.8,526.1,""oops"",""up"",""down"",""bad_move"",11051.3,6540.4,2849.7,7758.4,443.2,""while_blue"",""right"",""left"",""bad_move"",17542.7,6484.5,2474,11058.3,4010.4,""oops"",""up"",""down"",""bad_move"",25095.4,7551.6,2906.4,21502.2,686.8,""oops"",""right"",""right"",""good_move"",33028.2,7931.9,2930.7,29298.8,798.7,""oops"",""right"",""right"",""good_move"",36315.6,3286.8,2458.1,33028.8,828.7,""oops"",""right"",""up"",""good_move"",45035.3,8717,1818.6,42521,695.8,""smooth"",""right"",""right"",""good_move"",48186.4,3150.4,2441.8,45036.2,708.5,""oops"",""right"",""left"",""bad_move"",52928.1,4739.9,3101.1,48188.2,1638.8,""smooth"",""up"",""up"",""good_move"",57553.5,4624.5,2102.8,52929.1,2521.6,""oops"",""up"",""left"",""bad_move"",67882.5,10327.9,1975.6,64822,1084.9,""oops"",""up"",""right"",""good_move"",70515.3,2631.5,1768,67883.8,863.5,""oops"",""up"",""up"",""good_move"",79324.7,8808.4,2349.9,76406.2,568.6,""smooth"",""up"",""up"",""good_move"",84007.1,4681.5,2041.9,79326.3,2638.9,""oops"",""up"",""left"",""bad_move"",88938,4929.7,2170.3,84008.3,2759.4,""oops"",""up"",""down"",""bad_move"",92370.3,3428.2,2703.9,88942.1,724.3,""smooth"",""up"",""up"",""good_move"",97624,5249.8,2212.8,92374.2,3037,""oops"",""up"",""up"",""good_move"",103024.8,5398.7,2640.1,97626.1,2758.6,""oops"",""right"",""down"",""bad_move"",106272.1,3245.6,2055.3,103026.5,1190.3,""oops"",""up"",""left"",""bad_move"",115377.2,9100.8,2406.5,112369,601.7,""oops"",""up"",""up"",""good_move"",121696.3,6318.1,2084.4,115378.2,4233.7,""oops"",""right"",""left"",""bad_move"",128371.3,6674.1,2620.5,121697.2,4053.6,""smooth"",""right"",""right"",""good_move"",131926.3,3551.9,2987.5,128374.4,564.4,""smooth"",""right"",""right"",""good_move"",135451.4,3523.7,2300.5,131927.8,1223.1,""oops"",""right"",""down"",""bad_move"",138737.5,3284.9,2599.6,135452.6,685.3,""oops"",""right"",""down"",""bad_move"",142545.9,3805.5,3009.5,138740.5,795.9,""oops"",""right"",""up"",""good_move"",149261,6713.9,3220.1,142547.1,3493.8,""oops"",""right"",""left"",""bad_move"",158405.7,9139,2178.7,149266.8,6960.3,""oops"",""up"",""down"",""bad_move"",166016,7609.4,2655.4,162765.2,595.4,""oops"",""right"",""down"",""bad_move""]","",""
"9273","","<div style=""width:500px;"">
  <p>What determined the result of this run?</p>
  </div>","11","html-slider-response","50","1174250","0.0-5.0-1.8","60","1","2025-07-16 08:27:03","1f75c3e559b7213887762d5229550c2b","102.66.141.24","Mozilla/5.0 (Windows NT 10.0; Win64; x64) AppleWebKit/537.36 (KHTML, like Gecko) Chrome/138.0.0.0 Safari/537.36","WebKit","Chrome","138.0.0.0","Windows","10.0","https://app.prolific.com/","en-US,en;q=0.9","60f41ae35227aa02240ba0d9","686e379bc37a29ffa5cdc956","68776180ebdb0ee0ab9e5fe0","1","1","60f41ae35227aa02240ba0d9","1","1","2025-07-16T08:46:41.665Z","","","","","","","","","","","AttribQ","","50","","","","","","","","","","","","","","","","","","","","","","","","","","","","",""
"10737","","<div style=""width:500px;"">
  <p>How much control did you have over the ball?</p>
  </div>","0","html-slider-response","51","1185022","0.0-5.0-2.8","60","1","2025-07-16 08:27:03","1f75c3e559b7213887762d5229550c2b","102.66.141.24","Mozilla/5.0 (Windows NT 10.0; Win64; x64) AppleWebKit/537.36 (KHTML, like Gecko) Chrome/138.0.0.0 Safari/537.36","WebKit","Chrome","138.0.0.0","Windows","10.0","https://app.prolific.com/","en-US,en;q=0.9","60f41ae35227aa02240ba0d9","686e379bc37a29ffa5cdc956","68776180ebdb0ee0ab9e5fe0","1","1","60f41ae35227aa02240ba0d9","1","1","2025-07-16T08:46:52.436Z","","","","","","","","","","","ControlQ","","50","","","","","","","","","","","","","","","","","","","","","","","","","","","","",""
"9167","","<div style=""width:500px;"">
  <p>How would you describe your current emotional state?</p>
  </div>","73","html-slider-response","52","1194194","0.0-5.0-3.8","60","1","2025-07-16 08:27:03","1f75c3e559b7213887762d5229550c2b","102.66.141.24","Mozilla/5.0 (Windows NT 10.0; Win64; x64) AppleWebKit/537.36 (KHTML, like Gecko) Chrome/138.0.0.0 Safari/537.36","WebKit","Chrome","138.0.0.0","Windows","10.0","https://app.prolific.com/","en-US,en;q=0.9","60f41ae35227aa02240ba0d9","686e379bc37a29ffa5cdc956","68776180ebdb0ee0ab9e5fe0","1","1","60f41ae35227aa02240ba0d9","1","1","2025-07-16T08:47:01.608Z","","","","","","","","","","","StressQ","","50","","","","","","","","","","","","","","","","","","","","","","","","","","","","",""
"10124","","<div style=""width:500px;"">
  <p>What best describes how you currently feel?</p>
  </div>","73","html-slider-response","53","1204328","0.0-5.0-4.8","60","1","2025-07-16 08:27:03","1f75c3e559b7213887762d5229550c2b","102.66.141.24","Mozilla/5.0 (Windows NT 10.0; Win64; x64) AppleWebKit/537.36 (KHTML, like Gecko) Chrome/138.0.0.0 Safari/537.36","WebKit","Chrome","138.0.0.0","Windows","10.0","https://app.prolific.com/","en-US,en;q=0.9","60f41ae35227aa02240ba0d9","686e379bc37a29ffa5cdc956","68776180ebdb0ee0ab9e5fe0","1","1","60f41ae35227aa02240ba0d9","1","1","2025-07-16T08:47:11.742Z","","","","","","","","","","","MotivationQ","","50","","","","","","","","","","","","","","","","","","","","","","","","","","","","",""
"","","","","ctl-task-cpt","54","1291914","0.0-5.0-0.9","60","1","2025-07-16 08:27:03","1f75c3e559b7213887762d5229550c2b","102.66.141.24","Mozilla/5.0 (Windows NT 10.0; Win64; x64) AppleWebKit/537.36 (KHTML, like Gecko) Chrome/138.0.0.0 Safari/537.36","WebKit","Chrome","138.0.0.0","Windows","10.0","https://app.prolific.com/","en-US,en;q=0.9","60f41ae35227aa02240ba0d9","686e379bc37a29ffa5cdc956","68776180ebdb0ee0ab9e5fe0","1","1","60f41ae35227aa02240ba0d9","1","1","2025-07-16T08:48:39.328Z","","","","","","","","","","","","","","win-only","0","g1:NW,g2:SE","0.4","10","0","1208452.8","10071.7","15102.7","84552.5","1","4","4","6","2","4","4","40","36","0.30303030303030304","2059.6","3000","1855","[""down"",""right""]","{""num_key_presses"":12,""num_perfect"":6,""num_errors"":0,""num_randdir"":6,""num_randdir_good_moves"":3,""num_whilered"":0,""num_whileblue"":0,""num_blue"":4,""num_good_moves"":9}","[335.0892857142857,334.33928523744856,5.7,335.0892857142857,334.33928523744856,110.3,335.0892857142857,334.33928523744856,245.7,335.0892857142857,334.33928523744856,389.6,335.0892857142857,334.33928523744856,522,335.0892857142857,334.33928523744856,652.3,320.0892857142857,344.33928523744856,770.9,195.08928571428572,389.33928523744856,880.7,227.58928571428572,256.83928523744856,981.9,390.0892857142857,324.33928523744856,1100.4,540.0892857142857,493.08928523744856,1212.9,555.0892857142857,515.5892852374485,1327.4,556.3392857142857,550.5892852374485,1430.6,565.0892857142857,564.3392852374485,1581.4,595.0892857142857,584.3392852374485,1695.6,596.3392857142857,584.3392852374485,1831.1,596.3392857142857,584.3392852374485,1972.7,596.3392857142857,584.3392852374485,2116.5,596.3392857142857,584.3392852374485,2249.2,596.3392857142857,584.3392852374485,2392.1,596.3392857142857,584.3392852374485,2524.2,596.3392857142857,584.3392852374485,2654.6,596.3392857142857,584.3392852374485,2783.2,596.3392857142857,584.3392852374485,2909.8,596.3392857142857,584.3392852374485,3038.3,596.3392857142857,584.3392852374485,3171.7,596.3392857142857,584.3392852374485,3299.4,596.3392857142857,584.3392852374485,3429.4,596.3392857142857,584.3392852374485,3555.8,555.0892857142857,493.08928523744856,3715.5,541.3392857142857,399.33928523744856,3824.7,537.5892857142857,346.83928523744856,3930.3,537.5892857142857,345.58928523744856,4031.1,537.5892857142857,335.58928523744856,4157.3,520.0892857142857,306.83928523744856,4269.6,516.3392857142857,304.33928523744856,4397,516.3392857142857,304.33928523744856,4530.6,516.3392857142857,304.33928523744856,4662.2,516.3392857142857,304.33928523744856,4796,516.3392857142857,304.33928523744856,4930]","[2034.1,2034.1,1000,0,1034.1,""oops"",""down"",""left"",""bad_move"",13753.6,11717.9,2332.3,2035.8,9385.5,""smooth"",""down"",""down"",""good_move"",20183.4,6426.4,2792.1,16794.6,596.7,""smooth"",""down"",""down"",""good_move"",23400.9,3217.2,2337.5,20183.7,879.7,""oops"",""down"",""down"",""good_move"",26500.5,3097.3,1855,23403.2,1242.3,""oops"",""right"",""up"",""bad_move"",37648.3,11146.2,2444.4,26502.3,8701.7,""smooth"",""right"",""right"",""good_move"",44179.5,6529.8,2174.9,41175.9,828.7,""oops"",""right"",""up"",""bad_move"",49840.4,5660.3,2801.2,44180.1,2859.1,""smooth"",""right"",""right"",""good_move"",53258.4,3417.3,2755.3,49841.2,662,""oops"",""right"",""down"",""good_move"",59505.2,6244.5,1355.5,57126.3,1023.5,""oops"",""right"",""right"",""good_move"",62648.9,3142,2229.8,59506.9,912.2,""smooth"",""right"",""right"",""good_move"",68531.7,5881.4,1931.6,66033.5,566.6,""smooth"",""down"",""down"",""good_move""]","",""
"5775","","<div style=""width:500px;"">
  <p>What determined the result of this run?</p>
  </div>","77","html-slider-response","55","1297691","0.0-5.0-1.9","60","1","2025-07-16 08:27:03","1f75c3e559b7213887762d5229550c2b","102.66.141.24","Mozilla/5.0 (Windows NT 10.0; Win64; x64) AppleWebKit/537.36 (KHTML, like Gecko) Chrome/138.0.0.0 Safari/537.36","WebKit","Chrome","138.0.0.0","Windows","10.0","https://app.prolific.com/","en-US,en;q=0.9","60f41ae35227aa02240ba0d9","686e379bc37a29ffa5cdc956","68776180ebdb0ee0ab9e5fe0","1","1","60f41ae35227aa02240ba0d9","1","1","2025-07-16T08:48:45.106Z","","","","","","","","","","","AttribQ","","50","","","","","","","","","","","","","","","","","","","","","","","","","","","","",""
"9097","","<div style=""width:500px;"">
  <p>How much control did you have over the ball?</p>
  </div>","60","html-slider-response","56","1306793","0.0-5.0-2.9","60","1","2025-07-16 08:27:03","1f75c3e559b7213887762d5229550c2b","102.66.141.24","Mozilla/5.0 (Windows NT 10.0; Win64; x64) AppleWebKit/537.36 (KHTML, like Gecko) Chrome/138.0.0.0 Safari/537.36","WebKit","Chrome","138.0.0.0","Windows","10.0","https://app.prolific.com/","en-US,en;q=0.9","60f41ae35227aa02240ba0d9","686e379bc37a29ffa5cdc956","68776180ebdb0ee0ab9e5fe0","1","1","60f41ae35227aa02240ba0d9","1","1","2025-07-16T08:48:54.207Z","","","","","","","","","","","ControlQ","","50","","","","","","","","","","","","","","","","","","","","","","","","","","","","",""
"7736","","<div style=""width:500px;"">
  <p>How would you describe your current emotional state?</p>
  </div>","45","html-slider-response","57","1314532","0.0-5.0-3.9","60","1","2025-07-16 08:27:03","1f75c3e559b7213887762d5229550c2b","102.66.141.24","Mozilla/5.0 (Windows NT 10.0; Win64; x64) AppleWebKit/537.36 (KHTML, like Gecko) Chrome/138.0.0.0 Safari/537.36","WebKit","Chrome","138.0.0.0","Windows","10.0","https://app.prolific.com/","en-US,en;q=0.9","60f41ae35227aa02240ba0d9","686e379bc37a29ffa5cdc956","68776180ebdb0ee0ab9e5fe0","1","1","60f41ae35227aa02240ba0d9","1","1","2025-07-16T08:49:01.946Z","","","","","","","","","","","StressQ","","50","","","","","","","","","","","","","","","","","","","","","","","","","","","","",""
"25750","","<div style=""width:500px;"">
  <p>What best describes how you currently feel?</p>
  </div>","60","html-slider-response","58","1340285","0.0-5.0-4.9","60","1","2025-07-16 08:27:03","1f75c3e559b7213887762d5229550c2b","102.66.141.24","Mozilla/5.0 (Windows NT 10.0; Win64; x64) AppleWebKit/537.36 (KHTML, like Gecko) Chrome/138.0.0.0 Safari/537.36","WebKit","Chrome","138.0.0.0","Windows","10.0","https://app.prolific.com/","en-US,en;q=0.9","60f41ae35227aa02240ba0d9","686e379bc37a29ffa5cdc956","68776180ebdb0ee0ab9e5fe0","1","1","60f41ae35227aa02240ba0d9","1","1","2025-07-16T08:49:27.699Z","","","","","","","","","","","MotivationQ","","50","","","","","","","","","","","","","","","","","","","","","","","","","","","","",""
"","","","","ctl-task-cpt","59","1461006","0.0-5.0-0.10","60","1","2025-07-16 08:27:03","1f75c3e559b7213887762d5229550c2b","102.66.141.24","Mozilla/5.0 (Windows NT 10.0; Win64; x64) AppleWebKit/537.36 (KHTML, like Gecko) Chrome/138.0.0.0 Safari/537.36","WebKit","Chrome","138.0.0.0","Windows","10.0","https://app.prolific.com/","en-US,en;q=0.9","60f41ae35227aa02240ba0d9","686e379bc37a29ffa5cdc956","68776180ebdb0ee0ab9e5fe0","1","1","60f41ae35227aa02240ba0d9","1","1","2025-07-16T08:51:28.421Z","","","","","","","","","","","","","","win-only","3","g1:SW,g2:NE","0.5","11","0","1344408.3","21680.8","26713.7","117669.1","1","4","4","6","2","4","3","43","40","0.32575757575757575","1642","3000","2220","[""up"",""right""]","{""num_key_presses"":12,""num_perfect"":6,""num_errors"":1,""num_randdir"":5,""num_randdir_good_moves"":3,""num_whilered"":0,""num_whileblue"":1,""num_blue"":4,""num_good_moves"":9}","[332.5892857142857,329.33928523744856,1.4,332.5892857142857,329.33928523744856,119.7,332.5892857142857,329.33928523744856,251.2,332.5892857142857,329.33928523744856,371.4,332.5892857142857,329.33928523744856,489.3,332.5892857142857,329.33928523744856,630.9,390.0892857142857,228.08928523744856,766,513.8392857142857,130.58928523744856,906.3,608.8392857142857,29.339285237448557,1024.9,605.0892857142857,39.33928523744856,1127.6,601.3392857142857,44.33928523744856,1254.8,605.0892857142857,48.08928523744856,1388,606.3392857142857,50.58928523744856,1503.1,606.3392857142857,50.58928523744856,1625.4,606.3392857142857,50.58928523744856,1727,606.3392857142857,50.58928523744856,1841.4,606.3392857142857,50.58928523744856,1959.7,606.3392857142857,50.58928523744856,2082.6,606.3392857142857,50.58928523744856,2204.9,606.3392857142857,50.58928523744856,2327.1,566.3392857142857,130.58928523744856,2456.4,470.0892857142857,349.33928523744856,2597.8,435.0892857142857,424.33928523744856,2738.1,435.0892857142857,424.33928523744856,2854.1,435.0892857142857,424.33928523744856,2970.7,435.0892857142857,424.33928523744856,3097.4,435.0892857142857,424.33928523744856,3221.8,435.0892857142857,424.33928523744856,3350.5,435.0892857142857,424.33928523744856,3471.7,435.0892857142857,424.33928523744856,3590.9,435.0892857142857,424.33928523744856,3716,435.0892857142857,424.33928523744856,3834.9,435.0892857142857,424.33928523744856,3956.2,435.0892857142857,424.33928523744856,4084.7,435.0892857142857,424.33928523744856,4210.5,435.0892857142857,424.33928523744856,4337.2,435.0892857142857,424.33928523744856,4457.5,435.0892857142857,424.33928523744856,4580.9,435.0892857142857,424.33928523744856,4698.6,435.0892857142857,424.33928523744856,4820.5,435.0892857142857,424.33928523744856,4939.5]","[9459.1,9459.1,2668.4,6280.7,510,""smooth"",""up"",""up"",""good_move"",17469.1,8008.7,1930.1,9460.4,6078.6,""smooth"",""up"",""up"",""good_move"",27128.4,9658.5,9140,17470,518.4,""while_blue"",""up"",""left"",""bad_move"",39946.6,12812.8,3353.5,27133.8,9459.4,""smooth"",""up"",""up"",""good_move"",50607.9,10656.6,1890.5,39951.3,8766.1,""oops"",""right"",""right"",""good_move"",54567.8,3958.8,2868,50609,1090.8,""oops"",""right"",""left"",""bad_move"",66773.2,12204.3,2253.8,63762.6,756.8,""oops"",""right"",""right"",""good_move"",70062.8,3284.3,2309.4,66778.5,974.9,""smooth"",""right"",""right"",""good_move"",73389.6,3322.8,2482.8,70066.9,839.9,""smooth"",""right"",""right"",""good_move"",77067.5,3657.4,2559.2,73410.1,1098.2,""oops"",""right"",""left"",""bad_move"",85419.5,8347.9,2417.6,77071.6,5930.3,""oops"",""right"",""right"",""good_move"",89336.5,3916.2,3305.2,85420.3,611,""smooth"",""right"",""right"",""good_move""]","",""
"14534","","<div style=""width:500px;"">
  <p>What determined the result of this run?</p>
  </div>","74","html-slider-response","60","1475543","0.0-5.0-1.10","60","1","2025-07-16 08:27:03","1f75c3e559b7213887762d5229550c2b","102.66.141.24","Mozilla/5.0 (Windows NT 10.0; Win64; x64) AppleWebKit/537.36 (KHTML, like Gecko) Chrome/138.0.0.0 Safari/537.36","WebKit","Chrome","138.0.0.0","Windows","10.0","https://app.prolific.com/","en-US,en;q=0.9","60f41ae35227aa02240ba0d9","686e379bc37a29ffa5cdc956","68776180ebdb0ee0ab9e5fe0","1","1","60f41ae35227aa02240ba0d9","1","1","2025-07-16T08:51:42.957Z","","","","","","","","","","","AttribQ","","50","","","","","","","","","","","","","","","","","","","","","","","","","","","","",""
"8966","","<div style=""width:500px;"">
  <p>How much control did you have over the ball?</p>
  </div>","60","html-slider-response","61","1484511","0.0-5.0-2.10","60","1","2025-07-16 08:27:03","1f75c3e559b7213887762d5229550c2b","102.66.141.24","Mozilla/5.0 (Windows NT 10.0; Win64; x64) AppleWebKit/537.36 (KHTML, like Gecko) Chrome/138.0.0.0 Safari/537.36","WebKit","Chrome","138.0.0.0","Windows","10.0","https://app.prolific.com/","en-US,en;q=0.9","60f41ae35227aa02240ba0d9","686e379bc37a29ffa5cdc956","68776180ebdb0ee0ab9e5fe0","1","1","60f41ae35227aa02240ba0d9","1","1","2025-07-16T08:51:51.926Z","","","","","","","","","","","ControlQ","","50","","","","","","","","","","","","","","","","","","","","","","","","","","","","",""
"11221","","<div style=""width:500px;"">
  <p>How would you describe your current emotional state?</p>
  </div>","36","html-slider-response","62","1495742","0.0-5.0-3.10","60","1","2025-07-16 08:27:03","1f75c3e559b7213887762d5229550c2b","102.66.141.24","Mozilla/5.0 (Windows NT 10.0; Win64; x64) AppleWebKit/537.36 (KHTML, like Gecko) Chrome/138.0.0.0 Safari/537.36","WebKit","Chrome","138.0.0.0","Windows","10.0","https://app.prolific.com/","en-US,en;q=0.9","60f41ae35227aa02240ba0d9","686e379bc37a29ffa5cdc956","68776180ebdb0ee0ab9e5fe0","1","1","60f41ae35227aa02240ba0d9","1","1","2025-07-16T08:52:03.156Z","","","","","","","","","","","StressQ","","50","","","","","","","","","","","","","","","","","","","","","","","","","","","","",""
"8584","","<div style=""width:500px;"">
  <p>What best describes how you currently feel?</p>
  </div>","68","html-slider-response","63","1504330","0.0-5.0-4.10","60","1","2025-07-16 08:27:03","1f75c3e559b7213887762d5229550c2b","102.66.141.24","Mozilla/5.0 (Windows NT 10.0; Win64; x64) AppleWebKit/537.36 (KHTML, like Gecko) Chrome/138.0.0.0 Safari/537.36","WebKit","Chrome","138.0.0.0","Windows","10.0","https://app.prolific.com/","en-US,en;q=0.9","60f41ae35227aa02240ba0d9","686e379bc37a29ffa5cdc956","68776180ebdb0ee0ab9e5fe0","1","1","60f41ae35227aa02240ba0d9","1","1","2025-07-16T08:52:11.744Z","","","","","","","","","","","MotivationQ","","50","","","","","","","","","","","","","","","","","","","","","","","","","","","","",""
"","","","","ctl-task-cpt","64","1580993","0.0-5.0-0.11","60","1","2025-07-16 08:27:03","1f75c3e559b7213887762d5229550c2b","102.66.141.24","Mozilla/5.0 (Windows NT 10.0; Win64; x64) AppleWebKit/537.36 (KHTML, like Gecko) Chrome/138.0.0.0 Safari/537.36","WebKit","Chrome","138.0.0.0","Windows","10.0","https://app.prolific.com/","en-US,en;q=0.9","60f41ae35227aa02240ba0d9","686e379bc37a29ffa5cdc956","68776180ebdb0ee0ab9e5fe0","1","1","60f41ae35227aa02240ba0d9","1","1","2025-07-16T08:53:28.408Z","","","","","","","","","","","","","","win-only","3","g1:SW,g2:NE","0.6","12","0","1508448.1","7823.2","12867.3","73605.4","1","4","8","6","2","8","8","51","43","0.38636363636363635","1426.7","3000","2465","[""up"",""right""]","{""num_key_presses"":8,""num_perfect"":6,""num_errors"":0,""num_randdir"":2,""num_randdir_good_moves"":1,""num_whilered"":0,""num_whileblue"":0,""num_blue"":1,""num_good_moves"":7}","[336.3392857142857,338.08928523744856,0.9,336.3392857142857,338.08928523744856,109.5,336.3392857142857,338.08928523744856,255.1,336.3392857142857,338.08928523744856,381.2,336.3392857142857,338.08928523744856,484,336.3392857142857,338.08928523744856,632.1,381.3392857142857,264.33928523744856,797.1,585.0892857142857,71.83928523744856,914.9,616.3392857142857,58.08928523744856,1033,632.5892857142857,56.83928523744856,1144.5,632.5892857142857,55.58928523744856,1248.4,632.5892857142857,55.58928523744856,1391.1,632.5892857142857,55.58928523744856,1499,632.5892857142857,55.58928523744856,1639.3,632.5892857142857,55.58928523744856,1740.3,632.5892857142857,55.58928523744856,1872.3,632.5892857142857,55.58928523744856,2012.7,632.5892857142857,55.58928523744856,2114.2,632.5892857142857,55.58928523744856,2266.7,632.5892857142857,55.58928523744856,2408.3,632.5892857142857,55.58928523744856,2509.1,570.0892857142857,158.08928523744856,2628.2,518.8392857142857,259.33928523744856,2734.6,512.5892857142857,279.33928523744856,2844.5,510.0892857142857,288.08928523744856,2986.3,510.0892857142857,288.08928523744856,3135.7,510.0892857142857,288.08928523744856,3244.5,510.0892857142857,288.08928523744856,3384.4,510.0892857142857,288.08928523744856,3525.1,510.0892857142857,288.08928523744856,3660.5,510.0892857142857,288.08928523744856,3800.8,510.0892857142857,288.08928523744856,3934.6,510.0892857142857,288.08928523744856,4075.8,510.0892857142857,288.08928523744856,4179,510.0892857142857,288.08928523744856,4322.7,510.0892857142857,288.08928523744856,4475.1,510.0892857142857,288.08928523744856,4615.5,510.0892857142857,288.08928523744856,4753.4,510.0892857142857,288.08928523744856,4899.7]","[1581.6,1581.6,1000,0,581.6,""smooth"",""up"",""up"",""good_move"",11526,9943.3,2533.2,1582.7,7410.1,""oops"",""up"",""left"",""bad_move"",23927.8,12400.6,2694.6,11527.2,9706,""smooth"",""up"",""up"",""good_move"",40719.7,16788.9,3073.5,36987.8,658.4,""smooth"",""up"",""up"",""good_move"",49401.3,8680.9,1997,40720.4,6683.9,""smooth"",""right"",""right"",""good_move"",52922.6,3520.1,2658.7,49402.5,861.4,""smooth"",""right"",""right"",""good_move"",56398.1,3473.1,2574.5,52925.1,898.5,""smooth"",""right"",""right"",""good_move"",59947.5,3546.1,2769.2,56401.4,776.9,""oops"",""right"",""right"",""good_move""]","",""
"8661","","<div style=""width:500px;"">
  <p>What determined the result of this run?</p>
  </div>","72","html-slider-response","65","1589659","0.0-5.0-1.11","60","1","2025-07-16 08:27:03","1f75c3e559b7213887762d5229550c2b","102.66.141.24","Mozilla/5.0 (Windows NT 10.0; Win64; x64) AppleWebKit/537.36 (KHTML, like Gecko) Chrome/138.0.0.0 Safari/537.36","WebKit","Chrome","138.0.0.0","Windows","10.0","https://app.prolific.com/","en-US,en;q=0.9","60f41ae35227aa02240ba0d9","686e379bc37a29ffa5cdc956","68776180ebdb0ee0ab9e5fe0","1","1","60f41ae35227aa02240ba0d9","1","1","2025-07-16T08:53:37.074Z","","","","","","","","","","","AttribQ","","50","","","","","","","","","","","","","","","","","","","","","","","","","","","","",""
"8922","","<div style=""width:500px;"">
  <p>How much control did you have over the ball?</p>
  </div>","73","html-slider-response","66","1598583","0.0-5.0-2.11","60","1","2025-07-16 08:27:03","1f75c3e559b7213887762d5229550c2b","102.66.141.24","Mozilla/5.0 (Windows NT 10.0; Win64; x64) AppleWebKit/537.36 (KHTML, like Gecko) Chrome/138.0.0.0 Safari/537.36","WebKit","Chrome","138.0.0.0","Windows","10.0","https://app.prolific.com/","en-US,en;q=0.9","60f41ae35227aa02240ba0d9","686e379bc37a29ffa5cdc956","68776180ebdb0ee0ab9e5fe0","1","1","60f41ae35227aa02240ba0d9","1","1","2025-07-16T08:53:45.998Z","","","","","","","","","","","ControlQ","","50","","","","","","","","","","","","","","","","","","","","","","","","","","","","",""
"9150","","<div style=""width:500px;"">
  <p>How would you describe your current emotional state?</p>
  </div>","30","html-slider-response","67","1607737","0.0-5.0-3.11","60","1","2025-07-16 08:27:03","1f75c3e559b7213887762d5229550c2b","102.66.141.24","Mozilla/5.0 (Windows NT 10.0; Win64; x64) AppleWebKit/537.36 (KHTML, like Gecko) Chrome/138.0.0.0 Safari/537.36","WebKit","Chrome","138.0.0.0","Windows","10.0","https://app.prolific.com/","en-US,en;q=0.9","60f41ae35227aa02240ba0d9","686e379bc37a29ffa5cdc956","68776180ebdb0ee0ab9e5fe0","1","1","60f41ae35227aa02240ba0d9","1","1","2025-07-16T08:53:55.151Z","","","","","","","","","","","StressQ","","50","","","","","","","","","","","","","","","","","","","","","","","","","","","","",""
"9261","","<div style=""width:500px;"">
  <p>What best describes how you currently feel?</p>
  </div>","73","html-slider-response","68","1617007","0.0-5.0-4.11","60","1","2025-07-16 08:27:03","1f75c3e559b7213887762d5229550c2b","102.66.141.24","Mozilla/5.0 (Windows NT 10.0; Win64; x64) AppleWebKit/537.36 (KHTML, like Gecko) Chrome/138.0.0.0 Safari/537.36","WebKit","Chrome","138.0.0.0","Windows","10.0","https://app.prolific.com/","en-US,en;q=0.9","60f41ae35227aa02240ba0d9","686e379bc37a29ffa5cdc956","68776180ebdb0ee0ab9e5fe0","1","1","60f41ae35227aa02240ba0d9","1","1","2025-07-16T08:54:04.421Z","","","","","","","","","","","MotivationQ","","50","","","","","","","","","","","","","","","","","","","","","","","","","","","","",""
"","","","","ctl-task-cpt","69","1699825","0.0-5.0-0.12","60","1","2025-07-16 08:27:03","1f75c3e559b7213887762d5229550c2b","102.66.141.24","Mozilla/5.0 (Windows NT 10.0; Win64; x64) AppleWebKit/537.36 (KHTML, like Gecko) Chrome/138.0.0.0 Safari/537.36","WebKit","Chrome","138.0.0.0","Windows","10.0","https://app.prolific.com/","en-US,en;q=0.9","60f41ae35227aa02240ba0d9","686e379bc37a29ffa5cdc956","68776180ebdb0ee0ab9e5fe0","1","1","60f41ae35227aa02240ba0d9","1","1","2025-07-16T08:55:27.239Z","","","","","","","","","","","","","","win-only","3","g1:SW,g2:NE","0.7","13","0","1621121.3","26464.3","31540.5","79612.3","1","4","4","6","2","4","4","55","51","0.4166666666666667","1655.7","3000","2595","[""up"",""right""]","{""num_key_presses"":6,""num_perfect"":4,""num_errors"":0,""num_randdir"":2,""num_randdir_good_moves"":2,""num_whilered"":0,""num_whileblue"":0,""num_blue"":2,""num_good_moves"":6}","[332.5892857142857,334.33928523744856,1,332.5892857142857,334.33928523744856,120.3,332.5892857142857,334.33928523744856,221.9,427.5892857142857,214.33928523744856,725.6,601.3392857142857,94.33928523744856,846.8,603.8392857142857,93.08928523744856,953.7,602.5892857142857,78.08928523744856,1077.9,610.0892857142857,66.83928523744856,1682.3,610.0892857142857,66.83928523744856,1820.7,610.0892857142857,66.83928523744856,1921.5,610.0892857142857,66.83928523744856,2424.6,501.3392857142857,199.33928523744856,2539.8,481.3392857142857,230.58928523744856,2644.8,468.8392857142857,260.58928523744856,3022,468.8392857142857,260.58928523744856,3133.6,375.0892857142857,389.33928523744856,3675,375.0892857142857,389.33928523744856,3779.7,375.0892857142857,389.33928523744856,4225.5,375.0892857142857,389.33928523744856,4325.6,375.0892857142857,389.33928523744856,4850.4,375.0892857142857,389.33928523744856,4962.5]","[1796.3,1796.3,1000,0,796.3,""smooth"",""up"",""up"",""good_move"",11008.2,9200.1,1867.1,1808.1,7333,""smooth"",""up"",""up"",""good_move"",20716.2,9707.2,2619.6,11009.1,7087.5,""oops"",""up"",""up"",""good_move"",31882.7,11164.9,3176.4,20717.9,7988.5,""smooth"",""right"",""right"",""good_move"",39683.5,7774.6,2055.2,36888.7,739.6,""oops"",""right"",""right"",""good_move"",47283.7,7597.9,2823,43507.5,953.2,""smooth"",""right"",""right"",""good_move""]","",""
"25431","","<div style=""width:500px;"">
  <p>What determined the result of this run?</p>
  </div>","65","html-slider-response","70","1725269","0.0-5.0-1.12","60","1","2025-07-16 08:27:03","1f75c3e559b7213887762d5229550c2b","102.66.141.24","Mozilla/5.0 (Windows NT 10.0; Win64; x64) AppleWebKit/537.36 (KHTML, like Gecko) Chrome/138.0.0.0 Safari/537.36","WebKit","Chrome","138.0.0.0","Windows","10.0","https://app.prolific.com/","en-US,en;q=0.9","60f41ae35227aa02240ba0d9","686e379bc37a29ffa5cdc956","68776180ebdb0ee0ab9e5fe0","1","1","60f41ae35227aa02240ba0d9","1","1","2025-07-16T08:55:52.684Z","","","","","","","","","","","AttribQ","","50","","","","","","","","","","","","","","","","","","","","","","","","","","","","",""
"10272","","<div style=""width:500px;"">
  <p>How much control did you have over the ball?</p>
  </div>","68","html-slider-response","71","1735557","0.0-5.0-2.12","60","1","2025-07-16 08:27:03","1f75c3e559b7213887762d5229550c2b","102.66.141.24","Mozilla/5.0 (Windows NT 10.0; Win64; x64) AppleWebKit/537.36 (KHTML, like Gecko) Chrome/138.0.0.0 Safari/537.36","WebKit","Chrome","138.0.0.0","Windows","10.0","https://app.prolific.com/","en-US,en;q=0.9","60f41ae35227aa02240ba0d9","686e379bc37a29ffa5cdc956","68776180ebdb0ee0ab9e5fe0","1","1","60f41ae35227aa02240ba0d9","1","1","2025-07-16T08:56:02.971Z","","","","","","","","","","","ControlQ","","50","","","","","","","","","","","","","","","","","","","","","","","","","","","","",""
"7899","","<div style=""width:500px;"">
  <p>How would you describe your current emotional state?</p>
  </div>","28","html-slider-response","72","1743460","0.0-5.0-3.12","60","1","2025-07-16 08:27:03","1f75c3e559b7213887762d5229550c2b","102.66.141.24","Mozilla/5.0 (Windows NT 10.0; Win64; x64) AppleWebKit/537.36 (KHTML, like Gecko) Chrome/138.0.0.0 Safari/537.36","WebKit","Chrome","138.0.0.0","Windows","10.0","https://app.prolific.com/","en-US,en;q=0.9","60f41ae35227aa02240ba0d9","686e379bc37a29ffa5cdc956","68776180ebdb0ee0ab9e5fe0","1","1","60f41ae35227aa02240ba0d9","1","1","2025-07-16T08:56:10.888Z","","","","","","","","","","","StressQ","","50","","","","","","","","","","","","","","","","","","","","","","","","","","","","",""
"9262","","<div style=""width:500px;"">
  <p>What best describes how you currently feel?</p>
  </div>","66","html-slider-response","73","1752744","0.0-5.0-4.12","60","1","2025-07-16 08:27:03","1f75c3e559b7213887762d5229550c2b","102.66.141.24","Mozilla/5.0 (Windows NT 10.0; Win64; x64) AppleWebKit/537.36 (KHTML, like Gecko) Chrome/138.0.0.0 Safari/537.36","WebKit","Chrome","138.0.0.0","Windows","10.0","https://app.prolific.com/","en-US,en;q=0.9","60f41ae35227aa02240ba0d9","686e379bc37a29ffa5cdc956","68776180ebdb0ee0ab9e5fe0","1","1","60f41ae35227aa02240ba0d9","1","1","2025-07-16T08:56:20.159Z","","","","","","","","","","","MotivationQ","","50","","","","","","","","","","","","","","","","","","","","","","","","","","","","",""
"","","","","ctl-task-cpt","74","1816859","0.0-5.0-0.13","60","1","2025-07-16 08:27:03","1f75c3e559b7213887762d5229550c2b","102.66.141.24","Mozilla/5.0 (Windows NT 10.0; Win64; x64) AppleWebKit/537.36 (KHTML, like Gecko) Chrome/138.0.0.0 Safari/537.36","WebKit","Chrome","138.0.0.0","Windows","10.0","https://app.prolific.com/","en-US,en;q=0.9","60f41ae35227aa02240ba0d9","686e379bc37a29ffa5cdc956","68776180ebdb0ee0ab9e5fe0","1","1","60f41ae35227aa02240ba0d9","1","1","2025-07-16T08:57:24.274Z","","","","","","","","","","","","","","win-only","3","g1:SW,g2:NE","0.8","14","0","1756892.2","21262.8","26275.4","60808.4","1","4","8","6","2","8","8","63","55","0.4772727272727273","1397.9","3000","2430","[""up"",""right""]","{""num_key_presses"":6,""num_perfect"":5,""num_errors"":0,""num_randdir"":1,""num_randdir_good_moves"":1,""num_whilered"":0,""num_whileblue"":0,""num_blue"":1,""num_good_moves"":6}","[332.5892857142857,335.58928523744856,1.3,332.5892857142857,335.58928523744856,327,332.5892857142857,335.58928523744856,447.5,332.5892857142857,335.58928523744856,558.3,576.3392857142857,104.33928523744856,834.7,580.0892857142857,104.33928523744856,947.2,607.5892857142857,68.08928523744856,1321.3,607.5892857142857,68.08928523744856,1427.2,607.5892857142857,68.08928523744856,1761,607.5892857142857,68.08928523744856,1865.3,607.5892857142857,68.08928523744856,2081,607.5892857142857,68.08928523744856,2189.7,452.5892857142857,293.08928523744856,2452.7,417.5892857142857,368.08928523744856,2555.8,410.0892857142857,390.58928523744856,2666.9,410.0892857142857,390.58928523744856,2958.3,410.0892857142857,390.58928523744856,3073.4,410.0892857142857,390.58928523744856,3314.7,410.0892857142857,390.58928523744856,3422.5,410.0892857142857,390.58928523744856,3740.2,410.0892857142857,390.58928523744856,3847.2,410.0892857142857,390.58928523744856,4057.5,410.0892857142857,390.58928523744856,4160.5,410.0892857142857,390.58928523744856,4371.6,410.0892857142857,390.58928523744856,4487.9,410.0892857142857,390.58928523744856,4606.1,410.0892857142857,390.58928523744856,4810.1,410.0892857142857,390.58928523744856,4928]","[1703.8,1703.8,1000,0,703.8,""smooth"",""up"",""up"",""good_move"",9229.5,7523.8,2835.6,1705.7,4688.2,""smooth"",""up"",""up"",""good_move"",16838.6,7608.7,2054.8,9229.9,5553.9,""smooth"",""up"",""up"",""good_move"",23512.1,6672.9,3005.6,16839.3,3667.2,""oops"",""right"",""right"",""good_move"",27475.1,3962.2,2779.1,23512.9,1183.1,""smooth"",""right"",""right"",""good_move"",33927.4,6450.8,2214.5,31103.4,609.5,""smooth"",""right"",""right"",""good_move""]","",""
"4786","","<div style=""width:500px;"">
  <p>What determined the result of this run?</p>
  </div>","80","html-slider-response","75","1821649","0.0-5.0-1.13","60","1","2025-07-16 08:27:03","1f75c3e559b7213887762d5229550c2b","102.66.141.24","Mozilla/5.0 (Windows NT 10.0; Win64; x64) AppleWebKit/537.36 (KHTML, like Gecko) Chrome/138.0.0.0 Safari/537.36","WebKit","Chrome","138.0.0.0","Windows","10.0","https://app.prolific.com/","en-US,en;q=0.9","60f41ae35227aa02240ba0d9","686e379bc37a29ffa5cdc956","68776180ebdb0ee0ab9e5fe0","1","1","60f41ae35227aa02240ba0d9","1","1","2025-07-16T08:57:29.063Z","","","","","","","","","","","AttribQ","","50","","","","","","","","","","","","","","","","","","","","","","","","","","","","",""
"23344","","<div style=""width:500px;"">
  <p>How much control did you have over the ball?</p>
  </div>","67","html-slider-response","76","1844999","0.0-5.0-2.13","60","1","2025-07-16 08:27:03","1f75c3e559b7213887762d5229550c2b","102.66.141.24","Mozilla/5.0 (Windows NT 10.0; Win64; x64) AppleWebKit/537.36 (KHTML, like Gecko) Chrome/138.0.0.0 Safari/537.36","WebKit","Chrome","138.0.0.0","Windows","10.0","https://app.prolific.com/","en-US,en;q=0.9","60f41ae35227aa02240ba0d9","686e379bc37a29ffa5cdc956","68776180ebdb0ee0ab9e5fe0","1","1","60f41ae35227aa02240ba0d9","1","1","2025-07-16T08:57:52.414Z","","","","","","","","","","","ControlQ","","50","","","","","","","","","","","","","","","","","","","","","","","","","","","","",""
"15630","","<div style=""width:500px;"">
  <p>How would you describe your current emotional state?</p>
  </div>","36","html-slider-response","77","1860635","0.0-5.0-3.13","60","1","2025-07-16 08:27:03","1f75c3e559b7213887762d5229550c2b","102.66.141.24","Mozilla/5.0 (Windows NT 10.0; Win64; x64) AppleWebKit/537.36 (KHTML, like Gecko) Chrome/138.0.0.0 Safari/537.36","WebKit","Chrome","138.0.0.0","Windows","10.0","https://app.prolific.com/","en-US,en;q=0.9","60f41ae35227aa02240ba0d9","686e379bc37a29ffa5cdc956","68776180ebdb0ee0ab9e5fe0","1","1","60f41ae35227aa02240ba0d9","1","1","2025-07-16T08:58:08.051Z","","","","","","","","","","","StressQ","","50","","","","","","","","","","","","","","","","","","","","","","","","","","","","",""
"10690","","<div style=""width:500px;"">
  <p>What best describes how you currently feel?</p>
  </div>","74","html-slider-response","78","1871331","0.0-5.0-4.13","60","1","2025-07-16 08:27:03","1f75c3e559b7213887762d5229550c2b","102.66.141.24","Mozilla/5.0 (Windows NT 10.0; Win64; x64) AppleWebKit/537.36 (KHTML, like Gecko) Chrome/138.0.0.0 Safari/537.36","WebKit","Chrome","138.0.0.0","Windows","10.0","https://app.prolific.com/","en-US,en;q=0.9","60f41ae35227aa02240ba0d9","686e379bc37a29ffa5cdc956","68776180ebdb0ee0ab9e5fe0","1","1","60f41ae35227aa02240ba0d9","1","1","2025-07-16T08:58:18.745Z","","","","","","","","","","","MotivationQ","","50","","","","","","","","","","","","","","","","","","","","","","","","","","","","",""
"","","","","ctl-task-cpt","79","1958720","0.0-5.0-0.14","60","1","2025-07-16 08:27:03","1f75c3e559b7213887762d5229550c2b","102.66.141.24","Mozilla/5.0 (Windows NT 10.0; Win64; x64) AppleWebKit/537.36 (KHTML, like Gecko) Chrome/138.0.0.0 Safari/537.36","WebKit","Chrome","138.0.0.0","Windows","10.0","https://app.prolific.com/","en-US,en;q=0.9","60f41ae35227aa02240ba0d9","686e379bc37a29ffa5cdc956","68776180ebdb0ee0ab9e5fe0","1","1","60f41ae35227aa02240ba0d9","1","1","2025-07-16T08:59:46.134Z","","","","","","","","","","","","","","win-only","1","g1:NE,g2:SW","0.9","15","0","1875447.5","35365.9","40679.3","84126.6","1","4","8","6","2","8","8","71","63","0.5378787878787878","2573.8","3000","2300","[""down"",""left""]","{""num_key_presses"":8,""num_perfect"":7,""num_errors"":0,""num_randdir"":1,""num_randdir_good_moves"":0,""num_whilered"":0,""num_whileblue"":0,""num_blue"":2,""num_good_moves"":7}","[335.0892857142857,333.08928523744856,4.2,335.0892857142857,333.08928523744856,612.6,335.0892857142857,333.08928523744856,729.2,335.0892857142857,333.08928523744856,1081.1,335.0892857142857,333.08928523744856,1201.3,185.08928571428572,498.08928523744856,1552.5,45.089285714285715,559.3392852374485,1663.5,-1.1607142857142847,619.3392852374485,1766.4,47.589285714285715,608.0892852374485,2162.5,47.589285714285715,609.3392852374485,2264.8,47.589285714285715,609.3392852374485,2587.8,47.589285714285715,609.3392852374485,2691.5,47.589285714285715,609.3392852374485,3090.9,47.589285714285715,609.3392852374485,3201.6,47.589285714285715,609.3392852374485,3529.8,47.589285714285715,609.3392852374485,3632.1,106.33928571428572,605.5892852374485,3743.9,83.83928571428572,671.8392852374485,4050.1,71.33928571428572,660.5892852374485,4152,65.08928571428572,656.8392852374485,4458.7,65.08928571428572,656.8392852374485,4564.7,65.08928571428572,656.8392852374485,4811.7,65.08928571428572,656.8392852374485,4921.4]","[5294.5,5294.5,2578.7,2022.7,693.1,""smooth"",""down"",""down"",""good_move"",8814.7,3518,2405.3,5296.7,1112.7,""smooth"",""down"",""down"",""good_move"",11787.5,2971.5,2275.6,8816.1,695.8,""smooth"",""down"",""down"",""good_move"",18297.9,6506,2358.8,15095.4,843.7,""smooth"",""left"",""left"",""good_move"",25280,6981.1,2286.2,18298.9,4694.9,""smooth"",""left"",""left"",""good_move"",31948.6,6668,2612.4,25280.7,4055.5,""oops"",""left"",""right"",""bad_move"",35666.2,3715.7,3033.6,31950.6,682.1,""smooth"",""left"",""left"",""good_move"",42894.9,7227,2760.9,35667.9,4466.1,""smooth"",""left"",""left"",""good_move""]","",""
"3332","","<div style=""width:500px;"">
