"rt","response_timestamp","stimulus","response","trial_type","trial_index","time_elapsed","internal_node_id","run_id","condition","recorded_at","source_code_version","ip","user_agent","device","browser","browser_version","platform","platform_version","referer","accept_language","PROLIFIC_PID","STUDY_ID","SESSION_ID","WEEK","BATCH","prolific_id","week","batch","realtime","success","responses","item_order","radio_event_ids","radio_event_times","key_event_times","mouse_event_times","straightlining","zigzagging","honeypot","eventType","view_history","slider_start","which_type","canvas_config","goals_layout","control_level","trial_number","tutorial_trial_number","trial_start_time","phase1_start_time","phase2_start_time","phase3_start_time","goal_1_value","goal_1_distance","goal_2_value","goal_2_distance","goal_selected","outcome","outcome_total","participant_final_score","participant_initial_score","participant_final_score_prop","goal_choice_rt","allocated_time","allocated_time_remaining","goal_direction","counts","mouse_movements","key_presses","question_order","question_id"
"10648","1753891719778","<p style='font-size:40px;line-height:1.25'><strong>Welcome to the experiment!</strong></p><p style='font-size:1.1em;line-height:1.25'>Thank you for participanting in our experiment again! You will be asked to play the Dysfunctional Ball Game again. We will briefly recap the rules before we start.</p><p style='font-size:1.1em;line-height:1.25'>Press <strong>Next</strong> to continue.</p>","0","custom-html-button-response","0","10652","0.0-0.0","295","1","2025-07-30 16:08:27","1f75c3e559b7213887762d5229550c2b","169.1.3.252","Mozilla/5.0 (Windows NT 10.0; Win64; x64) AppleWebKit/537.36 (KHTML, like Gecko) Chrome/138.0.0.0 Safari/537.36","WebKit","Chrome","138.0.0.0","Windows","10.0","https://app.prolific.com/","en-US,en;q=0.9","60aad516e34718d318bfb44d","6877631c9844ddd5501205fc","688a43615c5547ae4c54edba","3","1","60aad516e34718d318bfb44d","3","1","2025-07-30T16:08:39.779Z","","","","","","","","","","","","","","","","","","","","","","","","","","","","","","","","","","","","","","","","","",""
"21702","","","","fullscreen","1","33364","0.0-1.0","295","1","2025-07-30 16:08:27","1f75c3e559b7213887762d5229550c2b","169.1.3.252","Mozilla/5.0 (Windows NT 10.0; Win64; x64) AppleWebKit/537.36 (KHTML, like Gecko) Chrome/138.0.0.0 Safari/537.36","WebKit","Chrome","138.0.0.0","Windows","10.0","https://app.prolific.com/","en-US,en;q=0.9","60aad516e34718d318bfb44d","6877631c9844ddd5501205fc","688a43615c5547ae4c54edba","3","1","60aad516e34718d318bfb44d","3","1","","true","","","","","","","","","","","","","","","","","","","","","","","","","","","","","","","","","","","","","","","","",""
"11873","1753891754367","<p style='font-size:1.1em;line-height:1.25'>In the following, we will ask you a few questions relating to your feelings in the last 24 hours.<br></p><p style='font-size:1.1em;line-height:1.25'>Press the <strong>Next</strong> button to continue.</p>","0","custom-html-button-response","2","45240","0.0-2.0-0.0","295","1","2025-07-30 16:08:27","1f75c3e559b7213887762d5229550c2b","169.1.3.252","Mozilla/5.0 (Windows NT 10.0; Win64; x64) AppleWebKit/537.36 (KHTML, like Gecko) Chrome/138.0.0.0 Safari/537.36","WebKit","Chrome","138.0.0.0","Windows","10.0","https://app.prolific.com/","en-US,en;q=0.9","60aad516e34718d318bfb44d","6877631c9844ddd5501205fc","688a43615c5547ae4c54edba","3","1","60aad516e34718d318bfb44d","3","1","2025-07-30T16:09:14.367Z","","","","","","","","","","","","","","","","","","","","","","","","","","","","","","","","","","","","","","","","","",""
"103663.09999999404","","","","survey-template","3","148907","0.0-2.0-1.0","295","1","2025-07-30 16:08:27","1f75c3e559b7213887762d5229550c2b","169.1.3.252","Mozilla/5.0 (Windows NT 10.0; Win64; x64) AppleWebKit/537.36 (KHTML, like Gecko) Chrome/138.0.0.0 Safari/537.36","WebKit","Chrome","138.0.0.0","Windows","10.0","https://app.prolific.com/","en-US,en;q=0.9","60aad516e34718d318bfb44d","6877631c9844ddd5501205fc","688a43615c5547ae4c54edba","3","1","60aad516e34718d318bfb44d","3","1","2025-07-30T16:10:58.034Z","","{""Q01"":""0"",""Q02"":""1"",""Q03"":""0"",""Q04"":""2"",""Q05"":""1"",""Q06"":""1"",""Q07"":""1"",""Q08"":""1"",""Q09"":""1"",""Q10"":""1"",""Q11"":""3"",""Q12"":""0"",""Q13"":""5"",""Q14"":""0"",""Q15"":""3"",""Q16"":""0"",""Q17"":""1"",""Q18"":""1"",""Q19"":""0"",""Q20"":""2"",""Q21"":""2"",""Q22"":""1""}","[0,1,2,3,4,5,6,7,8,9,10,11,12,13,14,15,16,17,18,19,20,21]","[""Q01"",""Q02"",""Q03"",""Q04"",""Q05"",""Q06"",""Q07"",""Q08"",""Q08"",""Q09"",""Q10"",""Q11"",""Q12"",""Q13"",""Q14"",""Q15"",""Q16"",""Q17"",""Q18"",""Q19"",""Q20"",""Q21"",""Q22""]","[3342.1999999955297,5653,6485.29999999702,8998,12178.5,17307.59999999404,19041.59999999404,22115.5,25176.19999999553,29714,31836.39999999851,38105.59999999404,42404.29999999702,44840.59999999404,47375.59999999404,52431.39999999851,58282.39999999851,65842.19999999553,66772.39999999851,70004.39999999851,78067.89999999851,83048.29999999702,87848.09999999404]","[]","[0.8999999985098839,2502.2999999970198,3342.1999999955297,4498.0999999940395,5653,6485.29999999702,8998,12178.5,17307.59999999404,19041.59999999404,22115.5,25176.19999999553,29714,31836.39999999851,36141.29999999702,37364.19999999553,38105.59999999404,41451.5,41923.89999999851,42404.29999999702,44840.59999999404,47375.59999999404,52431.39999999851,58282.39999999851,62985.39999999851,64950.09999999404,65842.19999999553,66772.39999999851,70004.39999999851,75810.39999999851,78067.89999999851,83048.29999999702,87848.09999999404,103657.89999999851]","0.45454545454545453","0.38095238095238093","0","drsp","","","","","","","","","","","","","","","","","","","","","","","","","","","","","","",""
"23814","","","","survey-template","4","172723","0.0-2.0-2.0","295","1","2025-07-30 16:08:27","1f75c3e559b7213887762d5229550c2b","169.1.3.252","Mozilla/5.0 (Windows NT 10.0; Win64; x64) AppleWebKit/537.36 (KHTML, like Gecko) Chrome/138.0.0.0 Safari/537.36","WebKit","Chrome","138.0.0.0","Windows","10.0","https://app.prolific.com/","en-US,en;q=0.9","60aad516e34718d318bfb44d","6877631c9844ddd5501205fc","688a43615c5547ae4c54edba","3","1","60aad516e34718d318bfb44d","3","1","2025-07-30T16:11:21.850Z","","{""Q01"":""1"",""Q02"":""3"",""Q03"":""2""}","[0,1,2]","[""Q01"",""Q02"",""Q02"",""Q03""]","[6967.70000000298,14461,16088.60000000149,22178.5]","[]","[6495.10000000149,6967.70000000298,14461,15030.80000000447,15435.70000000298,16088.60000000149,22178.5,23813.20000000298]","0.6666666666666666","0.5","0","stress","","","","","","","","","","","","","","","","","","","","","","","","","","","","","","",""
"57261","","","","instructions","5","229985","0.0-3.0-0.0","295","1","2025-07-30 16:08:27","1f75c3e559b7213887762d5229550c2b","169.1.3.252","Mozilla/5.0 (Windows NT 10.0; Win64; x64) AppleWebKit/537.36 (KHTML, like Gecko) Chrome/138.0.0.0 Safari/537.36","WebKit","Chrome","138.0.0.0","Windows","10.0","https://app.prolific.com/","en-US,en;q=0.9","60aad516e34718d318bfb44d","6877631c9844ddd5501205fc","688a43615c5547ae4c54edba","3","1","60aad516e34718d318bfb44d","3","1","","","","","","","","","","","","","[{""page_index"":0,""viewing_time"":57261}]","","","","","","","","","","","","","","","","","","","","","","","","","","","","","",""
"13582","","<p>Before you start with this game please answer the following three questions yourself. </p>
  <p>Through this game, we measure several aspects of your cognitive performance, such as reaction times, multi-tasking capabilities </p>
  <p>and the ability to assess the situation you are in.</p>
  <p></p>
  <p><b>How good do you usually are in such tasks?</b></p>","54","html-slider-response","6","243568","0.0-4.0-0.0","295","1","2025-07-30 16:08:27","1f75c3e559b7213887762d5229550c2b","169.1.3.252","Mozilla/5.0 (Windows NT 10.0; Win64; x64) AppleWebKit/537.36 (KHTML, like Gecko) Chrome/138.0.0.0 Safari/537.36","WebKit","Chrome","138.0.0.0","Windows","10.0","https://app.prolific.com/","en-US,en;q=0.9","60aad516e34718d318bfb44d","6877631c9844ddd5501205fc","688a43615c5547ae4c54edba","3","1","60aad516e34718d318bfb44d","3","1","2025-07-30T16:12:32.695Z","","","","","","","","","","","PreSkillQ","","50","","","","","","","","","","","","","","","","","","","","","","","","","","","","",""
"5871","","<div style=""width:500px;"">
  <p>How well do you think you will perform in this task compared to other participants?</p>
  </div>","65","html-slider-response","7","249440","0.0-4.0-1.0","295","1","2025-07-30 16:08:27","1f75c3e559b7213887762d5229550c2b","169.1.3.252","Mozilla/5.0 (Windows NT 10.0; Win64; x64) AppleWebKit/537.36 (KHTML, like Gecko) Chrome/138.0.0.0 Safari/537.36","WebKit","Chrome","138.0.0.0","Windows","10.0","https://app.prolific.com/","en-US,en;q=0.9","60aad516e34718d318bfb44d","6877631c9844ddd5501205fc","688a43615c5547ae4c54edba","3","1","60aad516e34718d318bfb44d","3","1","2025-07-30T16:12:38.567Z","","","","","","","","","","","PrePerfQ","","50","","","","","","","","","","","","","","","","","","","","","","","","","","","","",""
"6225","","<div style=""width:500px;"">
  <p>What best describes how you currently feel?</p>
  </div>","45","html-slider-response","8","255666","0.0-4.0-2.0","295","1","2025-07-30 16:08:27","1f75c3e559b7213887762d5229550c2b","169.1.3.252","Mozilla/5.0 (Windows NT 10.0; Win64; x64) AppleWebKit/537.36 (KHTML, like Gecko) Chrome/138.0.0.0 Safari/537.36","WebKit","Chrome","138.0.0.0","Windows","10.0","https://app.prolific.com/","en-US,en;q=0.9","60aad516e34718d318bfb44d","6877631c9844ddd5501205fc","688a43615c5547ae4c54edba","3","1","60aad516e34718d318bfb44d","3","1","2025-07-30T16:12:44.794Z","","","","","","","","","","","PreMotivationQ","","50","","","","","","","","","","","","","","","","","","","","","","","","","","","","",""
"","","","","ctl-task-cpt","9","291071","0.0-5.0-0.0","295","1","2025-07-30 16:08:27","1f75c3e559b7213887762d5229550c2b","169.1.3.252","Mozilla/5.0 (Windows NT 10.0; Win64; x64) AppleWebKit/537.36 (KHTML, like Gecko) Chrome/138.0.0.0 Safari/537.36","WebKit","Chrome","138.0.0.0","Windows","10.0","https://app.prolific.com/","en-US,en;q=0.9","60aad516e34718d318bfb44d","6877631c9844ddd5501205fc","688a43615c5547ae4c54edba","3","1","60aad516e34718d318bfb44d","3","1","2025-07-30T16:13:20.198Z","","","","","","","","","","","","","","win-only","2","g1:SE,g2:NW","1","1","0","257803.6","1768.6","6772.5","32400.3","1","4","8","6","2","8","8","8","0","0.06060606060606061","1056.9","3000","455","[""left"",""up""]","{""num_key_presses"":6,""num_perfect"":6,""num_errors"":0,""num_randdir"":0,""num_randdir_good_moves"":0,""num_whilered"":0,""num_whileblue"":0,""num_blue"":3,""num_good_moves"":6}","[410.3214133126395,416.57142761775424,0.2,410.3214133126395,416.57142761775424,102.5,410.3214133126395,416.57142761775424,208.4,406.5714133126395,476.57142761775424,313.3,470.3214133126395,546.5714276177542,417.1,484.0714133126395,510.32142761775424,517.8,282.8214133126395,267.82142761775424,618,191.5714133126395,177.82142761775424,723.2,154.0714133126395,151.57142761775424,828,96.5714133126395,129.07142761775424,929.1,71.5714133126395,106.57142761775425,1029.1,70.3214133126395,105.32142761775425,1132.8,70.3214133126395,105.32142761775425,1233.9,171.5714133126395,232.82142761775424,1333.9,377.8214133126395,520.3214276177542,1439,476.5714133126395,651.5714276177542,1542.7,481.5714133126395,657.8214276177542,1648.8,481.5714133126395,661.5714276177542,1752.6,481.5714133126395,661.5714276177542,1853.5,481.5714133126395,661.5714276177542,1957.8,481.5714133126395,661.5714276177542,2062.3,481.5714133126395,661.5714276177542,2162.5,481.5714133126395,661.5714276177542,2268,481.5714133126395,661.5714276177542,2368,481.5714133126395,661.5714276177542,2468.3,481.5714133126395,661.5714276177542,2572.5,481.5714133126395,661.5714276177542,2673.3,481.5714133126395,661.5714276177542,2778.3,481.5714133126395,661.5714276177542,2883.1,481.5714133126395,661.5714276177542,2983.8,481.5714133126395,661.5714276177542,3087.6,481.5714133126395,661.5714276177542,3187.6,481.5714133126395,661.5714276177542,3288.2,481.5714133126395,661.5714276177542,3393.8,481.5714133126395,661.5714276177542,3497.4,481.5714133126395,661.5714276177542,3597.8,481.5714133126395,661.5714276177542,3702.5,481.5714133126395,661.5714276177542,3803.7,481.5714133126395,661.5714276177542,3907.7,481.5714133126395,661.5714276177542,4014.9,481.5714133126395,661.5714276177542,4117.8,481.5714133126395,661.5714276177542,4223.7,481.5714133126395,661.5714276177542,4327.5,481.5714133126395,661.5714276177542,4428,481.5714133126395,661.5714276177542,4528.3,481.5714133126395,661.5714276177542,4633.1,481.5714133126395,661.5714276177542,4734.1,481.5714133126395,661.5714276177542,4838.3,481.5714133126395,661.5714276177542,4942.8]","[5005,5004.9,2575.4,2010.5,419.1,""smooth"",""up"",""up"",""good_move"",7499.5,2493.9,1959.5,5005.6,534.5,""smooth"",""up"",""up"",""good_move"",10051.6,2551.7,2039.9,7499.9,511.8,""smooth"",""up"",""up"",""good_move"",13211.5,3158.8,2838.1,10052.7,320.7,""smooth"",""left"",""left"",""good_move"",22452.8,9240.2,1846.9,20208.9,397,""smooth"",""left"",""left"",""good_move"",25535.9,3082.5,2679.9,22453.4,402.6,""smooth"",""left"",""left"",""good_move""]","",""
"4262","","<div style=""width:500px;"">
  <p>What determined the result of this run?</p>
  </div>","55","html-slider-response","10","295335","0.0-5.0-1.0","295","1","2025-07-30 16:08:27","1f75c3e559b7213887762d5229550c2b","169.1.3.252","Mozilla/5.0 (Windows NT 10.0; Win64; x64) AppleWebKit/537.36 (KHTML, like Gecko) Chrome/138.0.0.0 Safari/537.36","WebKit","Chrome","138.0.0.0","Windows","10.0","https://app.prolific.com/","en-US,en;q=0.9","60aad516e34718d318bfb44d","6877631c9844ddd5501205fc","688a43615c5547ae4c54edba","3","1","60aad516e34718d318bfb44d","3","1","2025-07-30T16:13:24.462Z","","","","","","","","","","","AttribQ","","50","","","","","","","","","","","","","","","","","","","","","","","","","","","","",""
"4184","","<div style=""width:500px;"">
  <p>How much control did you have over the ball?</p>
  </div>","100","html-slider-response","11","299520","0.0-5.0-2.0","295","1","2025-07-30 16:08:27","1f75c3e559b7213887762d5229550c2b","169.1.3.252","Mozilla/5.0 (Windows NT 10.0; Win64; x64) AppleWebKit/537.36 (KHTML, like Gecko) Chrome/138.0.0.0 Safari/537.36","WebKit","Chrome","138.0.0.0","Windows","10.0","https://app.prolific.com/","en-US,en;q=0.9","60aad516e34718d318bfb44d","6877631c9844ddd5501205fc","688a43615c5547ae4c54edba","3","1","60aad516e34718d318bfb44d","3","1","2025-07-30T16:13:28.647Z","","","","","","","","","","","ControlQ","","50","","","","","","","","","","","","","","","","","","","","","","","","","","","","",""
"2765","","<div style=""width:500px;"">
  <p>How would you describe your current emotional state?</p>
  </div>","42","html-slider-response","12","302286","0.0-5.0-3.0","295","1","2025-07-30 16:08:27","1f75c3e559b7213887762d5229550c2b","169.1.3.252","Mozilla/5.0 (Windows NT 10.0; Win64; x64) AppleWebKit/537.36 (KHTML, like Gecko) Chrome/138.0.0.0 Safari/537.36","WebKit","Chrome","138.0.0.0","Windows","10.0","https://app.prolific.com/","en-US,en;q=0.9","60aad516e34718d318bfb44d","6877631c9844ddd5501205fc","688a43615c5547ae4c54edba","3","1","60aad516e34718d318bfb44d","3","1","2025-07-30T16:13:31.414Z","","","","","","","","","","","StressQ","","50","","","","","","","","","","","","","","","","","","","","","","","","","","","","",""
"3473","","<div style=""width:500px;"">
  <p>What best describes how you currently feel?</p>
  </div>","58","html-slider-response","13","305760","0.0-5.0-4.0","295","1","2025-07-30 16:08:27","1f75c3e559b7213887762d5229550c2b","169.1.3.252","Mozilla/5.0 (Windows NT 10.0; Win64; x64) AppleWebKit/537.36 (KHTML, like Gecko) Chrome/138.0.0.0 Safari/537.36","WebKit","Chrome","138.0.0.0","Windows","10.0","https://app.prolific.com/","en-US,en;q=0.9","60aad516e34718d318bfb44d","6877631c9844ddd5501205fc","688a43615c5547ae4c54edba","3","1","60aad516e34718d318bfb44d","3","1","2025-07-30T16:13:34.887Z","","","","","","","","","","","MotivationQ","","50","","","","","","","","","","","","","","","","","","","","","","","","","","","","",""
"","","","","ctl-task-cpt","14","334017","0.0-5.0-0.1","295","1","2025-07-30 16:08:27","1f75c3e559b7213887762d5229550c2b","169.1.3.252","Mozilla/5.0 (Windows NT 10.0; Win64; x64) AppleWebKit/537.36 (KHTML, like Gecko) Chrome/138.0.0.0 Safari/537.36","WebKit","Chrome","138.0.0.0","Windows","10.0","https://app.prolific.com/","en-US,en;q=0.9","60aad516e34718d318bfb44d","6877631c9844ddd5501205fc","688a43615c5547ae4c54edba","3","1","60aad516e34718d318bfb44d","3","1","2025-07-30T16:14:03.144Z","","","","","","","","","","","","","","win-only","0","g1:NW,g2:SE","0.9","2","0","307895.7","952.1","5956.7","25241.5","1","4","4","6","2","4","4","12","8","0.09090909090909091","1208.3","3000","595","[""down"",""right""]","{""num_key_presses"":6,""num_perfect"":5,""num_errors"":0,""num_randdir"":1,""num_randdir_good_moves"":1,""num_whilered"":0,""num_whileblue"":0,""num_blue"":1,""num_good_moves"":6}","[415.3214133126395,416.57142761775424,0.3,415.3214133126395,417.82142761775424,103.7,415.3214133126395,417.82142761775424,204.3,415.3214133126395,417.82142761775424,304.9,430.3214133126395,476.57142761775424,409.1,621.5714133126395,707.8214276177542,514.2,719.0714133126395,751.5714276177542,614.4,740.3214133126395,767.8214276177542,714.5,806.5714133126395,780.3214276177542,819.1,829.0714133126395,786.5714276177542,919.5,822.8214133126395,781.5714276177542,1024.6,801.5714133126395,772.8214276177542,1125.1,792.8214133126395,769.0714276177542,1228.7,792.8214133126395,769.0714276177542,1334.1,797.8214133126395,776.5714276177542,1434.4,1006.5714133126395,799.0714276177542,1539.3,1101.5714133126396,797.8214276177542,1639.4,1101.5714133126396,797.8214276177542,1744.1,1101.5714133126396,797.8214276177542,1845.3,1101.5714133126396,797.8214276177542,1949.1,1101.5714133126396,797.8214276177542,2050,1101.5714133126396,797.8214276177542,2153.2,1101.5714133126396,797.8214276177542,2253.4,1101.5714133126396,797.8214276177542,2354.7,1101.5714133126396,797.8214276177542,2459,1101.5714133126396,797.8214276177542,2564.4,1101.5714133126396,797.8214276177542,2669.2,1101.5714133126396,797.8214276177542,2773.9,1101.5714133126396,797.8214276177542,2874,1101.5714133126396,797.8214276177542,2974.5,1101.5714133126396,797.8214276177542,3078.6,1101.5714133126396,797.8214276177542,3179,1101.5714133126396,797.8214276177542,3279.6,1101.5714133126396,797.8214276177542,3384.7,1101.5714133126396,797.8214276177542,3489.7,1101.5714133126396,797.8214276177542,3594.1,1101.5714133126396,797.8214276177542,3698.4,1101.5714133126396,797.8214276177542,3798.9,1101.5714133126396,797.8214276177542,3905.3,1101.5714133126396,797.8214276177542,4009.5,1101.5714133126396,797.8214276177542,4113.7,1101.5714133126396,797.8214276177542,4214.3,1101.5714133126396,797.8214276177542,4314.5,1101.5714133126396,797.8214276177542,4418.9,1101.5714133126396,797.8214276177542,4525.1,1101.5714133126396,797.8214276177542,4628.9,1101.5714133126396,797.8214276177542,4729.6,1101.5714133126396,797.8214276177542,4835.1,1101.5714133126396,797.8214276177542,4938.5]","[1425,1425,1000,0,425,""smooth"",""down"",""down"",""good_move"",8128.7,6703.2,2227.2,5414.1,487.4,""smooth"",""down"",""down"",""good_move"",11155.7,3026.2,2645.5,8129.5,380.7,""oops"",""down"",""down"",""good_move"",13345,2188.6,1798.9,11156.4,389.7,""smooth"",""right"",""right"",""good_move"",16158.4,2812.5,2351.8,13345.9,460.7,""smooth"",""right"",""right"",""good_move"",19199.7,3041,2736.4,16158.7,304.6,""smooth"",""right"",""right"",""good_move""]","",""
"2814","","<div style=""width:500px;"">
  <p>What determined the result of this run?</p>
  </div>","78","html-slider-response","15","336833","0.0-5.0-1.1","295","1","2025-07-30 16:08:27","1f75c3e559b7213887762d5229550c2b","169.1.3.252","Mozilla/5.0 (Windows NT 10.0; Win64; x64) AppleWebKit/537.36 (KHTML, like Gecko) Chrome/138.0.0.0 Safari/537.36","WebKit","Chrome","138.0.0.0","Windows","10.0","https://app.prolific.com/","en-US,en;q=0.9","60aad516e34718d318bfb44d","6877631c9844ddd5501205fc","688a43615c5547ae4c54edba","3","1","60aad516e34718d318bfb44d","3","1","2025-07-30T16:14:05.960Z","","","","","","","","","","","AttribQ","","50","","","","","","","","","","","","","","","","","","","","","","","","","","","","",""
"6518","","<div style=""width:500px;"">
  <p>How much control did you have over the ball?</p>
  </div>","100","html-slider-response","16","343351","0.0-5.0-2.1","295","1","2025-07-30 16:08:27","1f75c3e559b7213887762d5229550c2b","169.1.3.252","Mozilla/5.0 (Windows NT 10.0; Win64; x64) AppleWebKit/537.36 (KHTML, like Gecko) Chrome/138.0.0.0 Safari/537.36","WebKit","Chrome","138.0.0.0","Windows","10.0","https://app.prolific.com/","en-US,en;q=0.9","60aad516e34718d318bfb44d","6877631c9844ddd5501205fc","688a43615c5547ae4c54edba","3","1","60aad516e34718d318bfb44d","3","1","2025-07-30T16:14:12.479Z","","","","","","","","","","","ControlQ","","50","","","","","","","","","","","","","","","","","","","","","","","","","","","","",""
"3771","","<div style=""width:500px;"">
  <p>How would you describe your current emotional state?</p>
  </div>","61","html-slider-response","17","347124","0.0-5.0-3.1","295","1","2025-07-30 16:08:27","1f75c3e559b7213887762d5229550c2b","169.1.3.252","Mozilla/5.0 (Windows NT 10.0; Win64; x64) AppleWebKit/537.36 (KHTML, like Gecko) Chrome/138.0.0.0 Safari/537.36","WebKit","Chrome","138.0.0.0","Windows","10.0","https://app.prolific.com/","en-US,en;q=0.9","60aad516e34718d318bfb44d","6877631c9844ddd5501205fc","688a43615c5547ae4c54edba","3","1","60aad516e34718d318bfb44d","3","1","2025-07-30T16:14:16.251Z","","","","","","","","","","","StressQ","","50","","","","","","","","","","","","","","","","","","","","","","","","","","","","",""
"2759","","<div style=""width:500px;"">
  <p>What best describes how you currently feel?</p>
  </div>","69","html-slider-response","18","349884","0.0-5.0-4.1","295","1","2025-07-30 16:08:27","1f75c3e559b7213887762d5229550c2b","169.1.3.252","Mozilla/5.0 (Windows NT 10.0; Win64; x64) AppleWebKit/537.36 (KHTML, like Gecko) Chrome/138.0.0.0 Safari/537.36","WebKit","Chrome","138.0.0.0","Windows","10.0","https://app.prolific.com/","en-US,en;q=0.9","60aad516e34718d318bfb44d","6877631c9844ddd5501205fc","688a43615c5547ae4c54edba","3","1","60aad516e34718d318bfb44d","3","1","2025-07-30T16:14:19.011Z","","","","","","","","","","","MotivationQ","","50","","","","","","","","","","","","","","","","","","","","","","","","","","","","",""
"","","","","ctl-task-cpt","19","387547","0.0-5.0-0.2","295","1","2025-07-30 16:08:27","1f75c3e559b7213887762d5229550c2b","169.1.3.252","Mozilla/5.0 (Windows NT 10.0; Win64; x64) AppleWebKit/537.36 (KHTML, like Gecko) Chrome/138.0.0.0 Safari/537.36","WebKit","Chrome","138.0.0.0","Windows","10.0","https://app.prolific.com/","en-US,en;q=0.9","60aad516e34718d318bfb44d","6877631c9844ddd5501205fc","688a43615c5547ae4c54edba","3","1","60aad516e34718d318bfb44d","3","1","2025-07-30T16:14:56.674Z","","","","","","","","","","","","","","win-only","3","g1:SW,g2:NE","0.8","3","0","352020.7","2370.2","7372.4","34646.7","1","4","8","6","2","8","8","20","12","0.15151515151515152","914.6","3000","280","[""up"",""right""]","{""num_key_presses"":8,""num_perfect"":6,""num_errors"":0,""num_randdir"":2,""num_randdir_good_moves"":1,""num_whilered"":0,""num_whileblue"":0,""num_blue"":1,""num_good_moves"":7}","[420.3214133126395,417.82142761775424,0.2,420.3214133126395,416.57142761775424,100.8,420.3214133126395,420.32142761775424,205.6,430.3214133126395,472.82142761775424,305.6,421.5714133126395,489.07142761775424,408,441.5714133126395,452.82142761775424,511.2,722.8214133126395,114.07142761775425,616.9,721.5714133126395,99.07142761775425,717.2,722.8214133126395,86.57142761775425,821.7,735.3214133126395,84.07142761775425,926.4,735.3214133126395,82.82142761775425,1030.6,750.3214133126395,134.07142761775424,1131.6,867.8214133126395,356.57142761775424,1231.9,882.8214133126395,377.82142761775424,1332.1,882.8214133126395,379.07142761775424,1436.3,882.8214133126395,380.32142761775424,1536.4,882.8214133126395,380.32142761775424,1641.8,882.8214133126395,380.32142761775424,1746.7,882.8214133126395,380.32142761775424,1847.2,882.8214133126395,380.32142761775424,1947.7,882.8214133126395,380.32142761775424,2051,882.8214133126395,380.32142761775424,2156.6,882.8214133126395,380.32142761775424,2257.1,882.8214133126395,380.32142761775424,2362,882.8214133126395,380.32142761775424,2467,882.8214133126395,380.32142761775424,2572,882.8214133126395,380.32142761775424,2675.9,882.8214133126395,380.32142761775424,2776.9,882.8214133126395,380.32142761775424,2877.1,882.8214133126395,380.32142761775424,2981.1,882.8214133126395,380.32142761775424,3081.8,882.8214133126395,380.32142761775424,3181.8,882.8214133126395,380.32142761775424,3286.5,882.8214133126395,380.32142761775424,3390.6,882.8214133126395,380.32142761775424,3491.7,882.8214133126395,380.32142761775424,3596.1,882.8214133126395,380.32142761775424,3696.5,882.8214133126395,380.32142761775424,3801.5,882.8214133126395,380.32142761775424,3906.4,882.8214133126395,380.32142761775424,4010.9,882.8214133126395,380.32142761775424,4111.7,882.8214133126395,380.32142761775424,4216.8,882.8214133126395,380.32142761775424,4321.2,882.8214133126395,380.32142761775424,4421.5,882.8214133126395,380.32142761775424,4521.7,882.8214133126395,380.32142761775424,4626,882.8214133126395,380.32142761775424,4726.3,882.8214133126395,380.32142761775424,4827.1,882.8214133126395,380.32142761775424,4931.3]","[1404.6,1404.6,1000,0,404.6,""smooth"",""up"",""up"",""good_move"",7378.5,5972.8,2346,4694.4,338.1,""oops"",""up"",""down"",""bad_move"",10469.8,3090.5,2672.1,7379.3,418.4,""smooth"",""up"",""up"",""good_move"",13765.8,3295.8,2952,10470.1,343.7,""smooth"",""up"",""up"",""good_move"",17273,3506.9,3119.6,13766.1,387.3,""smooth"",""up"",""up"",""good_move"",20404.6,3131.3,2817.8,17273.3,313.5,""smooth"",""right"",""right"",""good_move"",23649.3,3243.4,2907.3,20405.9,336.1,""smooth"",""right"",""right"",""good_move"",27188.6,3539,3286.6,23649.6,252.4,""oops"",""right"",""right"",""good_move""]","",""
"3001","","<div style=""width:500px;"">
  <p>What determined the result of this run?</p>
  </div>","99","html-slider-response","20","390550","0.0-5.0-1.2","295","1","2025-07-30 16:08:27","1f75c3e559b7213887762d5229550c2b","169.1.3.252","Mozilla/5.0 (Windows NT 10.0; Win64; x64) AppleWebKit/537.36 (KHTML, like Gecko) Chrome/138.0.0.0 Safari/537.36","WebKit","Chrome","138.0.0.0","Windows","10.0","https://app.prolific.com/","en-US,en;q=0.9","60aad516e34718d318bfb44d","6877631c9844ddd5501205fc","688a43615c5547ae4c54edba","3","1","60aad516e34718d318bfb44d","3","1","2025-07-30T16:14:59.677Z","","","","","","","","","","","AttribQ","","50","","","","","","","","","","","","","","","","","","","","","","","","","","","","",""
"4919","","<div style=""width:500px;"">
  <p>How much control did you have over the ball?</p>
  </div>","82","html-slider-response","21","395470","0.0-5.0-2.2","295","1","2025-07-30 16:08:27","1f75c3e559b7213887762d5229550c2b","169.1.3.252","Mozilla/5.0 (Windows NT 10.0; Win64; x64) AppleWebKit/537.36 (KHTML, like Gecko) Chrome/138.0.0.0 Safari/537.36","WebKit","Chrome","138.0.0.0","Windows","10.0","https://app.prolific.com/","en-US,en;q=0.9","60aad516e34718d318bfb44d","6877631c9844ddd5501205fc","688a43615c5547ae4c54edba","3","1","60aad516e34718d318bfb44d","3","1","2025-07-30T16:15:04.597Z","","","","","","","","","","","ControlQ","","50","","","","","","","","","","","","","","","","","","","","","","","","","","","","",""
"6758","","<div style=""width:500px;"">
  <p>How would you describe your current emotional state?</p>
  </div>","62","html-slider-response","22","402229","0.0-5.0-3.2","295","1","2025-07-30 16:08:27","1f75c3e559b7213887762d5229550c2b","169.1.3.252","Mozilla/5.0 (Windows NT 10.0; Win64; x64) AppleWebKit/537.36 (KHTML, like Gecko) Chrome/138.0.0.0 Safari/537.36","WebKit","Chrome","138.0.0.0","Windows","10.0","https://app.prolific.com/","en-US,en;q=0.9","60aad516e34718d318bfb44d","6877631c9844ddd5501205fc","688a43615c5547ae4c54edba","3","1","60aad516e34718d318bfb44d","3","1","2025-07-30T16:15:11.356Z","","","","","","","","","","","StressQ","","50","","","","","","","","","","","","","","","","","","","","","","","","","","","","",""
"2496","","<div style=""width:500px;"">
  <p>What best describes how you currently feel?</p>
  </div>","75","html-slider-response","23","404726","0.0-5.0-4.2","295","1","2025-07-30 16:08:27","1f75c3e559b7213887762d5229550c2b","169.1.3.252","Mozilla/5.0 (Windows NT 10.0; Win64; x64) AppleWebKit/537.36 (KHTML, like Gecko) Chrome/138.0.0.0 Safari/537.36","WebKit","Chrome","138.0.0.0","Windows","10.0","https://app.prolific.com/","en-US,en;q=0.9","60aad516e34718d318bfb44d","6877631c9844ddd5501205fc","688a43615c5547ae4c54edba","3","1","60aad516e34718d318bfb44d","3","1","2025-07-30T16:15:13.853Z","","","","","","","","","","","MotivationQ","","50","","","","","","","","","","","","","","","","","","","","","","","","","","","","",""
"","","","","ctl-task-cpt","24","432527","0.0-5.0-0.3","295","1","2025-07-30 16:08:27","1f75c3e559b7213887762d5229550c2b","169.1.3.252","Mozilla/5.0 (Windows NT 10.0; Win64; x64) AppleWebKit/537.36 (KHTML, like Gecko) Chrome/138.0.0.0 Safari/537.36","WebKit","Chrome","138.0.0.0","Windows","10.0","https://app.prolific.com/","en-US,en;q=0.9","60aad516e34718d318bfb44d","6877631c9844ddd5501205fc","688a43615c5547ae4c54edba","3","1","60aad516e34718d318bfb44d","3","1","2025-07-30T16:15:41.654Z","","","","","","","","","","","","","","win-only","2","g1:SE,g2:NW","0.7","4","0","406863.1","1574.7","6576.8","24781","1","4","4","6","1","1","1","21","20","0.1590909090909091","846.4","3000","1365","[""down"",""right""]","{""num_key_presses"":4,""num_perfect"":4,""num_errors"":0,""num_randdir"":0,""num_randdir_good_moves"":0,""num_whilered"":0,""num_whileblue"":0,""num_blue"":2,""num_good_moves"":4}","[411.5714133126395,412.82142761775424,0.7,411.5714133126395,412.82142761775424,100.8,411.5714133126395,412.82142761775424,202.2,415.3214133126395,446.57142761775424,303.1,421.5714133126395,465.32142761775424,406.3,671.5714133126395,631.5714276177542,506.3,806.5714133126395,726.5714276177542,607,785.3214133126395,724.0714276177542,712.1,775.3214133126395,726.5714276177542,816,775.3214133126395,730.3214276177542,916.5,775.3214133126395,731.5714276177542,1017,775.3214133126395,731.5714276177542,1121.1,775.3214133126395,731.5714276177542,1221.2,775.3214133126395,731.5714276177542,1321.4,775.3214133126395,731.5714276177542,1421.6,775.3214133126395,731.5714276177542,1521.6,775.3214133126395,731.5714276177542,1626.9,775.3214133126395,731.5714276177542,1731.2,775.3214133126395,731.5714276177542,1831.7,775.3214133126395,731.5714276177542,1936.3,775.3214133126395,731.5714276177542,2037.2,775.3214133126395,731.5714276177542,2141.5,775.3214133126395,731.5714276177542,2245.9,775.3214133126395,731.5714276177542,2346.7,775.3214133126395,731.5714276177542,2452,775.3214133126395,731.5714276177542,2552.1,775.3214133126395,731.5714276177542,2655.9,775.3214133126395,731.5714276177542,2757.5,775.3214133126395,731.5714276177542,2861.5,775.3214133126395,731.5714276177542,2966.3,775.3214133126395,731.5714276177542,3071.8,775.3214133126395,731.5714276177542,3176.5,775.3214133126395,731.5714276177542,3276.7,775.3214133126395,731.5714276177542,3376.8,775.3214133126395,731.5714276177542,3481.9,775.3214133126395,731.5714276177542,3586.1,775.3214133126395,731.5714276177542,3686.8,775.3214133126395,731.5714276177542,3790.9,775.3214133126395,731.5714276177542,3891.5,775.3214133126395,731.5714276177542,3991.8,775.3214133126395,731.5714276177542,4097.1,775.3214133126395,731.5714276177542,4202,775.3214133126395,731.5714276177542,4306.5,775.3214133126395,731.5714276177542,4411.5,775.3214133126395,731.5714276177542,4511.9,775.3214133126395,731.5714276177542,4616.7,775.3214133126395,731.5714276177542,4721.5,775.3214133126395,731.5714276177542,4826.9,775.3214133126395,731.5714276177542,4932.4]","[1399.3,1399.3,1000,0,399.3,""smooth"",""down"",""down"",""good_move"",4649.3,3249.6,2841.9,1399.7,407.7,""smooth"",""down"",""down"",""good_move"",14711.1,10061.2,2458.2,11748.9,504,""smooth"",""right"",""right"",""good_move"",18116.9,3405.4,3054.3,14711.5,351.1,""smooth"",""right"",""right"",""good_move""]","",""
"5490","","<div style=""width:500px;"">
  <p>What determined the result of this run?</p>
  </div>","33","html-slider-response","25","438018","0.0-5.0-1.3","295","1","2025-07-30 16:08:27","1f75c3e559b7213887762d5229550c2b","169.1.3.252","Mozilla/5.0 (Windows NT 10.0; Win64; x64) AppleWebKit/537.36 (KHTML, like Gecko) Chrome/138.0.0.0 Safari/537.36","WebKit","Chrome","138.0.0.0","Windows","10.0","https://app.prolific.com/","en-US,en;q=0.9","60aad516e34718d318bfb44d","6877631c9844ddd5501205fc","688a43615c5547ae4c54edba","3","1","60aad516e34718d318bfb44d","3","1","2025-07-30T16:15:47.146Z","","","","","","","","","","","AttribQ","","50","","","","","","","","","","","","","","","","","","","","","","","","","","","","",""
"3247","","<div style=""width:500px;"">
  <p>How much control did you have over the ball?</p>
  </div>","100","html-slider-response","26","441266","0.0-5.0-2.3","295","1","2025-07-30 16:08:27","1f75c3e559b7213887762d5229550c2b","169.1.3.252","Mozilla/5.0 (Windows NT 10.0; Win64; x64) AppleWebKit/537.36 (KHTML, like Gecko) Chrome/138.0.0.0 Safari/537.36","WebKit","Chrome","138.0.0.0","Windows","10.0","https://app.prolific.com/","en-US,en;q=0.9","60aad516e34718d318bfb44d","6877631c9844ddd5501205fc","688a43615c5547ae4c54edba","3","1","60aad516e34718d318bfb44d","3","1","2025-07-30T16:15:50.394Z","","","","","","","","","","","ControlQ","","50","","","","","","","","","","","","","","","","","","","","","","","","","","","","",""
"2767","","<div style=""width:500px;"">
  <p>How would you describe your current emotional state?</p>
  </div>","72","html-slider-response","27","444034","0.0-5.0-3.3","295","1","2025-07-30 16:08:27","1f75c3e559b7213887762d5229550c2b","169.1.3.252","Mozilla/5.0 (Windows NT 10.0; Win64; x64) AppleWebKit/537.36 (KHTML, like Gecko) Chrome/138.0.0.0 Safari/537.36","WebKit","Chrome","138.0.0.0","Windows","10.0","https://app.prolific.com/","en-US,en;q=0.9","60aad516e34718d318bfb44d","6877631c9844ddd5501205fc","688a43615c5547ae4c54edba","3","1","60aad516e34718d318bfb44d","3","1","2025-07-30T16:15:53.161Z","","","","","","","","","","","StressQ","","50","","","","","","","","","","","","","","","","","","","","","","","","","","","","",""
"2294","","<div style=""width:500px;"">
  <p>What best describes how you currently feel?</p>
  </div>","73","html-slider-response","28","446329","0.0-5.0-4.3","295","1","2025-07-30 16:08:27","1f75c3e559b7213887762d5229550c2b","169.1.3.252","Mozilla/5.0 (Windows NT 10.0; Win64; x64) AppleWebKit/537.36 (KHTML, like Gecko) Chrome/138.0.0.0 Safari/537.36","WebKit","Chrome","138.0.0.0","Windows","10.0","https://app.prolific.com/","en-US,en;q=0.9","60aad516e34718d318bfb44d","6877631c9844ddd5501205fc","688a43615c5547ae4c54edba","3","1","60aad516e34718d318bfb44d","3","1","2025-07-30T16:15:55.456Z","","","","","","","","","","","MotivationQ","","50","","","","","","","","","","","","","","","","","","","","","","","","","","","","",""
"","","","","ctl-task-cpt","29","477005","0.0-5.0-0.4","295","1","2025-07-30 16:08:27","1f75c3e559b7213887762d5229550c2b","169.1.3.252","Mozilla/5.0 (Windows NT 10.0; Win64; x64) AppleWebKit/537.36 (KHTML, like Gecko) Chrome/138.0.0.0 Safari/537.36","WebKit","Chrome","138.0.0.0","Windows","10.0","https://app.prolific.com/","en-US,en;q=0.9","60aad516e34718d318bfb44d","6877631c9844ddd5501205fc","688a43615c5547ae4c54edba","3","1","60aad516e34718d318bfb44d","3","1","2025-07-30T16:16:26.133Z","","","","","","","","","","","","","","win-only","1","g1:NE,g2:SW","0.6","5","0","448465.9","936.2","5937","27656.5","1","4","8","6","1","-1","-1","20","21","0.15151515151515152","899.1","3000","-3000","[""up"",""right""]","{""num_key_presses"":7,""num_perfect"":4,""num_errors"":0,""num_randdir"":3,""num_randdir_good_moves"":1,""num_whilered"":0,""num_whileblue"":0,""num_blue"":0,""num_good_moves"":5}","[424.0714133126395,412.82142761775424,0.3,424.0714133126395,412.82142761775424,105,422.8214133126395,412.82142761775424,209.9,434.0714133126395,470.32142761775424,309.9,625.3214133126395,312.82142761775424,410.4,706.5714133126395,161.57142761775424,516,716.5714133126395,149.07142761775424,620.1,745.3214133126395,122.82142761775425,721.1,784.0714133126395,96.57142761775425,826.1,784.0714133126395,94.07142761775425,930.7,784.0714133126395,94.07142761775425,1037.1,775.3214133126395,162.82142761775424,1140.2,756.5714133126395,356.57142761775424,1240.7,744.0714133126395,456.57142761775424,1340.8,744.0714133126395,456.57142761775424,1440.8,744.0714133126395,457.82142761775424,1541.3,744.0714133126395,459.07142761775424,1645.7,744.0714133126395,459.07142761775424,1745.8,744.0714133126395,459.07142761775424,1846.4,744.0714133126395,459.07142761775424,1950.4,744.0714133126395,459.07142761775424,2056,744.0714133126395,459.07142761775424,2156.4,744.0714133126395,459.07142761775424,2261,744.0714133126395,459.07142761775424,2364.8,744.0714133126395,459.07142761775424,2466,744.0714133126395,459.07142761775424,2566.4,744.0714133126395,459.07142761775424,2667,744.0714133126395,459.07142761775424,2771.2,744.0714133126395,459.07142761775424,2875.4,744.0714133126395,459.07142761775424,2976.1,744.0714133126395,459.07142761775424,3077.1,744.0714133126395,459.07142761775424,3180.4,744.0714133126395,459.07142761775424,3281.2,744.0714133126395,459.07142761775424,3386.6,744.0714133126395,459.07142761775424,3491.3,744.0714133126395,459.07142761775424,3595.6,744.0714133126395,459.07142761775424,3701.1,744.0714133126395,459.07142761775424,3805.6,744.0714133126395,459.07142761775424,3905.6,744.0714133126395,459.07142761775424,4007.4,744.0714133126395,459.07142761775424,4110.8,744.0714133126395,459.07142761775424,4212,744.0714133126395,459.07142761775424,4317,744.0714133126395,459.07142761775424,4420.2,744.0714133126395,459.07142761775424,4520.3,744.0714133126395,459.07142761775424,4620.3,744.0714133126395,459.07142761775424,4721.2,744.0714133126395,459.07142761775424,4826.4,744.0714133126395,459.07142761775424,4926.9]","[1428.9,1428.9,1000,0,428.9,""oops"",""up"",""left"",""bad_move"",4166.5,2736.7,2299.9,1429.8,436.8,""smooth"",""up"",""up"",""good_move"",6403,2235.5,1789.5,4167.5,446,""oops"",""up"",""up"",""good_move"",9588.5,3185,2878,6403.5,307,""smooth"",""right"",""right"",""good_move"",12642.6,3053.7,2717.4,9588.9,336.3,""oops"",""right"",""down"",""bad_move"",15706.5,3062.2,2713,12644.3,349.2,""smooth"",""right"",""right"",""good_move"",18707.2,2999.9,2547.8,15707.3,452.1,""smooth"",""right"",""right"",""good_move""]","",""
"3306","","<div style=""width:500px;"">
  <p>What determined the result of this run?</p>
  </div>","11","html-slider-response","30","480313","0.0-5.0-1.4","295","1","2025-07-30 16:08:27","1f75c3e559b7213887762d5229550c2b","169.1.3.252","Mozilla/5.0 (Windows NT 10.0; Win64; x64) AppleWebKit/537.36 (KHTML, like Gecko) Chrome/138.0.0.0 Safari/537.36","WebKit","Chrome","138.0.0.0","Windows","10.0","https://app.prolific.com/","en-US,en;q=0.9","60aad516e34718d318bfb44d","6877631c9844ddd5501205fc","688a43615c5547ae4c54edba","3","1","60aad516e34718d318bfb44d","3","1","2025-07-30T16:16:29.440Z","","","","","","","","","","","AttribQ","","50","","","","","","","","","","","","","","","","","","","","","","","","","","","","",""
"5084","","<div style=""width:500px;"">
  <p>How much control did you have over the ball?</p>
  </div>","66","html-slider-response","31","485398","0.0-5.0-2.4","295","1","2025-07-30 16:08:27","1f75c3e559b7213887762d5229550c2b","169.1.3.252","Mozilla/5.0 (Windows NT 10.0; Win64; x64) AppleWebKit/537.36 (KHTML, like Gecko) Chrome/138.0.0.0 Safari/537.36","WebKit","Chrome","138.0.0.0","Windows","10.0","https://app.prolific.com/","en-US,en;q=0.9","60aad516e34718d318bfb44d","6877631c9844ddd5501205fc","688a43615c5547ae4c54edba","3","1","60aad516e34718d318bfb44d","3","1","2025-07-30T16:16:34.525Z","","","","","","","","","","","ControlQ","","50","","","","","","","","","","","","","","","","","","","","","","","","","","","","",""
"2894","","<div style=""width:500px;"">
  <p>How would you describe your current emotional state?</p>
  </div>","75","html-slider-response","32","488293","0.0-5.0-3.4","295","1","2025-07-30 16:08:27","1f75c3e559b7213887762d5229550c2b","169.1.3.252","Mozilla/5.0 (Windows NT 10.0; Win64; x64) AppleWebKit/537.36 (KHTML, like Gecko) Chrome/138.0.0.0 Safari/537.36","WebKit","Chrome","138.0.0.0","Windows","10.0","https://app.prolific.com/","en-US,en;q=0.9","60aad516e34718d318bfb44d","6877631c9844ddd5501205fc","688a43615c5547ae4c54edba","3","1","60aad516e34718d318bfb44d","3","1","2025-07-30T16:16:37.420Z","","","","","","","","","","","StressQ","","50","","","","","","","","","","","","","","","","","","","","","","","","","","","","",""
"3374","","<div style=""width:500px;"">
  <p>What best describes how you currently feel?</p>
  </div>","67","html-slider-response","33","491669","0.0-5.0-4.4","295","1","2025-07-30 16:08:27","1f75c3e559b7213887762d5229550c2b","169.1.3.252","Mozilla/5.0 (Windows NT 10.0; Win64; x64) AppleWebKit/537.36 (KHTML, like Gecko) Chrome/138.0.0.0 Safari/537.36","WebKit","Chrome","138.0.0.0","Windows","10.0","https://app.prolific.com/","en-US,en;q=0.9","60aad516e34718d318bfb44d","6877631c9844ddd5501205fc","688a43615c5547ae4c54edba","3","1","60aad516e34718d318bfb44d","3","1","2025-07-30T16:16:40.796Z","","","","","","","","","","","MotivationQ","","50","","","","","","","","","","","","","","","","","","","","","","","","","","","","",""
"","","","","ctl-task-cpt","34","528290","0.0-5.0-0.5","295","1","2025-07-30 16:08:27","1f75c3e559b7213887762d5229550c2b","169.1.3.252","Mozilla/5.0 (Windows NT 10.0; Win64; x64) AppleWebKit/537.36 (KHTML, like Gecko) Chrome/138.0.0.0 Safari/537.36","WebKit","Chrome","138.0.0.0","Windows","10.0","https://app.prolific.com/","en-US,en;q=0.9","60aad516e34718d318bfb44d","6877631c9844ddd5501205fc","688a43615c5547ae4c54edba","3","1","60aad516e34718d318bfb44d","3","1","2025-07-30T16:17:17.417Z","","","","","","","","","","","","","","win-only","3","g1:SW,g2:NE","0.5","6","0","493806","1715.4","6716.8","33602.4","1","4","4","6","1","1","1","21","20","0.1590909090909091","974.2","3000","525","[""down"",""left""]","{""num_key_presses"":6,""num_perfect"":4,""num_errors"":0,""num_randdir"":2,""num_randdir_good_moves"":1,""num_whilered"":0,""num_whileblue"":0,""num_blue"":3,""num_good_moves"":5}","[411.5714133126395,416.57142761775424,0.4,411.5714133126395,416.57142761775424,101.2,417.8214133126395,429.07142761775424,201.9,519.0714133126395,416.57142761775424,301.9,534.0714133126395,345.32142761775424,406.3,179.0714133126395,547.8214276177542,506.5,141.5714133126395,676.5714276177542,606.9,146.5714133126395,686.5714276177542,710.7,117.8214133126395,719.0714276177542,811.9,75.3214133126395,759.0714276177542,916.2,74.0714133126395,762.8214276177542,1021.6,74.0714133126395,762.8214276177542,1126.6,126.5714133126395,780.3214276177542,1231.1,289.0714133126395,806.5714276177542,1331.9,436.5714133126395,812.8214276177542,1438,795.3214133126395,789.0714276177542,1541.3,1036.5714133126396,697.8214276177542,1641.4,1044.0714133126396,677.8214276177542,1741.5,1044.0714133126396,676.5714276177542,1841.5,1044.0714133126396,676.5714276177542,1947.1,1044.0714133126396,676.5714276177542,2050.9,1044.0714133126396,676.5714276177542,2151.8,1044.0714133126396,676.5714276177542,2257.8,1044.0714133126396,676.5714276177542,2360.7,1044.0714133126396,676.5714276177542,2461.6,1044.0714133126396,676.5714276177542,2561.7,1044.0714133126396,676.5714276177542,2666.9,1044.0714133126396,676.5714276177542,2770.6,1044.0714133126396,676.5714276177542,2871.4,1044.0714133126396,676.5714276177542,2972.3,1044.0714133126396,676.5714276177542,3076,1044.0714133126396,676.5714276177542,3176.6,1044.0714133126396,676.5714276177542,3276.8,1044.0714133126396,676.5714276177542,3377,1044.0714133126396,676.5714276177542,3481.2,1044.0714133126396,676.5714276177542,3581.3,1044.0714133126396,676.5714276177542,3685.7,1044.0714133126396,676.5714276177542,3787,1044.0714133126396,676.5714276177542,3888.3,1044.0714133126396,676.5714276177542,3991.4,1044.0714133126396,676.5714276177542,4096,1044.0714133126396,676.5714276177542,4197.2,1044.0714133126396,676.5714276177542,4297.6,1044.0714133126396,676.5714276177542,4400.9,1044.0714133126396,676.5714276177542,4500.9,1044.0714133126396,676.5714276177542,4602.4,1044.0714133126396,676.5714276177542,4707.2,1044.0714133126396,676.5714276177542,4811.5,1044.0714133126396,676.5714276177542,4912]","[1437.1,1437.1,1000,0,437.1,""smooth"",""down"",""down"",""good_move"",4526.6,3089.2,2743,1437.5,346.1,""oops"",""down"",""left"",""good_move"",7073.1,2546.2,2152.1,4526.9,394.1,""oops"",""down"",""up"",""bad_move"",10115.9,3042.1,2536.1,7073.8,506,""smooth"",""down"",""down"",""good_move"",17067.9,6951.9,2918.3,13739.8,409.8,""smooth"",""down"",""down"",""good_move"",26800.6,9732.3,2332.3,24039.9,428.4,""smooth"",""left"",""left"",""good_move""]","",""
"2308","","<div style=""width:500px;"">
  <p>What determined the result of this run?</p>
  </div>","81","html-slider-response","35","530600","0.0-5.0-1.5","295","1","2025-07-30 16:08:27","1f75c3e559b7213887762d5229550c2b","169.1.3.252","Mozilla/5.0 (Windows NT 10.0; Win64; x64) AppleWebKit/537.36 (KHTML, like Gecko) Chrome/138.0.0.0 Safari/537.36","WebKit","Chrome","138.0.0.0","Windows","10.0","https://app.prolific.com/","en-US,en;q=0.9","60aad516e34718d318bfb44d","6877631c9844ddd5501205fc","688a43615c5547ae4c54edba","3","1","60aad516e34718d318bfb44d","3","1","2025-07-30T16:17:19.727Z","","","","","","","","","","","AttribQ","","50","","","","","","","","","","","","","","","","","","","","","","","","","","","","",""
"3097","","<div style=""width:500px;"">
  <p>How much control did you have over the ball?</p>
  </div>","81","html-slider-response","36","533698","0.0-5.0-2.5","295","1","2025-07-30 16:08:27","1f75c3e559b7213887762d5229550c2b","169.1.3.252","Mozilla/5.0 (Windows NT 10.0; Win64; x64) AppleWebKit/537.36 (KHTML, like Gecko) Chrome/138.0.0.0 Safari/537.36","WebKit","Chrome","138.0.0.0","Windows","10.0","https://app.prolific.com/","en-US,en;q=0.9","60aad516e34718d318bfb44d","6877631c9844ddd5501205fc","688a43615c5547ae4c54edba","3","1","60aad516e34718d318bfb44d","3","1","2025-07-30T16:17:22.825Z","","","","","","","","","","","ControlQ","","50","","","","","","","","","","","","","","","","","","","","","","","","","","","","",""
"2048","","<div style=""width:500px;"">
  <p>How would you describe your current emotional state?</p>
  </div>","73","html-slider-response","37","535746","0.0-5.0-3.5","295","1","2025-07-30 16:08:27","1f75c3e559b7213887762d5229550c2b","169.1.3.252","Mozilla/5.0 (Windows NT 10.0; Win64; x64) AppleWebKit/537.36 (KHTML, like Gecko) Chrome/138.0.0.0 Safari/537.36","WebKit","Chrome","138.0.0.0","Windows","10.0","https://app.prolific.com/","en-US,en;q=0.9","60aad516e34718d318bfb44d","6877631c9844ddd5501205fc","688a43615c5547ae4c54edba","3","1","60aad516e34718d318bfb44d","3","1","2025-07-30T16:17:24.874Z","","","","","","","","","","","StressQ","","50","","","","","","","","","","","","","","","","","","","","","","","","","","","","",""
"3103","","<div style=""width:500px;"">
  <p>What best describes how you currently feel?</p>
  </div>","73","html-slider-response","38","538851","0.0-5.0-4.5","295","1","2025-07-30 16:08:27","1f75c3e559b7213887762d5229550c2b","169.1.3.252","Mozilla/5.0 (Windows NT 10.0; Win64; x64) AppleWebKit/537.36 (KHTML, like Gecko) Chrome/138.0.0.0 Safari/537.36","WebKit","Chrome","138.0.0.0","Windows","10.0","https://app.prolific.com/","en-US,en;q=0.9","60aad516e34718d318bfb44d","6877631c9844ddd5501205fc","688a43615c5547ae4c54edba","3","1","60aad516e34718d318bfb44d","3","1","2025-07-30T16:17:27.979Z","","","","","","","","","","","MotivationQ","","50","","","","","","","","","","","","","","","","","","","","","","","","","","","","",""
"","","","","ctl-task-cpt","39","580686","0.0-5.0-0.6","295","1","2025-07-30 16:08:27","1f75c3e559b7213887762d5229550c2b","169.1.3.252","Mozilla/5.0 (Windows NT 10.0; Win64; x64) AppleWebKit/537.36 (KHTML, like Gecko) Chrome/138.0.0.0 Safari/537.36","WebKit","Chrome","138.0.0.0","Windows","10.0","https://app.prolific.com/","en-US,en;q=0.9","60aad516e34718d318bfb44d","6877631c9844ddd5501205fc","688a43615c5547ae4c54edba","3","1","60aad516e34718d318bfb44d","3","1","2025-07-30T16:18:09.813Z","","","","","","","","","","","","","","win-only","2","g1:SE,g2:NW","0.4","7","0","540988.9","3215.5","8217.3","38815.7","1","4","4","6","2","-4","-4","17","21","0.12878787878787878","958.7","3000","-3005","[""left"",""up""]","{""num_key_presses"":8,""num_perfect"":4,""num_errors"":0,""num_randdir"":4,""num_randdir_good_moves"":2,""num_whilered"":0,""num_whileblue"":0,""num_blue"":2,""num_good_moves"":6}","[421.5714133126395,421.57142761775424,0.4,421.5714133126395,421.57142761775424,100.3,421.5714133126395,421.57142761775424,205.3,405.3214133126395,469.07142761775424,309.7,449.0714133126395,586.5714276177542,410.2,246.5714133126395,252.82142761775424,510.9,139.0714133126395,121.57142761775425,615.3,132.8214133126395,94.07142761775425,720.1,122.8214133126395,76.57142761775425,820.7,95.3214133126395,74.07142761775425,920.7,95.3214133126395,72.82142761775425,1021.3,101.5714133126395,76.57142761775425,1125.5,282.8214133126395,181.57142761775424,1226.8,805.3214133126395,407.82142761775424,1329.8,1046.5714133126396,436.57142761775424,1430.4,1051.5714133126396,429.07142761775424,1530.5,1054.0714133126396,427.82142761775424,1635.7,1054.0714133126396,427.82142761775424,1741.4,1054.0714133126396,427.82142761775424,1844.8,1054.0714133126396,427.82142761775424,1947.1,1054.0714133126396,427.82142761775424,2050,1054.0714133126396,427.82142761775424,2150.1,1054.0714133126396,427.82142761775424,2250.4,1054.0714133126396,427.82142761775424,2350.6,1054.0714133126396,427.82142761775424,2455.7,1054.0714133126396,427.82142761775424,2560,1054.0714133126396,427.82142761775424,2660.6,1054.0714133126396,427.82142761775424,2760.6,1054.0714133126396,427.82142761775424,2865.1,1054.0714133126396,427.82142761775424,2965.4,1054.0714133126396,427.82142761775424,3070,1054.0714133126396,427.82142761775424,3170.1,1054.0714133126396,427.82142761775424,3271.7,1054.0714133126396,427.82142761775424,3375.7,1054.0714133126396,427.82142761775424,3479.9,1054.0714133126396,427.82142761775424,3580.5,1054.0714133126396,427.82142761775424,3680.7,1054.0714133126396,427.82142761775424,3781,1054.0714133126396,427.82142761775424,3881.5,1054.0714133126396,427.82142761775424,3985.6,1054.0714133126396,427.82142761775424,4085.9,1054.0714133126396,427.82142761775424,4190.6,1054.0714133126396,427.82142761775424,4291.8,1054.0714133126396,427.82142761775424,4395.6,1054.0714133126396,427.82142761775424,4495.9,1054.0714133126396,427.82142761775424,4598.9,1054.0714133126396,427.82142761775424,4701.1,1054.0714133126396,427.82142761775424,4806.3,1054.0714133126396,427.82142761775424,4910.4]","[1381.1,1381.1,1000,0,381.1,""oops"",""down"",""left"",""good_move"",7715,6333.2,2626.7,4673.3,415.1,""smooth"",""left"",""left"",""good_move"",11040.5,3325.3,2965.7,7715.3,359.6,""oops"",""left"",""down"",""bad_move"",14378.3,3337.4,2984.6,11040.9,352.8,""smooth"",""left"",""left"",""good_move"",17086.8,2708.3,2364.7,14378.5,343.6,""oops"",""up"",""down"",""bad_move"",20442.6,3355.4,3018,17087.2,337.4,""smooth"",""up"",""up"",""good_move"",26585,6142.2,2415.5,23858.6,310.9,""oops"",""up"",""up"",""good_move"",29051.4,2466.3,2082,26585.2,384.2,""smooth"",""up"",""up"",""good_move""]","",""
"2677","","<div style=""width:500px;"">
  <p>What determined the result of this run?</p>
  </div>","3","html-slider-response","40","583365","0.0-5.0-1.6","295","1","2025-07-30 16:08:27","1f75c3e559b7213887762d5229550c2b","169.1.3.252","Mozilla/5.0 (Windows NT 10.0; Win64; x64) AppleWebKit/537.36 (KHTML, like Gecko) Chrome/138.0.0.0 Safari/537.36","WebKit","Chrome","138.0.0.0","Windows","10.0","https://app.prolific.com/","en-US,en;q=0.9","60aad516e34718d318bfb44d","6877631c9844ddd5501205fc","688a43615c5547ae4c54edba","3","1","60aad516e34718d318bfb44d","3","1","2025-07-30T16:18:12.492Z","","","","","","","","","","","AttribQ","","50","","","","","","","","","","","","","","","","","","","","","","","","","","","","",""
"2781","","<div style=""width:500px;"">
  <p>How much control did you have over the ball?</p>
  </div>","7","html-slider-response","41","586147","0.0-5.0-2.6","295","1","2025-07-30 16:08:27","1f75c3e559b7213887762d5229550c2b","169.1.3.252","Mozilla/5.0 (Windows NT 10.0; Win64; x64) AppleWebKit/537.36 (KHTML, like Gecko) Chrome/138.0.0.0 Safari/537.36","WebKit","Chrome","138.0.0.0","Windows","10.0","https://app.prolific.com/","en-US,en;q=0.9","60aad516e34718d318bfb44d","6877631c9844ddd5501205fc","688a43615c5547ae4c54edba","3","1","60aad516e34718d318bfb44d","3","1","2025-07-30T16:18:15.274Z","","","","","","","","","","","ControlQ","","50","","","","","","","","","","","","","","","","","","","","","","","","","","","","",""
"3156","","<div style=""width:500px;"">
  <p>How would you describe your current emotional state?</p>
  </div>","89","html-slider-response","42","589304","0.0-5.0-3.6","295","1","2025-07-30 16:08:27","1f75c3e559b7213887762d5229550c2b","169.1.3.252","Mozilla/5.0 (Windows NT 10.0; Win64; x64) AppleWebKit/537.36 (KHTML, like Gecko) Chrome/138.0.0.0 Safari/537.36","WebKit","Chrome","138.0.0.0","Windows","10.0","https://app.prolific.com/","en-US,en;q=0.9","60aad516e34718d318bfb44d","6877631c9844ddd5501205fc","688a43615c5547ae4c54edba","3","1","60aad516e34718d318bfb44d","3","1","2025-07-30T16:18:18.431Z","","","","","","","","","","","StressQ","","50","","","","","","","","","","","","","","","","","","","","","","","","","","","","",""
"6179","","<div style=""width:500px;"">
  <p>What best describes how you currently feel?</p>
  </div>","31","html-slider-response","43","595484","0.0-5.0-4.6","295","1","2025-07-30 16:08:27","1f75c3e559b7213887762d5229550c2b","169.1.3.252","Mozilla/5.0 (Windows NT 10.0; Win64; x64) AppleWebKit/537.36 (KHTML, like Gecko) Chrome/138.0.0.0 Safari/537.36","WebKit","Chrome","138.0.0.0","Windows","10.0","https://app.prolific.com/","en-US,en;q=0.9","60aad516e34718d318bfb44d","6877631c9844ddd5501205fc","688a43615c5547ae4c54edba","3","1","60aad516e34718d318bfb44d","3","1","2025-07-30T16:18:24.611Z","","","","","","","","","","","MotivationQ","","50","","","","","","","","","","","","","","","","","","","","","","","","","","","","",""
"","","","","ctl-task-cpt","44","630736","0.0-5.0-0.7","295","1","2025-07-30 16:08:27","1f75c3e559b7213887762d5229550c2b","169.1.3.252","Mozilla/5.0 (Windows NT 10.0; Win64; x64) AppleWebKit/537.36 (KHTML, like Gecko) Chrome/138.0.0.0 Safari/537.36","WebKit","Chrome","138.0.0.0","Windows","10.0","https://app.prolific.com/","en-US,en;q=0.9","60aad516e34718d318bfb44d","6877631c9844ddd5501205fc","688a43615c5547ae4c54edba","3","1","60aad516e34718d318bfb44d","3","1","2025-07-30T16:18:59.863Z","","","","","","","","","","","","","","win-only","1","g1:NE,g2:SW","0.3","8","0","597621.5","2322.6","7325.9","32231.7","1","4","8","6","1","-1","-1","16","17","0.12121212121212122","832.6","3000","-3000","[""up"",""right""]","{""num_key_presses"":8,""num_perfect"":2,""num_errors"":0,""num_randdir"":6,""num_randdir_good_moves"":3,""num_whilered"":0,""num_whileblue"":0,""num_blue"":0,""num_good_moves"":5}","[424.0714133126395,407.82142761775424,0.2,424.0714133126395,407.82142761775424,102.6,424.0714133126395,407.82142761775424,202.9,451.5714133126395,412.82142761775424,303.6,721.5714133126395,272.82142761775424,409.3,796.5714133126395,181.57142761775424,513.4,802.8214133126395,157.82142761775424,613.5,796.5714133126395,114.07142761775425,714.7,789.0714133126395,82.82142761775425,818.9,787.8214133126395,81.57142761775425,922.7,790.3214133126395,102.82142761775425,1023,797.8214133126395,311.57142761775424,1125,799.0714133126395,519.0714276177542,1228,799.0714133126395,519.0714276177542,1329.4,799.0714133126395,520.3214276177542,1433.3,799.0714133126395,520.3214276177542,1533.4,799.0714133126395,520.3214276177542,1635.1,799.0714133126395,520.3214276177542,1738.5,799.0714133126395,520.3214276177542,1840,799.0714133126395,520.3214276177542,1944,799.0714133126395,520.3214276177542,2048.7,799.0714133126395,520.3214276177542,2149,799.0714133126395,520.3214276177542,2254.1,799.0714133126395,520.3214276177542,2359.2,799.0714133126395,520.3214276177542,2463.6,799.0714133126395,520.3214276177542,2563.6,799.0714133126395,520.3214276177542,2663.6,799.0714133126395,520.3214276177542,2768.4,799.0714133126395,520.3214276177542,2868.7,799.0714133126395,520.3214276177542,2968.9,799.0714133126395,520.3214276177542,3069.4,799.0714133126395,520.3214276177542,3173.8,799.0714133126395,520.3214276177542,3275.6,799.0714133126395,520.3214276177542,3380.9,799.0714133126395,520.3214276177542,3483.3,799.0714133126395,520.3214276177542,3589.2,799.0714133126395,520.3214276177542,3693.7,799.0714133126395,520.3214276177542,3798.3,799.0714133126395,520.3214276177542,3898.9,799.0714133126395,520.3214276177542,3999.5,799.0714133126395,520.3214276177542,4103.4,799.0714133126395,520.3214276177542,4203.7,799.0714133126395,520.3214276177542,4304.4,799.0714133126395,520.3214276177542,4411.5,799.0714133126395,520.3214276177542,4512.6,799.0714133126395,520.3214276177542,4614.7,799.0714133126395,520.3214276177542,4718.4,799.0714133126395,520.3214276177542,4823.3,799.0714133126395,520.3214276177542,4928.1]","[1429.7,1429.7,1000,0,429.7,""smooth"",""up"",""up"",""good_move"",3855.6,2425.4,1811.4,1430.2,614,""smooth"",""up"",""up"",""good_move"",6810.6,2954.7,2674.3,3855.9,280.4,""oops"",""right"",""right"",""good_move"",9392.5,2581.6,2313.4,6810.9,268.2,""oops"",""right"",""left"",""bad_move"",12491.3,3098.3,2772.4,9393,325.9,""oops"",""right"",""right"",""good_move"",15432.1,2940.4,2597.9,12491.7,342.7,""oops"",""right"",""down"",""bad_move"",18671.3,3238.5,2945.8,15432.8,292.7,""oops"",""right"",""right"",""good_move"",21989.1,3317.6,3074.1,18671.6,243.4,""oops"",""up"",""down"",""bad_move""]","",""
"4123","","<div style=""width:500px;"">
  <p>What determined the result of this run?</p>
  </div>","3","html-slider-response","45","634860","0.0-5.0-1.7","295","1","2025-07-30 16:08:27","1f75c3e559b7213887762d5229550c2b","169.1.3.252","Mozilla/5.0 (Windows NT 10.0; Win64; x64) AppleWebKit/537.36 (KHTML, like Gecko) Chrome/138.0.0.0 Safari/537.36","WebKit","Chrome","138.0.0.0","Windows","10.0","https://app.prolific.com/","en-US,en;q=0.9","60aad516e34718d318bfb44d","6877631c9844ddd5501205fc","688a43615c5547ae4c54edba","3","1","60aad516e34718d318bfb44d","3","1","2025-07-30T16:19:03.987Z","","","","","","","","","","","AttribQ","","50","","","","","","","","","","","","","","","","","","","","","","","","","","","","",""
"4304","","<div style=""width:500px;"">
  <p>How much control did you have over the ball?</p>
  </div>","11","html-slider-response","46","639166","0.0-5.0-2.7","295","1","2025-07-30 16:08:27","1f75c3e559b7213887762d5229550c2b","169.1.3.252","Mozilla/5.0 (Windows NT 10.0; Win64; x64) AppleWebKit/537.36 (KHTML, like Gecko) Chrome/138.0.0.0 Safari/537.36","WebKit","Chrome","138.0.0.0","Windows","10.0","https://app.prolific.com/","en-US,en;q=0.9","60aad516e34718d318bfb44d","6877631c9844ddd5501205fc","688a43615c5547ae4c54edba","3","1","60aad516e34718d318bfb44d","3","1","2025-07-30T16:19:08.293Z","","","","","","","","","","","ControlQ","","50","","","","","","","","","","","","","","","","","","","","","","","","","","","","",""
"2983","","<div style=""width:500px;"">
  <p>How would you describe your current emotional state?</p>
  </div>","85","html-slider-response","47","642150","0.0-5.0-3.7","295","1","2025-07-30 16:08:27","1f75c3e559b7213887762d5229550c2b","169.1.3.252","Mozilla/5.0 (Windows NT 10.0; Win64; x64) AppleWebKit/537.36 (KHTML, like Gecko) Chrome/138.0.0.0 Safari/537.36","WebKit","Chrome","138.0.0.0","Windows","10.0","https://app.prolific.com/","en-US,en;q=0.9","60aad516e34718d318bfb44d","6877631c9844ddd5501205fc","688a43615c5547ae4c54edba","3","1","60aad516e34718d318bfb44d","3","1","2025-07-30T16:19:11.277Z","","","","","","","","","","","StressQ","","50","","","","","","","","","","","","","","","","","","","","","","","","","","","","",""
"2985","","<div style=""width:500px;"">
  <p>What best describes how you currently feel?</p>
  </div>","35","html-slider-response","48","645136","0.0-5.0-4.7","295","1","2025-07-30 16:08:27","1f75c3e559b7213887762d5229550c2b","169.1.3.252","Mozilla/5.0 (Windows NT 10.0; Win64; x64) AppleWebKit/537.36 (KHTML, like Gecko) Chrome/138.0.0.0 Safari/537.36","WebKit","Chrome","138.0.0.0","Windows","10.0","https://app.prolific.com/","en-US,en;q=0.9","60aad516e34718d318bfb44d","6877631c9844ddd5501205fc","688a43615c5547ae4c54edba","3","1","60aad516e34718d318bfb44d","3","1","2025-07-30T16:19:14.264Z","","","","","","","","","","","MotivationQ","","50","","","","","","","","","","","","","","","","","","","","","","","","","","","","",""
"","","","","ctl-task-cpt","49","686475","0.0-5.0-0.8","295","1","2025-07-30 16:08:27","1f75c3e559b7213887762d5229550c2b","169.1.3.252","Mozilla/5.0 (Windows NT 10.0; Win64; x64) AppleWebKit/537.36 (KHTML, like Gecko) Chrome/138.0.0.0 Safari/537.36","WebKit","Chrome","138.0.0.0","Windows","10.0","https://app.prolific.com/","en-US,en;q=0.9","60aad516e34718d318bfb44d","6877631c9844ddd5501205fc","688a43615c5547ae4c54edba","3","1","60aad516e34718d318bfb44d","3","1","2025-07-30T16:19:55.603Z","","","","","","","","","","","","","","win-only","2","g1:SE,g2:NW","0.2","9","0","647273.8","3404.7","8407.5","38316.4","1","4","8","6","1","-1","-1","15","16","0.11363636363636363","770","3000","-2970","[""down"",""right""]","{""num_key_presses"":8,""num_perfect"":2,""num_errors"":0,""num_randdir"":6,""num_randdir_good_moves"":1,""num_whilered"":0,""num_whileblue"":0,""num_blue"":2,""num_good_moves"":3}","[414.0714133126395,416.57142761775424,0.4,414.0714133126395,416.57142761775424,101.5,414.0714133126395,416.57142761775424,206.7,417.8214133126395,527.8214276177542,306.8,746.5714133126395,711.5714276177542,410.8,776.5714133126395,725.3214276177542,512.4,811.5714133126395,757.8214276177542,616.7,787.8214133126395,745.3214276177542,718.2,781.5714133126395,744.0714276177542,822,781.5714133126395,744.0714276177542,926.9,877.8214133126395,751.5714276177542,1027.4,969.0714133126395,741.5714276177542,1131.9,992.8214133126395,726.5714276177542,1237.9,997.8214133126395,726.5714276177542,1342,997.8214133126395,726.5714276177542,1446.8,997.8214133126395,726.5714276177542,1547,997.8214133126395,726.5714276177542,1648.1,997.8214133126395,726.5714276177542,1751.4,997.8214133126395,726.5714276177542,1852,997.8214133126395,726.5714276177542,1956.9,997.8214133126395,726.5714276177542,2061.2,997.8214133126395,726.5714276177542,2162.5,997.8214133126395,726.5714276177542,2266.4,997.8214133126395,726.5714276177542,2366.5,997.8214133126395,726.5714276177542,2472.8,997.8214133126395,726.5714276177542,2576.3,997.8214133126395,726.5714276177542,2677.5,997.8214133126395,726.5714276177542,2781.3,997.8214133126395,726.5714276177542,2885.8,997.8214133126395,726.5714276177542,2987.5,997.8214133126395,726.5714276177542,3087.7,997.8214133126395,726.5714276177542,3191,997.8214133126395,726.5714276177542,3291.3,997.8214133126395,726.5714276177542,3391.8,997.8214133126395,726.5714276177542,3492,997.8214133126395,726.5714276177542,3595.7,997.8214133126395,726.5714276177542,3697,997.8214133126395,726.5714276177542,3801.8,997.8214133126395,726.5714276177542,3906.9,997.8214133126395,726.5714276177542,4011.8,997.8214133126395,726.5714276177542,4117.7,997.8214133126395,726.5714276177542,4220.9,997.8214133126395,726.5714276177542,4321.5,997.8214133126395,726.5714276177542,4427.5,997.8214133126395,726.5714276177542,4531.1,997.8214133126395,726.5714276177542,4631.6,997.8214133126395,726.5714276177542,4737.4,997.8214133126395,726.5714276177542,4841,997.8214133126395,726.5714276177542,4941.3]","[1425.7,1425.7,1000,0,425.7,""smooth"",""down"",""down"",""good_move"",3807.1,2381.2,2018.5,1426,362.7,""smooth"",""down"",""down"",""good_move"",6076.7,2268.3,1905.5,3808.4,362.8,""oops"",""right"",""left"",""bad_move"",9115.1,3037.9,2714.4,6077.2,323.5,""oops"",""right"",""right"",""good_move"",12109.4,2994,2682.5,9115.4,311.5,""oops"",""right"",""up"",""bad_move"",15353.4,3243.4,2905.6,12110,337.8,""oops"",""right"",""up"",""bad_move"",20529.7,5176.1,1889.3,18295,345.4,""oops"",""right"",""left"",""bad_move"",26666.7,6135.9,2047,24219,400.7,""oops"",""right"",""left"",""bad_move""]","",""
"3419","","<div style=""width:500px;"">
  <p>What determined the result of this run?</p>
  </div>","0","html-slider-response","50","689897","0.0-5.0-1.8","295","1","2025-07-30 16:08:27","1f75c3e559b7213887762d5229550c2b","169.1.3.252","Mozilla/5.0 (Windows NT 10.0; Win64; x64) AppleWebKit/537.36 (KHTML, like Gecko) Chrome/138.0.0.0 Safari/537.36","WebKit","Chrome","138.0.0.0","Windows","10.0","https://app.prolific.com/","en-US,en;q=0.9","60aad516e34718d318bfb44d","6877631c9844ddd5501205fc","688a43615c5547ae4c54edba","3","1","60aad516e34718d318bfb44d","3","1","2025-07-30T16:19:59.024Z","","","","","","","","","","","AttribQ","","50","","","","","","","","","","","","","","","","","","","","","","","","","","","","",""
"5001","","<div style=""width:500px;"">
  <p>How much control did you have over the ball?</p>
  </div>","0","html-slider-response","51","694899","0.0-5.0-2.8","295","1","2025-07-30 16:08:27","1f75c3e559b7213887762d5229550c2b","169.1.3.252","Mozilla/5.0 (Windows NT 10.0; Win64; x64) AppleWebKit/537.36 (KHTML, like Gecko) Chrome/138.0.0.0 Safari/537.36","WebKit","Chrome","138.0.0.0","Windows","10.0","https://app.prolific.com/","en-US,en;q=0.9","60aad516e34718d318bfb44d","6877631c9844ddd5501205fc","688a43615c5547ae4c54edba","3","1","60aad516e34718d318bfb44d","3","1","2025-07-30T16:20:04.026Z","","","","","","","","","","","ControlQ","","50","","","","","","","","","","","","","","","","","","","","","","","","","","","","",""
"2759","","<div style=""width:500px;"">
  <p>How would you describe your current emotional state?</p>
  </div>","90","html-slider-response","52","697659","0.0-5.0-3.8","295","1","2025-07-30 16:08:27","1f75c3e559b7213887762d5229550c2b","169.1.3.252","Mozilla/5.0 (Windows NT 10.0; Win64; x64) AppleWebKit/537.36 (KHTML, like Gecko) Chrome/138.0.0.0 Safari/537.36","WebKit","Chrome","138.0.0.0","Windows","10.0","https://app.prolific.com/","en-US,en;q=0.9","60aad516e34718d318bfb44d","6877631c9844ddd5501205fc","688a43615c5547ae4c54edba","3","1","60aad516e34718d318bfb44d","3","1","2025-07-30T16:20:06.786Z","","","","","","","","","","","StressQ","","50","","","","","","","","","","","","","","","","","","","","","","","","","","","","",""
"2325","","<div style=""width:500px;"">
  <p>What best describes how you currently feel?</p>
  </div>","31","html-slider-response","53","699985","0.0-5.0-4.8","295","1","2025-07-30 16:08:27","1f75c3e559b7213887762d5229550c2b","169.1.3.252","Mozilla/5.0 (Windows NT 10.0; Win64; x64) AppleWebKit/537.36 (KHTML, like Gecko) Chrome/138.0.0.0 Safari/537.36","WebKit","Chrome","138.0.0.0","Windows","10.0","https://app.prolific.com/","en-US,en;q=0.9","60aad516e34718d318bfb44d","6877631c9844ddd5501205fc","688a43615c5547ae4c54edba","3","1","60aad516e34718d318bfb44d","3","1","2025-07-30T16:20:09.112Z","","","","","","","","","","","MotivationQ","","50","","","","","","","","","","","","","","","","","","","","","","","","","","","","",""
"","","","","ctl-task-cpt","54","741006","0.0-5.0-0.9","295","1","2025-07-30 16:08:27","1f75c3e559b7213887762d5229550c2b","169.1.3.252","Mozilla/5.0 (Windows NT 10.0; Win64; x64) AppleWebKit/537.36 (KHTML, like Gecko) Chrome/138.0.0.0 Safari/537.36","WebKit","Chrome","138.0.0.0","Windows","10.0","https://app.prolific.com/","en-US,en;q=0.9","60aad516e34718d318bfb44d","6877631c9844ddd5501205fc","688a43615c5547ae4c54edba","3","1","60aad516e34718d318bfb44d","3","1","2025-07-30T16:20:50.133Z","","","","","","","","","","","","","","win-only","0","g1:NW,g2:SE","0.4","10","0","702121.9","2886.9","7891.4","38001.3","1","4","4","6","1","-1","-1","14","15","0.10606060606060606","950.8","3000","-2995","[""left"",""up""]","{""num_key_presses"":8,""num_perfect"":3,""num_errors"":0,""num_randdir"":5,""num_randdir_good_moves"":2,""num_whilered"":0,""num_whileblue"":0,""num_blue"":2,""num_good_moves"":5}","[416.5714133126395,411.57142761775424,0.2,416.5714133126395,411.57142761775424,101.1,416.5714133126395,411.57142761775424,204.4,445.3214133126395,561.5714276177542,308.4,631.5714133126395,681.5714276177542,411.1,321.5714133126395,335.32142761775424,515.6,127.8214133126395,186.57142761775424,619.4,119.0714133126395,126.57142761775425,720,114.0714133126395,79.07142761775425,820.6,112.8214133126395,79.07142761775425,923.8,112.8214133126395,79.07142761775425,1024.6,112.8214133126395,86.57142761775425,1125.4,241.5714133126395,209.07142761775424,1229.4,385.3214133126395,340.32142761775424,1331.2,385.3214133126395,340.32142761775424,1434.7,385.3214133126395,340.32142761775424,1538.7,385.3214133126395,341.57142761775424,1643.8,385.3214133126395,341.57142761775424,1744.1,385.3214133126395,341.57142761775424,1844.1,385.3214133126395,341.57142761775424,1944.8,385.3214133126395,341.57142761775424,2049.3,385.3214133126395,341.57142761775424,2151.4,385.3214133126395,341.57142761775424,2254.1,385.3214133126395,341.57142761775424,2359.7,385.3214133126395,341.57142761775424,2460.1,385.3214133126395,341.57142761775424,2563.8,385.3214133126395,341.57142761775424,2664.7,385.3214133126395,341.57142761775424,2768.5,385.3214133126395,341.57142761775424,2869.5,385.3214133126395,341.57142761775424,2975,386.5714133126395,341.57142761775424,3080.9,386.5714133126395,341.57142761775424,3184.4,386.5714133126395,341.57142761775424,3285,386.5714133126395,341.57142761775424,3388.5,386.5714133126395,341.57142761775424,3491.1,386.5714133126395,341.57142761775424,3594.1,386.5714133126395,341.57142761775424,3698.4,386.5714133126395,341.57142761775424,3800.3,386.5714133126395,341.57142761775424,3903.6,386.5714133126395,341.57142761775424,4004.9,386.5714133126395,341.57142761775424,4109.3,386.5714133126395,341.57142761775424,4210.3,386.5714133126395,341.57142761775424,4310.9,386.5714133126395,341.57142761775424,4413.6,386.5714133126395,341.57142761775424,4514.2,386.5714133126395,341.57142761775424,4618.4,386.5714133126395,341.57142761775424,4719.7,386.5714133126395,341.57142761775424,4824,386.5714133126395,341.57142761775424,4924.1]","[1500,1500,1000,0,500,""oops"",""up"",""up"",""good_move"",7359.6,5859,2579.4,4444.2,336,""oops"",""up"",""up"",""good_move"",10189.1,2829.2,2394.4,7359.9,434.8,""oops"",""left"",""down"",""bad_move"",12601.8,2412.4,2066.6,10189.4,345.8,""smooth"",""left"",""left"",""good_move"",15066.4,2464,2103.6,12602.4,360.4,""smooth"",""left"",""left"",""good_move"",18029.4,2962.6,2641,15066.8,321.7,""oops"",""up"",""right"",""bad_move"",21181.5,3151.6,2789.5,18029.9,362.1,""smooth"",""up"",""up"",""good_move"",24226.7,3044.7,2816.1,21182.1,228.6,""oops"",""left"",""right"",""bad_move""]","",""
"5246","","<div style=""width:500px;"">
  <p>What determined the result of this run?</p>
  </div>","2","html-slider-response","55","746253","0.0-5.0-1.9","295","1","2025-07-30 16:08:27","1f75c3e559b7213887762d5229550c2b","169.1.3.252","Mozilla/5.0 (Windows NT 10.0; Win64; x64) AppleWebKit/537.36 (KHTML, like Gecko) Chrome/138.0.0.0 Safari/537.36","WebKit","Chrome","138.0.0.0","Windows","10.0","https://app.prolific.com/","en-US,en;q=0.9","60aad516e34718d318bfb44d","6877631c9844ddd5501205fc","688a43615c5547ae4c54edba","3","1","60aad516e34718d318bfb44d","3","1","2025-07-30T16:20:55.380Z","","","","","","","","","","","AttribQ","","50","","","","","","","","","","","","","","","","","","","","","","","","","","","","",""
"3329","","<div style=""width:500px;"">
  <p>How much control did you have over the ball?</p>
  </div>","4","html-slider-response","56","749583","0.0-5.0-2.9","295","1","2025-07-30 16:08:27","1f75c3e559b7213887762d5229550c2b","169.1.3.252","Mozilla/5.0 (Windows NT 10.0; Win64; x64) AppleWebKit/537.36 (KHTML, like Gecko) Chrome/138.0.0.0 Safari/537.36","WebKit","Chrome","138.0.0.0","Windows","10.0","https://app.prolific.com/","en-US,en;q=0.9","60aad516e34718d318bfb44d","6877631c9844ddd5501205fc","688a43615c5547ae4c54edba","3","1","60aad516e34718d318bfb44d","3","1","2025-07-30T16:20:58.710Z","","","","","","","","","","","ControlQ","","50","","","","","","","","","","","","","","","","","","","","","","","","","","","","",""
"3351","","<div style=""width:500px;"">
  <p>How would you describe your current emotional state?</p>
  </div>","71","html-slider-response","57","752936","0.0-5.0-3.9","295","1","2025-07-30 16:08:27","1f75c3e559b7213887762d5229550c2b","169.1.3.252","Mozilla/5.0 (Windows NT 10.0; Win64; x64) AppleWebKit/537.36 (KHTML, like Gecko) Chrome/138.0.0.0 Safari/537.36","WebKit","Chrome","138.0.0.0","Windows","10.0","https://app.prolific.com/","en-US,en;q=0.9","60aad516e34718d318bfb44d","6877631c9844ddd5501205fc","688a43615c5547ae4c54edba","3","1","60aad516e34718d318bfb44d","3","1","2025-07-30T16:21:02.063Z","","","","","","","","","","","StressQ","","50","","","","","","","","","","","","","","","","","","","","","","","","","","","","",""
"2053","","<div style=""width:500px;"">
  <p>What best describes how you currently feel?</p>
  </div>","32","html-slider-response","58","754991","0.0-5.0-4.9","295","1","2025-07-30 16:08:27","1f75c3e559b7213887762d5229550c2b","169.1.3.252","Mozilla/5.0 (Windows NT 10.0; Win64; x64) AppleWebKit/537.36 (KHTML, like Gecko) Chrome/138.0.0.0 Safari/537.36","WebKit","Chrome","138.0.0.0","Windows","10.0","https://app.prolific.com/","en-US,en;q=0.9","60aad516e34718d318bfb44d","6877631c9844ddd5501205fc","688a43615c5547ae4c54edba","3","1","60aad516e34718d318bfb44d","3","1","2025-07-30T16:21:04.118Z","","","","","","","","","","","MotivationQ","","50","","","","","","","","","","","","","","","","","","","","","","","","","","","","",""
"","","","","ctl-task-cpt","59","784820","0.0-5.0-0.10","295","1","2025-07-30 16:08:27","1f75c3e559b7213887762d5229550c2b","169.1.3.252","Mozilla/5.0 (Windows NT 10.0; Win64; x64) AppleWebKit/537.36 (KHTML, like Gecko) Chrome/138.0.0.0 Safari/537.36","WebKit","Chrome","138.0.0.0","Windows","10.0","https://app.prolific.com/","en-US,en;q=0.9","60aad516e34718d318bfb44d","6877631c9844ddd5501205fc","688a43615c5547ae4c54edba","3","1","60aad516e34718d318bfb44d","3","1","2025-07-30T16:21:33.947Z","","","","","","","","","","","","","","win-only","3","g1:SW,g2:NE","0.5","11","0","757128.4","3305.6","8310.4","26810.3","1","4","4","6","1","1","1","15","14","0.11363636363636363","1034.4","3000","745","[""down"",""left""]","{""num_key_presses"":6,""num_perfect"":4,""num_errors"":0,""num_randdir"":2,""num_randdir_good_moves"":1,""num_whilered"":0,""num_whileblue"":0,""num_blue"":1,""num_good_moves"":5}","[410.3214133126395,414.07142761775424,0.4,410.3214133126395,414.07142761775424,100.7,410.3214133126395,414.07142761775424,205.5,411.5714133126395,414.07142761775424,306,436.5714133126395,426.57142761775424,410.3,412.8214133126395,546.5714276177542,510.4,289.0714133126395,636.5714276177542,611.3,180.3214133126395,701.5714276177542,715.1,171.5714133126395,714.0714276177542,816.2,116.5714133126395,737.8214276177542,919.6,66.5714133126395,755.3214276177542,1021.2,66.5714133126395,755.3214276177542,1124.8,90.3214133126395,750.3214276177542,1224.9,387.8214133126395,762.8214276177542,1325.8,431.5714133126395,766.5714276177542,1431.1,431.5714133126395,766.5714276177542,1535.4,431.5714133126395,766.5714276177542,1640.8,431.5714133126395,766.5714276177542,1741,431.5714133126395,766.5714276177542,1846,431.5714133126395,766.5714276177542,1947.4,431.5714133126395,766.5714276177542,2050.8,431.5714133126395,766.5714276177542,2155.5,431.5714133126395,766.5714276177542,2255.9,431.5714133126395,766.5714276177542,2360.5,431.5714133126395,766.5714276177542,2460.8,431.5714133126395,766.5714276177542,2566.2,431.5714133126395,766.5714276177542,2666.2,431.5714133126395,766.5714276177542,2766.5,431.5714133126395,766.5714276177542,2870.8,431.5714133126395,766.5714276177542,2976,431.5714133126395,766.5714276177542,3080.9,431.5714133126395,766.5714276177542,3181.9,431.5714133126395,766.5714276177542,3284.9,431.5714133126395,766.5714276177542,3385.9,431.5714133126395,766.5714276177542,3489.8,431.5714133126395,766.5714276177542,3590.4,431.5714133126395,766.5714276177542,3690.6,431.5714133126395,766.5714276177542,3790.7,431.5714133126395,766.5714276177542,3895.7,431.5714133126395,766.5714276177542,3996.3,431.5714133126395,766.5714276177542,4100.3,431.5714133126395,766.5714276177542,4209.5,431.5714133126395,766.5714276177542,4310.4,431.5714133126395,766.5714276177542,4411.1,431.5714133126395,766.5714276177542,4516,431.5714133126395,766.5714276177542,4616.3,431.5714133126395,766.5714276177542,4719.6,431.5714133126395,766.5714276177542,4819.8,431.5714133126395,766.5714276177542,4924.8]","[1449.8,1449.9,1000,0,449.9,""smooth"",""down"",""down"",""good_move"",7739.7,6289.3,2089.8,5251.3,398.6,""oops"",""down"",""left"",""good_move"",11070.5,3330.4,2944.3,7740.1,386.1,""smooth"",""down"",""down"",""good_move"",13367.9,2297,1918.5,11070.9,378.5,""oops"",""left"",""right"",""bad_move"",15778.5,2410.3,2034.8,13368.2,375.5,""smooth"",""left"",""left"",""good_move"",18410.5,2631.5,2328.4,15779,303.1,""smooth"",""left"",""left"",""good_move""]","",""
"3276","","<div style=""width:500px;"">
  <p>What determined the result of this run?</p>
  </div>","11","html-slider-response","60","788097","0.0-5.0-1.10","295","1","2025-07-30 16:08:27","1f75c3e559b7213887762d5229550c2b","169.1.3.252","Mozilla/5.0 (Windows NT 10.0; Win64; x64) AppleWebKit/537.36 (KHTML, like Gecko) Chrome/138.0.0.0 Safari/537.36","WebKit","Chrome","138.0.0.0","Windows","10.0","https://app.prolific.com/","en-US,en;q=0.9","60aad516e34718d318bfb44d","6877631c9844ddd5501205fc","688a43615c5547ae4c54edba","3","1","60aad516e34718d318bfb44d","3","1","2025-07-30T16:21:37.224Z","","","","","","","","","","","AttribQ","","50","","","","","","","","","","","","","","","","","","","","","","","","","","","","",""
"4431","","<div style=""width:500px;"">
  <p>How much control did you have over the ball?</p>
  </div>","76","html-slider-response","61","792529","0.0-5.0-2.10","295","1","2025-07-30 16:08:27","1f75c3e559b7213887762d5229550c2b","169.1.3.252","Mozilla/5.0 (Windows NT 10.0; Win64; x64) AppleWebKit/537.36 (KHTML, like Gecko) Chrome/138.0.0.0 Safari/537.36","WebKit","Chrome","138.0.0.0","Windows","10.0","https://app.prolific.com/","en-US,en;q=0.9","60aad516e34718d318bfb44d","6877631c9844ddd5501205fc","688a43615c5547ae4c54edba","3","1","60aad516e34718d318bfb44d","3","1","2025-07-30T16:21:41.656Z","","","","","","","","","","","ControlQ","","50","","","","","","","","","","","","","","","","","","","","","","","","","","","","",""
"3187","","<div style=""width:500px;"">
  <p>How would you describe your current emotional state?</p>
  </div>","73","html-slider-response","62","795718","0.0-5.0-3.10","295","1","2025-07-30 16:08:27","1f75c3e559b7213887762d5229550c2b","169.1.3.252","Mozilla/5.0 (Windows NT 10.0; Win64; x64) AppleWebKit/537.36 (KHTML, like Gecko) Chrome/138.0.0.0 Safari/537.36","WebKit","Chrome","138.0.0.0","Windows","10.0","https://app.prolific.com/","en-US,en;q=0.9","60aad516e34718d318bfb44d","6877631c9844ddd5501205fc","688a43615c5547ae4c54edba","3","1","60aad516e34718d318bfb44d","3","1","2025-07-30T16:21:44.845Z","","","","","","","","","","","StressQ","","50","","","","","","","","","","","","","","","","","","","","","","","","","","","","",""
"2022","","<div style=""width:500px;"">
  <p>What best describes how you currently feel?</p>
  </div>","42","html-slider-response","63","797742","0.0-5.0-4.10","295","1","2025-07-30 16:08:27","1f75c3e559b7213887762d5229550c2b","169.1.3.252","Mozilla/5.0 (Windows NT 10.0; Win64; x64) AppleWebKit/537.36 (KHTML, like Gecko) Chrome/138.0.0.0 Safari/537.36","WebKit","Chrome","138.0.0.0","Windows","10.0","https://app.prolific.com/","en-US,en;q=0.9","60aad516e34718d318bfb44d","6877631c9844ddd5501205fc","688a43615c5547ae4c54edba","3","1","60aad516e34718d318bfb44d","3","1","2025-07-30T16:21:46.870Z","","","","","","","","","","","MotivationQ","","50","","","","","","","","","","","","","","","","","","","","","","","","","","","","",""
"","","","","ctl-task-cpt","64","844025","0.0-5.0-0.11","295","1","2025-07-30 16:08:27","1f75c3e559b7213887762d5229550c2b","169.1.3.252","Mozilla/5.0 (Windows NT 10.0; Win64; x64) AppleWebKit/537.36 (KHTML, like Gecko) Chrome/138.0.0.0 Safari/537.36","WebKit","Chrome","138.0.0.0","Windows","10.0","https://app.prolific.com/","en-US,en;q=0.9","60aad516e34718d318bfb44d","6877631c9844ddd5501205fc","688a43615c5547ae4c54edba","3","1","60aad516e34718d318bfb44d","3","1","2025-07-30T16:22:33.152Z","","","","","","","","","","","","","","win-only","0","g1:NW,g2:SE","0.6","12","0","799880","1047.8","6051.6","43261.1","1","4","8","6","2","-8","-8","7","15","0.05303030303030303","763.9","3000","-3000","[""down"",""right""]","{""num_key_presses"":8,""num_perfect"":4,""num_errors"":0,""num_randdir"":4,""num_randdir_good_moves"":2,""num_whilered"":0,""num_whileblue"":0,""num_blue"":4,""num_good_moves"":6}","[419.0714133126395,419.07142761775424,1,419.0714133126395,419.07142761775424,103.7,419.0714133126395,419.07142761775424,208.1,417.8214133126395,441.57142761775424,308.2,529.0714133126395,575.3214276177542,408.7,740.3214133126395,750.3214276177542,513.8,741.5714133126395,751.5714276177542,618.2,765.3214133126395,762.8214276177542,718.4,765.3214133126395,762.8214276177542,823,774.0714133126395,762.8214276177542,927.7,900.3214133126395,781.5714276177542,1032.8,942.8214133126395,791.5714276177542,1137.9,942.8214133126395,792.8214276177542,1238.1,942.8214133126395,792.8214276177542,1338.5,942.8214133126395,792.8214276177542,1439.1,942.8214133126395,792.8214276177542,1543.3,942.8214133126395,792.8214276177542,1643.7,942.8214133126395,792.8214276177542,1749.2,942.8214133126395,792.8214276177542,1852.4,942.8214133126395,792.8214276177542,1952.8,942.8214133126395,792.8214276177542,2053.2,942.8214133126395,792.8214276177542,2154.3,942.8214133126395,792.8214276177542,2258.7,942.8214133126395,792.8214276177542,2363.1,942.8214133126395,792.8214276177542,2463.3,942.8214133126395,792.8214276177542,2563.4,942.8214133126395,792.8214276177542,2668,942.8214133126395,792.8214276177542,2768.2,942.8214133126395,792.8214276177542,2869,942.8214133126395,792.8214276177542,2972.6,942.8214133126395,792.8214276177542,3072.8,942.8214133126395,792.8214276177542,3173.3,942.8214133126395,792.8214276177542,3277.5,942.8214133126395,792.8214276177542,3378.6,942.8214133126395,792.8214276177542,3482.7,942.8214133126395,792.8214276177542,3583.4,942.8214133126395,792.8214276177542,3687.6,942.8214133126395,792.8214276177542,3788.7,942.8214133126395,792.8214276177542,3893.8,942.8214133126395,792.8214276177542,3998,942.8214133126395,792.8214276177542,4102.8,942.8214133126395,792.8214276177542,4203.5,942.8214133126395,792.8214276177542,4308.5,942.8214133126395,792.8214276177542,4412.9,942.8214133126395,792.8214276177542,4513,942.8214133126395,792.8214276177542,4621.6,942.8214133126395,792.8214276177542,4723.5,942.8214133126395,792.8214276177542,4827.9,942.8214133126395,792.8214276177542,4928]","[3812.9,3812.9,1397.5,2009,406.4,""smooth"",""down"",""down"",""good_move"",6577.2,2763.9,2432.6,3813.3,331.3,""oops"",""down"",""left"",""bad_move"",16789,10211.5,2041.5,14354.3,393.2,""smooth"",""down"",""down"",""good_move"",19025.4,2236,1850.5,16789.4,385.5,""oops"",""down"",""down"",""good_move"",21251.4,2225.7,1836.2,19025.7,389.5,""smooth"",""right"",""right"",""good_move"",24911.2,3659.6,3361.8,21251.6,297.8,""oops"",""right"",""right"",""good_move"",31744.4,6832.9,2438.2,28884.7,421.5,""oops"",""right"",""left"",""bad_move"",34495.3,2750.6,2422.1,31744.7,328.5,""smooth"",""right"",""right"",""good_move""]","",""
"2572","","<div style=""width:500px;"">
  <p>What determined the result of this run?</p>
  </div>","0","html-slider-response","65","846598","0.0-5.0-1.11","295","1","2025-07-30 16:08:27","1f75c3e559b7213887762d5229550c2b","169.1.3.252","Mozilla/5.0 (Windows NT 10.0; Win64; x64) AppleWebKit/537.36 (KHTML, like Gecko) Chrome/138.0.0.0 Safari/537.36","WebKit","Chrome","138.0.0.0","Windows","10.0","https://app.prolific.com/","en-US,en;q=0.9","60aad516e34718d318bfb44d","6877631c9844ddd5501205fc","688a43615c5547ae4c54edba","3","1","60aad516e34718d318bfb44d","3","1","2025-07-30T16:22:35.725Z","","","","","","","","","","","AttribQ","","50","","","","","","","","","","","","","","","","","","","","","","","","","","","","",""
"18810","","<div style=""width:500px;"">
  <p>How much control did you have over the ball?</p>
  </div>","10","html-slider-response","66","865409","0.0-5.0-2.11","295","1","2025-07-30 16:08:27","1f75c3e559b7213887762d5229550c2b","169.1.3.252","Mozilla/5.0 (Windows NT 10.0; Win64; x64) AppleWebKit/537.36 (KHTML, like Gecko) Chrome/138.0.0.0 Safari/537.36","WebKit","Chrome","138.0.0.0","Windows","10.0","https://app.prolific.com/","en-US,en;q=0.9","60aad516e34718d318bfb44d","6877631c9844ddd5501205fc","688a43615c5547ae4c54edba","3","1","60aad516e34718d318bfb44d","3","1","2025-07-30T16:22:54.536Z","","","","","","","","","","","ControlQ","","50","","","","","","","","","","","","","","","","","","","","","","","","","","","","",""
"4274","","<div style=""width:500px;"">
  <p>How would you describe your current emotional state?</p>
  </div>","89","html-slider-response","67","869685","0.0-5.0-3.11","295","1","2025-07-30 16:08:27","1f75c3e559b7213887762d5229550c2b","169.1.3.252","Mozilla/5.0 (Windows NT 10.0; Win64; x64) AppleWebKit/537.36 (KHTML, like Gecko) Chrome/138.0.0.0 Safari/537.36","WebKit","Chrome","138.0.0.0","Windows","10.0","https://app.prolific.com/","en-US,en;q=0.9","60aad516e34718d318bfb44d","6877631c9844ddd5501205fc","688a43615c5547ae4c54edba","3","1","60aad516e34718d318bfb44d","3","1","2025-07-30T16:22:58.812Z","","","","","","","","","","","StressQ","","50","","","","","","","","","","","","","","","","","","","","","","","","","","","","",""
"4948","","<div style=""width:500px;"">
  <p>What best describes how you currently feel?</p>
  </div>","10","html-slider-response","68","874634","0.0-5.0-4.11","295","1","2025-07-30 16:08:27","1f75c3e559b7213887762d5229550c2b","169.1.3.252","Mozilla/5.0 (Windows NT 10.0; Win64; x64) AppleWebKit/537.36 (KHTML, like Gecko) Chrome/138.0.0.0 Safari/537.36","WebKit","Chrome","138.0.0.0","Windows","10.0","https://app.prolific.com/","en-US,en;q=0.9","60aad516e34718d318bfb44d","6877631c9844ddd5501205fc","688a43615c5547ae4c54edba","3","1","60aad516e34718d318bfb44d","3","1","2025-07-30T16:23:03.761Z","","","","","","","","","","","MotivationQ","","50","","","","","","","","","","","","","","","","","","","","","","","","","","","","",""
"","","","","ctl-task-cpt","69","901485","0.0-5.0-0.12","295","1","2025-07-30 16:08:27","1f75c3e559b7213887762d5229550c2b","169.1.3.252","Mozilla/5.0 (Windows NT 10.0; Win64; x64) AppleWebKit/537.36 (KHTML, like Gecko) Chrome/138.0.0.0 Safari/537.36","WebKit","Chrome","138.0.0.0","Windows","10.0","https://app.prolific.com/","en-US,en;q=0.9","60aad516e34718d318bfb44d","6877631c9844ddd5501205fc","688a43615c5547ae4c54edba","3","1","60aad516e34718d318bfb44d","3","1","2025-07-30T16:23:30.612Z","","","","","","","","","","","","","","win-only","2","g1:SE,g2:NW","0.7","13","0","876771.5","2518.3","7523.1","23830.8","1","4","8","6","1","1","1","8","7","0.06060606060606061","718.9","3000","630","[""down"",""right""]","{""num_key_presses"":6,""num_perfect"":4,""num_errors"":0,""num_randdir"":2,""num_randdir_good_moves"":1,""num_whilered"":0,""num_whileblue"":0,""num_blue"":0,""num_good_moves"":5}","[415.3214133126395,414.07142761775424,0.3,415.3214133126395,414.07142761775424,102.4,415.3214133126395,416.57142761775424,203.3,446.5714133126395,494.07142761775424,304.1,701.5714133126395,626.5714276177542,407.4,791.5714133126395,726.5714276177542,508.3,799.0714133126395,735.3214276177542,612.3,786.5714133126395,731.5714276177542,713,786.5714133126395,731.5714276177542,813,786.5714133126395,731.5714276177542,917.5,787.8214133126395,767.8214276177542,1018.9,792.8214133126395,785.3214276177542,1124,792.8214133126395,785.3214276177542,1227.5,792.8214133126395,786.5714276177542,1327.5,792.8214133126395,786.5714276177542,1428.2,792.8214133126395,786.5714276177542,1528.3,792.8214133126395,786.5714276177542,1632.6,792.8214133126395,786.5714276177542,1733.7,792.8214133126395,786.5714276177542,1833.7,792.8214133126395,786.5714276177542,1937.6,792.8214133126395,786.5714276177542,2038,792.8214133126395,786.5714276177542,2143,792.8214133126395,786.5714276177542,2247.4,792.8214133126395,786.5714276177542,2347.7,792.8214133126395,786.5714276177542,2451.2,792.8214133126395,786.5714276177542,2552.4,792.8214133126395,786.5714276177542,2652.5,792.8214133126395,786.5714276177542,2753.3,792.8214133126395,786.5714276177542,2858.6,792.8214133126395,786.5714276177542,2963.1,792.8214133126395,786.5714276177542,3063.7,792.8214133126395,786.5714276177542,3167.3,792.8214133126395,786.5714276177542,3267.7,792.8214133126395,786.5714276177542,3367.9,792.8214133126395,786.5714276177542,3473.2,792.8214133126395,786.5714276177542,3573.7,792.8214133126395,786.5714276177542,3677.2,792.8214133126395,786.5714276177542,3778.1,792.8214133126395,786.5714276177542,3878.1,792.8214133126395,786.5714276177542,3978.4,792.8214133126395,786.5714276177542,4082.6,792.8214133126395,786.5714276177542,4188.1,792.8214133126395,786.5714276177542,4292.1,792.8214133126395,786.5714276177542,4392.6,792.8214133126395,786.5714276177542,4497.1,792.8214133126395,786.5714276177542,4597.4,792.8214133126395,786.5714276177542,4698.2,792.8214133126395,786.5714276177542,4798.5,792.8214133126395,786.5714276177542,4903.4]","[1557,1557,1000,0,557,""oops"",""down"",""up"",""bad_move"",4418.1,2860.6,2449.5,1557.5,411.1,""smooth"",""down"",""down"",""good_move"",7159.8,2741.2,2386.5,4418.6,354.7,""oops"",""down"",""down"",""good_move"",10362,3201.7,2922.4,7160.3,279.3,""smooth"",""down"",""down"",""good_move"",13054.4,2691.8,2324,10362.6,367.8,""smooth"",""right"",""right"",""good_move"",16208.7,3153.9,2705.4,13054.8,448.5,""smooth"",""right"",""right"",""good_move""]","",""
"3186","","<div style=""width:500px;"">
  <p>What determined the result of this run?</p>
  </div>","11","html-slider-response","70","904672","0.0-5.0-1.12","295","1","2025-07-30 16:08:27","1f75c3e559b7213887762d5229550c2b","169.1.3.252","Mozilla/5.0 (Windows NT 10.0; Win64; x64) AppleWebKit/537.36 (KHTML, like Gecko) Chrome/138.0.0.0 Safari/537.36","WebKit","Chrome","138.0.0.0","Windows","10.0","https://app.prolific.com/","en-US,en;q=0.9","60aad516e34718d318bfb44d","6877631c9844ddd5501205fc","688a43615c5547ae4c54edba","3","1","60aad516e34718d318bfb44d","3","1","2025-07-30T16:23:33.799Z","","","","","","","","","","","AttribQ","","50","","","","","","","","","","","","","","","","","","","","","","","","","","","","",""
"5788","","<div style=""width:500px;"">
  <p>How much control did you have over the ball?</p>
  </div>","74","html-slider-response","71","910461","0.0-5.0-2.12","295","1","2025-07-30 16:08:27","1f75c3e559b7213887762d5229550c2b","169.1.3.252","Mozilla/5.0 (Windows NT 10.0; Win64; x64) AppleWebKit/537.36 (KHTML, like Gecko) Chrome/138.0.0.0 Safari/537.36","WebKit","Chrome","138.0.0.0","Windows","10.0","https://app.prolific.com/","en-US,en;q=0.9","60aad516e34718d318bfb44d","6877631c9844ddd5501205fc","688a43615c5547ae4c54edba","3","1","60aad516e34718d318bfb44d","3","1","2025-07-30T16:23:39.588Z","","","","","","","","","","","ControlQ","","50","","","","","","","","","","","","","","","","","","","","","","","","","","","","",""
"4881","","<div style=""width:500px;"">
  <p>How would you describe your current emotional state?</p>
  </div>","73","html-slider-response","72","915343","0.0-5.0-3.12","295","1","2025-07-30 16:08:27","1f75c3e559b7213887762d5229550c2b","169.1.3.252","Mozilla/5.0 (Windows NT 10.0; Win64; x64) AppleWebKit/537.36 (KHTML, like Gecko) Chrome/138.0.0.0 Safari/537.36","WebKit","Chrome","138.0.0.0","Windows","10.0","https://app.prolific.com/","en-US,en;q=0.9","60aad516e34718d318bfb44d","6877631c9844ddd5501205fc","688a43615c5547ae4c54edba","3","1","60aad516e34718d318bfb44d","3","1","2025-07-30T16:23:44.470Z","","","","","","","","","","","StressQ","","50","","","","","","","","","","","","","","","","","","","","","","","","","","","","",""
"8078","","<div style=""width:500px;"">
  <p>What best describes how you currently feel?</p>
  </div>","31","html-slider-response","73","923422","0.0-5.0-4.12","295","1","2025-07-30 16:08:27","1f75c3e559b7213887762d5229550c2b","169.1.3.252","Mozilla/5.0 (Windows NT 10.0; Win64; x64) AppleWebKit/537.36 (KHTML, like Gecko) Chrome/138.0.0.0 Safari/537.36","WebKit","Chrome","138.0.0.0","Windows","10.0","https://app.prolific.com/","en-US,en;q=0.9","60aad516e34718d318bfb44d","6877631c9844ddd5501205fc","688a43615c5547ae4c54edba","3","1","60aad516e34718d318bfb44d","3","1","2025-07-30T16:23:52.549Z","","","","","","","","","","","MotivationQ","","50","","","","","","","","","","","","","","","","","","","","","","","","","","","","",""
"","","","","ctl-task-cpt","74","969628","0.0-5.0-0.13","295","1","2025-07-30 16:08:27","1f75c3e559b7213887762d5229550c2b","169.1.3.252","Mozilla/5.0 (Windows NT 10.0; Win64; x64) AppleWebKit/537.36 (KHTML, like Gecko) Chrome/138.0.0.0 Safari/537.36","WebKit","Chrome","138.0.0.0","Windows","10.0","https://app.prolific.com/","en-US,en;q=0.9","60aad516e34718d318bfb44d","6877631c9844ddd5501205fc","688a43615c5547ae4c54edba","3","1","60aad516e34718d318bfb44d","3","1","2025-07-30T16:24:38.755Z","","","","","","","","","","","","","","win-only","3","g1:SW,g2:NE","0.8","14","0","925559.4","3657.7","8661.3","43186","1","4","4","6","2","4","4","12","8","0.09090909090909091","818.1","3000","25","[""up"",""right""]","{""num_key_presses"":8,""num_perfect"":7,""num_errors"":0,""num_randdir"":1,""num_randdir_good_moves"":0,""num_whilered"":0,""num_whileblue"":0,""num_blue"":4,""num_good_moves"":7}","[417.8214133126395,415.32142761775424,0.3,417.8214133126395,414.07142761775424,102.6,417.8214133126395,416.57142761775424,208.4,467.8214133126395,440.32142761775424,314.4,484.0714133126395,401.57142761775424,414.6,664.0714133126395,190.32142761775424,518.7,719.0714133126395,129.07142761775424,619.8,746.5714133126395,100.32142761775425,722.9,747.8214133126395,95.32142761775425,824.4,747.8214133126395,95.32142761775425,928.6,766.5714133126395,109.07142761775425,1033.8,766.5714133126395,110.32142761775425,1138.9,766.5714133126395,111.57142761775425,1244.1,766.5714133126395,111.57142761775425,1348.4,766.5714133126395,111.57142761775425,1448.5,766.5714133126395,111.57142761775425,1548.7,766.5714133126395,111.57142761775425,1654.2,766.5714133126395,111.57142761775425,1757.9,766.5714133126395,111.57142761775425,1864.9,766.5714133126395,111.57142761775425,1968.3,766.5714133126395,111.57142761775425,2073.7,766.5714133126395,111.57142761775425,2178.4,766.5714133126395,111.57142761775425,2283.4,766.5714133126395,111.57142761775425,2387.6,766.5714133126395,111.57142761775425,2488,766.5714133126395,111.57142761775425,2588.7,766.5714133126395,111.57142761775425,2692.6,766.5714133126395,111.57142761775425,2793.7,766.5714133126395,111.57142761775425,2893.9,766.5714133126395,111.57142761775425,2994.3,766.5714133126395,111.57142761775425,3097.7,766.5714133126395,111.57142761775425,3198.8,766.5714133126395,111.57142761775425,3303.8,766.5714133126395,111.57142761775425,3408,766.5714133126395,111.57142761775425,3514.5,766.5714133126395,111.57142761775425,3618.7,766.5714133126395,111.57142761775425,3722.5,766.5714133126395,111.57142761775425,3822.8,766.5714133126395,111.57142761775425,3924.4,766.5714133126395,111.57142761775425,4024.5,766.5714133126395,111.57142761775425,4128.5,766.5714133126395,111.57142761775425,4233.2,766.5714133126395,111.57142761775425,4333.7,766.5714133126395,111.57142761775425,4434.5,766.5714133126395,111.57142761775425,4537.5,766.5714133126395,111.57142761775425,4637.9,766.5714133126395,111.57142761775425,4743.1,766.5714133126395,111.57142761775425,4843.6,766.5714133126395,111.57142761775425,4948.5]","[1485.8,1485.8,1000,0,485.8,""smooth"",""up"",""up"",""good_move"",4570.4,3084.2,2718.4,1486.2,365.8,""smooth"",""up"",""up"",""good_move"",10196.4,5625.8,1662.1,8174.5,359.8,""oops"",""up"",""down"",""bad_move"",12582.2,2385.4,1811.6,10196.9,573.7,""smooth"",""up"",""up"",""good_move"",19224.1,6641.8,2590.9,16249.5,383.7,""smooth"",""right"",""right"",""good_move"",29012.1,9787.5,3133.1,25521,358,""smooth"",""right"",""right"",""good_move"",32487.9,3475.6,3186.9,29012.3,288.7,""smooth"",""right"",""right"",""good_move"",34440.1,1951.9,1700.1,32488.2,251.8,""smooth"",""up"",""up"",""good_move""]","",""
"5867","","<div style=""width:500px;"">
  <p>What determined the result of this run?</p>
  </div>","69","html-slider-response","75","975496","0.0-5.0-1.13","295","1","2025-07-30 16:08:27","1f75c3e559b7213887762d5229550c2b","169.1.3.252","Mozilla/5.0 (Windows NT 10.0; Win64; x64) AppleWebKit/537.36 (KHTML, like Gecko) Chrome/138.0.0.0 Safari/537.36","WebKit","Chrome","138.0.0.0","Windows","10.0","https://app.prolific.com/","en-US,en;q=0.9","60aad516e34718d318bfb44d","6877631c9844ddd5501205fc","688a43615c5547ae4c54edba","3","1","60aad516e34718d318bfb44d","3","1","2025-07-30T16:24:44.623Z","","","","","","","","","","","AttribQ","","50","","","","","","","","","","","","","","","","","","","","","","","","","","","","",""
"6838","","<div style=""width:500px;"">
  <p>How much control did you have over the ball?</p>
  </div>","79","html-slider-response","76","982336","0.0-5.0-2.13","295","1","2025-07-30 16:08:27","1f75c3e559b7213887762d5229550c2b","169.1.3.252","Mozilla/5.0 (Windows NT 10.0; Win64; x64) AppleWebKit/537.36 (KHTML, like Gecko) Chrome/138.0.0.0 Safari/537.36","WebKit","Chrome","138.0.0.0","Windows","10.0","https://app.prolific.com/","en-US,en;q=0.9","60aad516e34718d318bfb44d","6877631c9844ddd5501205fc","688a43615c5547ae4c54edba","3","1","60aad516e34718d318bfb44d","3","1","2025-07-30T16:24:51.463Z","","","","","","","","","","","ControlQ","","50","","","","","","","","","","","","","","","","","","","","","","","","","","","","",""
"5332","","<div style=""width:500px;"">
  <p>How would you describe your current emotional state?</p>
  </div>","79","html-slider-response","77","987669","0.0-5.0-3.13","295","1","2025-07-30 16:08:27","1f75c3e559b7213887762d5229550c2b","169.1.3.252","Mozilla/5.0 (Windows NT 10.0; Win64; x64) AppleWebKit/537.36 (KHTML, like Gecko) Chrome/138.0.0.0 Safari/537.36","WebKit","Chrome","138.0.0.0","Windows","10.0","https://app.prolific.com/","en-US,en;q=0.9","60aad516e34718d318bfb44d","6877631c9844ddd5501205fc","688a43615c5547ae4c54edba","3","1","60aad516e34718d318bfb44d","3","1","2025-07-30T16:24:56.796Z","","","","","","","","","","","StressQ","","50","","","","","","","","","","","","","","","","","","","","","","","","","","","","",""
"3906","","<div style=""width:500px;"">
  <p>What best describes how you currently feel?</p>
